time,latitude,longitude,enu_x,enu_y,speed,course,Hrage,accX,accY,accZ,gyrX,gyrY,gyrZ,eulR,eulP,eulY
3783900,36.0130565,129.320148,139.55037829162137,72.84584725691384,1.2000000000000002,232.0,123.0,-1.515625,3.9140625,-0.26171875,0.1015625,0.26953125,-0.27734375,0.0,180.0,360.0
3783901,,,,,,,,-1.515625,3.9140625,-0.26171875,0.1015625,0.26953125,-0.27734375,0.0,180.0,360.0
3783902,,,,,,,,-1.80078125,3.4375,-0.59375,0.1015625,0.26953125,-0.27734375,0.0,180.0,360.0
3783903,,,,,,,,-1.80078125,3.4375,-0.59375,-0.16796875,-0.14453125,-0.103515625,0.0,180.0,360.0
3783904,,,,,,,,-1.80078125,3.4375,-0.59375,-0.193359375,-0.2421875,-0.109375,0.0,180.0,360.0
3783905,,,,,,,,-1.3359375,-0.77734375,-0.09375,-0.193359375,-0.2421875,-0.109375,0.0,180.0,360.0
3783906,,,,,,,,-1.3359375,-0.77734375,-0.09375,-0.193359375,-0.2421875,-0.109375,0.0,180.0,360.0
3783907,,,,,,,,-1.3359375,-0.77734375,-0.09375,-0.330078125,-0.248046875,-0.10546875,0.0,180.0,360.0
3783908,,,,,,,,-0.5703125,-0.77734375,-0.5234375,-0.330078125,-0.248046875,-0.10546875,0.0,180.0,360.0
3783909,,,,,,,,-0.5703125,-0.77734375,-0.5234375,-0.369140625,-0.13671875,-0.109375,0.0,180.0,360.0
3783910,36.013058666666666,129.32014716666666,139.47525045460262,73.08625775640493,1.1,233.0,,-0.1796875,-0.578125,-0.64453125,-0.369140625,-0.13671875,-0.109375,0.0,180.0,360.0
3783911,,,,,,,,-0.1796875,-0.578125,-0.64453125,-0.455078125,0.041015625,-0.09765625,0.0,180.0,360.0
3783912,,,,,,,,-0.47265625,0.6171875,-0.6875,-0.455078125,0.041015625,-0.09765625,0.0,180.0,360.0
3783913,,,,,,,,-0.47265625,0.6171875,-0.6875,-1.048828125,-0.3359375,0.05078125,0.0,180.0,360.0
3783914,,,,,,,,-1.28515625,0.96875,-0.109375,-1.048828125,-0.3359375,0.05078125,0.0,180.0,360.0
3783915,,,,,,,,-1.28515625,0.96875,-0.109375,-1.025390625,-0.72265625,0.05078125,0.0,180.0,360.0
3783916,,,,,,,,-1.28515625,0.96875,-0.109375,-1.025390625,-0.72265625,0.05078125,0.0,180.0,360.0
3783917,,,,,,,,-1.28515625,0.96875,-0.109375,-0.283203125,-0.328125,-0.1328125,0.0,180.0,360.0
3783918,,,,,,,,3.51953125,-4.4140625,3.93359375,-0.283203125,-0.328125,-0.1328125,0.0,180.0,360.0
3783919,,,,,,,,3.51953125,-4.4140625,3.93359375,0.3828125,-0.03125,-0.287109375,0.0,180.0,360.0
3783920,36.01305933333333,129.320146,139.37007565658436,73.16022891597707,1.3,236.0,,1.08203125,-3.51171875,3.86328125,0.3828125,-0.03125,-0.287109375,0.0,180.0,360.0
3783921,,,,,,,,1.08203125,-3.51171875,3.86328125,0.494140625,-0.181640625,-0.138671875,0.0,180.0,360.0
3783922,,,,,,,,1.08203125,-3.51171875,3.86328125,0.666015625,-0.19921875,0.02734375,0.0,180.0,360.0
3783923,,,,,,,,0.24609375,-3.2578125,3.37890625,0.666015625,-0.19921875,0.02734375,0.0,180.0,360.0
3783924,,,,,,,,0.24609375,-3.2578125,3.37890625,0.1953125,-0.587890625,0.27734375,0.0,180.0,360.0
3783925,,,,,,,,0.29296875,-1.16015625,2.15625,0.1953125,-0.587890625,0.27734375,0.0,180.0,360.0
3783926,,,,,,,,0.29296875,-1.16015625,2.15625,0.16015625,-0.58984375,0.380859375,0.0,180.0,360.0
3783927,,,,,,,,1.25390625,-1.6796875,1.4765625,0.16015625,-0.58984375,0.380859375,0.0,180.0,360.0
3783928,,,,,,,,1.25390625,-1.6796875,1.4765625,0.349609375,-0.4296875,0.3828125,0.0,180.0,360.0
3783929,,,,,,,,1.25390625,-1.6796875,1.4765625,0.4921875,-0.3671875,0.359375,0.0,180.0,360.0
3783930,36.01306016666667,129.3201451666667,139.29495017741618,73.25269376123988,1.3,239.0,,0.76171875,0.7109375,0.29296875,0.4921875,-0.3671875,0.359375,0.0,180.0,360.0
3783931,,,,,,,,0.76171875,0.7109375,0.29296875,0.509765625,-0.291015625,0.330078125,0.0,180.0,360.0
3783932,,,,,,,,0.6640625,1.9296875,-0.57421875,0.509765625,-0.291015625,0.330078125,0.0,180.0,360.0
3783933,,,,,,,,0.6640625,1.9296875,-0.57421875,0.4140625,-0.23828125,0.326171875,0.0,180.0,360.0
3783934,,,,,,,,0.55859375,2.91796875,-1.08984375,0.4140625,-0.23828125,0.326171875,0.0,180.0,360.0
3783935,,,,,,,,0.55859375,2.91796875,-1.08984375,0.376953125,-0.11328125,0.283203125,0.0,180.0,360.0
3783936,,,,,,,,0.8984375,4.06640625,-1.359375,0.376953125,-0.11328125,0.283203125,0.0,180.0,360.0
3783937,,,,,,,,0.8984375,4.06640625,-1.359375,0.359375,0.029296875,0.23046875,0.0,180.0,360.0
3783938,,,,,,,,0.8984375,4.06640625,-1.359375,0.359375,0.029296875,0.23046875,0.0,180.0,360.0
3783939,,,,,,,,0.8984375,4.06640625,-1.359375,0.341796875,0.138671875,0.16796875,0.0,180.0,360.0
3783940,36.013060333333335,129.3201445,139.23485066856557,73.27118601556664,1.2000000000000002,240.0,,1.60546875,3.734375,-1.24609375,0.341796875,0.138671875,0.16796875,0.0,180.0,360.0
3783941,,,,,,,,1.60546875,3.734375,-1.24609375,0.3359375,0.240234375,0.08984375,0.0,180.0,360.0
3783942,,,,,,,,1.60546875,3.734375,-1.24609375,0.361328125,0.31640625,0.0234375,0.0,180.0,360.0
3783943,,,,,,,,1.09765625,3.25390625,-1.1640625,0.361328125,0.31640625,0.0234375,0.0,180.0,360.0
3783944,,,,,,,,1.09765625,3.25390625,-1.1640625,0.361328125,0.37109375,-0.021484375,0.0,180.0,360.0
3783945,,,,,,,,1.10546875,2.921875,-1.12890625,0.361328125,0.37109375,-0.021484375,0.0,180.0,360.0
3783946,,,,,,,,1.10546875,2.921875,-1.12890625,0.349609375,0.408203125,-0.041015625,0.0,180.0,360.0
3783947,,,,,,,,1.16015625,1.703125,-0.78515625,0.349609375,0.408203125,-0.041015625,0.0,180.0,360.0
3783948,,,,,,,,1.16015625,1.703125,-0.78515625,0.291015625,0.419921875,-0.013671875,0.0,180.0,360.0
3783949,,,,,,,,1.16015625,1.703125,-0.78515625,0.13671875,0.400390625,0.048828125,0.0,180.0,360.0
3783950,36.013060333333335,129.3201435,139.1447018492226,73.27118458685659,1.3,242.0,,0.9453125,0.6015625,-0.4140625,0.13671875,0.400390625,0.048828125,0.0,180.0,360.0
3783951,,,,,,,,0.9453125,0.6015625,-0.4140625,0.060546875,0.390625,0.087890625,0.0,180.0,360.0
3783952,,,,,,,,1.16796875,-0.203125,-0.16796875,0.060546875,0.390625,0.087890625,0.0,180.0,360.0
3783953,,,,,,,,1.16796875,-0.203125,-0.16796875,-0.029296875,0.322265625,0.1015625,0.0,180.0,360.0
3783954,,,,,,,,1.0859375,-0.83203125,-0.078125,-0.029296875,0.322265625,0.1015625,0.0,180.0,360.0
3783955,,,,,,,,1.0859375,-0.83203125,-0.078125,-0.15625,0.23046875,0.111328125,0.0,180.0,360.0
3783956,,,,,,,,1.0,-2.6328125,0.32421875,-0.15625,0.23046875,0.111328125,0.0,180.0,360.0
3783957,,,,,,,,1.0,-2.6328125,0.32421875,-0.03515625,0.255859375,0.099609375,0.0,180.0,360.0
3783958,,,,,,,,0.7734375,-0.2890625,0.60546875,-0.03515625,0.255859375,0.099609375,0.0,180.0,360.0
3783959,,,,,,,,0.7734375,-0.2890625,0.60546875,-0.326171875,0.21484375,0.15234375,0.0,180.0,360.0
3783960,36.01305983333334,129.32014266666664,139.06957871161495,73.21570377503798,1.3,237.0,,0.7734375,-0.2890625,0.60546875,-0.81640625,0.09765625,0.1953125,0.0,180.0,360.0
3783961,,,,,,,,1.31640625,0.04296875,-0.43359375,-0.81640625,0.09765625,0.1953125,0.0,180.0,360.0
3783962,,,,,,,,1.31640625,0.04296875,-0.43359375,-0.646484375,0.123046875,0.15625,0.0,180.0,360.0
3783963,,,,,,,,-0.26171875,-3.48046875,2.12890625,-0.646484375,0.123046875,0.15625,0.0,180.0,360.0
3783964,,,,,,,,-0.26171875,-3.48046875,2.12890625,-0.36328125,-0.123046875,0.2421875,0.0,180.0,360.0
3783965,,,,,,,,-1.5703125,-2.00390625,3.71484375,-0.36328125,-0.123046875,0.2421875,0.0,180.0,360.0
3783966,,,,,,,,-1.5703125,-2.00390625,3.71484375,-0.078125,-0.076171875,0.298828125,0.0,180.0,360.0
3783967,,,,,,,,-2.03515625,-2.24609375,3.6953125,-0.078125,-0.076171875,0.298828125,0.0,180.0,360.0
3783968,,,,,,,,-2.03515625,-2.24609375,3.6953125,-0.078125,-0.041015625,0.291015625,0.0,180.0,360.0
3783969,,,,,,,,-2.03515625,-2.24609375,3.6953125,0.03515625,0.03515625,0.177734375,0.0,180.0,360.0
3783970,36.013059500000004,129.32014216666667,139.02450488830115,73.1787166480101,1.3,230.0,,0.44140625,-2.8515625,3.77734375,0.03515625,0.03515625,0.177734375,0.0,180.0,360.0
3783971,,,,,,,,0.44140625,-2.8515625,3.77734375,0.125,-0.048828125,-0.005859375,0.0,180.0,360.0
3783972,,,,,,,,0.08203125,-1.85546875,3.74609375,0.125,-0.048828125,-0.005859375,0.0,180.0,360.0
3783973,,,,,,,,0.08203125,-1.85546875,3.74609375,-0.015625,-0.125,-0.10546875,0.0,180.0,360.0
3783974,,,,,,,,-0.28125,-0.9765625,2.88671875,-0.015625,-0.125,-0.10546875,0.0,180.0,360.0
3783975,,,,,,,,-0.28125,-0.9765625,2.88671875,0.017578125,-0.14453125,-0.171875,0.0,180.0,360.0
3783976,,,,,,,,-0.38671875,-1.2421875,1.9609375,0.017578125,-0.14453125,-0.171875,0.0,180.0,360.0
3783977,,,,,,,,-0.38671875,-1.2421875,1.9609375,0.09375,-0.158203125,-0.23828125,0.0,180.0,360.0
3783978,,,,,,,,-0.07421875,0.6328125,0.4375,0.09375,-0.158203125,-0.23828125,0.0,180.0,360.0
3783979,,,,,,,,-0.07421875,0.6328125,0.4375,0.123046875,-0.216796875,-0.279296875,0.0,180.0,360.0
3783980,36.013059,129.3201413333333,138.9493817484016,73.1232358376263,1.3,226.0,,-0.07421875,0.6328125,0.4375,0.16015625,-0.28125,-0.29296875,0.0,180.0,360.0
3783981,,,,,,,,-0.0546875,1.58203125,-0.109375,0.16015625,-0.28125,-0.29296875,0.0,180.0,360.0
3783982,,,,,,,,-0.0546875,1.58203125,-0.109375,0.228515625,-0.3203125,-0.28515625,0.0,180.0,360.0
3783983,,,,,,,,-0.125,3.18359375,-0.76953125,0.228515625,-0.3203125,-0.28515625,0.0,180.0,360.0
3783984,,,,,,,,-0.125,3.18359375,-0.76953125,0.251953125,-0.326171875,-0.236328125,0.0,180.0,360.0
3783985,,,,,,,,-0.234375,3.58984375,-1.08203125,0.251953125,-0.326171875,-0.236328125,0.0,180.0,360.0
3783986,,,,,,,,-0.234375,3.58984375,-1.08203125,0.291015625,-0.298828125,-0.18359375,0.0,180.0,360.0
3783987,,,,,,,,-0.88671875,3.4140625,-1.19921875,0.291015625,-0.298828125,-0.18359375,0.0,180.0,360.0
3783988,,,,,,,,-0.88671875,3.4140625,-1.19921875,0.33203125,-0.296875,-0.125,0.0,180.0,360.0
3783989,,,,,,,,-0.88671875,3.4140625,-1.19921875,0.333984375,-0.32421875,-0.0546875,0.0,180.0,360.0
3783990,36.01305833333333,129.3201395,138.78411008105556,73.0492603965409,1.3,234.0,,-1.5234375,3.375,-1.0625,0.333984375,-0.32421875,-0.0546875,0.0,180.0,360.0
3783991,,,,,,,,-1.5234375,3.375,-1.0625,0.326171875,-0.369140625,-0.01171875,0.0,180.0,360.0
3783992,,,,,,,,-1.5859375,3.12890625,-1.1640625,0.326171875,-0.369140625,-0.01171875,0.0,180.0,360.0
3783993,,,,,,,,-1.5859375,3.12890625,-1.1640625,0.29296875,-0.369140625,0.005859375,0.0,180.0,360.0
3783994,,,,,,,,-1.40234375,2.875,-1.265625,0.29296875,-0.369140625,0.005859375,0.0,180.0,360.0
3783995,,,,,,,,-1.40234375,2.875,-1.265625,0.212890625,-0.33984375,0.0078125,0.0,180.0,360.0
3783996,,,,,,,,-0.96484375,2.62109375,-1.2265625,0.212890625,-0.33984375,0.0078125,0.0,180.0,360.0
3783997,,,,,,,,-0.96484375,2.62109375,-1.2265625,0.150390625,-0.2890625,-0.01953125,0.0,180.0,360.0
3783998,,,,,,,,-0.96484375,2.62109375,-1.2265625,0.150390625,-0.2890625,-0.01953125,0.0,180.0,360.0
3783999,,,,,,,,-0.96484375,2.62109375,-1.2265625,0.189453125,-0.2265625,-0.09375,0.0,180.0,360.0
3784000,36.01305833333333,129.32013783333332,138.63386204433635,73.04925802423946,1.2000000000000002,231.0,123.0,-0.96484375,2.62109375,-1.2265625,0.189453125,-0.2265625,-0.09375,0.0,180.0,360.0
3784001,,,,,,,,-0.96484375,2.62109375,-1.2265625,0.189453125,-0.2265625,-0.09375,0.0,180.0,360.0
3784002,,,,,,,,0.7265625,-0.328125,1.28515625,0.26953125,0.251953125,0.3046875,0.0,180.0,360.0
3784003,,,,,,,,-0.28515625,0.0234375,1.15625,0.26953125,0.251953125,0.3046875,0.0,180.0,360.0
3784004,,,,,,,,-0.28515625,0.0234375,1.15625,0.294921875,0.19140625,0.3125,0.0,180.0,360.0
3784005,,,,,,,,-0.56640625,2.4765625,-0.32421875,0.294921875,0.19140625,0.3125,0.0,180.0,360.0
3784006,,,,,,,,-0.56640625,2.4765625,-0.32421875,0.23828125,0.15625,0.34765625,0.0,180.0,360.0
3784007,,,,,,,,-0.45703125,3.203125,-0.75390625,0.23828125,0.15625,0.34765625,0.0,180.0,360.0
3784008,,,,,,,,-0.45703125,3.203125,-0.75390625,0.173828125,0.150390625,0.380859375,0.0,180.0,360.0
3784009,,,,,,,,-0.45703125,3.203125,-0.75390625,0.115234375,0.166015625,0.34375,0.0,180.0,360.0
3784010,36.013057499999995,129.32013533333333,138.40849144944508,72.95678843458175,1.3,235.0,,0.30078125,3.703125,-1.1640625,0.115234375,0.166015625,0.34375,0.0,180.0,360.0
3784011,,,,,,,,0.30078125,3.703125,-1.1640625,0.166015625,0.208984375,0.240234375,0.0,180.0,360.0
3784012,,,,,,,,0.91015625,3.85546875,-1.34765625,0.166015625,0.208984375,0.240234375,0.0,180.0,360.0
3784013,,,,,,,,0.91015625,3.85546875,-1.34765625,0.1484375,0.279296875,0.109375,0.0,180.0,360.0
3784014,,,,,,,,1.21484375,3.80859375,-1.65625,0.1484375,0.279296875,0.109375,0.0,180.0,360.0
3784015,,,,,,,,1.21484375,3.80859375,-1.65625,0.11328125,0.392578125,-0.015625,0.0,180.0,360.0
3784016,,,,,,,,1.21484375,3.80859375,-1.65625,0.11328125,0.392578125,-0.015625,0.0,180.0,360.0
3784017,,,,,,,,1.21484375,3.80859375,-1.65625,0.125,0.439453125,-0.08984375,0.0,180.0,360.0
3784018,,,,,,,,0.44921875,2.359375,-0.90625,0.125,0.439453125,-0.08984375,0.0,180.0,360.0
3784019,,,,,,,,0.44921875,2.359375,-0.90625,0.240234375,0.431640625,-0.115234375,0.0,180.0,360.0
3784020,36.01305716666666,129.32013333333333,138.22819438833506,72.91979918103598,1.2000000000000002,237.0,,0.44921875,2.359375,-0.90625,0.267578125,0.416015625,-0.080078125,0.0,180.0,360.0
3784021,,,,,,,,0.44921875,2.18359375,-0.984375,0.267578125,0.416015625,-0.080078125,0.0,180.0,360.0
3784022,,,,,,,,0.44921875,2.18359375,-0.984375,0.1640625,0.39453125,-0.03515625,0.0,180.0,360.0
3784023,,,,,,,,0.23046875,0.46875,-1.14453125,0.1640625,0.39453125,-0.03515625,0.0,180.0,360.0
3784024,,,,,,,,0.23046875,0.46875,-1.14453125,0.15234375,0.26171875,0.03125,0.0,180.0,360.0
3784025,,,,,,,,0.04296875,-0.5,-0.34375,0.15234375,0.26171875,0.03125,0.0,180.0,360.0
3784026,,,,,,,,0.04296875,-0.5,-0.34375,0.22265625,0.193359375,0.0859375,0.0,180.0,360.0
3784027,,,,,,,,0.54296875,-0.90625,0.1328125,0.22265625,0.193359375,0.0859375,0.0,180.0,360.0
3784028,,,,,,,,0.54296875,-0.90625,0.1328125,0.1796875,0.076171875,0.169921875,0.0,180.0,360.0
3784029,,,,,,,,0.54296875,-0.90625,0.1328125,0.080078125,-0.001953125,0.224609375,0.0,180.0,360.0
3784030,36.01305716666666,129.32013266666667,138.16809517289045,72.91979823580657,1.2000000000000002,232.0,,0.55078125,-1.9609375,-0.15234375,0.080078125,-0.001953125,0.224609375,0.0,180.0,360.0
3784031,,,,,,,,0.55078125,-1.9609375,-0.15234375,0.015625,0.001953125,0.275390625,0.0,180.0,360.0
3784032,,,,,,,,0.40625,-1.83984375,0.0703125,0.015625,0.001953125,0.275390625,0.0,180.0,360.0
3784033,,,,,,,,0.40625,-1.83984375,0.0703125,-0.34375,-0.005859375,0.3671875,0.0,180.0,360.0
3784034,,,,,,,,0.453125,-0.19140625,0.0078125,-0.34375,-0.005859375,0.3671875,0.0,180.0,360.0
3784035,,,,,,,,0.453125,-0.19140625,0.0078125,-0.34375,-0.005859375,0.3671875,0.0,180.0,360.0
3784036,,,,,,,,0.453125,-0.19140625,0.0078125,-0.775390625,-0.015625,0.306640625,0.0,180.0,360.0
3784037,,,,,,,,-0.02734375,-3.5859375,1.93359375,-0.775390625,-0.015625,0.306640625,0.0,180.0,360.0
3784038,,,,,,,,-0.02734375,-3.5859375,1.93359375,-0.263671875,-0.359375,0.248046875,0.0,180.0,360.0
3784039,,,,,,,,-1.15234375,-4.2265625,4.21484375,-0.263671875,-0.359375,0.248046875,0.0,180.0,360.0
3784040,36.013057,129.320132,138.10799624963397,72.90130408452947,1.4000000000000001,228.0,,-1.15234375,-4.2265625,4.21484375,0.298828125,-0.1953125,0.212890625,0.0,180.0,360.0
3784041,,,,,,,,-2.1640625,-4.3359375,4.13671875,0.298828125,-0.1953125,0.212890625,0.0,180.0,360.0
3784042,,,,,,,,-2.1640625,-4.3359375,4.13671875,-0.08984375,-0.1171875,0.216796875,0.0,180.0,360.0
3784043,,,,,,,,-0.25390625,-1.81640625,2.25,-0.08984375,-0.1171875,0.216796875,0.0,180.0,360.0
3784044,,,,,,,,-0.25390625,-1.81640625,2.25,0.029296875,0.259765625,-0.001953125,0.0,180.0,360.0
3784045,,,,,,,,2.11328125,-2.6796875,3.26171875,0.029296875,0.259765625,-0.001953125,0.0,180.0,360.0
3784046,,,,,,,,2.11328125,-2.6796875,3.26171875,0.197265625,0.111328125,-0.314453125,0.0,180.0,360.0
3784047,,,,,,,,-0.20703125,-0.3984375,1.7890625,0.197265625,0.111328125,-0.314453125,0.0,180.0,360.0
3784048,,,,,,,,-0.20703125,-0.3984375,1.7890625,-0.099609375,-0.0390625,-0.3984375,0.0,180.0,360.0
3784049,,,,,,,,-0.20703125,-0.3984375,1.7890625,-0.02734375,0.0546875,-0.404296875,0.0,180.0,360.0
3784050,36.0130565,129.3201315,138.06292270901136,72.84582375409835,1.3,225.0,,-0.25,-0.734375,1.33984375,-0.02734375,0.0546875,-0.404296875,0.0,180.0,360.0
3784051,,,,,,,,-0.25,-0.734375,1.33984375,0.013671875,0.119140625,-0.37109375,0.0,180.0,360.0
3784052,,,,,,,,-0.28125,0.21484375,0.640625,0.013671875,0.119140625,-0.37109375,0.0,180.0,360.0
3784053,,,,,,,,-0.28125,0.21484375,0.640625,-0.009765625,0.103515625,-0.3671875,0.0,180.0,360.0
3784054,,,,,,,,-0.2265625,1.01953125,0.05859375,-0.009765625,0.103515625,-0.3671875,0.0,180.0,360.0
3784055,,,,,,,,-0.2265625,1.01953125,0.05859375,-0.009765625,0.103515625,-0.3671875,0.0,180.0,360.0
3784056,,,,,,,,-0.2265625,1.01953125,0.05859375,0.04296875,0.087890625,-0.390625,0.0,180.0,360.0
3784057,,,,,,,,-0.4453125,2.890625,-0.84375,0.04296875,0.087890625,-0.390625,0.0,180.0,360.0
3784058,,,,,,,,-0.4453125,2.890625,-0.84375,0.126953125,0.0859375,-0.365234375,0.0,180.0,360.0
3784059,,,,,,,,-0.66015625,3.36328125,-1.14453125,0.126953125,0.0859375,-0.365234375,0.0,180.0,360.0
3784060,36.0130565,129.32013066666664,137.98779868898592,72.84582257388138,1.2000000000000002,231.0,,-0.66015625,3.36328125,-1.14453125,0.107421875,0.107421875,-0.326171875,0.0,180.0,360.0
3784061,,,,,,,,-0.9921875,3.5390625,-1.328125,0.107421875,0.107421875,-0.326171875,0.0,180.0,360.0
3784062,,,,,,,,-0.9921875,3.5390625,-1.328125,0.12890625,0.044921875,-0.255859375,0.0,180.0,360.0
3784063,,,,,,,,-1.95703125,3.0625,-1.12109375,0.12890625,0.044921875,-0.255859375,0.0,180.0,360.0
3784064,,,,,,,,-1.95703125,3.0625,-1.12109375,0.09375,-0.02734375,-0.166015625,0.0,180.0,360.0
3784065,,,,,,,,-1.96484375,2.78125,-1.34765625,0.09375,-0.02734375,-0.166015625,0.0,180.0,360.0
3784066,,,,,,,,-1.96484375,2.78125,-1.34765625,0.083984375,-0.08984375,-0.107421875,0.0,180.0,360.0
3784067,,,,,,,,-1.39453125,2.0390625,-0.984375,0.083984375,-0.08984375,-0.107421875,0.0,180.0,360.0
3784068,,,,,,,,-1.39453125,2.0390625,-0.984375,0.15625,-0.09765625,-0.09375,0.0,180.0,360.0
3784069,,,,,,,,-1.39453125,2.0390625,-0.984375,0.140625,-0.099609375,-0.08203125,0.0,180.0,360.0
3784070,36.01305683333333,129.32013,137.92769889450702,72.88280804355172,1.3,232.0,,-1.22265625,1.46875,-1.0625,0.140625,-0.099609375,-0.08203125,0.0,180.0,360.0
3784071,,,,,,,,-1.22265625,1.46875,-1.0625,0.056640625,-0.125,-0.052734375,0.0,180.0,360.0
3784072,,,,,,,,-1.046875,0.6953125,-1.0859375,0.056640625,-0.125,-0.052734375,0.0,180.0,360.0
3784073,,,,,,,,-1.046875,0.6953125,-1.0859375,0.060546875,-0.091796875,-0.08203125,0.0,180.0,360.0
3784074,,,,,,,,-0.796875,-0.15625,-0.671875,0.060546875,-0.091796875,-0.08203125,0.0,180.0,360.0
3784075,,,,,,,,-0.796875,-0.15625,-0.671875,0.0703125,-0.087890625,-0.126953125,0.0,180.0,360.0
3784076,,,,,,,,-0.828125,-0.90625,-0.14453125,0.0703125,-0.087890625,-0.126953125,0.0,180.0,360.0
3784077,,,,,,,,-0.828125,-0.90625,-0.14453125,0.015625,-0.103515625,-0.16015625,0.0,180.0,360.0
3784078,,,,,,,,-0.828125,-0.90625,-0.14453125,0.015625,-0.103515625,-0.16015625,0.0,180.0,360.0
3784079,,,,,,,,-0.828125,-0.90625,-0.14453125,-0.134765625,-0.08984375,-0.185546875,0.0,180.0,360.0
3784080,36.013057,129.320129,137.83754978275957,72.90129983698745,1.4000000000000001,230.0,,-0.21484375,-0.68359375,-0.734375,-0.134765625,-0.08984375,-0.185546875,0.0,180.0,360.0
3784081,,,,,,,,-0.21484375,-0.68359375,-0.734375,-0.291015625,-0.072265625,-0.201171875,0.0,180.0,360.0
3784082,,,,,,,,-0.21484375,-0.68359375,-0.734375,-0.453125,-0.0703125,-0.189453125,0.0,180.0,360.0
3784083,,,,,,,,-0.0703125,-0.1796875,-0.609375,-0.453125,-0.0703125,-0.189453125,0.0,180.0,360.0
3784084,,,,,,,,-0.0703125,-0.1796875,-0.609375,-0.916015625,-0.3515625,-0.029296875,0.0,180.0,360.0
3784085,,,,,,,,-1.40625,-0.578125,0.1796875,-0.916015625,-0.3515625,-0.029296875,0.0,180.0,360.0
3784086,,,,,,,,-1.40625,-0.578125,0.1796875,-0.931640625,-0.544921875,-0.01171875,0.0,180.0,360.0
3784087,,,,,,,,4.203125,-6.51171875,4.66015625,-0.931640625,-0.544921875,-0.01171875,0.0,180.0,360.0
3784088,,,,,,,,4.203125,-6.51171875,4.66015625,-0.166015625,0.158203125,-0.2734375,0.0,180.0,360.0
3784089,,,,,,,,4.203125,-6.51171875,4.66015625,-0.01953125,0.00390625,-0.322265625,0.0,180.0,360.0
3784090,36.013057499999995,129.32012799999998,137.74740008804594,72.95677804358623,1.3,233.0,,1.94921875,-0.765625,2.78515625,-0.01953125,0.00390625,-0.322265625,0.0,180.0,360.0
3784091,,,,,,,,1.94921875,-0.765625,2.78515625,0.37109375,-0.12109375,-0.140625,0.0,180.0,360.0
3784092,,,,,,,,0.5546875,-3.46484375,3.95703125,0.37109375,-0.12109375,-0.140625,0.0,180.0,360.0
3784093,,,,,,,,0.5546875,-3.46484375,3.95703125,0.6328125,-0.099609375,-0.021484375,0.0,180.0,360.0
3784094,,,,,,,,0.375,-4.8203125,3.81640625,0.6328125,-0.099609375,-0.021484375,0.0,180.0,360.0
3784095,,,,,,,,0.375,-4.8203125,3.81640625,0.4921875,-0.162109375,0.15625,0.0,180.0,360.0
3784096,,,,,,,,0.4921875,-2.734375,2.94140625,0.4921875,-0.162109375,0.15625,0.0,180.0,360.0
3784097,,,,,,,,0.4921875,-2.734375,2.94140625,0.2890625,-0.2734375,0.3359375,0.0,180.0,360.0
3784098,,,,,,,,0.4921875,-2.734375,2.94140625,0.2890625,-0.2734375,0.3359375,0.0,180.0,360.0
3784099,,,,,,,,0.4921875,-2.734375,2.94140625,0.17578125,-0.37890625,0.431640625,0.0,180.0,360.0
3784100,36.01305833333333,129.32012583333332,137.55207619225752,73.04924101921425,1.4000000000000001,237.0,123.0,0.1953125,-0.390625,0.90234375,0.17578125,-0.37890625,0.431640625,0.0,180.0,360.0
3784101,,,,,,,,0.1953125,-0.390625,0.90234375,0.17578125,-0.37890625,0.431640625,0.0,180.0,360.0
3784102,,,,,,,,0.1953125,-0.390625,0.90234375,0.134765625,-0.375,0.4765625,0.0,180.0,360.0
3784103,,,,,,,,0.1953125,-0.390625,0.90234375,0.146484375,0.02734375,0.2734375,0.0,180.0,360.0
3784104,,,,,,,,0.1953125,-0.390625,0.90234375,0.23046875,0.1875,0.142578125,0.0,180.0,360.0
3784105,,,,,,,,1.04296875,2.71875,-1.515625,0.23046875,0.1875,0.142578125,0.0,180.0,360.0
3784106,,,,,,,,1.04296875,2.71875,-1.515625,0.287109375,0.236328125,0.0703125,0.0,180.0,360.0
3784107,,,,,,,,0.91796875,2.20703125,-1.49609375,0.287109375,0.236328125,0.0703125,0.0,180.0,360.0
3784108,,,,,,,,0.91796875,2.20703125,-1.49609375,0.251953125,0.265625,0.017578125,0.0,180.0,360.0
3784109,,,,,,,,0.90625,1.80078125,-1.39453125,0.251953125,0.265625,0.017578125,0.0,180.0,360.0
3784110,36.01305850000001,129.32012433333333,137.41685267155373,73.06773210993765,1.2000000000000002,240.0,,0.90625,1.80078125,-1.39453125,0.21875,0.259765625,0.005859375,0.0,180.0,360.0
3784111,,,,,,,,0.8125,0.05859375,-0.80078125,0.21875,0.259765625,0.005859375,0.0,180.0,360.0
3784112,,,,,,,,0.8125,0.05859375,-0.80078125,0.21875,0.259765625,0.005859375,0.0,180.0,360.0
3784113,,,,,,,,0.8125,0.05859375,-0.80078125,0.2109375,0.24609375,0.03515625,0.0,180.0,360.0
3784114,,,,,,,,0.68359375,-0.8125,-0.234375,0.2109375,0.24609375,0.03515625,0.0,180.0,360.0
3784115,,,,,,,,0.68359375,-0.8125,-0.234375,0.162109375,0.171875,0.07421875,0.0,180.0,360.0
3784116,,,,,,,,0.68359375,-0.8125,-0.234375,0.029296875,0.11328125,0.12890625,0.0,180.0,360.0
3784117,,,,,,,,0.53125,-1.48046875,-0.46484375,0.029296875,0.11328125,0.12890625,0.0,180.0,360.0
3784118,,,,,,,,0.53125,-1.48046875,-0.46484375,-0.091796875,0.078125,0.171875,0.0,180.0,360.0
3784119,,,,,,,,0.5234375,-1.98046875,-0.3515625,-0.091796875,0.078125,0.171875,0.0,180.0,360.0
3784120,36.01305816666666,129.32012383333333,137.3717788407775,73.03074499030521,1.2000000000000002,232.0,,0.5234375,-1.98046875,-0.3515625,-0.23046875,0.09765625,0.185546875,0.0,180.0,360.0
3784121,,,,,,,,0.671875,-1.3203125,-0.14453125,-0.23046875,0.09765625,0.185546875,0.0,180.0,360.0
3784122,,,,,,,,0.671875,-1.3203125,-0.14453125,-0.6484375,0.068359375,0.19921875,0.0,180.0,360.0
3784123,,,,,,,,1.56640625,-1.12890625,-0.80078125,-0.6484375,0.068359375,0.19921875,0.0,180.0,360.0
3784124,,,,,,,,1.56640625,-1.12890625,-0.80078125,-0.8828125,0.0859375,0.1640625,0.0,180.0,360.0
3784125,,,,,,,,1.56640625,-1.12890625,-0.80078125,-0.58984375,-0.0546875,0.13671875,0.0,180.0,360.0
3784126,,,,,,,,-0.84375,-3.01171875,3.2109375,-0.58984375,-0.0546875,0.13671875,0.0,180.0,360.0
3784127,,,,,,,,-0.84375,-3.01171875,3.2109375,-0.3125,-0.080078125,0.1484375,0.0,180.0,360.0
3784128,,,,,,,,-1.05078125,-3.31640625,2.4609375,-0.3125,-0.080078125,0.1484375,0.0,180.0,360.0
3784129,,,,,,,,-1.05078125,-3.31640625,2.4609375,0.00390625,-0.162109375,0.130859375,0.0,180.0,360.0
3784130,36.01305783333333,129.32012266666666,137.2666057935787,72.99375693197614,1.3,230.0,,-2.1484375,-2.88671875,3.18359375,0.00390625,-0.162109375,0.130859375,0.0,180.0,360.0
3784131,,,,,,,,-2.1484375,-2.88671875,3.18359375,-0.087890625,-0.01953125,0.03125,0.0,180.0,360.0
3784132,,,,,,,,-2.1484375,-2.88671875,3.18359375,-0.087890625,-0.01953125,0.03125,0.0,180.0,360.0
3784133,,,,,,,,-2.1484375,-2.88671875,3.18359375,0.0625,0.16015625,-0.095703125,0.0,180.0,360.0
3784134,,,,,,,,0.3359375,-1.578125,3.05859375,0.0625,0.16015625,-0.095703125,0.0,180.0,360.0
3784135,,,,,,,,0.3359375,-1.578125,3.05859375,0.177734375,0.146484375,-0.232421875,0.0,180.0,360.0
3784136,,,,,,,,0.3359375,-1.578125,3.05859375,-0.03515625,0.1875,-0.275390625,0.0,180.0,360.0
3784137,,,,,,,,-0.21875,-0.2421875,1.75,-0.03515625,0.1875,-0.275390625,0.0,180.0,360.0
3784138,,,,,,,,-0.21875,-0.2421875,1.75,-0.052734375,0.21875,-0.3125,0.0,180.0,360.0
3784139,,,,,,,,0.00390625,-0.4296875,1.01953125,-0.052734375,0.21875,-0.3125,0.0,180.0,360.0
3784140,36.013057499999995,129.320122,137.20650715576505,72.95676957893853,1.3,228.0,,0.00390625,-0.4296875,1.01953125,-0.0078125,0.19921875,-0.341796875,0.0,180.0,360.0
3784141,,,,,,,,-0.15625,-0.0078125,0.70703125,-0.0078125,0.19921875,-0.341796875,0.0,180.0,360.0
3784142,,,,,,,,-0.15625,-0.0078125,0.70703125,-0.01171875,0.173828125,-0.345703125,0.0,180.0,360.0
3784143,,,,,,,,-0.3203125,1.51953125,-0.3359375,-0.01171875,0.173828125,-0.345703125,0.0,180.0,360.0
3784144,,,,,,,,-0.3203125,1.51953125,-0.3359375,0.029296875,0.111328125,-0.349609375,0.0,180.0,360.0
3784145,,,,,,,,-0.3203125,1.51953125,-0.3359375,0.0859375,0.041015625,-0.333984375,0.0,180.0,360.0
3784146,,,,,,,,-0.7578125,2.66015625,-0.81640625,0.0859375,0.041015625,-0.333984375,0.0,180.0,360.0
3784147,,,,,,,,-0.7578125,2.66015625,-0.81640625,0.076171875,-0.05078125,-0.28125,0.0,180.0,360.0
3784148,,,,,,,,-1.16796875,2.99609375,-1.21484375,0.076171875,-0.05078125,-0.28125,0.0,180.0,360.0
3784149,,,,,,,,-1.16796875,2.99609375,-1.21484375,0.115234375,-0.103515625,-0.21875,0.0,180.0,360.0
3784150,36.01305783333333,129.32012133333333,137.146407364765,72.99375505467388,1.3,229.0,,-1.59765625,3.06640625,-1.34765625,0.115234375,-0.103515625,-0.21875,0.0,180.0,360.0
3784151,,,,,,,,-1.59765625,3.06640625,-1.34765625,0.158203125,-0.1796875,-0.138671875,0.0,180.0,360.0
3784152,,,,,,,,-2.02734375,2.7421875,-1.25390625,0.158203125,-0.1796875,-0.138671875,0.0,180.0,360.0
3784153,,,,,,,,-2.02734375,2.7421875,-1.25390625,0.173828125,-0.228515625,-0.076171875,0.0,180.0,360.0
3784154,,,,,,,,-2.02734375,2.7421875,-1.25390625,0.173828125,-0.228515625,-0.076171875,0.0,180.0,360.0
3784155,,,,,,,,-2.02734375,2.7421875,-1.25390625,0.208984375,-0.228515625,-0.037109375,0.0,180.0,360.0
3784156,,,,,,,,-1.0859375,2.0546875,-1.33984375,0.208984375,-0.228515625,-0.037109375,0.0,180.0,360.0
3784157,,,,,,,,-1.0859375,2.0546875,-1.33984375,0.25,-0.1953125,-0.013671875,0.0,180.0,360.0
3784158,,,,,,,,-1.0859375,2.0546875,-1.33984375,0.19921875,-0.154296875,-0.017578125,0.0,180.0,360.0
3784159,,,,,,,,-0.76171875,1.9921875,-1.625,0.19921875,-0.154296875,-0.017578125,0.0,180.0,360.0
3784160,36.01305766666667,129.3201205,137.07128363503375,72.9752606760682,1.3,229.0,,-0.76171875,1.9921875,-1.625,0.11328125,-0.109375,-0.044921875,0.0,180.0,360.0
3784161,,,,,,,,-0.5703125,1.40234375,-1.49609375,0.11328125,-0.109375,-0.044921875,0.0,180.0,360.0
3784162,,,,,,,,-0.5703125,1.40234375,-1.49609375,0.064453125,-0.072265625,-0.083984375,0.0,180.0,360.0
3784163,,,,,,,,-0.59375,-0.8359375,-0.75390625,0.064453125,-0.072265625,-0.083984375,0.0,180.0,360.0
3784164,,,,,,,,-0.59375,-0.8359375,-0.75390625,0.091796875,-0.05078125,-0.130859375,0.0,180.0,360.0
3784165,,,,,,,,-0.59375,-0.8359375,-0.75390625,0.1328125,-0.041015625,-0.185546875,0.0,180.0,360.0
3784166,,,,,,,,-0.75,-1.85546875,-0.125,0.1328125,-0.041015625,-0.185546875,0.0,180.0,360.0
3784167,,,,,,,,-0.75,-1.85546875,-0.125,0.02734375,-0.048828125,-0.240234375,0.0,180.0,360.0
3784168,,,,,,,,-0.7890625,-1.375,-0.45703125,0.02734375,-0.048828125,-0.240234375,0.0,180.0,360.0
3784169,,,,,,,,-0.7890625,-1.375,-0.45703125,-0.162109375,-0.0625,-0.248046875,0.0,180.0,360.0
3784170,36.013057499999995,129.3201198333333,137.01118470572155,72.95676653049296,1.3,227.0,,-0.56640625,-1.19140625,-0.82421875,-0.162109375,-0.0625,-0.248046875,0.0,180.0,360.0
3784171,,,,,,,,-0.56640625,-1.19140625,-0.82421875,-0.326171875,-0.07421875,-0.21875,0.0,180.0,360.0
3784172,,,,,,,,-0.921875,-0.0703125,-0.74609375,-0.326171875,-0.07421875,-0.21875,0.0,180.0,360.0
3784173,,,,,,,,-0.921875,-0.0703125,-0.74609375,-0.59375,-0.208984375,-0.09765625,0.0,180.0,360.0
3784174,,,,,,,,-0.921875,-0.0703125,-0.74609375,-0.59375,-0.208984375,-0.09765625,0.0,180.0,360.0
3784175,,,,,,,,-0.921875,-0.0703125,-0.74609375,-0.9296875,-0.501953125,0.033203125,0.0,180.0,360.0
3784176,,,,,,,,-0.67578125,-3.73046875,0.08203125,-0.9296875,-0.501953125,0.033203125,0.0,180.0,360.0
3784177,,,,,,,,-0.67578125,-3.73046875,0.08203125,-0.78125,-0.548828125,-0.013671875,0.0,180.0,360.0
3784178,,,,,,,,-0.67578125,-3.73046875,0.08203125,-0.310546875,-0.30859375,-0.205078125,0.0,180.0,360.0
3784179,,,,,,,,3.765625,-4.265625,2.0859375,-0.310546875,-0.30859375,-0.205078125,0.0,180.0,360.0
3784180,36.01305766666667,129.32011916666667,136.95108520612393,72.97525880128956,1.1,228.0,,3.765625,-4.265625,2.0859375,0.087890625,-0.11328125,-0.345703125,0.0,180.0,360.0
3784181,,,,,,,,4.125,-2.765625,2.95703125,0.087890625,-0.11328125,-0.345703125,0.0,180.0,360.0
3784182,,,,,,,,4.125,-2.765625,2.95703125,0.400390625,-0.02734375,-0.24609375,0.0,180.0,360.0
3784183,,,,,,,,0.24609375,-2.98828125,3.5078125,0.400390625,-0.02734375,-0.24609375,0.0,180.0,360.0
3784184,,,,,,,,0.24609375,-2.98828125,3.5078125,0.5078125,-0.138671875,-0.134765625,0.0,180.0,360.0
3784185,,,,,,,,0.24609375,-2.98828125,3.5078125,0.361328125,-0.107421875,0.068359375,0.0,180.0,360.0
3784186,,,,,,,,0.4375,-0.63671875,1.8125,0.361328125,-0.107421875,0.068359375,0.0,180.0,360.0
3784187,,,,,,,,0.4375,-0.63671875,1.8125,0.125,-0.21875,0.263671875,0.0,180.0,360.0
3784188,,,,,,,,0.0390625,-0.109375,1.19140625,0.125,-0.21875,0.263671875,0.0,180.0,360.0
3784189,,,,,,,,0.0390625,-0.109375,1.19140625,0.083984375,-0.23828125,0.326171875,0.0,180.0,360.0
3784190,36.013058,129.32011816666667,136.86093580799678,73.01224381104745,1.2000000000000002,232.0,,0.421875,-0.70703125,1.12890625,0.083984375,-0.23828125,0.326171875,0.0,180.0,360.0
3784191,,,,,,,,0.421875,-0.70703125,1.12890625,0.0625,-0.21484375,0.353515625,0.0,180.0,360.0
3784192,,,,,,,,0.38671875,0.4609375,0.203125,0.0625,-0.21484375,0.353515625,0.0,180.0,360.0
3784193,,,,,,,,0.38671875,0.4609375,0.203125,0.021484375,-0.16015625,0.400390625,0.0,180.0,360.0
3784194,,,,,,,,0.38671875,0.4609375,0.203125,0.021484375,-0.16015625,0.400390625,0.0,180.0,360.0
3784195,,,,,,,,0.38671875,0.4609375,0.203125,0.046875,-0.08203125,0.42578125,0.0,180.0,360.0
3784196,,,,,,,,0.265625,2.40625,-1.078125,0.046875,-0.08203125,0.42578125,0.0,180.0,360.0
3784197,,,,,,,,0.265625,2.40625,-1.078125,0.056640625,-0.025390625,0.41796875,0.0,180.0,360.0
3784198,,,,,,,,0.265625,2.40625,-1.078125,0.05859375,0.0625,0.36328125,0.0,180.0,360.0
3784199,,,,,,,,0.828125,3.6484375,-1.7890625,0.05859375,0.0625,0.36328125,0.0,180.0,360.0
3784200,36.01305783333333,129.32011683333334,136.7407376676726,72.99374873082593,1.1,232.0,123.0,0.828125,3.6484375,-1.7890625,0.05859375,0.0625,0.36328125,0.0,180.0,360.0
3784201,,,,,,,,0.828125,3.6484375,-1.7890625,0.05859375,0.0625,0.36328125,0.0,180.0,360.0
3784202,,,,,,,,0.828125,3.6484375,-1.7890625,0.11328125,0.17578125,0.267578125,0.0,180.0,360.0
3784203,,,,,,,,0.984375,3.48828125,-1.72265625,0.11328125,0.17578125,0.267578125,0.0,180.0,360.0
3784204,,,,,,,,0.8828125,-1.5703125,-0.39453125,0.11328125,0.17578125,0.267578125,0.0,180.0,360.0
3784205,,,,,,,,0.8828125,-1.5703125,-0.39453125,-0.232421875,-0.048828125,0.224609375,0.0,180.0,360.0
3784206,,,,,,,,0.8828125,-1.5703125,-0.39453125,-0.6171875,0.03125,0.267578125,0.0,180.0,360.0
3784207,,,,,,,,1.45703125,-0.046875,-0.6328125,-0.6171875,0.03125,0.267578125,0.0,180.0,360.0
3784208,,,,,,,,1.45703125,-0.046875,-0.6328125,-0.78515625,0.029296875,0.287109375,0.0,180.0,360.0
3784209,,,,,,,,1.390625,-1.34765625,-0.34765625,-0.78515625,0.029296875,0.287109375,0.0,180.0,360.0
3784210,36.013057333333336,129.32011616666665,136.6806393151371,72.93826817542211,1.2000000000000002,222.0,,1.390625,-1.34765625,-0.34765625,-0.52734375,-0.0703125,0.25,0.0,180.0,360.0
3784211,,,,,,,,1.390625,-1.34765625,-0.34765625,-0.52734375,-0.0703125,0.25,0.0,180.0,360.0
3784212,,,,,,,,1.390625,-1.34765625,-0.34765625,-0.12890625,0.001953125,0.236328125,0.0,180.0,360.0
3784213,,,,,,,,-2.625,-1.34765625,3.75,-0.12890625,0.001953125,0.236328125,0.0,180.0,360.0
3784214,,,,,,,,-2.625,-1.34765625,3.75,-0.03515625,-0.02734375,0.181640625,0.0,180.0,360.0
3784215,,,,,,,,-2.625,-1.34765625,3.75,-0.212890625,0.15625,0.07421875,0.0,180.0,360.0
3784216,,,,,,,,-0.83203125,-1.5625,2.6171875,-0.212890625,0.15625,0.07421875,0.0,180.0,360.0
3784217,,,,,,,,-0.83203125,-1.5625,2.6171875,-0.005859375,0.193359375,-0.078125,0.0,180.0,360.0
3784218,,,,,,,,0.6796875,-2.578125,3.09765625,-0.005859375,0.193359375,-0.078125,0.0,180.0,360.0
3784219,,,,,,,,0.6796875,-2.578125,3.09765625,-0.0078125,0.1015625,-0.224609375,0.0,180.0,360.0
3784220,36.0130565,129.32011466666665,136.54541751981935,72.84580003593616,1.5,221.0,,-0.484375,-0.78125,1.62890625,-0.0078125,0.1015625,-0.224609375,0.0,180.0,360.0
3784221,,,,,,,,-0.484375,-0.78125,1.62890625,-0.13671875,0.078125,-0.232421875,0.0,180.0,360.0
3784222,,,,,,,,-0.31640625,-0.92578125,1.49609375,-0.13671875,0.078125,-0.232421875,0.0,180.0,360.0
3784223,,,,,,,,-0.31640625,-0.92578125,1.49609375,-0.060546875,0.11328125,-0.25,0.0,180.0,360.0
3784224,,,,,,,,-0.31640625,-0.92578125,1.49609375,-0.029296875,0.123046875,-0.283203125,0.0,180.0,360.0
3784225,,,,,,,,0.00390625,0.61328125,0.1953125,-0.029296875,0.123046875,-0.283203125,0.0,180.0,360.0
3784226,,,,,,,,0.00390625,0.61328125,0.1953125,-0.015625,0.087890625,-0.3125,0.0,180.0,360.0
3784227,,,,,,,,-0.08984375,1.41796875,-0.3046875,-0.015625,0.087890625,-0.3125,0.0,180.0,360.0
3784228,,,,,,,,-0.08984375,1.41796875,-0.3046875,0.05859375,0.0390625,-0.337890625,0.0,180.0,360.0
3784229,,,,,,,,-0.4140625,2.0625,-0.578125,0.05859375,0.0390625,-0.337890625,0.0,180.0,360.0
3784230,36.01305583333333,129.32011283333335,136.3801458269258,72.77182464105965,1.2000000000000002,224.0,,-0.4140625,2.0625,-0.578125,0.10546875,0.00390625,-0.341796875,0.0,180.0,360.0
3784231,,,,,,,,-0.8828125,3.45703125,-1.26171875,0.10546875,0.00390625,-0.341796875,0.0,180.0,360.0
3784232,,,,,,,,-0.8828125,3.45703125,-1.26171875,0.07421875,-0.06640625,-0.28125,0.0,180.0,360.0
3784233,,,,,,,,-0.8828125,3.45703125,-1.26171875,0.03125,-0.1328125,-0.1953125,0.0,180.0,360.0
3784234,,,,,,,,-1.62109375,3.75390625,-1.62890625,0.03125,-0.1328125,-0.1953125,0.0,180.0,360.0
3784235,,,,,,,,-1.62109375,3.75390625,-1.62890625,0.03515625,-0.212890625,-0.091796875,0.0,180.0,360.0
3784236,,,,,,,,-1.8046875,3.48046875,-1.67578125,0.03515625,-0.212890625,-0.091796875,0.0,180.0,360.0
3784237,,,,,,,,-1.8046875,3.48046875,-1.67578125,0.0390625,-0.259765625,-0.033203125,0.0,180.0,360.0
3784238,,,,,,,,-1.875,2.7421875,-1.5625,0.0390625,-0.259765625,-0.033203125,0.0,180.0,360.0
3784239,,,,,,,,-1.875,2.7421875,-1.5625,0.09765625,-0.2734375,-0.03125,0.0,180.0,360.0
3784240,36.0130555,129.3201116666667,136.27497277298846,72.73483659404701,1.3,229.0,,-1.734375,2.23828125,-1.40625,0.09765625,-0.2734375,-0.03125,0.0,180.0,360.0
3784241,,,,,,,,-1.734375,2.23828125,-1.40625,0.12109375,-0.2734375,-0.046875,0.0,180.0,360.0
3784242,,,,,,,,-1.734375,2.23828125,-1.40625,0.12109375,-0.2734375,-0.046875,0.0,180.0,360.0
3784243,,,,,,,,-1.734375,2.23828125,-1.40625,0.10546875,-0.2578125,-0.060546875,0.0,180.0,360.0
3784244,,,,,,,,-0.79296875,0.98046875,-1.33203125,0.10546875,-0.2578125,-0.060546875,0.0,180.0,360.0
3784245,,,,,,,,-0.79296875,0.98046875,-1.33203125,0.1328125,-0.197265625,-0.091796875,0.0,180.0,360.0
3784246,,,,,,,,-0.79296875,0.98046875,-1.33203125,0.16796875,-0.1484375,-0.150390625,0.0,180.0,360.0
3784247,,,,,,,,-0.7890625,-0.421875,-0.62890625,0.16796875,-0.1484375,-0.150390625,0.0,180.0,360.0
3784248,,,,,,,,-0.7890625,-0.421875,-0.62890625,0.146484375,-0.126953125,-0.205078125,0.0,180.0,360.0
3784249,,,,,,,,-0.89453125,-1.05859375,-0.49609375,0.146484375,-0.126953125,-0.205078125,0.0,180.0,360.0
3784250,36.013055333333334,129.3201105,136.1697994288632,72.71634175570341,1.2000000000000002,228.0,,-0.89453125,-1.05859375,-0.49609375,0.146484375,-0.126953125,-0.205078125,0.0,180.0,360.0
3784251,,,,,,,,-0.89453125,-1.05859375,-0.49609375,-0.041015625,-0.08984375,-0.25,0.0,180.0,360.0
3784252,,,,,,,,-0.3515625,-1.3125,-0.7265625,-0.041015625,-0.08984375,-0.25,0.0,180.0,360.0
3784253,,,,,,,,-0.3515625,-1.3125,-0.7265625,-0.3203125,-0.041015625,-0.279296875,0.0,180.0,360.0
3784254,,,,,,,,-0.19140625,-1.12109375,-0.734375,-0.3203125,-0.041015625,-0.279296875,0.0,180.0,360.0
3784255,,,,,,,,-0.19140625,-1.12109375,-0.734375,-0.48046875,-0.07421875,-0.259765625,0.0,180.0,360.0
3784256,,,,,,,,-0.44140625,-0.23046875,-0.76953125,-0.48046875,-0.07421875,-0.259765625,0.0,180.0,360.0
3784257,,,,,,,,-0.44140625,-0.23046875,-0.76953125,-0.896484375,-0.375,-0.080078125,0.0,180.0,360.0
3784258,,,,,,,,-1.66796875,-1.5078125,0.06640625,-0.896484375,-0.375,-0.080078125,0.0,180.0,360.0
3784259,,,,,,,,-1.66796875,-1.5078125,0.06640625,-0.767578125,-0.421875,-0.064453125,0.0,180.0,360.0
3784260,36.013055,129.32010916666667,136.04960157139826,72.67935347921235,1.3,229.0,,-0.04296875,-5.02734375,0.8671875,-0.767578125,-0.421875,-0.064453125,0.0,180.0,360.0
3784261,,,,,,,,-0.04296875,-5.02734375,0.8671875,-0.5703125,-0.296875,-0.08984375,0.0,180.0,360.0
3784262,,,,,,,,4.1328125,-3.67578125,2.03515625,-0.5703125,-0.296875,-0.08984375,0.0,180.0,360.0
3784263,,,,,,,,4.1328125,-3.67578125,2.03515625,0.0,0.0234375,-0.25,0.0,180.0,360.0
3784264,,,,,,,,4.1328125,-3.67578125,2.03515625,0.31640625,-0.125,-0.162109375,0.0,180.0,360.0
3784265,,,,,,,,0.9296875,-2.57421875,3.64453125,0.31640625,-0.125,-0.162109375,0.0,180.0,360.0
3784266,,,,,,,,0.9296875,-2.57421875,3.64453125,0.611328125,-0.0546875,-0.091796875,0.0,180.0,360.0
3784267,,,,,,,,0.4375,-3.73828125,3.43359375,0.611328125,-0.0546875,-0.091796875,0.0,180.0,360.0
3784268,,,,,,,,0.4375,-3.73828125,3.43359375,0.408203125,-0.109375,0.091796875,0.0,180.0,360.0
3784269,,,,,,,,0.95703125,-1.890625,2.0703125,0.408203125,-0.109375,0.091796875,0.0,180.0,360.0
3784270,36.013054499999996,129.320108,135.94442880100303,72.62387222956227,1.3,232.0,,0.95703125,-1.890625,2.0703125,0.408203125,-0.109375,0.091796875,0.0,180.0,360.0
3784271,,,,,,,,0.95703125,-1.890625,2.0703125,0.033203125,-0.193359375,0.3203125,0.0,180.0,360.0
3784272,,,,,,,,0.78515625,-1.234375,1.31640625,0.033203125,-0.193359375,0.3203125,0.0,180.0,360.0
3784273,,,,,,,,0.78515625,-1.234375,1.31640625,0.111328125,-0.083984375,0.33984375,0.0,180.0,360.0
3784274,,,,,,,,0.41015625,-0.51953125,0.94921875,0.111328125,-0.083984375,0.33984375,0.0,180.0,360.0
3784275,,,,,,,,0.41015625,-0.51953125,0.94921875,0.1015625,-0.048828125,0.353515625,0.0,180.0,360.0
3784276,,,,,,,,0.12109375,0.55078125,0.359375,0.1015625,-0.048828125,0.353515625,0.0,180.0,360.0
3784277,,,,,,,,0.12109375,0.55078125,0.359375,0.119140625,0.04296875,0.35546875,0.0,180.0,360.0
3784278,,,,,,,,0.18359375,1.21875,-0.23046875,0.119140625,0.04296875,0.35546875,0.0,180.0,360.0
3784279,,,,,,,,0.18359375,1.21875,-0.23046875,0.150390625,0.115234375,0.3671875,0.0,180.0,360.0
3784280,36.01305416666666,129.3201063333333,135.7941813263239,72.58688349119792,1.4000000000000001,234.0,,0.0234375,2.5390625,-0.99609375,0.150390625,0.115234375,0.3671875,0.0,180.0,360.0
3784281,,,,,,,,0.0234375,2.5390625,-0.99609375,0.146484375,0.125,0.341796875,0.0,180.0,360.0
3784282,,,,,,,,0.36328125,3.578125,-1.47265625,0.146484375,0.125,0.341796875,0.0,180.0,360.0
3784283,,,,,,,,0.36328125,3.578125,-1.47265625,0.169921875,0.11328125,0.265625,0.0,180.0,360.0
3784284,,,,,,,,0.69140625,3.49609375,-1.703125,0.169921875,0.11328125,0.265625,0.0,180.0,360.0
3784285,,,,,,,,0.69140625,3.49609375,-1.703125,0.154296875,0.150390625,0.166015625,0.0,180.0,360.0
3784286,,,,,,,,0.69140625,3.49609375,-1.703125,0.154296875,0.248046875,0.07421875,0.0,180.0,360.0
3784287,,,,,,,,0.96875,2.94921875,-1.98046875,0.154296875,0.248046875,0.07421875,0.0,180.0,360.0
3784288,,,,,,,,0.96875,2.94921875,-1.98046875,0.1875,0.353515625,0.025390625,0.0,180.0,360.0
3784289,,,,,,,,0.83984375,2.78125,-1.9375,0.1875,0.353515625,0.025390625,0.0,180.0,360.0
3784290,36.01305383333333,129.32010516666665,135.68900826774095,72.54989545246153,1.4000000000000001,235.0,,0.83984375,2.78125,-1.9375,0.220703125,0.380859375,0.001953125,0.0,180.0,360.0
3784291,,,,,,,,0.40234375,2.23046875,-1.69921875,0.220703125,0.380859375,0.001953125,0.0,180.0,360.0
3784292,,,,,,,,0.40234375,2.23046875,-1.69921875,0.259765625,0.39453125,-0.0078125,0.0,180.0,360.0
3784293,,,,,,,,0.40234375,2.23046875,-1.69921875,0.22265625,0.32421875,0.0,0.0,180.0,360.0
3784294,,,,,,,,0.2109375,1.1328125,-1.47265625,0.22265625,0.32421875,0.0,0.0,180.0,360.0
3784295,,,,,,,,0.2109375,1.1328125,-1.47265625,0.189453125,0.25390625,0.029296875,0.0,180.0,360.0
3784296,,,,,,,,0.2265625,0.34375,-1.14453125,0.189453125,0.25390625,0.029296875,0.0,180.0,360.0
3784297,,,,,,,,0.2265625,0.34375,-1.14453125,0.1953125,0.1328125,0.080078125,0.0,180.0,360.0
3784298,,,,,,,,0.3203125,-0.359375,-0.75390625,0.1953125,0.1328125,0.080078125,0.0,180.0,360.0
3784299,,,,,,,,0.3203125,-0.359375,-0.75390625,0.2109375,0.05078125,0.123046875,0.0,180.0,360.0
3784300,36.013053166666666,129.32010233333332,135.43358773448563,72.47591868239,1.4000000000000001,234.0,123.0,0.3203125,-0.359375,-0.75390625,0.2109375,0.05078125,0.123046875,0.0,180.0,360.0
3784301,,,,,,,,0.3203125,-0.359375,-0.75390625,0.2109375,0.05078125,0.123046875,0.0,180.0,360.0
3784302,,,,,,,,0.61328125,-1.25,-0.41015625,0.2109375,0.05078125,0.123046875,0.0,180.0,360.0
3784303,,,,,,,,0.61328125,-1.25,-0.41015625,0.1484375,-0.017578125,0.1484375,0.0,180.0,360.0
3784304,,,,,,,,0.61328125,-1.25,-0.41015625,-0.0390625,0.10546875,-0.291015625,0.0,180.0,360.0
3784305,,,,,,,,0.61328125,-1.25,-0.41015625,-0.0625,0.138671875,-0.3671875,0.0,180.0,360.0
3784306,,,,,,,,-0.10546875,-0.6796875,1.46484375,-0.0625,0.138671875,-0.3671875,0.0,180.0,360.0
3784307,,,,,,,,-0.10546875,-0.6796875,1.46484375,0.01171875,0.181640625,-0.369140625,0.0,180.0,360.0
3784308,,,,,,,,-0.015625,0.8125,0.171875,0.01171875,0.181640625,-0.369140625,0.0,180.0,360.0
3784309,,,,,,,,-0.015625,0.8125,0.171875,0.01171875,0.181640625,-0.369140625,0.0,180.0,360.0
3784310,36.01305216666666,129.3201005,135.2683165952233,72.36495689344392,1.4000000000000001,227.0,,-0.015625,0.8125,0.171875,-0.029296875,0.126953125,-0.34765625,0.0,180.0,360.0
3784311,,,,,,,,0.08203125,2.33984375,-0.984375,-0.029296875,0.126953125,-0.34765625,0.0,180.0,360.0
3784312,,,,,,,,0.08203125,2.33984375,-0.984375,0.03515625,0.056640625,-0.357421875,0.0,180.0,360.0
3784313,,,,,,,,-0.2421875,2.7890625,-1.109375,0.03515625,0.056640625,-0.357421875,0.0,180.0,360.0
3784314,,,,,,,,-0.2421875,2.7890625,-1.109375,0.0859375,0.033203125,-0.330078125,0.0,180.0,360.0
3784315,,,,,,,,-0.5703125,3.2734375,-1.30859375,0.0859375,0.033203125,-0.330078125,0.0,180.0,360.0
3784316,,,,,,,,-0.5703125,3.2734375,-1.30859375,0.064453125,-0.0078125,-0.267578125,0.0,180.0,360.0
3784317,,,,,,,,-0.96875,3.609375,-1.5546875,0.064453125,-0.0078125,-0.267578125,0.0,180.0,360.0
3784318,,,,,,,,-0.96875,3.609375,-1.5546875,0.064453125,-0.07421875,-0.1640625,0.0,180.0,360.0
3784319,,,,,,,,-0.96875,3.609375,-1.5546875,0.064453125,-0.07421875,-0.1640625,0.0,180.0,360.0
3784320,36.01305183333333,129.32009950000003,135.17816833814356,72.32796909110883,1.3,230.0,,-0.96875,3.609375,-1.5546875,0.06640625,-0.115234375,-0.052734375,0.0,180.0,360.0
3784321,,,,,,,,-1.8984375,2.54296875,-1.5859375,0.06640625,-0.115234375,-0.052734375,0.0,180.0,360.0
3784322,,,,,,,,-1.8984375,2.54296875,-1.5859375,0.08984375,-0.15625,0.02734375,0.0,180.0,360.0
3784323,,,,,,,,-1.8984375,2.54296875,-1.5859375,0.08984375,-0.15625,0.046875,0.0,180.0,360.0
3784324,,,,,,,,-1.2109375,1.875,-1.4453125,0.08984375,-0.15625,0.046875,0.0,180.0,360.0
3784325,,,,,,,,-1.2109375,1.875,-1.4453125,0.080078125,-0.169921875,0.0390625,0.0,180.0,360.0
3784326,,,,,,,,-1.01171875,1.53125,-1.30078125,0.080078125,-0.169921875,0.0390625,0.0,180.0,360.0
3784327,,,,,,,,-1.01171875,1.53125,-1.30078125,0.033203125,-0.16796875,0.02734375,0.0,180.0,360.0
3784328,,,,,,,,-0.7890625,-0.12890625,-1.078125,0.033203125,-0.16796875,0.02734375,0.0,180.0,360.0
3784329,,,,,,,,-0.7890625,-0.12890625,-1.078125,0.02734375,-0.138671875,-0.01171875,0.0,180.0,360.0
3784330,36.01305133333334,129.32009783333334,135.02792114203496,72.27248715993305,1.4000000000000001,232.0,,-0.7890625,-0.12890625,-1.078125,0.02734375,-0.138671875,-0.01171875,0.0,180.0,360.0
3784331,,,,,,,,-0.7890625,-0.12890625,-1.078125,-0.005859375,-0.08984375,-0.06640625,0.0,180.0,360.0
3784332,,,,,,,,-0.46875,-0.56640625,-0.6875,-0.005859375,-0.08984375,-0.06640625,0.0,180.0,360.0
3784333,,,,,,,,-0.46875,-0.56640625,-0.6875,-0.109375,-0.095703125,-0.109375,0.0,180.0,360.0
3784334,,,,,,,,-0.46875,-0.56640625,-0.6875,-0.232421875,-0.072265625,-0.140625,0.0,180.0,360.0
3784335,,,,,,,,-0.23046875,-0.98828125,-0.7265625,-0.232421875,-0.072265625,-0.140625,0.0,180.0,360.0
3784336,,,,,,,,-0.23046875,-0.98828125,-0.7265625,-0.390625,-0.052734375,-0.130859375,0.0,180.0,360.0
3784337,,,,,,,,-0.25390625,-0.90625,-0.89453125,-0.390625,-0.052734375,-0.130859375,0.0,180.0,360.0
3784338,,,,,,,,-0.25390625,-0.90625,-0.89453125,-0.45703125,0.0390625,-0.125,0.0,180.0,360.0
3784339,,,,,,,,-0.25390625,-0.90625,-0.89453125,-0.45703125,0.0390625,-0.125,0.0,180.0,360.0
3784340,36.01305083333333,129.32009683333334,134.93777316479532,72.21700615344429,1.3,231.0,,-0.25390625,-0.90625,-0.89453125,-0.703125,-0.146484375,-0.037109375,0.0,180.0,360.0
3784341,,,,,,,,-1.07421875,-2.71875,0.453125,-0.703125,-0.146484375,-0.037109375,0.0,180.0,360.0
3784342,,,,,,,,-1.07421875,-2.71875,0.453125,-0.8125,-0.41796875,0.048828125,0.0,180.0,360.0
3784343,,,,,,,,-1.07421875,-2.71875,0.453125,-0.470703125,-0.255859375,-0.00390625,0.0,180.0,360.0
3784344,,,,,,,,3.3984375,-4.97265625,1.8125,-0.470703125,-0.255859375,-0.00390625,0.0,180.0,360.0
3784345,,,,,,,,3.3984375,-4.97265625,1.8125,-0.03125,0.0703125,-0.138671875,0.0,180.0,360.0
3784346,,,,,,,,3.19140625,-2.51171875,2.19140625,-0.03125,0.0703125,-0.138671875,0.0,180.0,360.0
3784347,,,,,,,,3.19140625,-2.51171875,2.19140625,0.419921875,-0.0703125,-0.052734375,0.0,180.0,360.0
3784348,,,,,,,,0.984375,-2.2109375,3.5390625,0.419921875,-0.0703125,-0.052734375,0.0,180.0,360.0
3784349,,,,,,,,0.984375,-2.2109375,3.5390625,0.67578125,-0.14453125,0.033203125,0.0,180.0,360.0
3784350,36.013050166666666,129.32009566666665,134.83260066317519,72.14303170952414,1.2000000000000002,229.0,,0.984375,-2.2109375,3.5390625,0.67578125,-0.14453125,0.033203125,0.0,180.0,360.0
3784351,,,,,,,,0.984375,-2.2109375,3.5390625,0.533203125,-0.2734375,0.19140625,0.0,180.0,360.0
3784352,,,,,,,,0.81640625,-1.26953125,1.37109375,0.533203125,-0.2734375,0.19140625,0.0,180.0,360.0
3784353,,,,,,,,0.81640625,-1.26953125,1.37109375,0.173828125,-0.4296875,0.3671875,0.0,180.0,360.0
3784354,,,,,,,,0.81640625,-1.26953125,1.37109375,0.220703125,-0.361328125,0.416015625,0.0,180.0,360.0
3784355,,,,,,,,0.3515625,-1.71484375,1.45703125,0.220703125,-0.361328125,0.416015625,0.0,180.0,360.0
3784356,,,,,,,,0.3515625,-1.71484375,1.45703125,0.2890625,-0.244140625,0.390625,0.0,180.0,360.0
3784357,,,,,,,,0.828125,-1.37109375,1.0703125,0.2890625,-0.244140625,0.390625,0.0,180.0,360.0
3784358,,,,,,,,0.828125,-1.37109375,1.0703125,0.248046875,-0.205078125,0.369140625,0.0,180.0,360.0
3784359,,,,,,,,0.828125,-1.37109375,1.0703125,0.248046875,-0.205078125,0.369140625,0.0,180.0,360.0
3784360,36.0130495,129.32009316666665,134.60722972104475,72.06905542651606,1.3,232.0,,0.828125,-1.37109375,1.0703125,0.212890625,-0.150390625,0.390625,0.0,180.0,360.0
3784361,,,,,,,,0.265625,2.5078125,-1.10546875,0.212890625,-0.150390625,0.390625,0.0,180.0,360.0
3784362,,,,,,,,0.265625,2.5078125,-1.10546875,0.228515625,-0.048828125,0.423828125,0.0,180.0,360.0
3784363,,,,,,,,0.265625,2.5078125,-1.10546875,0.263671875,0.017578125,0.431640625,0.0,180.0,360.0
3784364,,,,,,,,0.296875,3.08203125,-1.3671875,0.263671875,0.017578125,0.431640625,0.0,180.0,360.0
3784365,,,,,,,,0.296875,3.08203125,-1.3671875,0.2421875,-0.005859375,0.38671875,0.0,180.0,360.0
3784366,,,,,,,,0.828125,3.76171875,-1.875,0.2421875,-0.005859375,0.38671875,0.0,180.0,360.0
3784367,,,,,,,,0.828125,3.76171875,-1.875,0.166015625,0.05859375,0.29296875,0.0,180.0,360.0
3784368,,,,,,,,1.3125,3.37890625,-2.1796875,0.166015625,0.05859375,0.29296875,0.0,180.0,360.0
3784369,,,,,,,,1.3125,3.37890625,-2.1796875,0.138671875,0.125,0.1875,0.0,180.0,360.0
3784370,36.01304916666666,129.32009216666665,134.51708145771372,72.03206763028538,1.3,235.0,,0.77734375,2.52734375,-1.73046875,0.138671875,0.125,0.1875,0.0,180.0,360.0
3784371,,,,,,,,0.77734375,2.52734375,-1.73046875,0.158203125,0.125,0.119140625,0.0,180.0,360.0
3784372,,,,,,,,0.77734375,2.52734375,-1.73046875,0.23046875,0.154296875,0.0703125,0.0,180.0,360.0
3784373,,,,,,,,0.77734375,1.96875,-1.34765625,0.23046875,0.154296875,0.0703125,0.0,180.0,360.0
3784374,,,,,,,,0.77734375,1.96875,-1.34765625,0.2578125,0.166015625,0.029296875,0.0,180.0,360.0
3784375,,,,,,,,0.83203125,1.84765625,-1.51953125,0.2578125,0.166015625,0.029296875,0.0,180.0,360.0
3784376,,,,,,,,0.83203125,1.84765625,-1.51953125,0.171875,0.126953125,0.02734375,0.0,180.0,360.0
3784377,,,,,,,,0.72265625,1.44140625,-1.640625,0.171875,0.126953125,0.02734375,0.0,180.0,360.0
3784378,,,,,,,,0.72265625,1.44140625,-1.640625,0.078125,0.07421875,0.076171875,0.0,180.0,360.0
3784379,,,,,,,,0.44140625,0.046875,-0.828125,0.078125,0.07421875,0.076171875,0.0,180.0,360.0
3784380,36.0130485,129.32009083333332,134.3968841482464,71.95809296172988,1.5,231.0,,0.44140625,0.046875,-0.828125,0.04296875,0.044921875,0.125,0.0,180.0,360.0
3784381,,,,,,,,0.44140625,0.046875,-0.828125,0.04296875,0.044921875,0.125,0.0,180.0,360.0
3784382,,,,,,,,0.44140625,0.046875,-0.828125,-0.013671875,0.01953125,0.14453125,0.0,180.0,360.0
3784383,,,,,,,,0.76171875,-1.45703125,-0.4765625,-0.013671875,0.01953125,0.14453125,0.0,180.0,360.0
3784384,,,,,,,,0.76171875,-1.45703125,-0.4765625,-0.109375,-0.11328125,0.14453125,0.0,180.0,360.0
3784385,,,,,,,,0.76171875,-1.45703125,-0.4765625,-0.123046875,-0.22265625,0.134765625,0.0,180.0,360.0
3784386,,,,,,,,-0.02734375,-2.17578125,0.05859375,-0.123046875,-0.22265625,0.134765625,0.0,180.0,360.0
3784387,,,,,,,,-0.02734375,-2.17578125,0.05859375,-0.255859375,-0.232421875,0.189453125,0.0,180.0,360.0
3784388,,,,,,,,-0.09375,-0.75,0.12109375,-0.255859375,-0.232421875,0.189453125,0.0,180.0,360.0
3784389,,,,,,,,-0.09375,-0.75,0.12109375,-0.87890625,-0.22265625,0.271484375,0.0,180.0,360.0
3784390,36.01304783333333,129.32008983333333,134.30673644596797,71.88411875487525,1.4000000000000001,227.0,,1.20703125,-1.515625,-1.109375,-0.87890625,-0.22265625,0.271484375,0.0,180.0,360.0
3784391,,,,,,,,1.20703125,-1.515625,-1.109375,-0.978515625,-0.107421875,0.1640625,0.0,180.0,360.0
3784392,,,,,,,,1.20703125,-1.515625,-1.109375,-0.794921875,-0.13671875,0.103515625,0.0,180.0,360.0
3784393,,,,,,,,-0.1015625,-2.3125,2.23046875,-0.794921875,-0.13671875,0.103515625,0.0,180.0,360.0
3784394,,,,,,,,-0.1015625,-2.3125,2.23046875,-0.298828125,-0.01171875,0.03515625,0.0,180.0,360.0
3784395,,,,,,,,-0.3984375,-4.6953125,2.34765625,-0.298828125,-0.01171875,0.03515625,0.0,180.0,360.0
3784396,,,,,,,,-0.3984375,-4.6953125,2.34765625,0.310546875,0.19921875,-0.052734375,0.0,180.0,360.0
3784397,,,,,,,,-1.12890625,-4.84765625,3.96484375,0.310546875,0.19921875,-0.052734375,0.0,180.0,360.0
3784398,,,,,,,,-1.12890625,-4.84765625,3.96484375,0.1640625,0.435546875,-0.115234375,0.0,180.0,360.0
3784399,,,,,,,,0.94140625,-2.21875,2.30859375,0.1640625,0.435546875,-0.115234375,0.0,180.0,360.0
3784400,36.0130465,129.32008766666667,134.1114162332998,71.73617011493388,1.4000000000000001,225.0,123.0,0.94140625,-2.21875,2.30859375,0.1640625,0.435546875,-0.115234375,0.0,180.0,360.0
3784401,,,,,,,,0.94140625,-2.21875,2.30859375,0.1640625,0.435546875,-0.115234375,0.0,180.0,360.0
3784402,,,,,,,,0.94140625,-2.21875,2.30859375,0.3515625,0.517578125,-0.373046875,0.0,180.0,360.0
3784403,,,,,,,,0.94140625,-2.21875,2.30859375,0.13671875,0.240234375,-0.49609375,0.0,180.0,360.0
3784404,,,,,,,,0.94140625,-2.21875,2.30859375,0.083984375,-0.078125,0.083984375,0.0,180.0,360.0
3784405,,,,,,,,-1.98828125,2.94921875,-1.80078125,0.083984375,-0.078125,0.083984375,0.0,180.0,360.0
3784406,,,,,,,,-1.98828125,2.94921875,-1.80078125,0.02734375,-0.212890625,0.125,0.0,180.0,360.0
3784407,,,,,,,,-1.98828125,2.94921875,-1.80078125,0.02734375,-0.212890625,0.125,0.0,180.0,360.0
3784408,,,,,,,,-1.98828125,2.94921875,-1.80078125,0.0703125,-0.251953125,0.08984375,0.0,180.0,360.0
3784409,,,,,,,,-1.1171875,0.6796875,-1.37890625,0.0703125,-0.251953125,0.08984375,0.0,180.0,360.0
3784410,36.01304533333334,129.32008616666664,133.97619495366322,71.6067156021205,1.2000000000000002,225.0,,-1.1171875,0.6796875,-1.37890625,0.078125,-0.302734375,0.068359375,0.0,180.0,360.0
3784411,,,,,,,,-1.1171875,0.6796875,-1.37890625,0.099609375,-0.265625,0.017578125,0.0,180.0,360.0
3784412,,,,,,,,-0.625,-1.48046875,-0.8984375,0.099609375,-0.265625,0.017578125,0.0,180.0,360.0
3784413,,,,,,,,-0.625,-1.48046875,-0.8984375,0.119140625,-0.134765625,-0.056640625,0.0,180.0,360.0
3784414,,,,,,,,-0.25,-1.6015625,-0.55859375,0.119140625,-0.134765625,-0.056640625,0.0,180.0,360.0
3784415,,,,,,,,-0.25,-1.6015625,-0.55859375,-0.046875,-0.04296875,-0.1171875,0.0,180.0,360.0
3784416,,,,,,,,-0.19921875,-1.07421875,-0.72265625,-0.046875,-0.04296875,-0.1171875,0.0,180.0,360.0
3784417,,,,,,,,-0.19921875,-1.07421875,-0.72265625,-0.31640625,0.07421875,-0.1328125,0.0,180.0,360.0
3784418,,,,,,,,-0.19921875,-1.07421875,-0.72265625,-0.31640625,0.07421875,-0.1328125,0.0,180.0,360.0
3784419,,,,,,,,-0.19921875,-1.07421875,-0.72265625,-0.451171875,0.185546875,-0.14453125,0.0,180.0,360.0
3784420,36.01304483333333,129.3200845,133.8259477424718,71.55123369065247,1.3,225.0,,-0.16796875,-0.96484375,-0.7421875,-0.451171875,0.185546875,-0.14453125,0.0,180.0,360.0
3784421,,,,,,,,-0.16796875,-0.96484375,-0.7421875,-0.392578125,0.3046875,-0.193359375,0.0,180.0,360.0
3784422,,,,,,,,-1.33203125,-0.109375,-0.01171875,-0.392578125,0.3046875,-0.193359375,0.0,180.0,360.0
3784423,,,,,,,,-1.33203125,-0.109375,-0.01171875,-0.626953125,-0.001953125,-0.09375,0.0,180.0,360.0
3784424,,,,,,,,-1.33203125,-0.109375,-0.01171875,-0.642578125,-0.310546875,-0.01953125,0.0,180.0,360.0
3784425,,,,,,,,-0.16015625,-6.0078125,0.48046875,-0.642578125,-0.310546875,-0.01953125,0.0,180.0,360.0
3784426,,,,,,,,-0.16015625,-6.0078125,0.48046875,-0.1953125,-0.09375,-0.1640625,0.0,180.0,360.0
3784427,,,,,,,,3.36328125,-2.2578125,2.8203125,-0.1953125,-0.09375,-0.1640625,0.0,180.0,360.0
3784428,,,,,,,,3.36328125,-2.2578125,2.8203125,0.15234375,0.171875,-0.3125,0.0,180.0,360.0
3784429,,,,,,,,3.36328125,-2.2578125,2.8203125,0.36328125,-0.154296875,-0.15234375,0.0,180.0,360.0
3784430,36.01304433333333,129.32008333333334,133.72077494445017,71.49575246677337,1.3,226.0,,-0.078125,-2.55078125,4.18359375,0.36328125,-0.154296875,-0.15234375,0.0,180.0,360.0
3784431,,,,,,,,-0.078125,-2.55078125,4.18359375,0.447265625,-0.1796875,-0.013671875,0.0,180.0,360.0
3784432,,,,,,,,-0.4453125,-3.4921875,2.6875,0.447265625,-0.1796875,-0.013671875,0.0,180.0,360.0
3784433,,,,,,,,-0.4453125,-3.4921875,2.6875,0.177734375,-0.173828125,0.19921875,0.0,180.0,360.0
3784434,,,,,,,,0.78125,-1.9296875,2.1640625,0.177734375,-0.173828125,0.19921875,0.0,180.0,360.0
3784435,,,,,,,,0.78125,-1.9296875,2.1640625,-0.068359375,-0.197265625,0.34765625,0.0,180.0,360.0
3784436,,,,,,,,1.00390625,-0.890625,1.69140625,-0.068359375,-0.197265625,0.34765625,0.0,180.0,360.0
3784437,,,,,,,,1.00390625,-0.890625,1.69140625,0.009765625,-0.123046875,0.369140625,0.0,180.0,360.0
3784438,,,,,,,,1.00390625,-0.890625,1.69140625,0.009765625,-0.123046875,0.369140625,0.0,180.0,360.0
3784439,,,,,,,,1.00390625,-0.890625,1.69140625,0.064453125,-0.02734375,0.375,0.0,180.0,360.0
3784440,36.01304366666667,129.32008216666665,133.61560242394242,71.42177803917575,1.4000000000000001,230.0,,-0.16796875,0.765625,-0.34765625,0.064453125,-0.02734375,0.375,0.0,180.0,360.0
3784441,,,,,,,,-0.16796875,0.765625,-0.34765625,0.0625,-0.029296875,0.390625,0.0,180.0,360.0
3784442,,,,,,,,-0.16796875,0.765625,-0.34765625,0.08984375,-0.01171875,0.416015625,0.0,180.0,360.0
3784443,,,,,,,,-0.1875,1.73828125,-0.9765625,0.08984375,-0.01171875,0.416015625,0.0,180.0,360.0
3784444,,,,,,,,-0.1875,1.73828125,-0.9765625,0.158203125,0.005859375,0.41796875,0.0,180.0,360.0
3784445,,,,,,,,-0.1484375,2.97265625,-1.4921875,0.158203125,0.005859375,0.41796875,0.0,180.0,360.0
3784446,,,,,,,,-0.1484375,2.97265625,-1.4921875,0.228515625,0.044921875,0.37109375,0.0,180.0,360.0
3784447,,,,,,,,0.3828125,3.74609375,-2.01953125,0.228515625,0.044921875,0.37109375,0.0,180.0,360.0
3784448,,,,,,,,0.3828125,3.74609375,-2.01953125,0.19921875,0.05078125,0.29296875,0.0,180.0,360.0
3784449,,,,,,,,0.3828125,3.74609375,-2.01953125,0.19921875,0.05078125,0.29296875,0.0,180.0,360.0
3784450,36.01304316666666,129.32008083333332,133.49540481689328,71.36629659019071,1.3,231.0,,0.3828125,3.74609375,-2.01953125,0.146484375,0.099609375,0.1953125,0.0,180.0,360.0
3784451,,,,,,,,0.7890625,3.3125,-2.12890625,0.146484375,0.099609375,0.1953125,0.0,180.0,360.0
3784452,,,,,,,,0.7890625,3.3125,-2.12890625,0.15234375,0.16796875,0.09765625,0.0,180.0,360.0
3784453,,,,,,,,0.7890625,3.3125,-2.12890625,0.162109375,0.2265625,0.03515625,0.0,180.0,360.0
3784454,,,,,,,,0.75390625,2.91015625,-1.87109375,0.162109375,0.2265625,0.03515625,0.0,180.0,360.0
3784455,,,,,,,,0.75390625,2.91015625,-1.87109375,0.1796875,0.3203125,-0.03125,0.0,180.0,360.0
3784456,,,,,,,,0.921875,2.51953125,-1.9296875,0.1796875,0.3203125,-0.03125,0.0,180.0,360.0
3784457,,,,,,,,0.921875,2.51953125,-1.9296875,0.1640625,0.33203125,-0.076171875,0.0,180.0,360.0
3784458,,,,,,,,0.921875,2.51953125,-1.9296875,0.1640625,0.33203125,-0.076171875,0.0,180.0,360.0
3784459,,,,,,,,0.921875,2.51953125,-1.9296875,0.130859375,0.322265625,-0.09765625,0.0,180.0,360.0
3784460,36.01304266666667,129.3200795,133.37520720850262,71.31081514326732,1.4000000000000001,233.0,,0.32421875,-0.58984375,-0.71484375,0.130859375,0.322265625,-0.09765625,0.0,180.0,360.0
3784461,,,,,,,,0.32421875,-0.58984375,-0.71484375,0.1484375,0.251953125,-0.083984375,0.0,180.0,360.0
3784462,,,,,,,,0.32421875,-0.58984375,-0.71484375,0.216796875,0.169921875,-0.052734375,0.0,180.0,360.0
3784463,,,,,,,,0.28515625,-1.06640625,-0.1953125,0.216796875,0.169921875,-0.052734375,0.0,180.0,360.0
3784464,,,,,,,,0.28515625,-1.06640625,-0.1953125,0.12890625,0.05859375,0.0078125,0.0,180.0,360.0
3784465,,,,,,,,0.39453125,-1.1953125,-0.6875,0.12890625,0.05859375,0.0078125,0.0,180.0,360.0
3784466,,,,,,,,0.39453125,-1.1953125,-0.6875,-0.015625,-0.029296875,0.04296875,0.0,180.0,360.0
3784467,,,,,,,,0.35546875,-1.96875,-0.76953125,-0.015625,-0.029296875,0.04296875,0.0,180.0,360.0
3784468,,,,,,,,0.35546875,-1.96875,-0.76953125,-0.072265625,-0.056640625,0.052734375,0.0,180.0,360.0
3784469,,,,,,,,0.4765625,-0.66015625,0.02734375,-0.072265625,-0.056640625,0.052734375,0.0,180.0,360.0
3784470,36.01304183333333,129.32007783333333,133.22496054706903,71.21834682857849,1.5,231.0,,0.4765625,-0.66015625,0.02734375,-0.38671875,-0.06640625,0.0859375,0.0,180.0,360.0
3784471,,,,,,,,0.4765625,-0.66015625,0.02734375,-0.947265625,-0.15234375,0.119140625,0.0,180.0,360.0
3784472,,,,,,,,1.22265625,-2.14453125,-1.06640625,-0.947265625,-0.15234375,0.119140625,0.0,180.0,360.0
3784473,,,,,,,,1.22265625,-2.14453125,-1.06640625,-0.81640625,-0.111328125,0.048828125,0.0,180.0,360.0
3784474,,,,,,,,0.234375,-4.015625,1.49609375,-0.81640625,-0.111328125,0.048828125,0.0,180.0,360.0
3784475,,,,,,,,0.234375,-4.015625,1.49609375,-0.33984375,-0.259765625,0.0703125,0.0,180.0,360.0
3784476,,,,,,,,-1.109375,-4.12890625,3.8046875,-0.33984375,-0.259765625,0.0703125,0.0,180.0,360.0
3784477,,,,,,,,-1.109375,-4.12890625,3.8046875,-0.33984375,-0.259765625,0.0703125,0.0,180.0,360.0
3784478,,,,,,,,-1.109375,-4.12890625,3.8046875,-0.041015625,-0.146484375,0.140625,0.0,180.0,360.0
3784479,,,,,,,,-0.6796875,-2.2265625,2.48828125,-0.041015625,-0.146484375,0.140625,0.0,180.0,360.0
3784480,36.01304016666666,129.32007583333333,133.04466566745373,71.03341202524429,1.4000000000000001,225.0,,-0.6796875,-2.2265625,2.48828125,-0.083984375,0.1640625,-0.0234375,0.0,180.0,360.0
3784481,,,,,,,,1.4140625,-2.78515625,2.16796875,-0.083984375,0.1640625,-0.0234375,0.0,180.0,360.0
3784482,,,,,,,,1.4140625,-2.78515625,2.16796875,0.1640625,0.134765625,-0.21484375,0.0,180.0,360.0
3784483,,,,,,,,1.015625,-2.328125,2.84765625,0.1640625,0.134765625,-0.21484375,0.0,180.0,360.0
3784484,,,,,,,,1.015625,-2.328125,2.84765625,-0.00390625,0.162109375,-0.291015625,0.0,180.0,360.0
3784485,,,,,,,,-0.296875,-0.3828125,1.0546875,-0.00390625,0.162109375,-0.291015625,0.0,180.0,360.0
3784486,,,,,,,,-0.296875,-0.3828125,1.0546875,-0.06640625,0.224609375,-0.3046875,0.0,180.0,360.0
3784487,,,,,,,,-0.2578125,-0.640625,0.75,-0.06640625,0.224609375,-0.3046875,0.0,180.0,360.0
3784488,,,,,,,,-0.2578125,-0.640625,0.75,0.0,0.283203125,-0.333984375,0.0,180.0,360.0
3784489,,,,,,,,0.0078125,0.74609375,-0.015625,0.0,0.283203125,-0.333984375,0.0,180.0,360.0
3784490,36.0130395,129.32007516666667,132.98456756057882,70.95943828617776,1.3,224.0,,0.0078125,0.74609375,-0.015625,0.025390625,0.28515625,-0.376953125,0.0,180.0,360.0
3784491,,,,,,,,0.0078125,0.74609375,-0.015625,0.0390625,0.25390625,-0.40234375,0.0,180.0,360.0
3784492,,,,,,,,-0.23046875,2.37890625,-0.8828125,0.0390625,0.25390625,-0.40234375,0.0,180.0,360.0
3784493,,,,,,,,-0.23046875,2.37890625,-0.8828125,0.125,0.232421875,-0.40625,0.0,180.0,360.0
3784494,,,,,,,,-0.5234375,2.98828125,-1.01953125,0.125,0.232421875,-0.40625,0.0,180.0,360.0
3784495,,,,,,,,-0.5234375,2.98828125,-1.01953125,0.142578125,0.19140625,-0.376953125,0.0,180.0,360.0
3784496,,,,,,,,-1.0078125,3.43359375,-1.20703125,0.142578125,0.19140625,-0.376953125,0.0,180.0,360.0
3784497,,,,,,,,-1.0078125,3.43359375,-1.20703125,0.142578125,0.19140625,-0.376953125,0.0,180.0,360.0
3784498,,,,,,,,-1.0078125,3.43359375,-1.20703125,0.138671875,0.08984375,-0.2421875,0.0,180.0,360.0
3784499,,,,,,,,-2.1640625,3.41015625,-1.63671875,0.138671875,0.08984375,-0.2421875,0.0,180.0,360.0
3784500,36.013038,129.32007316666667,132.80427239087845,70.79299669564156,1.3,224.0,123.0,-2.1640625,3.41015625,-1.63671875,0.05078125,-0.0546875,-0.07421875,0.0,180.0,360.0
3784501,,,,,,,,-1.75390625,2.4296875,-1.55859375,0.05078125,-0.0546875,-0.07421875,0.0,180.0,360.0
3784502,,,,,,,,-0.90234375,-0.58984375,-0.7578125,0.05078125,-0.0546875,-0.07421875,0.0,180.0,360.0
3784503,,,,,,,,-0.90234375,-0.58984375,-0.7578125,-0.0234375,-0.150390625,-0.091796875,0.0,180.0,360.0
3784504,,,,,,,,-0.90234375,-0.58984375,-0.7578125,-0.0234375,-0.150390625,-0.091796875,0.0,180.0,360.0
3784505,,,,,,,,-0.90234375,-0.58984375,-0.7578125,-0.2578125,-0.107421875,-0.0859375,0.0,180.0,360.0
3784506,,,,,,,,0.08203125,-1.08984375,-1.09375,-0.2578125,-0.107421875,-0.0859375,0.0,180.0,360.0
3784507,,,,,,,,0.08203125,-1.08984375,-1.09375,-0.392578125,-0.015625,-0.095703125,0.0,180.0,360.0
3784508,,,,,,,,0.08203125,-1.08984375,-1.09375,-0.453125,0.0625,-0.123046875,0.0,180.0,360.0
3784509,,,,,,,,-0.7734375,0.62890625,-0.46484375,-0.453125,0.0625,-0.123046875,0.0,180.0,360.0
3784510,36.0130375,129.32007183333332,132.6840747672302,70.73751525878296,1.2000000000000002,226.0,,-0.7734375,0.62890625,-0.46484375,-0.75,-0.158203125,-0.01953125,0.0,180.0,360.0
3784511,,,,,,,,-1.75,1.10546875,-0.0234375,-0.75,-0.158203125,-0.01953125,0.0,180.0,360.0
3784512,,,,,,,,-1.75,1.10546875,-0.0234375,-0.912109375,-0.505859375,0.09375,0.0,180.0,360.0
3784513,,,,,,,,0.51171875,-5.26953125,0.39453125,-0.912109375,-0.505859375,0.09375,0.0,180.0,360.0
3784514,,,,,,,,0.51171875,-5.26953125,0.39453125,-0.724609375,-0.46875,0.0546875,0.0,180.0,360.0
3784515,,,,,,,,0.51171875,-5.26953125,0.39453125,-0.109375,-0.087890625,-0.17578125,0.0,180.0,360.0
3784516,,,,,,,,4.2421875,-4.46484375,2.6796875,-0.109375,-0.087890625,-0.17578125,0.0,180.0,360.0
3784517,,,,,,,,4.2421875,-4.46484375,2.6796875,0.32421875,-0.009765625,-0.22265625,0.0,180.0,360.0
3784518,,,,,,,,2.6328125,-2.51953125,3.76953125,0.32421875,-0.009765625,-0.22265625,0.0,180.0,360.0
3784519,,,,,,,,2.6328125,-2.51953125,3.76953125,0.7890625,0.095703125,-0.130859375,0.0,180.0,360.0
3784520,36.013037000000004,129.32007033333332,132.5488523386167,70.68203359627782,1.4000000000000001,229.0,,0.48828125,-4.265625,4.140625,0.7890625,0.095703125,-0.130859375,0.0,180.0,360.0
3784521,,,,,,,,0.48828125,-4.265625,4.140625,0.498046875,0.060546875,0.0703125,0.0,180.0,360.0
3784522,,,,,,,,-0.05078125,-3.26171875,2.73828125,0.498046875,0.060546875,0.0703125,0.0,180.0,360.0
3784523,,,,,,,,-0.05078125,-3.26171875,2.73828125,0.107421875,-0.06640625,0.291015625,0.0,180.0,360.0
3784524,,,,,,,,-0.05078125,-3.26171875,2.73828125,0.107421875,-0.06640625,0.291015625,0.0,180.0,360.0
3784525,,,,,,,,-0.05078125,-3.26171875,2.73828125,0.154296875,0.0234375,0.353515625,0.0,180.0,360.0
3784526,,,,,,,,0.23046875,-1.33984375,0.99609375,0.154296875,0.0234375,0.353515625,0.0,180.0,360.0
3784527,,,,,,,,0.23046875,-1.33984375,0.99609375,0.193359375,0.0859375,0.359375,0.0,180.0,360.0
3784528,,,,,,,,0.23046875,-1.33984375,0.99609375,0.169921875,0.0703125,0.36328125,0.0,180.0,360.0
3784529,,,,,,,,-0.51171875,0.8515625,-0.32421875,0.169921875,0.0703125,0.36328125,0.0,180.0,360.0
3784530,36.013036166666666,129.32006866666669,132.3986056597022,70.58956529471126,1.5,231.0,,-0.51171875,0.8515625,-0.32421875,0.158203125,0.072265625,0.380859375,0.0,180.0,360.0
3784531,,,,,,,,-0.6328125,1.47265625,-0.66796875,0.158203125,0.072265625,0.380859375,0.0,180.0,360.0
3784532,,,,,,,,-0.6328125,1.47265625,-0.66796875,0.16796875,0.107421875,0.40625,0.0,180.0,360.0
3784533,,,,,,,,-0.515625,2.7734375,-1.23828125,0.16796875,0.107421875,0.40625,0.0,180.0,360.0
3784534,,,,,,,,-0.515625,2.7734375,-1.23828125,0.220703125,0.123046875,0.390625,0.0,180.0,360.0
3784535,,,,,,,,-0.15625,3.359375,-1.5,0.220703125,0.123046875,0.390625,0.0,180.0,360.0
3784536,,,,,,,,-0.15625,3.359375,-1.5,0.224609375,0.091796875,0.30859375,0.0,180.0,360.0
3784537,,,,,,,,-0.15625,3.359375,-1.5,0.208984375,0.09375,0.203125,0.0,180.0,360.0
3784538,,,,,,,,0.765625,3.54296875,-1.9453125,0.208984375,0.09375,0.203125,0.0,180.0,360.0
3784539,,,,,,,,0.765625,3.54296875,-1.9453125,0.21484375,0.19140625,0.087890625,0.0,180.0,360.0
3784540,36.01303583333333,129.32006783333333,132.3234821752162,70.55257774919555,1.3,233.0,,0.84375,3.34375,-1.953125,0.21484375,0.19140625,0.087890625,0.0,180.0,360.0
3784541,,,,,,,,0.84375,3.34375,-1.953125,0.208984375,0.265625,0.001953125,0.0,180.0,360.0
3784542,,,,,,,,0.67578125,3.05859375,-1.9140625,0.208984375,0.265625,0.001953125,0.0,180.0,360.0
3784543,,,,,,,,0.67578125,3.05859375,-1.9140625,0.20703125,0.28125,-0.05078125,0.0,180.0,360.0
3784544,,,,,,,,0.67578125,3.05859375,-1.9140625,0.20703125,0.28125,-0.05078125,0.0,180.0,360.0
3784545,,,,,,,,0.67578125,3.05859375,-1.9140625,0.16796875,0.2734375,-0.0703125,0.0,180.0,360.0
3784546,,,,,,,,0.40234375,1.9453125,-1.86328125,0.16796875,0.2734375,-0.0703125,0.0,180.0,360.0
3784547,,,,,,,,0.40234375,1.9453125,-1.86328125,0.03125,0.2578125,-0.0703125,0.0,180.0,360.0
3784548,,,,,,,,0.40234375,1.9453125,-1.86328125,-0.064453125,0.203125,-0.041015625,0.0,180.0,360.0
3784549,,,,,,,,0.36328125,0.7890625,-1.6328125,-0.064453125,0.203125,-0.041015625,0.0,180.0,360.0
3784550,36.01303516666667,129.32006666666666,132.21830963382396,70.47860333730709,1.3,233.0,,0.36328125,0.7890625,-1.6328125,0.046875,0.17578125,-0.033203125,0.0,180.0,360.0
3784551,,,,,,,,0.71484375,-1.28515625,-0.21484375,0.046875,0.17578125,-0.033203125,0.0,180.0,360.0
3784552,,,,,,,,0.71484375,-1.28515625,-0.21484375,0.185546875,0.021484375,-0.01953125,0.0,180.0,360.0
3784553,,,,,,,,0.67578125,-1.265625,-0.4609375,0.185546875,0.021484375,-0.01953125,0.0,180.0,360.0
3784554,,,,,,,,0.67578125,-1.265625,-0.4609375,0.080078125,-0.083984375,0.013671875,0.0,180.0,360.0
3784555,,,,,,,,0.8203125,-2.4296875,-0.6015625,0.080078125,-0.083984375,0.013671875,0.0,180.0,360.0
3784556,,,,,,,,0.8203125,-2.4296875,-0.6015625,0.05078125,-0.046875,0.033203125,0.0,180.0,360.0
3784557,,,,,,,,0.8203125,-2.4296875,-0.6015625,-0.21484375,-0.001953125,0.119140625,0.0,180.0,360.0
3784558,,,,,,,,0.41015625,0.03125,-0.515625,-0.21484375,-0.001953125,0.119140625,0.0,180.0,360.0
3784559,,,,,,,,0.41015625,0.03125,-0.515625,-0.861328125,-0.091796875,0.236328125,0.0,180.0,360.0
3784560,36.0130345,129.3200655,132.11313709092556,70.40462892687451,1.4000000000000001,231.0,,1.015625,0.51171875,-1.42578125,-0.861328125,-0.091796875,0.236328125,0.0,180.0,360.0
3784561,,,,,,,,1.015625,0.51171875,-1.42578125,-0.990234375,0.115234375,0.12109375,0.0,180.0,360.0
3784562,,,,,,,,1.390625,-2.45703125,-1.78125,-0.990234375,0.115234375,0.12109375,0.0,180.0,360.0
3784563,,,,,,,,1.390625,-2.45703125,-1.78125,-0.71484375,-0.14453125,0.146484375,0.0,180.0,360.0
3784564,,,,,,,,1.390625,-2.45703125,-1.78125,-0.71484375,-0.14453125,0.146484375,0.0,180.0,360.0
3784565,,,,,,,,1.390625,-2.45703125,-1.78125,-0.080078125,-0.0625,0.130859375,0.0,180.0,360.0
3784566,,,,,,,,-2.1171875,-4.2109375,4.11328125,-0.080078125,-0.0625,0.130859375,0.0,180.0,360.0
3784567,,,,,,,,-2.1171875,-4.2109375,4.11328125,0.18359375,-0.04296875,0.1015625,0.0,180.0,360.0
3784568,,,,,,,,-2.1171875,-4.2109375,4.11328125,0.1796875,0.294921875,0.033203125,0.0,180.0,360.0
3784569,,,,,,,,-0.78515625,-3.26953125,3.109375,0.1796875,0.294921875,0.033203125,0.0,180.0,360.0
3784570,36.013032833333334,129.32006366666667,131.9478669816087,70.21969437149984,1.4000000000000001,224.0,,-0.78515625,-3.26953125,3.109375,0.212890625,0.19140625,-0.154296875,0.0,180.0,360.0
3784571,,,,,,,,-0.23828125,-1.19921875,2.18359375,0.212890625,0.19140625,-0.154296875,0.0,180.0,360.0
3784572,,,,,,,,-0.23828125,-1.19921875,2.18359375,-0.01171875,-0.015625,-0.275390625,0.0,180.0,360.0
3784573,,,,,,,,-0.6171875,-0.75,1.26953125,-0.01171875,-0.015625,-0.275390625,0.0,180.0,360.0
3784574,,,,,,,,-0.6171875,-0.75,1.26953125,0.07421875,0.005859375,-0.353515625,0.0,180.0,360.0
3784575,,,,,,,,-0.13671875,-1.0546875,1.0625,0.07421875,0.005859375,-0.353515625,0.0,180.0,360.0
3784576,,,,,,,,-0.13671875,-1.0546875,1.0625,0.197265625,0.09375,-0.384765625,0.0,180.0,360.0
3784577,,,,,,,,-0.13671875,-1.0546875,1.0625,0.189453125,0.046875,-0.388671875,0.0,180.0,360.0
3784578,,,,,,,,-0.3515625,1.296875,-0.265625,0.189453125,0.046875,-0.388671875,0.0,180.0,360.0
3784579,,,,,,,,-0.3515625,1.296875,-0.265625,0.15234375,-0.001953125,-0.388671875,0.0,180.0,360.0
3784580,36.01303216666667,129.32006283333334,131.87274404943318,70.14572041602065,1.3,221.0,,-0.19140625,2.24609375,-0.80078125,0.15234375,-0.001953125,-0.388671875,0.0,180.0,360.0
3784581,,,,,,,,-0.19140625,2.24609375,-0.80078125,0.189453125,-0.064453125,-0.384765625,0.0,180.0,360.0
3784582,,,,,,,,-0.26171875,2.84375,-0.9375,0.189453125,-0.064453125,-0.384765625,0.0,180.0,360.0
3784583,,,,,,,,-0.26171875,2.84375,-0.9375,0.265625,-0.0546875,-0.34765625,0.0,180.0,360.0
3784584,,,,,,,,-0.26171875,2.84375,-0.9375,0.265625,-0.0546875,-0.34765625,0.0,180.0,360.0
3784585,,,,,,,,-0.26171875,2.84375,-0.9375,0.271484375,-0.05078125,-0.26171875,0.0,180.0,360.0
3784586,,,,,,,,-1.73046875,3.9375,-1.83203125,0.271484375,-0.05078125,-0.26171875,0.0,180.0,360.0
3784587,,,,,,,,-1.73046875,3.9375,-1.83203125,0.220703125,-0.072265625,-0.16015625,0.0,180.0,360.0
3784588,,,,,,,,-1.73046875,3.9375,-1.83203125,0.138671875,-0.173828125,-0.0703125,0.0,180.0,360.0
3784589,,,,,,,,-1.8828125,3.6484375,-1.9921875,0.138671875,-0.173828125,-0.0703125,0.0,180.0,360.0
3784590,36.013031833333336,129.32006199999998,131.79762056190384,70.10873287404834,1.1,225.0,,-1.8828125,3.6484375,-1.9921875,0.107421875,-0.208984375,-0.03515625,0.0,180.0,360.0
3784591,,,,,,,,-1.1796875,2.51953125,-1.7109375,0.107421875,-0.208984375,-0.03515625,0.0,180.0,360.0
3784592,,,,,,,,-1.1796875,2.51953125,-1.7109375,0.154296875,-0.1875,-0.05078125,0.0,180.0,360.0
3784593,,,,,,,,-0.92578125,2.015625,-1.44921875,0.154296875,-0.1875,-0.05078125,0.0,180.0,360.0
3784594,,,,,,,,-0.92578125,2.015625,-1.44921875,0.169921875,-0.185546875,-0.06640625,0.0,180.0,360.0
3784595,,,,,,,,-0.87109375,0.8359375,-1.37109375,0.169921875,-0.185546875,-0.06640625,0.0,180.0,360.0
3784596,,,,,,,,-0.87109375,0.8359375,-1.37109375,0.13671875,-0.193359375,-0.05859375,0.0,180.0,360.0
3784597,,,,,,,,-0.87109375,0.8359375,-1.37109375,0.193359375,-0.1328125,-0.09375,0.0,180.0,360.0
3784598,,,,,,,,-0.828125,-0.9140625,-0.484375,0.193359375,-0.1328125,-0.09375,0.0,180.0,360.0
3784599,,,,,,,,-0.828125,-0.9140625,-0.484375,0.1953125,-0.05859375,-0.146484375,0.0,180.0,360.0
3784600,36.01303033333333,129.32005933333332,131.55722611818115,69.94229040759147,1.4000000000000001,226.0,123.0,-0.828125,-0.9140625,-0.484375,0.1953125,-0.05859375,-0.146484375,0.0,180.0,360.0
3784601,,,,,,,,-0.828125,-0.9140625,-0.484375,0.1953125,-0.05859375,-0.146484375,0.0,180.0,360.0
3784602,,,,,,,,-0.8515625,-0.8515625,-0.5546875,0.1953125,-0.05859375,-0.146484375,0.0,180.0,360.0
3784603,,,,,,,,-0.8515625,-0.8515625,-0.5546875,-0.279296875,-0.10546875,-0.126953125,0.0,180.0,360.0
3784604,,,,,,,,-0.8515625,-0.8515625,-0.5546875,0.75390625,0.15234375,-0.078125,0.0,180.0,360.0
3784605,,,,,,,,-0.8515625,-0.8515625,-0.5546875,0.181640625,-0.076171875,0.17578125,0.0,180.0,360.0
3784606,,,,,,,,0.82421875,-0.18359375,1.67578125,0.181640625,-0.076171875,0.17578125,0.0,180.0,360.0
3784607,,,,,,,,0.82421875,-0.18359375,1.67578125,0.130859375,-0.0625,0.2265625,0.0,180.0,360.0
3784608,,,,,,,,0.89453125,-0.375,1.109375,0.130859375,-0.0625,0.2265625,0.0,180.0,360.0
3784609,,,,,,,,0.89453125,-0.375,1.109375,0.080078125,-0.0390625,0.251953125,0.0,180.0,360.0
3784610,36.01302933333333,129.32005666666666,131.31683083550413,69.83132756846017,1.3,232.0,,0.28125,-0.0625,0.28125,0.080078125,-0.0390625,0.251953125,0.0,180.0,360.0
3784611,,,,,,,,0.28125,-0.0625,0.28125,0.0234375,-0.0390625,0.28125,0.0,180.0,360.0
3784612,,,,,,,,-0.453125,1.5234375,-0.578125,0.0234375,-0.0390625,0.28125,0.0,180.0,360.0
3784613,,,,,,,,-0.453125,1.5234375,-0.578125,-0.021484375,-0.05078125,0.330078125,0.0,180.0,360.0
3784614,,,,,,,,-0.453125,1.5234375,-0.578125,0.037109375,-0.0390625,0.361328125,0.0,180.0,360.0
3784615,,,,,,,,-0.25390625,2.69921875,-1.07421875,0.037109375,-0.0390625,0.361328125,0.0,180.0,360.0
3784616,,,,,,,,-0.25390625,2.69921875,-1.07421875,0.158203125,-0.0234375,0.3515625,0.0,180.0,360.0
3784617,,,,,,,,0.046875,3.35546875,-1.359375,0.158203125,-0.0234375,0.3515625,0.0,180.0,360.0
3784618,,,,,,,,0.046875,3.35546875,-1.359375,0.171875,-0.05078125,0.296875,0.0,180.0,360.0
3784619,,,,,,,,0.33203125,3.73828125,-1.78125,0.171875,-0.05078125,0.296875,0.0,180.0,360.0
3784620,36.01302883333334,129.32005566666666,131.22668281053592,69.77584660071132,1.3,234.0,,0.33203125,3.73828125,-1.78125,0.166015625,-0.013671875,0.2265625,0.0,180.0,360.0
3784621,,,,,,,,0.76171875,3.43359375,-2.234375,0.166015625,-0.013671875,0.2265625,0.0,180.0,360.0
3784622,,,,,,,,0.76171875,3.43359375,-2.234375,0.1640625,0.08203125,0.16015625,0.0,180.0,360.0
3784623,,,,,,,,0.76171875,3.43359375,-2.234375,0.1640625,0.08203125,0.16015625,0.0,180.0,360.0
3784624,,,,,,,,0.76171875,3.43359375,-2.234375,0.15625,0.1875,0.10546875,0.0,180.0,360.0
3784625,,,,,,,,0.55078125,2.40625,-1.74609375,0.15625,0.1875,0.10546875,0.0,180.0,360.0
3784626,,,,,,,,0.55078125,2.40625,-1.74609375,0.193359375,0.189453125,0.076171875,0.0,180.0,360.0
3784627,,,,,,,,0.45703125,1.9765625,-1.6328125,0.193359375,0.189453125,0.076171875,0.0,180.0,360.0
3784628,,,,,,,,0.45703125,1.9765625,-1.6328125,0.25,0.1953125,0.048828125,0.0,180.0,360.0
3784629,,,,,,,,0.45703125,1.9765625,-1.6328125,0.255859375,0.185546875,0.041015625,0.0,180.0,360.0
3784630,36.013028,129.3200545,131.12151052668582,69.68337899428934,1.4000000000000001,233.0,,0.51953125,0.91796875,-1.2265625,0.255859375,0.185546875,0.041015625,0.0,180.0,360.0
3784631,,,,,,,,0.51953125,0.91796875,-1.2265625,0.208984375,0.138671875,0.0625,0.0,180.0,360.0
3784632,,,,,,,,0.8125,-0.55859375,-0.9140625,0.208984375,0.138671875,0.0625,0.0,180.0,360.0
3784633,,,,,,,,0.8125,-0.55859375,-0.9140625,0.1484375,0.11328125,0.083984375,0.0,180.0,360.0
3784634,,,,,,,,0.8125,-0.55859375,-0.9140625,0.091796875,-0.001953125,0.11328125,0.0,180.0,360.0
3784635,,,,,,,,0.890625,-0.765625,-0.6015625,0.091796875,-0.001953125,0.11328125,0.0,180.0,360.0
3784636,,,,,,,,0.890625,-0.765625,-0.6015625,-0.03125,-0.017578125,0.12109375,0.0,180.0,360.0
3784637,,,,,,,,1.09765625,-1.734375,-0.875,-0.03125,-0.017578125,0.12109375,0.0,180.0,360.0
3784638,,,,,,,,1.09765625,-1.734375,-0.875,-0.060546875,-0.00390625,0.134765625,0.0,180.0,360.0
3784639,,,,,,,,0.890625,-2.22265625,-0.5546875,-0.060546875,-0.00390625,0.134765625,0.0,180.0,360.0
3784640,36.01302733333333,129.320053,130.98628834704041,69.60940414956488,1.5,232.0,,0.890625,-2.22265625,-0.5546875,-0.298828125,0.07421875,0.181640625,0.0,180.0,360.0
3784641,,,,,,,,1.09765625,-0.84375,-0.26953125,-0.298828125,0.07421875,0.181640625,0.0,180.0,360.0
3784642,,,,,,,,1.09765625,-0.84375,-0.26953125,-0.876953125,-0.013671875,0.24609375,0.0,180.0,360.0
3784643,,,,,,,,1.09765625,-0.84375,-0.26953125,-0.876953125,-0.013671875,0.24609375,0.0,180.0,360.0
3784644,,,,,,,,1.09765625,-0.84375,-0.26953125,-0.841796875,0.060546875,0.1328125,0.0,180.0,360.0
3784645,,,,,,,,-1.65234375,-5.64453125,5.0,-0.841796875,0.060546875,0.1328125,0.0,180.0,360.0
3784646,,,,,,,,-1.65234375,-5.64453125,5.0,-0.130859375,-0.26171875,0.154296875,0.0,180.0,360.0
3784647,,,,,,,,-1.65234375,-5.64453125,5.0,0.171875,-0.07421875,0.181640625,0.0,180.0,360.0
3784648,,,,,,,,-2.125,-4.16796875,3.26953125,0.171875,-0.07421875,0.181640625,0.0,180.0,360.0
3784649,,,,,,,,-2.125,-4.16796875,3.26953125,-0.005859375,-0.013671875,0.16015625,0.0,180.0,360.0
3784650,36.0130265,129.32005183333334,130.88111605854135,69.51693654715116,1.4000000000000001,229.0,,-0.140625,-2.7109375,2.5625,-0.005859375,-0.013671875,0.16015625,0.0,180.0,360.0
3784651,,,,,,,,-0.140625,-2.7109375,2.5625,0.0859375,0.1953125,0.041015625,0.0,180.0,360.0
3784652,,,,,,,,0.35546875,-1.859375,2.9296875,0.0859375,0.1953125,0.041015625,0.0,180.0,360.0
3784653,,,,,,,,0.35546875,-1.859375,2.9296875,0.15234375,0.044921875,-0.140625,0.0,180.0,360.0
3784654,,,,,,,,0.35546875,-1.859375,2.9296875,-0.05078125,0.0625,-0.189453125,0.0,180.0,360.0
3784655,,,,,,,,-0.6015625,-0.48046875,1.60546875,-0.05078125,0.0625,-0.189453125,0.0,180.0,360.0
3784656,,,,,,,,-0.6015625,-0.48046875,1.60546875,-0.068359375,0.056640625,-0.1875,0.0,180.0,360.0
3784657,,,,,,,,-0.32421875,-0.05859375,0.5,-0.068359375,0.056640625,-0.1875,0.0,180.0,360.0
3784658,,,,,,,,-0.32421875,-0.05859375,0.5,0.01171875,0.0546875,-0.212890625,0.0,180.0,360.0
3784659,,,,,,,,-0.25,0.4140625,0.15625,0.01171875,0.0546875,-0.212890625,0.0,180.0,360.0
3784660,36.013025500000005,129.32005083333334,130.79096885304637,69.4059759625777,1.5,226.0,,-0.25,0.4140625,0.15625,0.056640625,-0.001953125,-0.232421875,0.0,180.0,360.0
3784661,,,,,,,,-0.28125,1.296875,-0.38671875,0.056640625,-0.001953125,-0.232421875,0.0,180.0,360.0
3784662,,,,,,,,-0.28125,1.296875,-0.38671875,0.10546875,-0.07421875,-0.240234375,0.0,180.0,360.0
3784663,,,,,,,,-0.359375,3.15625,-1.21484375,0.10546875,-0.07421875,-0.240234375,0.0,180.0,360.0
3784664,,,,,,,,-0.359375,3.15625,-1.21484375,0.15234375,-0.08984375,-0.228515625,0.0,180.0,360.0
3784665,,,,,,,,-0.359375,3.15625,-1.21484375,0.17578125,-0.091796875,-0.17578125,0.0,180.0,360.0
3784666,,,,,,,,-0.66015625,4.13671875,-1.63671875,0.17578125,-0.091796875,-0.17578125,0.0,180.0,360.0
3784667,,,,,,,,-0.66015625,4.13671875,-1.63671875,0.1953125,-0.1015625,-0.115234375,0.0,180.0,360.0
3784668,,,,,,,,-1.07421875,3.9765625,-1.67578125,0.1953125,-0.1015625,-0.115234375,0.0,180.0,360.0
3784669,,,,,,,,-1.07421875,3.9765625,-1.67578125,0.1953125,-0.078125,-0.0546875,0.0,180.0,360.0
3784670,36.013025,129.32004933333334,130.6557463911419,69.35049432885695,1.3,229.0,,-1.328125,3.00390625,-1.515625,0.1953125,-0.078125,-0.0546875,0.0,180.0,360.0
3784671,,,,,,,,-1.328125,3.00390625,-1.515625,0.248046875,-0.07421875,-0.013671875,0.0,180.0,360.0
3784672,,,,,,,,-1.2578125,2.3984375,-1.42578125,0.248046875,-0.07421875,-0.013671875,0.0,180.0,360.0
3784673,,,,,,,,-1.2578125,2.3984375,-1.42578125,0.255859375,-0.087890625,0.001953125,0.0,180.0,360.0
3784674,,,,,,,,-1.2578125,2.3984375,-1.42578125,0.255859375,-0.087890625,0.001953125,0.0,180.0,360.0
3784675,,,,,,,,-1.2578125,2.3984375,-1.42578125,0.224609375,-0.107421875,0.01171875,0.0,180.0,360.0
3784676,,,,,,,,-0.96875,1.44140625,-1.55078125,0.224609375,-0.107421875,0.01171875,0.0,180.0,360.0
3784677,,,,,,,,-0.96875,1.44140625,-1.55078125,0.14453125,-0.091796875,0.0234375,0.0,180.0,360.0
3784678,,,,,,,,-0.96875,1.44140625,-1.55078125,0.091796875,-0.025390625,0.001953125,0.0,180.0,360.0
3784679,,,,,,,,-0.578125,-0.0703125,-1.2734375,0.091796875,-0.025390625,0.001953125,0.0,180.0,360.0
3784680,36.01302416666667,129.32004816666668,130.55057409576716,69.25802672961768,1.5,231.0,,-0.578125,-0.0703125,-1.2734375,0.046875,0.00390625,-0.044921875,0.0,180.0,360.0
3784681,,,,,,,,-0.578125,-0.5,-0.9765625,0.046875,0.00390625,-0.044921875,0.0,180.0,360.0
3784682,,,,,,,,-0.578125,-0.5,-0.9765625,0.046875,0.00390625,-0.044921875,0.0,180.0,360.0
3784683,,,,,,,,-0.578125,-0.5,-0.9765625,-0.0546875,0.064453125,-0.1171875,0.0,180.0,360.0
3784684,,,,,,,,-0.62890625,-1.2734375,-0.859375,-0.0546875,0.064453125,-0.1171875,0.0,180.0,360.0
3784685,,,,,,,,-0.62890625,-1.2734375,-0.859375,-0.263671875,0.052734375,-0.09765625,0.0,180.0,360.0
3784686,,,,,,,,-0.578125,-1.42578125,-0.8984375,-0.263671875,0.052734375,-0.09765625,0.0,180.0,360.0
3784687,,,,,,,,-0.578125,-1.42578125,-0.8984375,-0.353515625,0.13671875,-0.09765625,0.0,180.0,360.0
3784688,,,,,,,,-0.5078125,-1.21875,-0.765625,-0.353515625,0.13671875,-0.09765625,0.0,180.0,360.0
3784689,,,,,,,,-0.5078125,-1.21875,-0.765625,-0.462890625,0.115234375,-0.083984375,0.0,180.0,360.0
3784690,36.0130235,129.32004666666666,130.41535190296045,69.18405189317241,1.4000000000000001,232.0,,-0.5546875,-0.359375,-0.62109375,-0.462890625,0.115234375,-0.083984375,0.0,180.0,360.0
3784691,,,,,,,,-0.5546875,-0.359375,-0.62109375,-0.841796875,-0.251953125,0.048828125,0.0,180.0,360.0
3784692,,,,,,,,-0.5546875,-0.359375,-0.62109375,-0.841796875,-0.251953125,0.048828125,0.0,180.0,360.0
3784693,,,,,,,,-0.5546875,-0.359375,-0.62109375,-0.736328125,-0.404296875,0.033203125,0.0,180.0,360.0
3784694,,,,,,,,3.0703125,-5.859375,3.29296875,-0.736328125,-0.404296875,0.033203125,0.0,180.0,360.0
3784695,,,,,,,,3.0703125,-5.859375,3.29296875,-0.33203125,-0.224609375,-0.09765625,0.0,180.0,360.0
3784696,,,,,,,,3.0703125,-5.859375,3.29296875,0.359375,0.158203125,-0.31640625,0.0,180.0,360.0
3784697,,,,,,,,2.82421875,-2.90234375,3.9140625,0.359375,0.158203125,-0.31640625,0.0,180.0,360.0
3784698,,,,,,,,2.82421875,-2.90234375,3.9140625,0.578125,-0.044921875,-0.18359375,0.0,180.0,360.0
3784699,,,,,,,,-0.01171875,-3.65234375,4.41015625,0.578125,-0.044921875,-0.18359375,0.0,180.0,360.0
3784700,36.013022166666666,129.32004383333333,130.1599323234307,69.03610244954558,1.5,234.0,123.0,-0.01171875,-3.65234375,4.41015625,0.578125,-0.044921875,-0.18359375,0.0,180.0,360.0
3784701,,,,,,,,-0.01171875,-3.65234375,4.41015625,0.578125,-0.044921875,-0.18359375,0.0,180.0,360.0
3784702,,,,,,,,0.62109375,0.16796875,-1.10546875,0.080078125,0.2734375,-0.109375,0.0,180.0,360.0
3784703,,,,,,,,0.62109375,0.16796875,-1.10546875,0.052734375,0.30859375,-0.06640625,0.0,180.0,360.0
3784704,,,,,,,,0.62109375,0.16796875,-1.10546875,0.046875,0.255859375,-0.021484375,0.0,180.0,360.0
3784705,,,,,,,,0.70703125,-0.26953125,-0.73828125,0.046875,0.255859375,-0.021484375,0.0,180.0,360.0
3784706,,,,,,,,0.70703125,-0.26953125,-0.73828125,-0.02734375,0.1640625,0.0234375,0.0,180.0,360.0
3784707,,,,,,,,1.10546875,-0.3828125,-1.015625,-0.02734375,0.1640625,0.0234375,0.0,180.0,360.0
3784708,,,,,,,,1.10546875,-0.3828125,-1.015625,-0.16015625,0.1640625,0.048828125,0.0,180.0,360.0
3784709,,,,,,,,1.42578125,-1.11328125,-1.12109375,-0.16015625,0.1640625,0.048828125,0.0,180.0,360.0
3784710,36.01302016666667,129.32003983333334,129.79934015425522,68.81417863045462,1.5,235.0,,1.42578125,-1.11328125,-1.12109375,-0.189453125,0.203125,0.05859375,0.0,180.0,360.0
3784711,,,,,,,,0.9140625,-1.7109375,-0.33984375,-0.189453125,0.203125,0.05859375,0.0,180.0,360.0
3784712,,,,,,,,0.9140625,-1.7109375,-0.33984375,-0.375,0.201171875,0.111328125,0.0,180.0,360.0
3784713,,,,,,,,0.9140625,-1.7109375,-0.33984375,-0.76171875,0.12890625,0.203125,0.0,180.0,360.0
3784714,,,,,,,,0.65625,-3.00390625,-0.20703125,-0.76171875,0.12890625,0.203125,0.0,180.0,360.0
3784715,,,,,,,,0.65625,-3.00390625,-0.20703125,-0.5234375,0.0625,0.119140625,0.0,180.0,360.0
3784716,,,,,,,,-0.1875,-6.640625,1.19140625,-0.5234375,0.0625,0.119140625,0.0,180.0,360.0
3784717,,,,,,,,-0.1875,-6.640625,1.19140625,0.294921875,-0.267578125,0.103515625,0.0,180.0,360.0
3784718,,,,,,,,-2.36328125,-6.7421875,5.21875,0.294921875,-0.267578125,0.103515625,0.0,180.0,360.0
3784719,,,,,,,,-2.36328125,-6.7421875,5.21875,0.271484375,-0.28125,0.1484375,0.0,180.0,360.0
3784720,36.01301866666667,129.32003733333335,129.57397044822625,68.64773644014839,1.5,230.0,,-2.8828125,-0.12890625,3.04296875,0.271484375,-0.28125,0.1484375,0.0,180.0,360.0
3784721,,,,,,,,-2.8828125,-0.12890625,3.04296875,-0.166015625,-0.11328125,0.10546875,0.0,180.0,360.0
3784722,,,,,,,,2.80078125,-1.875,2.078125,-0.166015625,-0.11328125,0.10546875,0.0,180.0,360.0
3784723,,,,,,,,2.80078125,-1.875,2.078125,-0.087890625,0.25390625,-0.052734375,0.0,180.0,360.0
3784724,,,,,,,,2.80078125,-1.875,2.078125,-0.173828125,-0.138671875,-0.24609375,0.0,180.0,360.0
3784725,,,,,,,,0.74609375,-1.33203125,2.09375,-0.173828125,-0.138671875,-0.24609375,0.0,180.0,360.0
3784726,,,,,,,,0.74609375,-1.33203125,2.09375,-0.005859375,-0.03515625,-0.345703125,0.0,180.0,360.0
3784727,,,,,,,,0.04296875,-1.8515625,2.546875,-0.005859375,-0.03515625,-0.345703125,0.0,180.0,360.0
3784728,,,,,,,,0.04296875,-1.8515625,2.546875,0.142578125,0.142578125,-0.322265625,0.0,180.0,360.0
3784729,,,,,,,,-0.25,-0.6328125,1.296875,0.142578125,0.142578125,-0.322265625,0.0,180.0,360.0
3784730,36.013018,129.32003616666668,129.46879786077295,68.57376206188174,1.4000000000000001,229.0,,-0.25,-0.6328125,1.296875,0.099609375,0.111328125,-0.259765625,0.0,180.0,360.0
3784731,,,,,,,,0.12890625,0.9375,-0.12109375,0.099609375,0.111328125,-0.259765625,0.0,180.0,360.0
3784732,,,,,,,,0.12890625,0.9375,-0.12109375,0.080078125,0.126953125,-0.265625,0.0,180.0,360.0
3784733,,,,,,,,0.12890625,0.9375,-0.12109375,0.09765625,0.076171875,-0.30078125,0.0,180.0,360.0
3784734,,,,,,,,0.09765625,2.33984375,-0.95703125,0.09765625,0.076171875,-0.30078125,0.0,180.0,360.0
3784735,,,,,,,,0.09765625,2.33984375,-0.95703125,0.146484375,0.00390625,-0.322265625,0.0,180.0,360.0
3784736,,,,,,,,-0.37890625,2.828125,-1.1015625,0.146484375,0.00390625,-0.322265625,0.0,180.0,360.0
3784737,,,,,,,,-0.37890625,2.828125,-1.1015625,0.177734375,-0.02734375,-0.28515625,0.0,180.0,360.0
3784738,,,,,,,,-0.70703125,3.38671875,-1.2421875,0.177734375,-0.02734375,-0.28515625,0.0,180.0,360.0
3784739,,,,,,,,-0.70703125,3.38671875,-1.2421875,0.166015625,-0.017578125,-0.201171875,0.0,180.0,360.0
3784740,36.013017500000004,129.32003500000002,129.36362500206377,68.51828089089513,1.3,230.0,,-1.09765625,3.75390625,-1.51171875,0.166015625,-0.017578125,-0.201171875,0.0,180.0,360.0
3784741,,,,,,,,-1.09765625,3.75390625,-1.51171875,0.177734375,-0.05859375,-0.080078125,0.0,180.0,360.0
3784742,,,,,,,,-1.09765625,3.75390625,-1.51171875,0.177734375,-0.05859375,-0.080078125,0.0,180.0,360.0
3784743,,,,,,,,-1.09765625,3.75390625,-1.51171875,0.2421875,-0.0625,0.025390625,0.0,180.0,360.0
3784744,,,,,,,,-1.64453125,2.6875,-1.52734375,0.2421875,-0.0625,0.025390625,0.0,180.0,360.0
3784745,,,,,,,,-1.64453125,2.6875,-1.52734375,0.265625,-0.080078125,0.087890625,0.0,180.0,360.0
3784746,,,,,,,,-1.64453125,2.6875,-1.52734375,0.259765625,-0.09375,0.1328125,0.0,180.0,360.0
3784747,,,,,,,,-1.16015625,2.3125,-1.70703125,0.259765625,-0.09375,0.1328125,0.0,180.0,360.0
3784748,,,,,,,,-1.16015625,2.3125,-1.70703125,0.2109375,-0.080078125,0.140625,0.0,180.0,360.0
3784749,,,,,,,,-0.9453125,1.9921875,-1.66796875,0.2109375,-0.080078125,0.140625,0.0,180.0,360.0
3784750,36.013016666666665,129.3200336666667,129.2434278726187,68.4258130860766,1.4000000000000001,230.0,,-0.9453125,1.9921875,-1.66796875,0.123046875,-0.119140625,0.12109375,0.0,180.0,360.0
3784751,,,,,,,,-0.5390625,0.03125,-1.1171875,0.123046875,-0.119140625,0.12109375,0.0,180.0,360.0
3784752,,,,,,,,-0.5390625,0.03125,-1.1171875,0.119140625,-0.107421875,0.05078125,0.0,180.0,360.0
3784753,,,,,,,,-0.44921875,-0.72265625,-0.6484375,0.119140625,-0.107421875,0.05078125,0.0,180.0,360.0
3784754,,,,,,,,-0.44921875,-0.72265625,-0.6484375,0.09765625,-0.08984375,-0.041015625,0.0,180.0,360.0
3784755,,,,,,,,-0.44921875,-0.72265625,-0.6484375,-0.068359375,-0.109375,-0.080078125,0.0,180.0,360.0
3784756,,,,,,,,-0.6640625,-0.69140625,-1.00390625,-0.068359375,-0.109375,-0.080078125,0.0,180.0,360.0
3784757,,,,,,,,-0.6640625,-0.69140625,-1.00390625,-0.298828125,-0.138671875,-0.091796875,0.0,180.0,360.0
3784758,,,,,,,,-0.640625,-0.9140625,-1.125,-0.298828125,-0.138671875,-0.091796875,0.0,180.0,360.0
3784759,,,,,,,,-0.640625,-0.9140625,-1.125,-0.404296875,-0.041015625,-0.109375,0.0,180.0,360.0
3784760,36.01301616666667,129.32003233333336,129.1232301970251,68.37033169768333,1.4000000000000001,231.0,,-0.35546875,-1.328125,-0.9375,-0.404296875,-0.041015625,-0.109375,0.0,180.0,360.0
3784761,,,,,,,,-0.35546875,-1.328125,-0.9375,-0.439453125,0.03125,-0.1328125,0.0,180.0,360.0
3784762,,,,,,,,-0.35546875,-1.328125,-0.9375,-0.439453125,0.03125,-0.1328125,0.0,180.0,360.0
3784763,,,,,,,,-0.35546875,-1.328125,-0.9375,-0.740234375,-0.24609375,-0.0234375,0.0,180.0,360.0
3784764,,,,,,,,-2.01171875,-2.0546875,0.1171875,-0.740234375,-0.24609375,-0.0234375,0.0,180.0,360.0
3784765,,,,,,,,-2.01171875,-2.0546875,0.1171875,-0.951171875,-0.70703125,0.10546875,0.0,180.0,360.0
3784766,,,,,,,,-2.01171875,-2.0546875,0.1171875,-0.728515625,-0.6171875,0.07421875,0.0,180.0,360.0
3784767,,,,,,,,3.3359375,-6.08203125,2.58984375,-0.728515625,-0.6171875,0.07421875,0.0,180.0,360.0
3784768,,,,,,,,3.3359375,-6.08203125,2.58984375,-0.02734375,-0.07421875,-0.177734375,0.0,180.0,360.0
3784769,,,,,,,,4.8828125,-5.1328125,2.66796875,-0.02734375,-0.07421875,-0.177734375,0.0,180.0,360.0
3784770,36.0130155,129.32003116666667,129.01805760033903,68.2963573247879,1.4000000000000001,230.0,,4.8828125,-5.1328125,2.66796875,0.388671875,-0.00390625,-0.220703125,0.0,180.0,360.0
3784771,,,,,,,,0.859375,-3.99609375,4.828125,0.388671875,-0.00390625,-0.220703125,0.0,180.0,360.0
3784772,,,,,,,,0.859375,-3.99609375,4.828125,0.875,0.072265625,-0.185546875,0.0,180.0,360.0
3784773,,,,,,,,-0.19140625,-3.0546875,2.69921875,0.875,0.072265625,-0.185546875,0.0,180.0,360.0
3784774,,,,,,,,-0.19140625,-3.0546875,2.69921875,0.56640625,-0.03125,0.013671875,0.0,180.0,360.0
3784775,,,,,,,,-0.19140625,-3.0546875,2.69921875,-0.017578125,-0.193359375,0.298828125,0.0,180.0,360.0
3784776,,,,,,,,0.0546875,0.3203125,0.09375,-0.017578125,-0.193359375,0.298828125,0.0,180.0,360.0
3784777,,,,,,,,0.0546875,0.3203125,0.09375,0.0703125,-0.142578125,0.369140625,0.0,180.0,360.0
3784778,,,,,,,,0.03125,-1.1875,1.3203125,0.0703125,-0.142578125,0.369140625,0.0,180.0,360.0
3784779,,,,,,,,0.03125,-1.1875,1.3203125,0.08984375,-0.1015625,0.345703125,0.0,180.0,360.0
3784780,36.01301483333334,129.3200298333333,128.89786018866585,68.22238273260149,1.4000000000000001,232.0,,0.27734375,-0.8359375,1.02734375,0.08984375,-0.1015625,0.345703125,0.0,180.0,360.0
3784781,,,,,,,,0.27734375,-0.8359375,1.02734375,0.021484375,-0.13671875,0.322265625,0.0,180.0,360.0
3784782,,,,,,,,0.27734375,-0.8359375,1.02734375,0.021484375,-0.13671875,0.322265625,0.0,180.0,360.0
3784783,,,,,,,,0.27734375,-0.8359375,1.02734375,-0.005859375,-0.109375,0.322265625,0.0,180.0,360.0
3784784,,,,,,,,-0.03515625,2.53125,-1.23828125,-0.005859375,-0.109375,0.322265625,0.0,180.0,360.0
3784785,,,,,,,,-0.03515625,2.53125,-1.23828125,0.029296875,-0.0078125,0.3359375,0.0,180.0,360.0
3784786,,,,,,,,-0.03515625,2.53125,-1.23828125,0.14453125,0.05078125,0.28515625,0.0,180.0,360.0
3784787,,,,,,,,0.08203125,3.07421875,-1.41015625,0.14453125,0.05078125,0.28515625,0.0,180.0,360.0
3784788,,,,,,,,0.08203125,3.07421875,-1.41015625,0.212890625,0.08203125,0.185546875,0.0,180.0,360.0
3784789,,,,,,,,0.93359375,3.71875,-1.9453125,0.212890625,0.08203125,0.185546875,0.0,180.0,360.0
3784790,36.01301433333333,129.32002849999998,128.77766250809728,68.16690134788294,1.3,234.0,,0.93359375,3.71875,-1.9453125,0.185546875,0.126953125,0.076171875,0.0,180.0,360.0
3784791,,,,,,,,1.125,3.671875,-2.21484375,0.185546875,0.126953125,0.076171875,0.0,180.0,360.0
3784792,,,,,,,,1.125,3.671875,-2.21484375,0.173828125,0.19921875,-0.009765625,0.0,180.0,360.0
3784793,,,,,,,,1.125,3.671875,-2.21484375,0.173828125,0.19921875,-0.009765625,0.0,180.0,360.0
3784794,,,,,,,,1.125,3.671875,-2.21484375,0.16015625,0.228515625,-0.048828125,0.0,180.0,360.0
3784795,,,,,,,,0.34765625,2.75,-1.95703125,0.16015625,0.228515625,-0.048828125,0.0,180.0,360.0
3784796,,,,,,,,0.34765625,2.75,-1.95703125,0.13671875,0.232421875,-0.060546875,0.0,180.0,360.0
3784797,,,,,,,,0.34765625,2.75,-1.95703125,0.15234375,0.24609375,-0.072265625,0.0,180.0,360.0
3784798,,,,,,,,0.5,1.38671875,-1.6875,0.15234375,0.24609375,-0.072265625,0.0,180.0,360.0
3784799,,,,,,,,0.5,1.38671875,-1.6875,0.154296875,0.234375,-0.060546875,0.0,180.0,360.0
3784800,36.01301283333333,129.32002566666668,128.52224314463578,68.00045874474274,1.5,232.0,123.0,0.60546875,0.4609375,-1.453125,0.154296875,0.234375,-0.060546875,0.0,180.0,360.0
3784801,,,,,,,,0.60546875,0.4609375,-1.453125,0.154296875,0.234375,-0.060546875,0.0,180.0,360.0
3784802,,,,,,,,0.60546875,0.4609375,-1.453125,0.1953125,0.1796875,-0.033203125,0.0,180.0,360.0
3784803,,,,,,,,0.60546875,0.4609375,-1.453125,-0.767578125,-0.046875,0.171875,0.0,180.0,360.0
3784804,,,,,,,,-2.73828125,-5.03125,5.37109375,-0.767578125,-0.046875,0.171875,0.0,180.0,360.0
3784805,,,,,,,,-2.73828125,-5.03125,5.37109375,0.287109375,-0.33203125,0.142578125,0.0,180.0,360.0
3784806,,,,,,,,-2.73828125,-5.03125,5.37109375,0.216796875,-0.265625,0.1796875,0.0,180.0,360.0
3784807,,,,,,,,-1.18359375,-0.91796875,2.97265625,0.216796875,-0.265625,0.1796875,0.0,180.0,360.0
3784808,,,,,,,,-1.18359375,-0.91796875,2.97265625,-0.119140625,0.169921875,0.115234375,0.0,180.0,360.0
3784809,,,,,,,,-1.18359375,-0.91796875,2.97265625,0.10546875,0.330078125,-0.126953125,0.0,180.0,360.0
3784810,36.013011166666665,129.32002333333332,128.31189847544695,67.81552360063958,1.5,228.0,,2.41796875,-1.9296875,2.015625,0.10546875,0.330078125,-0.126953125,0.0,180.0,360.0
3784811,,,,,,,,2.41796875,-1.9296875,2.015625,-0.083984375,0.09765625,-0.330078125,0.0,180.0,360.0
3784812,,,,,,,,0.203125,-1.66796875,1.578125,-0.083984375,0.09765625,-0.330078125,0.0,180.0,360.0
3784813,,,,,,,,0.203125,-1.66796875,1.578125,0.07421875,0.158203125,-0.369140625,0.0,180.0,360.0
3784814,,,,,,,,-0.39453125,-1.66796875,2.3515625,0.07421875,0.158203125,-0.369140625,0.0,180.0,360.0
3784815,,,,,,,,-0.39453125,-1.66796875,2.3515625,0.177734375,0.265625,-0.31640625,0.0,180.0,360.0
3784816,,,,,,,,-0.60546875,-0.52734375,0.90234375,0.177734375,0.265625,-0.31640625,0.0,180.0,360.0
3784817,,,,,,,,-0.60546875,-0.52734375,0.90234375,0.146484375,0.224609375,-0.29296875,0.0,180.0,360.0
3784818,,,,,,,,0.29296875,1.5625,-0.4609375,0.146484375,0.224609375,-0.29296875,0.0,180.0,360.0
3784819,,,,,,,,0.29296875,1.5625,-0.4609375,0.099609375,0.240234375,-0.3046875,0.0,180.0,360.0
3784820,36.013010333333334,129.32002216666666,128.20672613807,67.7230560298369,1.4000000000000001,229.0,,0.29296875,1.5625,-0.4609375,0.126953125,0.185546875,-0.330078125,0.0,180.0,360.0
3784821,,,,,,,,-0.23828125,2.8515625,-0.8828125,0.126953125,0.185546875,-0.330078125,0.0,180.0,360.0
3784822,,,,,,,,-0.23828125,2.8515625,-0.8828125,0.171875,0.150390625,-0.33984375,0.0,180.0,360.0
3784823,,,,,,,,-0.59375,3.6015625,-1.18359375,0.171875,0.150390625,-0.33984375,0.0,180.0,360.0
3784824,,,,,,,,-0.59375,3.6015625,-1.18359375,0.142578125,0.126953125,-0.298828125,0.0,180.0,360.0
3784825,,,,,,,,-0.953125,4.20703125,-1.4921875,0.142578125,0.126953125,-0.298828125,0.0,180.0,360.0
3784826,,,,,,,,-0.953125,4.20703125,-1.4921875,0.09765625,0.15625,-0.21875,0.0,180.0,360.0
3784827,,,,,,,,-1.61328125,3.9921875,-1.63671875,0.09765625,0.15625,-0.21875,0.0,180.0,360.0
3784828,,,,,,,,-1.61328125,3.9921875,-1.63671875,0.07421875,0.087890625,-0.107421875,0.0,180.0,360.0
3784829,,,,,,,,-1.61328125,3.9921875,-1.63671875,0.07421875,0.087890625,-0.107421875,0.0,180.0,360.0
3784830,36.01300966666667,129.32002116666666,128.11657834062277,67.64908188686466,1.3,230.0,,-1.61328125,3.9921875,-1.63671875,0.087890625,0.03125,0.0,0.0,180.0,360.0
3784831,,,,,,,,-2.05078125,2.625,-1.4921875,0.087890625,0.03125,0.0,0.0,180.0,360.0
3784832,,,,,,,,-2.05078125,2.625,-1.4921875,0.078125,-0.078125,0.068359375,0.0,180.0,360.0
3784833,,,,,,,,-2.05078125,2.625,-1.4921875,0.044921875,-0.15234375,0.09765625,0.0,180.0,360.0
3784834,,,,,,,,-1.69921875,2.41796875,-1.578125,0.044921875,-0.15234375,0.09765625,0.0,180.0,360.0
3784835,,,,,,,,-1.69921875,2.41796875,-1.578125,0.04296875,-0.173828125,0.09765625,0.0,180.0,360.0
3784836,,,,,,,,-1.0,1.26171875,-1.31640625,0.04296875,-0.173828125,0.09765625,0.0,180.0,360.0
3784837,,,,,,,,-1.0,1.26171875,-1.31640625,-0.001953125,-0.162109375,0.078125,0.0,180.0,360.0
3784838,,,,,,,,-0.6796875,-0.390625,-0.7421875,-0.001953125,-0.162109375,0.078125,0.0,180.0,360.0
3784839,,,,,,,,-0.6796875,-0.390625,-0.7421875,0.0078125,-0.162109375,0.025390625,0.0,180.0,360.0
3784840,36.01300883333333,129.32002,128.01140599866204,67.55661431855495,1.4000000000000001,228.0,,-0.6796875,-0.390625,-0.7421875,-0.01953125,-0.154296875,-0.03515625,0.0,180.0,360.0
3784841,,,,,,,,-0.6796875,-0.9375,-0.57421875,-0.01953125,-0.154296875,-0.03515625,0.0,180.0,360.0
3784842,,,,,,,,-0.6796875,-0.9375,-0.57421875,-0.130859375,-0.126953125,-0.091796875,0.0,180.0,360.0
3784843,,,,,,,,-0.6640625,-0.9375,-0.75,-0.130859375,-0.126953125,-0.091796875,0.0,180.0,360.0
3784844,,,,,,,,-0.6640625,-0.9375,-0.75,-0.35546875,-0.123046875,-0.115234375,0.0,180.0,360.0
3784845,,,,,,,,-0.5703125,-0.8515625,-1.0859375,-0.35546875,-0.123046875,-0.115234375,0.0,180.0,360.0
3784846,,,,,,,,-0.5703125,-0.8515625,-1.0859375,-0.470703125,-0.048828125,-0.1640625,0.0,180.0,360.0
3784847,,,,,,,,-0.328125,0.15234375,-0.8984375,-0.470703125,-0.048828125,-0.1640625,0.0,180.0,360.0
3784848,,,,,,,,-0.328125,0.15234375,-0.8984375,-0.67578125,-0.091796875,-0.138671875,0.0,180.0,360.0
3784849,,,,,,,,-0.328125,0.15234375,-0.8984375,-0.67578125,-0.091796875,-0.138671875,0.0,180.0,360.0
3784850,36.013008166666665,129.32001866666667,127.89120857229386,67.48263973987318,1.4000000000000001,228.0,,-0.328125,0.15234375,-0.8984375,-1.2109375,-0.482421875,0.056640625,0.0,180.0,360.0
3784851,,,,,,,,0.0,-5.40234375,0.51171875,-1.2109375,-0.482421875,0.056640625,0.0,180.0,360.0
3784852,,,,,,,,0.0,-5.40234375,0.51171875,-1.09765625,-0.576171875,0.064453125,0.0,180.0,360.0
3784853,,,,,,,,0.0,-5.40234375,0.51171875,-0.595703125,-0.154296875,-0.138671875,0.0,180.0,360.0
3784854,,,,,,,,3.6640625,-5.75,3.19140625,-0.595703125,-0.154296875,-0.138671875,0.0,180.0,360.0
3784855,,,,,,,,3.6640625,-5.75,3.19140625,-0.07421875,-0.052734375,-0.30859375,0.0,180.0,360.0
3784856,,,,,,,,4.8046875,-4.625,2.01171875,-0.07421875,-0.052734375,-0.30859375,0.0,180.0,360.0
3784857,,,,,,,,4.8046875,-4.625,2.01171875,0.4609375,-0.048828125,-0.1875,0.0,180.0,360.0
3784858,,,,,,,,0.359375,-5.03125,3.4296875,0.4609375,-0.048828125,-0.1875,0.0,180.0,360.0
3784859,,,,,,,,0.359375,-5.03125,3.4296875,0.73828125,0.080078125,-0.033203125,0.0,180.0,360.0
3784860,36.01300766666667,129.320017,127.74096124971163,67.427157932737,1.4000000000000001,232.0,,0.359375,-5.03125,3.4296875,0.41796875,-0.04296875,0.203125,0.0,180.0,360.0
3784861,,,,,,,,0.3671875,-2.3125,2.16796875,0.41796875,-0.04296875,0.203125,0.0,180.0,360.0
3784862,,,,,,,,0.3671875,-2.3125,2.16796875,0.275390625,-0.08203125,0.3046875,0.0,180.0,360.0
3784863,,,,,,,,0.4140625,-0.84765625,1.37890625,0.275390625,-0.08203125,0.3046875,0.0,180.0,360.0
3784864,,,,,,,,0.4140625,-0.84765625,1.37890625,0.23828125,-0.091796875,0.349609375,0.0,180.0,360.0
3784865,,,,,,,,0.3515625,-0.62109375,0.75,0.23828125,-0.091796875,0.349609375,0.0,180.0,360.0
3784866,,,,,,,,0.3515625,-0.62109375,0.75,0.162109375,-0.111328125,0.375,0.0,180.0,360.0
3784867,,,,,,,,-0.390625,1.3359375,-0.31640625,0.162109375,-0.111328125,0.375,0.0,180.0,360.0
3784868,,,,,,,,-0.390625,1.3359375,-0.31640625,0.162109375,-0.111328125,0.375,0.0,180.0,360.0
3784869,,,,,,,,-0.390625,1.3359375,-0.31640625,0.115234375,-0.1015625,0.396484375,0.0,180.0,360.0
3784870,36.013007,129.32001566666668,127.62076381980951,67.3531833589194,1.4000000000000001,234.0,,-0.2890625,2.65234375,-1.12109375,0.115234375,-0.1015625,0.396484375,0.0,180.0,360.0
3784871,,,,,,,,-0.2890625,2.65234375,-1.12109375,0.09375,-0.03125,0.388671875,0.0,180.0,360.0
3784872,,,,,,,,-0.0234375,2.96484375,-1.30859375,0.09375,-0.03125,0.388671875,0.0,180.0,360.0
3784873,,,,,,,,-0.0234375,2.96484375,-1.30859375,0.154296875,0.017578125,0.318359375,0.0,180.0,360.0
3784874,,,,,,,,0.34375,3.28125,-1.453125,0.154296875,0.017578125,0.318359375,0.0,180.0,360.0
3784875,,,,,,,,0.34375,3.28125,-1.453125,0.17578125,0.0546875,0.220703125,0.0,180.0,360.0
3784876,,,,,,,,1.05078125,3.43359375,-1.8671875,0.17578125,0.0546875,0.220703125,0.0,180.0,360.0
3784877,,,,,,,,1.05078125,3.43359375,-1.8671875,0.169921875,0.134765625,0.1171875,0.0,180.0,360.0
3784878,,,,,,,,1.14453125,3.265625,-2.03515625,0.169921875,0.134765625,0.1171875,0.0,180.0,360.0
3784879,,,,,,,,1.14453125,3.265625,-2.03515625,0.16015625,0.23046875,0.041015625,0.0,180.0,360.0
3784880,36.01300633333334,129.32001466666668,127.53061601355496,67.27920922151296,1.3,234.0,,1.14453125,3.265625,-2.03515625,0.212890625,0.267578125,-0.00390625,0.0,180.0,360.0
3784881,,,,,,,,0.74609375,2.5234375,-1.73828125,0.212890625,0.267578125,-0.00390625,0.0,180.0,360.0
3784882,,,,,,,,0.74609375,2.5234375,-1.73828125,0.265625,0.291015625,-0.037109375,0.0,180.0,360.0
3784883,,,,,,,,0.72265625,1.85546875,-1.6328125,0.265625,0.291015625,-0.037109375,0.0,180.0,360.0
3784884,,,,,,,,0.72265625,1.85546875,-1.6328125,0.248046875,0.30078125,-0.05859375,0.0,180.0,360.0
3784885,,,,,,,,0.76171875,1.21875,-1.53515625,0.248046875,0.30078125,-0.05859375,0.0,180.0,360.0
3784886,,,,,,,,0.76171875,1.21875,-1.53515625,0.189453125,0.1875,-0.041015625,0.0,180.0,360.0
3784887,,,,,,,,0.34765625,0.62890625,-1.15234375,0.189453125,0.1875,-0.041015625,0.0,180.0,360.0
3784888,,,,,,,,0.34765625,0.62890625,-1.15234375,0.189453125,0.1875,-0.041015625,0.0,180.0,360.0
3784889,,,,,,,,0.34765625,0.62890625,-1.15234375,0.1484375,0.07421875,0.041015625,0.0,180.0,360.0
3784890,36.013005666666665,129.32001316666668,127.39539376673748,67.2052344309203,1.4000000000000001,235.0,,0.69921875,-0.859375,-0.6328125,0.1484375,0.07421875,0.041015625,0.0,180.0,360.0
3784891,,,,,,,,0.69921875,-0.859375,-0.6328125,0.033203125,-0.0234375,0.095703125,0.0,180.0,360.0
3784892,,,,,,,,0.75390625,-1.2890625,-0.42578125,0.033203125,-0.0234375,0.095703125,0.0,180.0,360.0
3784893,,,,,,,,0.75390625,-1.2890625,-0.42578125,-0.025390625,-0.046875,0.09765625,0.0,180.0,360.0
3784894,,,,,,,,1.0,-2.16796875,-0.41796875,-0.025390625,-0.046875,0.09765625,0.0,180.0,360.0
3784895,,,,,,,,1.0,-2.16796875,-0.41796875,-0.1328125,0.0078125,0.09375,0.0,180.0,360.0
3784896,,,,,,,,0.9296875,-2.24609375,-0.02734375,-0.1328125,0.0078125,0.09375,0.0,180.0,360.0
3784897,,,,,,,,0.9296875,-2.24609375,-0.02734375,-0.642578125,0.029296875,0.15234375,0.0,180.0,360.0
3784898,,,,,,,,0.9296875,-2.24609375,-0.02734375,-0.642578125,0.029296875,0.15234375,0.0,180.0,360.0
3784899,,,,,,,,0.9296875,-2.24609375,-0.02734375,-1.03515625,0.033203125,0.150390625,0.0,180.0,360.0
3784900,36.013004,129.320011,127.20007386617287,67.02029953173556,1.4000000000000001,228.0,123.0,0.9296875,-2.24609375,-0.02734375,-1.03515625,0.033203125,0.150390625,0.0,180.0,360.0
3784901,,,,,,,,0.9296875,-2.24609375,-0.02734375,-1.03515625,0.033203125,0.150390625,0.0,180.0,360.0
3784902,,,,,,,,0.44921875,-3.29296875,1.07421875,-1.03515625,0.033203125,0.150390625,0.0,180.0,360.0
3784903,,,,,,,,0.44921875,-3.29296875,1.07421875,-0.755859375,-0.04296875,0.080078125,0.0,180.0,360.0
3784904,,,,,,,,0.44921875,-3.29296875,1.07421875,0.091796875,0.07421875,-0.302734375,0.0,180.0,360.0
3784905,,,,,,,,0.44921875,-3.29296875,1.07421875,0.091796875,0.07421875,-0.302734375,0.0,180.0,360.0
3784906,,,,,,,,0.44921875,-3.29296875,1.07421875,0.205078125,0.068359375,-0.291015625,0.0,180.0,360.0
3784907,,,,,,,,-1.1015625,3.2109375,-1.25390625,0.205078125,0.068359375,-0.291015625,0.0,180.0,360.0
3784908,,,,,,,,-1.1015625,3.2109375,-1.25390625,0.185546875,0.0078125,-0.177734375,0.0,180.0,360.0
3784909,,,,,,,,-1.48046875,3.1875,-1.34765625,0.185546875,0.0078125,-0.177734375,0.0,180.0,360.0
3784910,36.01300233333333,129.32000883333333,127.00475396217378,66.83536463539264,1.3,226.0,,-1.48046875,3.1875,-1.34765625,0.19140625,-0.033203125,-0.080078125,0.0,180.0,360.0
3784911,,,,,,,,-1.625,3.1640625,-1.34765625,0.19140625,-0.033203125,-0.080078125,0.0,180.0,360.0
3784912,,,,,,,,-1.625,3.1640625,-1.34765625,0.162109375,-0.111328125,0.02734375,0.0,180.0,360.0
3784913,,,,,,,,-1.7109375,2.96484375,-1.41796875,0.162109375,-0.111328125,0.02734375,0.0,180.0,360.0
3784914,,,,,,,,-1.7109375,2.96484375,-1.41796875,0.171875,-0.16015625,0.08984375,0.0,180.0,360.0
3784915,,,,,,,,-1.7109375,2.96484375,-1.41796875,0.171875,-0.16015625,0.08984375,0.0,180.0,360.0
3784916,,,,,,,,-1.7109375,2.96484375,-1.41796875,0.169921875,-0.181640625,0.12109375,0.0,180.0,360.0
3784917,,,,,,,,-1.33984375,1.78515625,-1.41015625,0.169921875,-0.181640625,0.12109375,0.0,180.0,360.0
3784918,,,,,,,,-1.33984375,1.78515625,-1.41015625,0.107421875,-0.220703125,0.140625,0.0,180.0,360.0
3784919,,,,,,,,-1.33984375,1.78515625,-1.41015625,0.08984375,-0.25,0.12109375,0.0,180.0,360.0
3784920,36.01300166666667,129.32000766666667,126.89958133131157,66.76139028838617,1.3,228.0,,-1.01953125,0.8515625,-1.15625,0.08984375,-0.25,0.12109375,0.0,180.0,360.0
3784921,,,,,,,,-1.01953125,0.8515625,-1.15625,0.134765625,-0.216796875,0.060546875,0.0,180.0,360.0
3784922,,,,,,,,-0.4765625,-0.91796875,-0.4453125,0.134765625,-0.216796875,0.060546875,0.0,180.0,360.0
3784923,,,,,,,,-0.4765625,-0.91796875,-0.4453125,0.103515625,-0.15625,-0.005859375,0.0,180.0,360.0
3784924,,,,,,,,-0.4765625,-1.05078125,-0.4609375,0.103515625,-0.15625,-0.005859375,0.0,180.0,360.0
3784925,,,,,,,,-0.4765625,-1.05078125,-0.4609375,-0.0625,-0.12890625,-0.05859375,0.0,180.0,360.0
3784926,,,,,,,,-0.4765625,-1.05078125,-0.4609375,-0.0625,-0.12890625,-0.05859375,0.0,180.0,360.0
3784927,,,,,,,,-0.4765625,-1.05078125,-0.4609375,-0.263671875,-0.048828125,-0.107421875,0.0,180.0,360.0
3784928,,,,,,,,0.328125,-1.234375,-0.88671875,-0.263671875,-0.048828125,-0.107421875,0.0,180.0,360.0
3784929,,,,,,,,0.328125,-1.234375,-0.88671875,-0.34765625,0.05859375,-0.1796875,0.0,180.0,360.0
3784930,36.013000166666664,129.32000533333334,126.68923633197049,66.59494839040758,1.3,227.0,,0.328125,-1.234375,-0.88671875,-0.486328125,0.021484375,-0.20703125,0.0,180.0,360.0
3784931,,,,,,,,-0.66796875,0.62109375,-0.52734375,-0.486328125,0.021484375,-0.20703125,0.0,180.0,360.0
3784932,,,,,,,,-0.66796875,0.62109375,-0.52734375,-0.90625,-0.25390625,-0.056640625,0.0,180.0,360.0
3784933,,,,,,,,-1.7734375,1.41015625,-0.140625,-0.90625,-0.25390625,-0.056640625,0.0,180.0,360.0
3784934,,,,,,,,-1.7734375,1.41015625,-0.140625,-0.90625,-0.25390625,-0.056640625,0.0,180.0,360.0
3784935,,,,,,,,-1.7734375,1.41015625,-0.140625,-0.955078125,-0.490234375,0.080078125,0.0,180.0,360.0
3784936,,,,,,,,2.6484375,-5.1015625,2.62109375,-0.955078125,-0.490234375,0.080078125,0.0,180.0,360.0
3784937,,,,,,,,2.6484375,-5.1015625,2.62109375,-0.1171875,-0.0625,-0.25,0.0,180.0,360.0
3784938,,,,,,,,4.2265625,-4.87109375,2.58203125,-0.1171875,-0.0625,-0.25,0.0,180.0,360.0
3784939,,,,,,,,4.2265625,-4.87109375,2.58203125,0.251953125,-0.109375,-0.259765625,0.0,180.0,360.0
3784940,36.012999666666666,129.32000383333335,126.55401380083535,66.53946681937855,1.4000000000000001,230.0,,3.22265625,-3.078125,3.34765625,0.251953125,-0.109375,-0.259765625,0.0,180.0,360.0
3784941,,,,,,,,3.22265625,-3.078125,3.34765625,0.8515625,0.12109375,-0.177734375,0.0,180.0,360.0
3784942,,,,,,,,0.37890625,-4.40234375,3.484375,0.8515625,0.12109375,-0.177734375,0.0,180.0,360.0
3784943,,,,,,,,0.37890625,-4.40234375,3.484375,0.599609375,0.134765625,0.029296875,0.0,180.0,360.0
3784944,,,,,,,,0.5234375,-1.453125,1.609375,0.599609375,0.134765625,0.029296875,0.0,180.0,360.0
3784945,,,,,,,,0.5234375,-1.453125,1.609375,0.33203125,0.1171875,0.17578125,0.0,180.0,360.0
3784946,,,,,,,,0.44140625,-0.63671875,1.15625,0.33203125,0.1171875,0.17578125,0.0,180.0,360.0
3784947,,,,,,,,0.44140625,-0.63671875,1.15625,0.2734375,0.09375,0.21875,0.0,180.0,360.0
3784948,,,,,,,,0.44140625,-0.63671875,1.15625,0.240234375,0.08984375,0.216796875,0.0,180.0,360.0
3784949,,,,,,,,-0.1875,0.390625,0.34375,0.240234375,0.08984375,0.216796875,0.0,180.0,360.0
3784950,36.012999,129.32000299999999,126.47889078936286,66.46549291010305,1.3,231.0,,-0.1875,0.390625,0.34375,0.140625,0.078125,0.234375,0.0,180.0,360.0
3784951,,,,,,,,-0.29296875,1.42578125,-0.31640625,0.140625,0.078125,0.234375,0.0,180.0,360.0
3784952,,,,,,,,-0.29296875,1.42578125,-0.31640625,0.10546875,0.09375,0.271484375,0.0,180.0,360.0
3784953,,,,,,,,-0.31640625,1.921875,-0.6484375,0.10546875,0.09375,0.271484375,0.0,180.0,360.0
3784954,,,,,,,,-0.31640625,1.921875,-0.6484375,0.10546875,0.09375,0.271484375,0.0,180.0,360.0
3784955,,,,,,,,-0.31640625,1.921875,-0.6484375,0.068359375,0.134765625,0.28515625,0.0,180.0,360.0
3784956,,,,,,,,0.23046875,2.8125,-1.40625,0.068359375,0.134765625,0.28515625,0.0,180.0,360.0
3784957,,,,,,,,0.23046875,2.8125,-1.40625,0.185546875,0.154296875,0.19921875,0.0,180.0,360.0
3784958,,,,,,,,0.4609375,3.04296875,-1.484375,0.185546875,0.154296875,0.19921875,0.0,180.0,360.0
3784959,,,,,,,,0.4609375,3.04296875,-1.484375,0.201171875,0.142578125,0.11328125,0.0,180.0,360.0
3784960,36.01299816666666,129.32000183333332,126.37371841616982,66.37302536201783,1.4000000000000001,230.0,,0.4609375,3.109375,-1.63671875,0.201171875,0.142578125,0.11328125,0.0,180.0,360.0
3784961,,,,,,,,0.4609375,3.109375,-1.63671875,0.2109375,0.181640625,0.037109375,0.0,180.0,360.0
3784962,,,,,,,,0.72265625,2.828125,-1.515625,0.2109375,0.181640625,0.037109375,0.0,180.0,360.0
3784963,,,,,,,,0.72265625,2.828125,-1.515625,0.25390625,0.24609375,-0.0234375,0.0,180.0,360.0
3784964,,,,,,,,0.84765625,2.8515625,-1.44921875,0.25390625,0.24609375,-0.0234375,0.0,180.0,360.0
3784965,,,,,,,,0.84765625,2.8515625,-1.44921875,0.248046875,0.296875,-0.068359375,0.0,180.0,360.0
3784966,,,,,,,,0.73828125,2.3203125,-1.7265625,0.248046875,0.296875,-0.068359375,0.0,180.0,360.0
3784967,,,,,,,,0.73828125,2.3203125,-1.7265625,0.169921875,0.3046875,-0.0859375,0.0,180.0,360.0
3784968,,,,,,,,0.73828125,2.3203125,-1.7265625,0.0625,0.23046875,-0.078125,0.0,180.0,360.0
3784969,,,,,,,,0.39453125,0.3125,-1.10546875,0.0625,0.23046875,-0.078125,0.0,180.0,360.0
3784970,36.0129975,129.32000033333333,126.2384961459461,66.29905059060873,1.4000000000000001,233.0,,0.39453125,0.3125,-1.10546875,0.1171875,0.150390625,-0.068359375,0.0,180.0,360.0
3784971,,,,,,,,0.65625,-1.08203125,-0.31640625,0.1171875,0.150390625,-0.068359375,0.0,180.0,360.0
3784972,,,,,,,,0.65625,-1.08203125,-0.31640625,0.291015625,0.078125,-0.0703125,0.0,180.0,360.0
3784973,,,,,,,,0.69140625,-1.44140625,0.2578125,0.291015625,0.078125,-0.0703125,0.0,180.0,360.0
3784974,,,,,,,,0.69140625,-1.44140625,0.2578125,0.15625,-0.046875,-0.005859375,0.0,180.0,360.0
3784975,,,,,,,,0.1875,-0.8984375,-0.40234375,0.15625,-0.046875,-0.005859375,0.0,180.0,360.0
3784976,,,,,,,,0.1875,-0.8984375,-0.40234375,-0.009765625,-0.140625,0.0703125,0.0,180.0,360.0
3784977,,,,,,,,0.1875,-0.8984375,-0.40234375,-0.158203125,-0.119140625,0.11328125,0.0,180.0,360.0
3784978,,,,,,,,0.33984375,-1.55078125,-0.1640625,-0.158203125,-0.119140625,0.11328125,0.0,180.0,360.0
3784979,,,,,,,,0.33984375,-1.55078125,-0.1640625,-0.595703125,-0.123046875,0.177734375,0.0,180.0,360.0
3784980,36.012996666666666,129.3199995,126.1633734002982,66.20658347628164,1.3,230.0,,0.70703125,-0.0703125,-0.6328125,-0.595703125,-0.123046875,0.177734375,0.0,180.0,360.0
3784981,,,,,,,,0.70703125,-0.0703125,-0.6328125,-0.978515625,-0.158203125,0.201171875,0.0,180.0,360.0
3784982,,,,,,,,1.26171875,-0.59765625,-0.7890625,-0.978515625,-0.158203125,0.201171875,0.0,180.0,360.0
3784983,,,,,,,,1.26171875,-0.59765625,-0.7890625,-0.662109375,-0.052734375,0.0859375,0.0,180.0,360.0
3784984,,,,,,,,-0.1328125,-3.6171875,2.1328125,-0.662109375,-0.052734375,0.0859375,0.0,180.0,360.0
3784985,,,,,,,,-0.1328125,-3.6171875,2.1328125,-0.34765625,-0.08984375,0.1171875,0.0,180.0,360.0
3784986,,,,,,,,-1.44921875,-3.0703125,2.6796875,-0.34765625,-0.08984375,0.1171875,0.0,180.0,360.0
3784987,,,,,,,,-1.44921875,-3.0703125,2.6796875,0.08203125,-0.033203125,0.08984375,0.0,180.0,360.0
3784988,,,,,,,,-1.44921875,-3.0703125,2.6796875,0.091796875,0.01953125,0.083984375,0.0,180.0,360.0
3784989,,,,,,,,-0.23828125,-2.34375,2.54296875,0.091796875,0.01953125,0.083984375,0.0,180.0,360.0
3784990,36.012995833333335,129.31999816666666,126.04317620518054,66.11411571673314,1.4000000000000001,228.0,,-0.23828125,-2.34375,2.54296875,0.173828125,0.236328125,-0.048828125,0.0,180.0,360.0
3784991,,,,,,,,1.18359375,-2.34375,2.05859375,0.173828125,0.236328125,-0.048828125,0.0,180.0,360.0
3784992,,,,,,,,1.18359375,-2.34375,2.05859375,0.18359375,0.0859375,-0.23046875,0.0,180.0,360.0
3784993,,,,,,,,0.40234375,-1.125,2.1328125,0.18359375,0.0859375,-0.23046875,0.0,180.0,360.0
3784994,,,,,,,,0.40234375,-1.125,2.1328125,0.087890625,-0.091796875,-0.287109375,0.0,180.0,360.0
3784995,,,,,,,,-0.2578125,-0.94140625,1.52734375,0.087890625,-0.091796875,-0.287109375,0.0,180.0,360.0
3784996,,,,,,,,-0.2578125,-0.94140625,1.52734375,0.134765625,-0.00390625,-0.30078125,0.0,180.0,360.0
3784997,,,,,,,,-0.2578125,-0.94140625,1.52734375,0.134765625,-0.00390625,-0.30078125,0.0,180.0,360.0
3784998,,,,,,,,-0.2578125,-0.94140625,1.52734375,0.134765625,0.05078125,-0.26953125,0.0,180.0,360.0
3784999,,,,,,,,0.17578125,1.2578125,-0.1953125,0.134765625,0.05078125,-0.26953125,0.0,180.0,360.0
3785000,36.01299433333334,129.31999583333334,125.83283117411654,65.94767383954644,1.4000000000000001,227.0,123.0,0.17578125,1.2578125,-0.1953125,0.109375,0.0625,-0.267578125,0.0,180.0,360.0
3785001,,,,,,,,0.17578125,1.2578125,-0.1953125,0.109375,0.0625,-0.267578125,0.0,180.0,360.0
3785002,,,,,,,,0.03125,2.359375,-0.765625,0.109375,0.0625,-0.267578125,0.0,180.0,360.0
3785003,,,,,,,,0.03125,2.359375,-0.765625,-0.404296875,0.22265625,-0.201171875,0.0,180.0,360.0
3785004,,,,,,,,0.03125,2.359375,-0.765625,-0.755859375,-0.123046875,-0.140625,0.0,180.0,360.0
3785005,,,,,,,,-2.53125,0.12890625,0.125,-0.755859375,-0.123046875,-0.140625,0.0,180.0,360.0
3785006,,,,,,,,-2.53125,0.12890625,0.125,-0.798828125,-0.501953125,-0.01171875,0.0,180.0,360.0
3785007,,,,,,,,0.984375,-4.98046875,0.78515625,-0.798828125,-0.501953125,-0.01171875,0.0,180.0,360.0
3785008,,,,,,,,0.984375,-4.98046875,0.78515625,-0.64453125,-0.509765625,-0.029296875,0.0,180.0,360.0
3785009,,,,,,,,0.984375,-4.98046875,0.78515625,-0.103515625,-0.091796875,-0.201171875,0.0,180.0,360.0
3785010,36.01299216666666,129.31999249999998,125.53233829348177,65.7072578486686,1.3,227.0,,2.9296875,-3.82421875,3.05859375,-0.103515625,-0.091796875,-0.201171875,0.0,180.0,360.0
3785011,,,,,,,,2.9296875,-3.82421875,3.05859375,0.162109375,-0.080078125,-0.19140625,0.0,180.0,360.0
3785012,,,,,,,,2.390625,-2.22265625,3.39453125,0.162109375,-0.080078125,-0.19140625,0.0,180.0,360.0
3785013,,,,,,,,2.390625,-2.22265625,3.39453125,0.5859375,0.091796875,-0.140625,0.0,180.0,360.0
3785014,,,,,,,,1.48828125,-3.42578125,3.90625,0.5859375,0.091796875,-0.140625,0.0,180.0,360.0
3785015,,,,,,,,1.48828125,-3.42578125,3.90625,0.294921875,0.05859375,0.052734375,0.0,180.0,360.0
3785016,,,,,,,,0.62890625,-2.23046875,2.234375,0.294921875,0.05859375,0.052734375,0.0,180.0,360.0
3785017,,,,,,,,0.62890625,-2.23046875,2.234375,-0.103515625,0.025390625,0.30859375,0.0,180.0,360.0
3785018,,,,,,,,0.62890625,-2.23046875,2.234375,-0.103515625,0.025390625,0.30859375,0.0,180.0,360.0
3785019,,,,,,,,0.62890625,-2.23046875,2.234375,-0.01953125,0.142578125,0.33984375,0.0,180.0,360.0
3785020,36.01299166666667,129.319991,125.39711574126656,65.65177629789463,1.4000000000000001,230.0,,0.37109375,-1.546875,1.16015625,-0.01953125,0.142578125,0.33984375,0.0,180.0,360.0
3785021,,,,,,,,0.37109375,-1.546875,1.16015625,0.087890625,0.201171875,0.30078125,0.0,180.0,360.0
3785022,,,,,,,,0.37109375,-1.546875,1.16015625,0.052734375,0.138671875,0.28515625,0.0,180.0,360.0
3785023,,,,,,,,-0.04296875,-0.12109375,0.32421875,0.052734375,0.138671875,0.28515625,0.0,180.0,360.0
3785024,,,,,,,,-0.04296875,-0.12109375,0.32421875,0.0703125,0.162109375,0.291015625,0.0,180.0,360.0
3785025,,,,,,,,-0.27734375,1.1953125,-0.46484375,0.0703125,0.162109375,0.291015625,0.0,180.0,360.0
3785026,,,,,,,,-0.27734375,1.1953125,-0.46484375,0.107421875,0.146484375,0.310546875,0.0,180.0,360.0
3785027,,,,,,,,-0.34375,2.8125,-1.03125,0.107421875,0.146484375,0.310546875,0.0,180.0,360.0
3785028,,,,,,,,-0.34375,2.8125,-1.03125,0.150390625,0.115234375,0.302734375,0.0,180.0,360.0
3785029,,,,,,,,-0.34375,2.8125,-1.03125,0.173828125,0.078125,0.2421875,0.0,180.0,360.0
3785030,36.01299100000001,129.31998983333332,125.29194308303535,65.57780196971999,1.3,231.0,,0.23828125,3.5390625,-1.39453125,0.173828125,0.078125,0.2421875,0.0,180.0,360.0
3785031,,,,,,,,0.23828125,3.5390625,-1.39453125,0.140625,0.08984375,0.158203125,0.0,180.0,360.0
3785032,,,,,,,,0.984375,3.89453125,-2.11328125,0.140625,0.08984375,0.158203125,0.0,180.0,360.0
3785033,,,,,,,,0.984375,3.89453125,-2.11328125,0.10546875,0.212890625,0.0859375,0.0,180.0,360.0
3785034,,,,,,,,0.9296875,3.49609375,-2.375,0.10546875,0.212890625,0.0859375,0.0,180.0,360.0
3785035,,,,,,,,0.9296875,3.49609375,-2.375,0.119140625,0.310546875,0.03515625,0.0,180.0,360.0
3785036,,,,,,,,0.609375,3.1015625,-2.20703125,0.119140625,0.310546875,0.03515625,0.0,180.0,360.0
3785037,,,,,,,,0.609375,3.1015625,-2.20703125,0.1484375,0.318359375,0.0234375,0.0,180.0,360.0
3785038,,,,,,,,0.33984375,2.51953125,-1.640625,0.1484375,0.318359375,0.0234375,0.0,180.0,360.0
3785039,,,,,,,,0.33984375,2.51953125,-1.640625,0.177734375,0.34375,0.00390625,0.0,180.0,360.0
