time,latitude,longitude,enu_x,enu_y,speed,course,Hrage,accX,accY,accZ,gyrX,gyrY,gyrZ,eulR,eulP,eulY
3858200,36.01250283333333,129.31932049999998,64.95268133754632,11.410547758621295,0.7000000000000001,211.0,123.0,-0.53125,3.78125,-1.48046875,0.07421875,1.7890625,-0.634765625,0.0,180.0,360.0
3858201,,,,,,,,-0.53125,3.78125,-1.48046875,0.07421875,1.7890625,-0.634765625,0.0,180.0,360.0
3858202,,,,,,,,-2.640625,3.50390625,-1.7109375,0.07421875,1.7890625,-0.634765625,0.0,180.0,360.0
3858203,,,,,,,,-3.04296875,-1.07421875,-0.32421875,0.07421875,1.7890625,-0.634765625,0.0,180.0,360.0
3858204,,,,,,,,-3.04296875,-1.07421875,-0.32421875,-0.208984375,1.470703125,-0.24609375,0.0,180.0,360.0
3858205,,,,,,,,-2.953125,-0.21875,-0.9296875,-0.208984375,1.470703125,-0.24609375,0.0,180.0,360.0
3858206,,,,,,,,-2.953125,-0.21875,-0.9296875,-0.30859375,1.46484375,-0.232421875,0.0,180.0,360.0
3858207,,,,,,,,-2.953125,-0.21875,-0.9296875,-0.30859375,1.46484375,-0.232421875,0.0,180.0,360.0
3858208,,,,,,,,-2.953125,-0.21875,-0.9296875,-0.458984375,1.41796875,-0.228515625,0.0,180.0,360.0
3858209,,,,,,,,-2.4296875,1.24609375,-1.05859375,-0.458984375,1.41796875,-0.228515625,0.0,180.0,360.0
3858210,36.01250266666667,129.31932016666667,64.92263165944387,11.392054332891831,0.1,65535.0,,-2.4296875,1.24609375,-1.05859375,-0.533203125,1.39453125,-0.2109375,0.0,180.0,360.0
3858211,,,,,,,,-2.16015625,1.5859375,-1.0390625,-0.533203125,1.39453125,-0.2109375,0.0,180.0,360.0
3858212,,,,,,,,-2.16015625,1.5859375,-1.0390625,-0.62109375,1.4375,-0.14453125,0.0,180.0,360.0
3858213,,,,,,,,-2.16015625,1.5859375,-1.0390625,-0.798828125,1.4609375,-0.05859375,0.0,180.0,360.0
3858214,,,,,,,,-1.3984375,1.04296875,-0.9453125,-0.798828125,1.4609375,-0.05859375,0.0,180.0,360.0
3858215,,,,,,,,-1.3984375,1.04296875,-0.9453125,-1.298828125,1.63671875,-0.037109375,0.0,180.0,360.0
3858216,,,,,,,,-0.15625,-1.484375,-0.66796875,-1.298828125,1.63671875,-0.037109375,0.0,180.0,360.0
3858217,,,,,,,,-0.15625,-1.484375,-0.66796875,-1.115234375,1.474609375,-0.01953125,0.0,180.0,360.0
3858218,,,,,,,,3.0703125,-10.234375,1.1484375,-1.115234375,1.474609375,-0.01953125,0.0,180.0,360.0
3858219,,,,,,,,3.0703125,-10.234375,1.1484375,0.44140625,1.900390625,-0.283203125,0.0,180.0,360.0
3858220,36.01250283333333,129.31932066666667,64.96770625076296,11.41054786980624,0.2,65535.0,,3.0703125,-10.234375,1.1484375,0.828125,1.875,-0.40234375,0.0,180.0,360.0
3858221,,,,,,,,-0.29296875,-3.5,0.9375,0.828125,1.875,-0.40234375,0.0,180.0,360.0
3858222,,,,,,,,-0.29296875,-3.5,0.9375,0.828125,1.875,-0.40234375,0.0,180.0,360.0
3858223,,,,,,,,-0.29296875,-3.5,0.9375,0.23046875,1.466796875,-0.3046875,0.0,180.0,360.0
3858224,,,,,,,,-0.1875,-2.3515625,-0.734375,0.23046875,1.466796875,-0.3046875,0.0,180.0,360.0
3858225,,,,,,,,-0.1875,-2.3515625,-0.734375,0.07421875,1.37109375,-0.28125,0.0,180.0,360.0
3858226,,,,,,,,-0.1875,-2.3515625,-0.734375,0.4375,1.30859375,-0.310546875,0.0,180.0,360.0
3858227,,,,,,,,0.04296875,-2.265625,0.09375,0.4375,1.30859375,-0.310546875,0.0,180.0,360.0
3858228,,,,,,,,0.04296875,-2.265625,0.09375,0.5859375,1.263671875,-0.400390625,0.0,180.0,360.0
3858229,,,,,,,,-0.2421875,0.7421875,-1.28125,0.5859375,1.263671875,-0.400390625,0.0,180.0,360.0
3858230,36.012503,129.31932133333333,65.02780574848482,11.429041521323459,0.5,93.0,,-0.2421875,0.7421875,-1.28125,0.576171875,1.275390625,-0.451171875,0.0,180.0,360.0
3858231,,,,,,,,-0.2421875,0.7421875,-1.28125,0.583984375,1.359375,-0.490234375,0.0,180.0,360.0
3858232,,,,,,,,-0.09765625,1.45703125,-1.8203125,0.583984375,1.359375,-0.490234375,0.0,180.0,360.0
3858233,,,,,,,,-0.09765625,1.45703125,-1.8203125,0.673828125,1.2265625,-0.517578125,0.0,180.0,360.0
3858234,,,,,,,,-0.55078125,2.58984375,-1.515625,0.673828125,1.2265625,-0.517578125,0.0,180.0,360.0
3858235,,,,,,,,-0.55078125,2.58984375,-1.515625,0.673828125,1.2265625,-0.517578125,0.0,180.0,360.0
3858236,,,,,,,,-0.55078125,2.58984375,-1.515625,0.71875,1.150390625,-0.55859375,0.0,180.0,360.0
3858237,,,,,,,,-0.671875,3.25390625,-1.6875,0.71875,1.150390625,-0.55859375,0.0,180.0,360.0
3858238,,,,,,,,-0.671875,3.25390625,-1.6875,0.787109375,1.09765625,-0.619140625,0.0,180.0,360.0
3858239,,,,,,,,-0.8515625,1.77734375,-1.1171875,0.787109375,1.09765625,-0.619140625,0.0,180.0,360.0
3858240,36.01250366666667,129.31932133333333,65.02780520080336,11.503014342497902,0.7000000000000001,54.0,,-0.8515625,1.77734375,-1.1171875,0.916015625,1.01953125,-0.71484375,0.0,180.0,360.0
3858241,,,,,,,,-1.08984375,1.71484375,-1.0,0.916015625,1.01953125,-0.71484375,0.0,180.0,360.0
3858242,,,,,,,,-1.08984375,1.71484375,-1.0,0.962890625,0.79296875,-0.75390625,0.0,180.0,360.0
3858243,,,,,,,,-1.10546875,1.91796875,-1.1875,0.962890625,0.79296875,-0.75390625,0.0,180.0,360.0
3858244,,,,,,,,-1.10546875,1.91796875,-1.1875,0.92578125,0.69921875,-0.810546875,0.0,180.0,360.0
3858245,,,,,,,,-1.0625,1.015625,-2.0234375,0.92578125,0.69921875,-0.810546875,0.0,180.0,360.0
3858246,,,,,,,,-1.0625,1.015625,-2.0234375,0.93359375,0.8828125,-0.8125,0.0,180.0,360.0
3858247,,,,,,,,-1.4609375,0.46875,-1.859375,0.93359375,0.8828125,-0.8125,0.0,180.0,360.0
3858248,,,,,,,,-1.4609375,0.46875,-1.859375,0.849609375,0.63671875,-0.650390625,0.0,180.0,360.0
3858249,,,,,,,,-1.4609375,0.46875,-1.859375,0.849609375,0.63671875,-0.650390625,0.0,180.0,360.0
3858250,36.01250433333333,129.31932233333333,65.11795410575299,11.576987831192476,0.9,43.0,,-1.4609375,0.46875,-1.859375,0.58984375,0.36328125,-0.373046875,0.0,180.0,360.0
3858251,,,,,,,,-0.29296875,-2.3828125,-0.34765625,0.58984375,0.36328125,-0.373046875,0.0,180.0,360.0
3858252,,,,,,,,-0.29296875,-2.3828125,-0.34765625,0.634765625,0.26171875,-0.224609375,0.0,180.0,360.0
3858253,,,,,,,,-0.29296875,-2.3828125,-0.34765625,0.5078125,0.275390625,-0.12890625,0.0,180.0,360.0
3858254,,,,,,,,1.60546875,-2.97265625,-0.91015625,0.5078125,0.275390625,-0.12890625,0.0,180.0,360.0
3858255,,,,,,,,1.60546875,-2.97265625,-0.91015625,0.451171875,0.541015625,-0.09765625,0.0,180.0,360.0
3858256,,,,,,,,2.21875,-3.49609375,-1.01953125,0.451171875,0.541015625,-0.09765625,0.0,180.0,360.0
3858257,,,,,,,,2.21875,-3.49609375,-1.01953125,0.76171875,0.833984375,-0.05859375,0.0,180.0,360.0
3858258,,,,,,,,0.98828125,-1.46484375,-1.234375,0.76171875,0.833984375,-0.05859375,0.0,180.0,360.0
3858259,,,,,,,,0.98828125,-1.46484375,-1.234375,0.462890625,1.16796875,0.017578125,0.0,180.0,360.0
3858260,36.012505000000004,129.31932333333333,65.20810300900082,11.650961322498823,1.2000000000000002,42.0,,1.3515625,-0.1328125,-1.5234375,0.462890625,1.16796875,0.017578125,0.0,180.0,360.0
3858261,,,,,,,,1.3515625,-0.1328125,-1.5234375,0.37109375,1.189453125,0.08984375,0.0,180.0,360.0
3858262,,,,,,,,1.3515625,-0.1328125,-1.5234375,0.81640625,1.3828125,-0.083984375,0.0,180.0,360.0
3858263,,,,,,,,0.42578125,0.1328125,-0.07421875,0.81640625,1.3828125,-0.083984375,0.0,180.0,360.0
3858264,,,,,,,,0.42578125,0.1328125,-0.07421875,1.279296875,1.33984375,-0.29296875,0.0,180.0,360.0
3858265,,,,,,,,-0.67578125,-0.98046875,4.44921875,1.279296875,1.33984375,-0.29296875,0.0,180.0,360.0
3858266,,,,,,,,-0.67578125,-0.98046875,4.44921875,1.08984375,1.689453125,-0.404296875,0.0,180.0,360.0
3858267,,,,,,,,-1.32421875,-0.046875,4.19140625,1.08984375,1.689453125,-0.404296875,0.0,180.0,360.0
3858268,,,,,,,,-1.32421875,-0.046875,4.19140625,0.650390625,1.095703125,-0.486328125,0.0,180.0,360.0
3858269,,,,,,,,-1.69921875,-2.76953125,5.703125,0.650390625,1.095703125,-0.486328125,0.0,180.0,360.0
3858270,36.012505499999996,129.31932416666666,65.28322713789345,11.70644149549885,1.2000000000000002,44.0,,-1.69921875,-2.76953125,5.703125,0.181640625,0.658203125,-0.51953125,0.0,180.0,360.0
3858271,,,,,,,,-1.69921875,-2.76953125,5.703125,0.201171875,1.12109375,-0.642578125,0.0,180.0,360.0
3858272,,,,,,,,-1.02734375,-6.27734375,5.9375,0.201171875,1.12109375,-0.642578125,0.0,180.0,360.0
3858273,,,,,,,,-1.02734375,-6.27734375,5.9375,-0.21484375,1.765625,-0.69921875,0.0,180.0,360.0
3858274,,,,,,,,1.59375,-4.4375,2.84375,-0.21484375,1.765625,-0.69921875,0.0,180.0,360.0
3858275,,,,,,,,1.59375,-4.4375,2.84375,-0.572265625,2.365234375,-1.140625,0.0,180.0,360.0
3858276,,,,,,,,3.40234375,-5.90234375,1.93359375,-0.572265625,2.365234375,-1.140625,0.0,180.0,360.0
3858277,,,,,,,,3.40234375,-5.90234375,1.93359375,-0.248046875,2.306640625,-1.8203125,0.0,180.0,360.0
3858278,,,,,,,,1.7578125,-3.85546875,0.6015625,-0.248046875,2.306640625,-1.8203125,0.0,180.0,360.0
3858279,,,,,,,,1.7578125,-3.85546875,0.6015625,-0.248046875,2.306640625,-1.8203125,0.0,180.0,360.0
3858280,36.01250733333333,129.31932566666669,65.4184498004445,11.909867761271354,1.5,39.0,,1.7578125,-3.85546875,0.6015625,-0.3515625,2.03515625,-1.91015625,0.0,180.0,360.0
3858281,,,,,,,,-5.02734375,0.0390625,-1.09375,-0.3515625,2.03515625,-1.91015625,0.0,180.0,360.0
3858282,,,,,,,,-5.02734375,0.0390625,-1.09375,-0.3515625,2.03515625,-1.91015625,0.0,180.0,360.0
3858283,,,,,,,,-5.02734375,0.0390625,-1.09375,-0.630859375,1.4375,-1.263671875,0.0,180.0,360.0
3858284,,,,,,,,-4.34375,3.38671875,-1.21875,-0.630859375,1.4375,-1.263671875,0.0,180.0,360.0
3858285,,,,,,,,-4.34375,3.38671875,-1.21875,-0.611328125,1.39453125,-0.943359375,0.0,180.0,360.0
3858286,,,,,,,,-4.34375,3.38671875,-1.21875,-0.474609375,1.35546875,-0.86328125,0.0,180.0,360.0
3858287,,,,,,,,-2.6953125,4.9453125,-1.32421875,-0.474609375,1.35546875,-0.86328125,0.0,180.0,360.0
3858288,,,,,,,,-2.6953125,4.9453125,-1.32421875,-0.12109375,1.12890625,-0.806640625,0.0,180.0,360.0
3858289,,,,,,,,-2.6953125,4.9453125,-1.32421875,-0.12109375,1.12890625,-0.806640625,0.0,180.0,360.0
3858290,36.012508000000004,129.31932783333332,65.61377305113633,11.98384204151533,1.8,44.0,,-2.6953125,4.9453125,-1.32421875,0.134765625,0.98828125,-0.861328125,0.0,180.0,360.0
3858291,,,,,,,,-4.0703125,9.28125,-4.15234375,0.134765625,0.98828125,-0.861328125,0.0,180.0,360.0
3858292,,,,,,,,-4.0703125,9.28125,-4.15234375,0.015625,0.6328125,-0.91796875,0.0,180.0,360.0
3858293,,,,,,,,-4.0703125,9.28125,-4.15234375,0.015625,0.6328125,-0.91796875,0.0,180.0,360.0
3858294,,,,,,,,-4.0703125,9.28125,-4.15234375,0.033203125,-0.005859375,-0.83984375,0.0,180.0,360.0
3858295,,,,,,,,-2.09765625,9.984375,-4.28125,0.033203125,-0.005859375,-0.83984375,0.0,180.0,360.0
3858296,,,,,,,,-2.09765625,9.984375,-4.28125,-0.150390625,-0.021484375,-0.732421875,0.0,180.0,360.0
3858297,,,,,,,,-2.09765625,9.984375,-4.28125,-0.421875,-0.099609375,-0.55859375,0.0,180.0,360.0
3858298,,,,,,,,-1.85546875,9.6328125,-4.3125,-0.421875,-0.099609375,-0.55859375,0.0,180.0,360.0
3858299,,,,,,,,-1.85546875,9.6328125,-4.3125,-0.421875,-0.099609375,-0.55859375,0.0,180.0,360.0
3858300,36.012509333333334,129.3193305,65.8541704708057,12.131789482309461,1.6,52.0,123.0,-1.85546875,9.6328125,-4.3125,-1.19921875,-0.119140625,-0.330078125,0.0,180.0,360.0
3858301,,,,,,,,-1.85546875,9.6328125,-4.3125,-1.19921875,-0.119140625,-0.330078125,0.0,180.0,360.0
3858302,,,,,,,,1.390625,-9.90625,2.89453125,-1.19921875,-0.119140625,-0.330078125,0.0,180.0,360.0
3858303,,,,,,,,1.47265625,-3.26953125,0.015625,-1.19921875,-0.119140625,-0.330078125,0.0,180.0,360.0
3858304,,,,,,,,1.47265625,-3.26953125,0.015625,-0.470703125,-1.291015625,1.712890625,0.0,180.0,360.0
3858305,,,,,,,,1.47265625,-3.26953125,0.015625,-0.470703125,-1.291015625,1.712890625,0.0,180.0,360.0
3858306,,,,,,,,1.47265625,-3.26953125,0.015625,-0.3515625,-1.11328125,1.435546875,0.0,180.0,360.0
3858307,,,,,,,,3.37890625,3.18359375,-1.890625,-0.3515625,-1.11328125,1.435546875,0.0,180.0,360.0
3858308,,,,,,,,3.37890625,3.18359375,-1.890625,-0.138671875,-0.865234375,1.1796875,0.0,180.0,360.0
3858309,,,,,,,,3.6484375,6.48046875,-2.6015625,-0.138671875,-0.865234375,1.1796875,0.0,180.0,360.0
3858310,36.012509666666666,129.3193313333333,65.92929473040772,12.168776456428901,1.5,53.0,,3.6484375,6.48046875,-2.6015625,-0.197265625,-0.373046875,0.958984375,0.0,180.0,360.0
3858311,,,,,,,,1.921875,11.64453125,-4.9453125,-0.197265625,-0.373046875,0.958984375,0.0,180.0,360.0
3858312,,,,,,,,1.921875,11.64453125,-4.9453125,-0.43359375,0.09375,0.869140625,0.0,180.0,360.0
3858313,,,,,,,,1.44140625,12.40625,-5.34765625,-0.43359375,0.09375,0.869140625,0.0,180.0,360.0
3858314,,,,,,,,1.44140625,12.40625,-5.34765625,-0.53125,0.587890625,0.81640625,0.0,180.0,360.0
3858315,,,,,,,,1.70703125,5.7109375,-2.82421875,-0.53125,0.587890625,0.81640625,0.0,180.0,360.0
3858316,,,,,,,,1.70703125,5.7109375,-2.82421875,0.203125,0.62109375,0.58984375,0.0,180.0,360.0
3858317,,,,,,,,1.70703125,5.7109375,-2.82421875,1.1171875,0.517578125,0.25,0.0,180.0,360.0
3858318,,,,,,,,-0.09765625,9.03515625,-1.3125,1.1171875,0.517578125,0.25,0.0,180.0,360.0
3858319,,,,,,,,-0.09765625,9.03515625,-1.3125,0.806640625,0.634765625,-0.060546875,0.0,180.0,360.0
3858320,36.01251066666667,129.319333,66.07954297320292,12.279736819111829,1.9000000000000001,49.0,,-0.44921875,11.65234375,-1.8125,0.806640625,0.634765625,-0.060546875,0.0,180.0,360.0
3858321,,,,,,,,-0.44921875,11.65234375,-1.8125,-1.478515625,0.763671875,-0.01953125,0.0,180.0,360.0
3858322,,,,,,,,0.47265625,12.59375,-0.2421875,-1.478515625,0.763671875,-0.01953125,0.0,180.0,360.0
3858323,,,,,,,,0.47265625,12.59375,-0.2421875,-1.478515625,0.763671875,-0.01953125,0.0,180.0,360.0
3858324,,,,,,,,0.47265625,12.59375,-0.2421875,-0.44140625,-1.556640625,-0.048828125,0.0,180.0,360.0
3858325,,,,,,,,-4.70703125,-26.4609375,13.0859375,-0.44140625,-1.556640625,-0.048828125,0.0,180.0,360.0
3858326,,,,,,,,-4.70703125,-26.4609375,13.0859375,0.9453125,1.7890625,-0.69140625,0.0,180.0,360.0
3858327,,,,,,,,2.29296875,-13.171875,6.4140625,0.9453125,1.7890625,-0.69140625,0.0,180.0,360.0
3858328,,,,,,,,2.29296875,-13.171875,6.4140625,-1.046875,1.830078125,-0.55078125,0.0,180.0,360.0
3858329,,,,,,,,4.4765625,-5.578125,2.13671875,-1.046875,1.830078125,-0.55078125,0.0,180.0,360.0
3858330,36.01251216666667,129.31933466666666,66.2297907921127,12.446176798228748,2.0,46.0,,4.4765625,-5.578125,2.13671875,-0.380859375,2.541015625,-1.490234375,0.0,180.0,360.0
3858331,,,,,,,,5.7265625,-11.62109375,3.84375,-0.380859375,2.541015625,-1.490234375,0.0,180.0,360.0
3858332,,,,,,,,5.7265625,-11.62109375,3.84375,-0.716796875,2.40234375,-1.998046875,0.0,180.0,360.0
3858333,,,,,,,,0.65234375,-7.53125,1.9140625,-0.716796875,2.40234375,-1.998046875,0.0,180.0,360.0
3858334,,,,,,,,0.65234375,-7.53125,1.9140625,-0.908203125,2.369140625,-2.048828125,0.0,180.0,360.0
3858335,,,,,,,,-0.671875,-2.74609375,0.03125,-0.908203125,2.369140625,-2.048828125,0.0,180.0,360.0
3858336,,,,,,,,-0.671875,-2.74609375,0.03125,-1.01171875,2.236328125,-1.775390625,0.0,180.0,360.0
3858337,,,,,,,,-0.671875,-2.74609375,0.03125,-1.01171875,2.236328125,-1.775390625,0.0,180.0,360.0
3858338,,,,,,,,-0.671875,-2.74609375,0.03125,-1.009765625,2.0625,-1.373046875,0.0,180.0,360.0
3858339,,,,,,,,-4.609375,4.85546875,-0.796875,-1.009765625,2.0625,-1.373046875,0.0,180.0,360.0
3858340,36.01251333333333,129.31933666666666,66.41008870040827,12.575630597858915,2.3000000000000003,47.0,,-4.609375,4.85546875,-0.796875,-0.771484375,1.73046875,-1.056640625,0.0,180.0,360.0
3858341,,,,,,,,-4.609375,4.85546875,-0.796875,-0.740234375,0.822265625,-0.810546875,0.0,180.0,360.0
3858342,,,,,,,,-5.76953125,8.640625,-1.23828125,-0.740234375,0.822265625,-0.810546875,0.0,180.0,360.0
3858343,,,,,,,,-5.76953125,8.640625,-1.23828125,-0.740234375,0.822265625,-0.810546875,0.0,180.0,360.0
3858344,,,,,,,,-5.76953125,8.640625,-1.23828125,-0.916015625,-0.173828125,-0.59375,0.0,180.0,360.0
3858345,,,,,,,,-2.8984375,9.75,-3.44921875,-0.916015625,-0.173828125,-0.59375,0.0,180.0,360.0
3858346,,,,,,,,-2.8984375,9.75,-3.44921875,-0.916015625,-0.173828125,-0.59375,0.0,180.0,360.0
3858347,,,,,,,,-2.8984375,9.75,-3.44921875,-0.04296875,0.001953125,-0.5546875,0.0,180.0,360.0
3858348,,,,,,,,-2.51953125,6.25,-2.65625,-0.04296875,0.001953125,-0.5546875,0.0,180.0,360.0
3858349,,,,,,,,-2.51953125,6.25,-2.65625,0.69921875,0.392578125,-0.666015625,0.0,180.0,360.0
3858350,36.012515,129.3193385,66.57536127396226,12.760563903679309,2.4000000000000004,46.0,,-2.51953125,6.25,-2.65625,0.693359375,0.54296875,-0.634765625,0.0,180.0,360.0
3858351,,,,,,,,-1.48828125,7.11328125,-1.91015625,0.693359375,0.54296875,-0.634765625,0.0,180.0,360.0
3858352,,,,,,,,-1.48828125,7.11328125,-1.91015625,0.638671875,0.0390625,-0.39453125,0.0,180.0,360.0
3858353,,,,,,,,-2.8984375,10.03125,-0.77734375,0.638671875,0.0390625,-0.39453125,0.0,180.0,360.0
3858354,,,,,,,,-2.8984375,10.03125,-0.77734375,0.41015625,-0.63671875,-0.21484375,0.0,180.0,360.0
3858355,,,,,,,,-3.75,2.92578125,0.296875,0.41015625,-0.63671875,-0.21484375,0.0,180.0,360.0
3858356,,,,,,,,-3.75,2.92578125,0.296875,-1.572265625,-0.9453125,-0.716796875,0.0,180.0,360.0
3858357,,,,,,,,-3.75,2.92578125,0.296875,1.26171875,-0.3984375,0.427734375,0.0,180.0,360.0
3858358,,,,,,,,9.8359375,-28.19140625,19.609375,1.26171875,-0.3984375,0.427734375,0.0,180.0,360.0
3858359,,,,,,,,9.8359375,-28.19140625,19.609375,1.37890625,-1.41796875,0.349609375,0.0,180.0,360.0
3858360,36.01251833333333,129.3193445,67.11625508915853,13.130432127393,2.9000000000000004,50.0,,0.25390625,-5.9765625,5.67578125,1.37890625,-1.41796875,0.349609375,0.0,180.0,360.0
3858361,,,,,,,,0.25390625,-5.9765625,5.67578125,0.10546875,-2.443359375,1.380859375,0.0,180.0,360.0
3858362,,,,,,,,-3.09375,-11.45703125,5.52734375,0.10546875,-2.443359375,1.380859375,0.0,180.0,360.0
3858363,,,,,,,,-3.09375,-11.45703125,5.52734375,0.232421875,-2.37109375,1.896484375,0.0,180.0,360.0
3858364,,,,,,,,1.86328125,-13.9765625,5.96484375,0.232421875,-2.37109375,1.896484375,0.0,180.0,360.0
3858365,,,,,,,,1.86328125,-13.9765625,5.96484375,-0.23046875,-2.775390625,2.1875,0.0,180.0,360.0
3858366,,,,,,,,1.86328125,-13.9765625,5.96484375,-0.23046875,-2.775390625,2.1875,0.0,180.0,360.0
3858367,,,,,,,,1.86328125,-13.9765625,5.96484375,0.205078125,-2.212890625,2.150390625,0.0,180.0,360.0
3858368,,,,,,,,1.28125,-3.61328125,0.24609375,0.205078125,-2.212890625,2.150390625,0.0,180.0,360.0
3858369,,,,,,,,1.28125,-3.61328125,0.24609375,0.1484375,-2.01171875,2.0625,0.0,180.0,360.0
3858370,36.0125195,129.3193465,67.29655296798879,13.259885946133931,2.6,50.0,,1.28125,-3.61328125,0.24609375,0.353515625,-1.72265625,1.69921875,0.0,180.0,360.0
3858371,,,,,,,,2.49609375,-0.01171875,-0.92578125,0.353515625,-1.72265625,1.69921875,0.0,180.0,360.0
3858372,,,,,,,,2.49609375,-0.01171875,-0.92578125,0.796875,-1.541015625,1.1796875,0.0,180.0,360.0
3858373,,,,,,,,4.67578125,5.97265625,-1.734375,0.796875,-1.541015625,1.1796875,0.0,180.0,360.0
3858374,,,,,,,,4.67578125,5.97265625,-1.734375,0.796875,-1.541015625,1.1796875,0.0,180.0,360.0
3858375,,,,,,,,4.67578125,5.97265625,-1.734375,0.521484375,-0.740234375,0.775390625,0.0,180.0,360.0
3858376,,,,,,,,3.28515625,14.421875,-5.90625,0.521484375,-0.740234375,0.775390625,0.0,180.0,360.0
3858377,,,,,,,,3.28515625,14.421875,-5.90625,-0.62109375,-0.375,0.55078125,0.0,180.0,360.0
3858378,,,,,,,,2.7109375,10.7734375,-5.5625,-0.62109375,-0.375,0.55078125,0.0,180.0,360.0
3858379,,,,,,,,2.7109375,10.7734375,-5.5625,-0.623046875,0.16015625,0.64453125,0.0,180.0,360.0
3858380,36.01252066666667,129.31934866666668,67.49187575067252,13.389339882578302,2.6,51.0,,3.6875,6.79296875,-4.5546875,-0.623046875,0.16015625,0.64453125,0.0,180.0,360.0
3858381,,,,,,,,3.6875,6.79296875,-4.5546875,0.32421875,0.591796875,0.607421875,0.0,180.0,360.0
3858382,,,,,,,,1.75,5.61328125,-2.62109375,0.32421875,0.591796875,0.607421875,0.0,180.0,360.0
3858383,,,,,,,,1.75,5.61328125,-2.62109375,1.43359375,0.169921875,0.296875,0.0,180.0,360.0
3858384,,,,,,,,-0.5078125,6.8984375,-0.71875,1.43359375,0.169921875,0.296875,0.0,180.0,360.0
3858385,,,,,,,,-0.5078125,6.8984375,-0.71875,0.8671875,0.0,0.1640625,0.0,180.0,360.0
3858386,,,,,,,,-0.5078125,6.8984375,-0.71875,0.8671875,0.0,0.1640625,0.0,180.0,360.0
3858387,,,,,,,,-0.5078125,6.8984375,-0.71875,-0.78515625,0.86328125,0.1171875,0.0,180.0,360.0
3858388,,,,,,,,-0.4140625,1.171875,3.62109375,-0.78515625,0.86328125,0.1171875,0.0,180.0,360.0
3858389,,,,,,,,-0.4140625,1.171875,3.62109375,-0.421875,-0.423828125,0.302734375,0.0,180.0,360.0
3858390,36.01252233333333,129.31935066666668,67.67217319137532,13.574273323916199,2.7,48.0,,-0.4140625,1.171875,3.62109375,0.20703125,-0.080078125,-0.259765625,0.0,180.0,360.0
3858391,,,,,,,,-5.32421875,-27.47265625,17.23828125,0.20703125,-0.080078125,-0.259765625,0.0,180.0,360.0
3858392,,,,,,,,-5.32421875,-27.47265625,17.23828125,0.671875,0.9453125,-0.4765625,0.0,180.0,360.0
3858393,,,,,,,,4.765625,-4.24609375,3.96484375,0.671875,0.9453125,-0.4765625,0.0,180.0,360.0
3858394,,,,,,,,4.765625,-4.24609375,3.96484375,-0.841796875,2.0234375,-0.86328125,0.0,180.0,360.0
3858395,,,,,,,,6.19921875,-14.51953125,5.68359375,-0.841796875,2.0234375,-0.86328125,0.0,180.0,360.0
3858396,,,,,,,,6.19921875,-14.51953125,5.68359375,0.033203125,3.021484375,-1.703125,0.0,180.0,360.0
3858397,,,,,,,,6.19921875,-14.51953125,5.68359375,-0.794921875,2.82421875,-2.056640625,0.0,180.0,360.0
3858398,,,,,,,,1.98828125,-8.16015625,1.9375,-0.794921875,2.82421875,-2.056640625,0.0,180.0,360.0
3858399,,,,,,,,1.98828125,-8.16015625,1.9375,-0.7265625,2.529296875,-2.16796875,0.0,180.0,360.0
3858400,36.01252566666667,129.31935466666667,68.03276805199259,13.94414021902421,2.7,46.0,123.0,1.98828125,-8.16015625,1.9375,-0.7265625,2.529296875,-2.16796875,0.0,180.0,360.0
3858401,,,,,,,,1.98828125,-8.16015625,1.9375,-0.7265625,2.529296875,-2.16796875,0.0,180.0,360.0
3858402,,,,,,,,0.28125,-4.6953125,0.67578125,-0.7265625,2.529296875,-2.16796875,0.0,180.0,360.0
3858403,,,,,,,,0.28125,-4.6953125,0.67578125,-0.646484375,2.546875,-1.880859375,0.0,180.0,360.0
3858404,,,,,,,,0.28125,-4.6953125,0.67578125,0.150390625,-0.6953125,-0.23828125,0.0,180.0,360.0
3858405,,,,,,,,0.28125,-4.6953125,0.67578125,-1.76953125,-0.21484375,-0.755859375,0.0,180.0,360.0
3858406,,,,,,,,1.671875,-10.4140625,1.8515625,-1.76953125,-0.21484375,-0.755859375,0.0,180.0,360.0
3858407,,,,,,,,1.671875,-10.4140625,1.8515625,3.37109375,0.1171875,0.107421875,0.0,180.0,360.0
3858408,,,,,,,,15.81640625,-35.7578125,23.37890625,3.37109375,0.1171875,0.107421875,0.0,180.0,360.0
3858409,,,,,,,,15.81640625,-35.7578125,23.37890625,0.7265625,-2.228515625,0.298828125,0.0,180.0,360.0
3858410,36.012529,129.31936,68.51356211313542,14.314008064563296,3.0,49.0,,5.2890625,-9.3984375,10.59765625,0.7265625,-2.228515625,0.298828125,0.0,180.0,360.0
3858411,,,,,,,,5.2890625,-9.3984375,10.59765625,0.173828125,-1.97265625,1.392578125,0.0,180.0,360.0
3858412,,,,,,,,-0.10546875,-14.1171875,5.48046875,0.173828125,-1.97265625,1.392578125,0.0,180.0,360.0
3858413,,,,,,,,-0.10546875,-14.1171875,5.48046875,0.150390625,-2.099609375,1.9140625,0.0,180.0,360.0
3858414,,,,,,,,-0.10546875,-14.1171875,5.48046875,0.150390625,-2.099609375,1.9140625,0.0,180.0,360.0
3858415,,,,,,,,-0.10546875,-14.1171875,5.48046875,-0.20703125,-2.275390625,2.0625,0.0,180.0,360.0
3858416,,,,,,,,1.20703125,-9.046875,2.7578125,-0.20703125,-2.275390625,2.0625,0.0,180.0,360.0
3858417,,,,,,,,1.20703125,-9.046875,2.7578125,0.162109375,-1.857421875,1.873046875,0.0,180.0,360.0
3858418,,,,,,,,1.20703125,-9.046875,2.7578125,0.19140625,-1.66796875,1.603515625,0.0,180.0,360.0
3858419,,,,,,,,2.421875,-1.27734375,-0.484375,0.19140625,-1.66796875,1.603515625,0.0,180.0,360.0
3858420,36.012530500000004,129.31936216666665,68.70888456378034,14.480448440553985,2.8000000000000003,50.0,,2.421875,-1.27734375,-0.484375,0.62109375,-1.458984375,1.26953125,0.0,180.0,360.0
3858421,,,,,,,,2.34765625,3.12109375,-1.3984375,0.62109375,-1.458984375,1.26953125,0.0,180.0,360.0
3858422,,,,,,,,2.34765625,3.12109375,-1.3984375,0.9375,-1.23046875,0.9765625,0.0,180.0,360.0
3858423,,,,,,,,2.03515625,9.9765625,-3.71484375,0.9375,-1.23046875,0.9765625,0.0,180.0,360.0
3858424,,,,,,,,2.03515625,9.9765625,-3.71484375,0.673828125,-1.279296875,0.76171875,0.0,180.0,360.0
3858425,,,,,,,,2.03515625,9.9765625,-3.71484375,0.12890625,-1.3203125,0.734375,0.0,180.0,360.0
3858426,,,,,,,,2.015625,13.65234375,-6.0,0.12890625,-1.3203125,0.734375,0.0,180.0,360.0
3858427,,,,,,,,2.015625,13.65234375,-6.0,-0.39453125,-0.169921875,0.5390625,0.0,180.0,360.0
3858428,,,,,,,,4.3828125,11.484375,-6.828125,-0.39453125,-0.169921875,0.5390625,0.0,180.0,360.0
3858429,,,,,,,,4.3828125,11.484375,-6.828125,-0.310546875,1.62109375,0.30859375,0.0,180.0,360.0
3858430,36.012532,129.3193648333333,68.94928171576487,14.646889172898451,2.9000000000000004,51.0,,6.24609375,7.73046875,-6.60546875,-0.310546875,1.62109375,0.30859375,0.0,180.0,360.0
3858431,,,,,,,,6.24609375,7.73046875,-6.60546875,0.28125,1.806640625,0.3359375,0.0,180.0,360.0
3858432,,,,,,,,-0.1640625,7.35546875,-2.23828125,0.28125,1.806640625,0.3359375,0.0,180.0,360.0
3858433,,,,,,,,-0.1640625,7.35546875,-2.23828125,0.888671875,0.564453125,0.228515625,0.0,180.0,360.0
3858434,,,,,,,,-4.90234375,11.58203125,1.50390625,0.888671875,0.564453125,0.228515625,0.0,180.0,360.0
3858435,,,,,,,,-4.90234375,11.58203125,1.50390625,0.189453125,-0.744140625,0.2578125,0.0,180.0,360.0
3858436,,,,,,,,-4.90234375,11.58203125,1.50390625,-1.6015625,-0.451171875,0.51171875,0.0,180.0,360.0
3858437,,,,,,,,-0.99609375,10.7578125,0.01953125,-1.6015625,-0.451171875,0.51171875,0.0,180.0,360.0
3858438,,,,,,,,-0.99609375,10.7578125,0.01953125,0.37109375,-0.98828125,-0.048828125,0.0,180.0,360.0
3858439,,,,,,,,-4.51171875,-24.26171875,20.40234375,0.37109375,-0.98828125,-0.048828125,0.0,180.0,360.0
3858440,36.012533999999995,129.31936783333333,69.21972822943425,14.868809764925054,3.1,50.0,,-4.51171875,-24.26171875,20.40234375,1.29296875,-0.037109375,-0.279296875,0.0,180.0,360.0
3858441,,,,,,,,-4.55078125,-16.2578125,8.02734375,1.29296875,-0.037109375,-0.279296875,0.0,180.0,360.0
3858442,,,,,,,,-4.55078125,-16.2578125,8.02734375,-1.54296875,2.109375,-0.328125,0.0,180.0,360.0
3858443,,,,,,,,6.18359375,-13.828125,6.15625,-1.54296875,2.109375,-0.328125,0.0,180.0,360.0
3858444,,,,,,,,6.18359375,-13.828125,6.15625,-0.501953125,1.94921875,-0.92578125,0.0,180.0,360.0
3858445,,,,,,,,6.18359375,-13.828125,6.15625,-1.123046875,2.583984375,-1.43359375,0.0,180.0,360.0
3858446,,,,,,,,2.8125,-8.15625,1.80078125,-1.123046875,2.583984375,-1.43359375,0.0,180.0,360.0
3858447,,,,,,,,2.8125,-8.15625,1.80078125,-1.06640625,2.69921875,-1.65625,0.0,180.0,360.0
3858448,,,,,,,,1.66796875,-7.8125,1.59765625,-1.06640625,2.69921875,-1.65625,0.0,180.0,360.0
3858449,,,,,,,,1.66796875,-7.8125,1.59765625,-0.998046875,2.85546875,-1.62109375,0.0,180.0,360.0
3858450,36.01253616666667,129.3193701666667,69.43007497433229,15.109223097822653,3.1,46.0,,0.78515625,-6.0625,1.1953125,-0.998046875,2.85546875,-1.62109375,0.0,180.0,360.0
3858451,,,,,,,,0.78515625,-6.0625,1.1953125,-1.103515625,2.419921875,-1.2265625,0.0,180.0,360.0
3858452,,,,,,,,-3.8828125,3.0703125,-1.80078125,-1.103515625,2.419921875,-1.2265625,0.0,180.0,360.0
3858453,,,,,,,,-3.8828125,3.0703125,-1.80078125,-0.947265625,1.673828125,-0.896484375,0.0,180.0,360.0
3858454,,,,,,,,-3.34375,7.68359375,-3.14453125,-0.947265625,1.673828125,-0.896484375,0.0,180.0,360.0
3858455,,,,,,,,-3.34375,7.68359375,-3.14453125,-1.150390625,1.328125,-0.919921875,0.0,180.0,360.0
3858456,,,,,,,,-3.34375,7.68359375,-3.14453125,-1.451171875,0.732421875,-0.798828125,0.0,180.0,360.0
3858457,,,,,,,,-2.72265625,9.37890625,-3.4296875,-1.451171875,0.732421875,-0.798828125,0.0,180.0,360.0
3858458,,,,,,,,-2.72265625,9.37890625,-3.4296875,-1.32421875,0.04296875,-0.5703125,0.0,180.0,360.0
3858459,,,,,,,,-4.89453125,10.0859375,-3.9453125,-1.32421875,0.04296875,-0.5703125,0.0,180.0,360.0
3858460,36.01253716666667,129.31937150000002,69.55027331624856,15.220183281307776,2.5,47.0,,-4.89453125,10.0859375,-3.9453125,-0.376953125,-0.720703125,-0.501953125,0.0,180.0,360.0
3858461,,,,,,,,-5.73046875,7.3203125,-2.9453125,-0.376953125,-0.720703125,-0.501953125,0.0,180.0,360.0
3858462,,,,,,,,-5.73046875,7.3203125,-2.9453125,0.384765625,-0.751953125,-0.556640625,0.0,180.0,360.0
3858463,,,,,,,,-3.046875,4.9140625,-1.2890625,0.384765625,-0.751953125,-0.556640625,0.0,180.0,360.0
3858464,,,,,,,,-3.046875,4.9140625,-1.2890625,0.423828125,-1.244140625,-0.533203125,0.0,180.0,360.0
3858465,,,,,,,,-3.046875,4.9140625,-1.2890625,0.994140625,-1.189453125,-0.654296875,0.0,180.0,360.0
3858466,,,,,,,,-2.20703125,9.05078125,4.21484375,0.994140625,-1.189453125,-0.654296875,0.0,180.0,360.0
3858467,,,,,,,,-2.20703125,9.05078125,4.21484375,0.505859375,-0.8125,-0.509765625,0.0,180.0,360.0
3858468,,,,,,,,-3.046875,9.890625,0.55078125,0.505859375,-0.8125,-0.509765625,0.0,180.0,360.0
3858469,,,,,,,,-3.046875,9.890625,0.55078125,-1.50390625,-0.98828125,-0.47265625,0.0,180.0,360.0
3858470,36.012538666666664,129.319374,69.77564553052945,15.386623918027933,2.6,47.0,,-3.9765625,5.1484375,-2.87890625,-1.50390625,-0.98828125,-0.47265625,0.0,180.0,360.0
3858471,,,,,,,,-3.9765625,5.1484375,-2.87890625,-0.28125,-2.98828125,0.13671875,0.0,180.0,360.0
3858472,,,,,,,,15.49609375,-32.8515625,18.76171875,-0.28125,-2.98828125,0.13671875,0.0,180.0,360.0
3858473,,,,,,,,15.49609375,-32.8515625,18.76171875,2.173828125,0.46875,-0.76171875,0.0,180.0,360.0
3858474,,,,,,,,-7.09765625,-11.12109375,2.75,2.173828125,0.46875,-0.76171875,0.0,180.0,360.0
3858475,,,,,,,,-7.09765625,-11.12109375,2.75,0.015625,-2.556640625,0.455078125,0.0,180.0,360.0
3858476,,,,,,,,-7.09765625,-11.12109375,2.75,0.396484375,-2.923828125,0.921875,0.0,180.0,360.0
3858477,,,,,,,,-3.16015625,-14.23828125,1.71875,0.396484375,-2.923828125,0.921875,0.0,180.0,360.0
3858478,,,,,,,,-3.16015625,-14.23828125,1.71875,0.4453125,-2.068359375,1.365234375,0.0,180.0,360.0
3858479,,,,,,,,1.55078125,-8.7265625,2.33984375,0.4453125,-2.068359375,1.365234375,0.0,180.0,360.0
3858480,36.01254066666667,129.31937716666667,70.06111689930144,15.608544657720461,2.9000000000000004,47.0,,1.55078125,-8.7265625,2.33984375,0.26171875,-2.33984375,1.77734375,0.0,180.0,360.0
3858481,,,,,,,,0.390625,-7.1015625,-0.12109375,0.26171875,-2.33984375,1.77734375,0.0,180.0,360.0
3858482,,,,,,,,0.390625,-7.1015625,-0.12109375,0.1484375,-1.984375,1.5859375,0.0,180.0,360.0
3858483,,,,,,,,2.1015625,-1.79296875,-1.66796875,0.1484375,-1.984375,1.5859375,0.0,180.0,360.0
3858484,,,,,,,,2.1015625,-1.79296875,-1.66796875,0.1484375,-1.984375,1.5859375,0.0,180.0,360.0
3858485,,,,,,,,2.1015625,-1.79296875,-1.66796875,-0.021484375,-1.083984375,0.99609375,0.0,180.0,360.0
3858486,,,,,,,,2.0546875,11.1484375,-2.82421875,-0.021484375,-1.083984375,0.99609375,0.0,180.0,360.0
3858487,,,,,,,,2.0546875,11.1484375,-2.82421875,-0.51171875,-0.470703125,0.654296875,0.0,180.0,360.0
3858488,,,,,,,,1.30859375,14.0,-3.82421875,-0.51171875,-0.470703125,0.654296875,0.0,180.0,360.0
3858489,,,,,,,,1.30859375,14.0,-3.82421875,-1.40625,-0.50390625,0.646484375,0.0,180.0,360.0
3858490,36.01254383333333,129.31938283333332,70.57196073732959,15.95991965053691,3.0,51.0,,0.40625,15.6171875,-5.078125,-1.40625,-0.50390625,0.646484375,0.0,180.0,360.0
3858491,,,,,,,,0.40625,15.6171875,-5.078125,-1.3046875,-0.36328125,0.62109375,0.0,180.0,360.0
3858492,,,,,,,,2.52734375,12.80078125,-4.453125,-1.3046875,-0.36328125,0.62109375,0.0,180.0,360.0
3858493,,,,,,,,2.52734375,12.80078125,-4.453125,0.181640625,0.287109375,0.455078125,0.0,180.0,360.0
3858494,,,,,,,,2.52734375,12.80078125,-4.453125,0.181640625,0.287109375,0.455078125,0.0,180.0,360.0
3858495,,,,,,,,2.52734375,12.80078125,-4.453125,1.802734375,0.5234375,0.291015625,0.0,180.0,360.0
3858496,,,,,,,,0.6484375,7.40625,-0.48828125,1.802734375,0.5234375,0.291015625,0.0,180.0,360.0
3858497,,,,,,,,0.6484375,7.40625,-0.48828125,2.0,0.775390625,0.1875,0.0,180.0,360.0
3858498,,,,,,,,0.6484375,7.40625,-0.48828125,1.142578125,1.03125,0.154296875,0.0,180.0,360.0
3858499,,,,,,,,-0.8046875,14.59765625,-0.359375,1.142578125,1.03125,0.154296875,0.0,180.0,360.0
3858500,36.01254816666667,129.31938899999997,71.12787818427417,16.44074747862685,3.3000000000000003,46.0,123.0,-0.8046875,14.59765625,-0.359375,1.142578125,1.03125,0.154296875,0.0,180.0,360.0
3858501,,,,,,,,-0.8046875,14.59765625,-0.359375,1.142578125,1.03125,0.154296875,0.0,180.0,360.0
3858502,,,,,,,,-4.87890625,9.87890625,-1.9296875,-0.01953125,-0.64453125,-0.337890625,0.0,180.0,360.0
3858503,,,,,,,,-4.87890625,9.87890625,-1.9296875,0.447265625,-0.61328125,-0.419921875,0.0,180.0,360.0
3858504,,,,,,,,-1.85546875,10.87890625,0.39453125,0.447265625,-0.61328125,-0.419921875,0.0,180.0,360.0
3858505,,,,,,,,-1.85546875,10.87890625,0.39453125,0.5390625,-0.69140625,-0.328125,0.0,180.0,360.0
3858506,,,,,,,,-1.85546875,10.87890625,0.39453125,0.154296875,-0.828125,-0.13671875,0.0,180.0,360.0
3858507,,,,,,,,-2.5390625,11.61328125,-0.234375,0.154296875,-0.828125,-0.13671875,0.0,180.0,360.0
3858508,,,,,,,,-2.5390625,11.61328125,-0.234375,-1.31640625,-0.390625,-0.291015625,0.0,180.0,360.0
3858509,,,,,,,,-2.89453125,3.5078125,-1.8515625,-1.31640625,-0.390625,-0.291015625,0.0,180.0,360.0
3858510,36.01255166666667,129.31939516666668,71.68379633186262,16.829109313581387,3.3000000000000003,49.0,,-2.89453125,3.5078125,-1.8515625,-1.9375,-1.759765625,-1.392578125,0.0,180.0,360.0
3858511,,,,,,,,11.5234375,-42.4140625,23.875,-1.9375,-1.759765625,-1.392578125,0.0,180.0,360.0
3858512,,,,,,,,11.5234375,-42.4140625,23.875,3.826171875,-0.0390625,-0.349609375,0.0,180.0,360.0
3858513,,,,,,,,11.5234375,-42.4140625,23.875,3.826171875,-0.0390625,-0.349609375,0.0,180.0,360.0
3858514,,,,,,,,11.5234375,-42.4140625,23.875,2.607421875,-1.615234375,0.787109375,0.0,180.0,360.0
3858515,,,,,,,,-10.2890625,-7.0,3.60546875,2.607421875,-1.615234375,0.787109375,0.0,180.0,360.0
3858516,,,,,,,,-10.2890625,-7.0,3.60546875,-0.267578125,-2.9921875,0.880859375,0.0,180.0,360.0
3858517,,,,,,,,-10.2890625,-7.0,3.60546875,0.42578125,-2.576171875,1.23046875,0.0,180.0,360.0
3858518,,,,,,,,3.37890625,-12.03125,3.5546875,0.42578125,-2.576171875,1.23046875,0.0,180.0,360.0
3858519,,,,,,,,3.37890625,-12.03125,3.5546875,0.494140625,-2.4375,1.36328125,0.0,180.0,360.0
3858520,36.01255533333333,129.319401,72.20966447401386,17.235964142518657,3.1,50.0,,2.109375,-11.93359375,2.08203125,0.494140625,-2.4375,1.36328125,0.0,180.0,360.0
3858521,,,,,,,,2.109375,-11.93359375,2.08203125,0.431640625,-2.228515625,1.509765625,0.0,180.0,360.0
3858522,,,,,,,,1.24609375,-3.47265625,-1.171875,0.431640625,-2.228515625,1.509765625,0.0,180.0,360.0
3858523,,,,,,,,1.24609375,-3.47265625,-1.171875,0.24609375,-1.880859375,1.365234375,0.0,180.0,360.0
3858524,,,,,,,,1.24609375,-3.47265625,-1.171875,-0.044921875,-1.830078125,1.021484375,0.0,180.0,360.0
3858525,,,,,,,,1.87890625,5.39453125,-2.4296875,-0.044921875,-1.830078125,1.021484375,0.0,180.0,360.0
3858526,,,,,,,,1.87890625,5.39453125,-2.4296875,-0.37890625,-1.44140625,0.650390625,0.0,180.0,360.0
3858527,,,,,,,,2.59375,8.92578125,-3.046875,-0.37890625,-1.44140625,0.650390625,0.0,180.0,360.0
3858528,,,,,,,,2.59375,8.92578125,-3.046875,-0.708984375,-0.84765625,0.4765625,0.0,180.0,360.0
3858529,,,,,,,,2.41015625,13.90625,-4.43359375,-0.708984375,-0.84765625,0.4765625,0.0,180.0,360.0
3858530,36.01255716666667,129.31940416666666,72.49513587597272,17.439391754807744,3.2,51.0,,2.41015625,13.90625,-4.43359375,-0.927734375,-0.57421875,0.353515625,0.0,180.0,360.0
3858531,,,,,,,,2.87109375,12.91796875,-3.9609375,-0.927734375,-0.57421875,0.353515625,0.0,180.0,360.0
3858532,,,,,,,,2.87109375,12.91796875,-3.9609375,-0.154296875,-0.310546875,0.4296875,0.0,180.0,360.0
3858533,,,,,,,,2.0234375,6.30078125,-2.3515625,-0.154296875,-0.310546875,0.4296875,0.0,180.0,360.0
3858534,,,,,,,,2.0234375,6.30078125,-2.3515625,0.984375,0.037109375,0.373046875,0.0,180.0,360.0
3858535,,,,,,,,2.0234375,6.30078125,-2.3515625,1.62890625,0.0859375,0.0625,0.0,180.0,360.0
3858536,,,,,,,,-0.12890625,6.96484375,-0.9765625,1.62890625,0.0859375,0.0625,0.0,180.0,360.0
3858537,,,,,,,,-0.12890625,6.96484375,-0.9765625,1.48046875,0.296875,-0.13671875,0.0,180.0,360.0
3858538,,,,,,,,1.1640625,9.3984375,-0.40234375,1.48046875,0.296875,-0.13671875,0.0,180.0,360.0
3858539,,,,,,,,1.1640625,9.3984375,-0.40234375,0.46875,0.765625,-0.064453125,0.0,180.0,360.0
3858540,36.01255883333333,129.31940699999998,72.75055762038423,17.624325921810048,3.2,53.0,,1.6953125,11.62109375,-0.4453125,0.46875,0.765625,-0.064453125,0.0,180.0,360.0
3858541,,,,,,,,1.6953125,11.62109375,-0.4453125,0.46875,0.765625,-0.064453125,0.0,180.0,360.0
3858542,,,,,,,,1.6953125,11.62109375,-0.4453125,-0.89453125,0.990234375,-0.458984375,0.0,180.0,360.0
3858543,,,,,,,,-2.48046875,-31.30078125,13.40234375,-0.89453125,0.990234375,-0.458984375,0.0,180.0,360.0
3858544,,,,,,,,-2.48046875,-31.30078125,13.40234375,1.97265625,1.5546875,-0.771484375,0.0,180.0,360.0
3858545,,,,,,,,2.55078125,-29.66015625,12.625,1.97265625,1.5546875,-0.771484375,0.0,180.0,360.0
3858546,,,,,,,,2.55078125,-29.66015625,12.625,0.015625,2.859375,-0.740234375,0.0,180.0,360.0
3858547,,,,,,,,10.86328125,-6.703125,-0.390625,0.015625,2.859375,-0.740234375,0.0,180.0,360.0
3858548,,,,,,,,10.86328125,-6.703125,-0.390625,-0.65625,2.267578125,-1.029296875,0.0,180.0,360.0
3858549,,,,,,,,3.1484375,-8.33984375,1.78515625,-0.65625,2.267578125,-1.029296875,0.0,180.0,360.0
3858550,36.0125615,129.31940983333334,73.00597843417715,17.920219330314932,3.3000000000000003,47.0,,3.1484375,-8.33984375,1.78515625,-1.08984375,3.1171875,-1.275390625,0.0,180.0,360.0
3858551,,,,,,,,3.7890625,-5.4765625,1.48046875,-1.08984375,3.1171875,-1.275390625,0.0,180.0,360.0
3858552,,,,,,,,3.7890625,-5.4765625,1.48046875,-1.1875,2.826171875,-1.267578125,0.0,180.0,360.0
3858553,,,,,,,,0.06640625,-4.5625,-0.35546875,-1.1875,2.826171875,-1.267578125,0.0,180.0,360.0
3858554,,,,,,,,0.06640625,-4.5625,-0.35546875,-0.876953125,2.66796875,-1.26171875,0.0,180.0,360.0
3858555,,,,,,,,0.06640625,-4.5625,-0.35546875,-0.55078125,2.7578125,-1.099609375,0.0,180.0,360.0
3858556,,,,,,,,-2.01171875,2.80078125,-1.9765625,-0.55078125,2.7578125,-1.099609375,0.0,180.0,360.0
3858557,,,,,,,,-2.01171875,2.80078125,-1.9765625,-0.08984375,2.205078125,-0.66015625,0.0,180.0,360.0
3858558,,,,,,,,-4.54296875,6.48046875,-1.90625,-0.08984375,2.205078125,-0.66015625,0.0,180.0,360.0
3858559,,,,,,,,-4.54296875,6.48046875,-1.90625,0.166015625,1.58203125,-0.30078125,0.0,180.0,360.0
3858560,36.012563,129.31941283333333,73.27642520536313,18.086660432242052,3.2,50.0,,-6.44140625,8.953125,-2.55078125,0.166015625,1.58203125,-0.30078125,0.0,180.0,360.0
3858561,,,,,,,,-6.44140625,8.953125,-2.55078125,0.166015625,1.58203125,-0.30078125,0.0,180.0,360.0
3858562,,,,,,,,-6.44140625,8.953125,-2.55078125,0.095703125,0.23046875,-0.2265625,0.0,180.0,360.0
3858563,,,,,,,,-5.96875,10.15625,-3.01953125,0.095703125,0.23046875,-0.2265625,0.0,180.0,360.0
3858564,,,,,,,,-5.96875,10.15625,-3.01953125,0.095703125,0.23046875,-0.2265625,0.0,180.0,360.0
3858565,,,,,,,,-5.96875,10.15625,-3.01953125,-0.1640625,-0.09375,-0.181640625,0.0,180.0,360.0
3858566,,,,,,,,-1.9765625,7.23046875,-1.48046875,-0.1640625,-0.09375,-0.181640625,0.0,180.0,360.0
3858567,,,,,,,,-1.9765625,7.23046875,-1.48046875,0.41796875,0.283203125,-0.3203125,0.0,180.0,360.0
3858568,,,,,,,,-1.9765625,7.23046875,-1.48046875,1.001953125,0.228515625,-0.35546875,0.0,180.0,360.0
3858569,,,,,,,,-0.7578125,7.1875,-0.80859375,1.001953125,0.228515625,-0.35546875,0.0,180.0,360.0
3858570,36.012565,129.31941550000002,73.51682171024558,18.308580908262346,3.2,49.0,,-0.7578125,7.1875,-0.80859375,0.95703125,-0.341796875,-0.224609375,0.0,180.0,360.0
3858571,,,,,,,,-3.03515625,11.78515625,-0.1171875,0.95703125,-0.341796875,-0.224609375,0.0,180.0,360.0
3858572,,,,,,,,-3.03515625,11.78515625,-0.1171875,0.0390625,-0.830078125,-0.20703125,0.0,180.0,360.0
3858573,,,,,,,,-2.5625,3.1328125,-1.13671875,0.0390625,-0.830078125,-0.20703125,0.0,180.0,360.0
3858574,,,,,,,,-2.5625,3.1328125,-1.13671875,-1.439453125,-0.48046875,-1.0703125,0.0,180.0,360.0
3858575,,,,,,,,-2.5625,3.1328125,-1.13671875,2.734375,0.373046875,0.12109375,0.0,180.0,360.0
3858576,,,,,,,,15.9140625,-29.6484375,19.8828125,2.734375,0.373046875,0.12109375,0.0,180.0,360.0
3858577,,,,,,,,15.9140625,-29.6484375,19.8828125,1.2890625,-1.39453125,0.0703125,0.0,180.0,360.0
3858578,,,,,,,,-4.8359375,-2.85546875,4.01953125,1.2890625,-1.39453125,0.0703125,0.0,180.0,360.0
3858579,,,,,,,,-4.8359375,-2.85546875,4.01953125,0.22265625,-2.560546875,0.955078125,0.0,180.0,360.0
3858580,36.012567,129.31941833333335,73.7722430970438,18.530501516706106,3.1,47.0,,-9.77734375,-11.66796875,4.1171875,0.22265625,-2.560546875,0.955078125,0.0,180.0,360.0
3858581,,,,,,,,-9.77734375,-11.66796875,4.1171875,0.0390625,-2.498046875,1.587890625,0.0,180.0,360.0
3858582,,,,,,,,2.71875,-10.78515625,3.4921875,0.0390625,-2.498046875,1.587890625,0.0,180.0,360.0
3858583,,,,,,,,2.71875,-10.78515625,3.4921875,-0.111328125,-2.556640625,1.982421875,0.0,180.0,360.0
3858584,,,,,,,,2.71875,-10.78515625,3.4921875,-0.111328125,-2.556640625,1.982421875,0.0,180.0,360.0
3858585,,,,,,,,2.71875,-10.78515625,3.4921875,0.03125,-2.109375,1.7890625,0.0,180.0,360.0
3858586,,,,,,,,2.78125,-2.4296875,-0.046875,0.03125,-2.109375,1.7890625,0.0,180.0,360.0
3858587,,,,,,,,2.78125,-2.4296875,-0.046875,-0.04296875,-1.93359375,1.5546875,0.0,180.0,360.0
3858588,,,,,,,,2.78125,-2.4296875,-0.046875,0.177734375,-1.64453125,1.224609375,0.0,180.0,360.0
3858589,,,,,,,,2.875,1.43359375,-1.40625,0.177734375,-1.64453125,1.224609375,0.0,180.0,360.0
3858590,36.01256866666667,129.31942083333334,73.99761499079582,18.715435468201278,2.9000000000000004,47.0,,2.875,1.43359375,-1.40625,0.328125,-1.228515625,0.822265625,0.0,180.0,360.0
3858591,,,,,,,,2.84765625,8.7734375,-2.83984375,0.328125,-1.228515625,0.822265625,0.0,180.0,360.0
3858592,,,,,,,,2.84765625,8.7734375,-2.83984375,0.00390625,-0.78125,0.740234375,0.0,180.0,360.0
3858593,,,,,,,,1.25390625,12.96484375,-6.703125,0.00390625,-0.78125,0.740234375,0.0,180.0,360.0
3858594,,,,,,,,1.25390625,12.96484375,-6.703125,-0.765625,-0.40625,0.60546875,0.0,180.0,360.0
3858595,,,,,,,,1.25390625,12.96484375,-6.703125,-0.728515625,0.494140625,0.3203125,0.0,180.0,360.0
3858596,,,,,,,,4.015625,6.8046875,-5.89453125,-0.728515625,0.494140625,0.3203125,0.0,180.0,360.0
3858597,,,,,,,,4.015625,6.8046875,-5.89453125,-0.03515625,0.595703125,0.408203125,0.0,180.0,360.0
3858598,,,,,,,,1.89453125,5.7578125,-3.46484375,-0.03515625,0.595703125,0.408203125,0.0,180.0,360.0
3858599,,,,,,,,1.89453125,5.7578125,-3.46484375,0.63671875,-0.33203125,0.654296875,0.0,180.0,360.0
3858600,36.01257216666667,129.31942583333333,74.44835859192962,19.103796595806113,3.1,49.0,123.0,-0.68359375,6.23828125,-1.04296875,0.63671875,-0.33203125,0.654296875,0.0,180.0,360.0
3858601,,,,,,,,-0.68359375,6.23828125,-1.04296875,0.63671875,-0.33203125,0.654296875,0.0,180.0,360.0
3858602,,,,,,,,-0.68359375,6.23828125,-1.04296875,0.806640625,0.27734375,0.203125,0.0,180.0,360.0
3858603,,,,,,,,-0.68359375,6.23828125,-1.04296875,-0.765625,-0.140625,-0.10546875,0.0,180.0,360.0
3858604,,,,,,,,-3.6953125,5.4453125,-2.4296875,-0.765625,-0.140625,-0.10546875,0.0,180.0,360.0
3858605,,,,,,,,-3.6953125,5.4453125,-2.4296875,0.068359375,-0.53515625,-0.375,0.0,180.0,360.0
3858606,,,,,,,,-1.96484375,6.44921875,-2.7421875,0.068359375,-0.53515625,-0.375,0.0,180.0,360.0
3858607,,,,,,,,-1.96484375,6.44921875,-2.7421875,0.474609375,-0.470703125,-0.51171875,0.0,180.0,360.0
3858608,,,,,,,,-0.3984375,8.53125,-2.69921875,0.474609375,-0.470703125,-0.51171875,0.0,180.0,360.0
3858609,,,,,,,,-0.3984375,8.53125,-2.69921875,0.580078125,0.017578125,-0.52734375,0.0,180.0,360.0
3858610,36.01257833333333,129.31943366666667,75.15452284115688,19.78805121522381,3.3000000000000003,45.0,,-1.57421875,10.3671875,-2.609375,0.580078125,0.017578125,-0.52734375,0.0,180.0,360.0
3858611,,,,,,,,-1.57421875,10.3671875,-2.609375,0.248046875,-0.10546875,-0.365234375,0.0,180.0,360.0
3858612,,,,,,,,-3.09765625,9.01171875,-0.76171875,0.248046875,-0.10546875,-0.365234375,0.0,180.0,360.0
3858613,,,,,,,,-3.09765625,9.01171875,-0.76171875,-0.78515625,-0.982421875,-0.154296875,0.0,180.0,360.0
3858614,,,,,,,,-3.09765625,9.01171875,-0.76171875,-1.111328125,-0.716796875,-0.498046875,0.0,180.0,360.0
3858615,,,,,,,,5.265625,-26.49609375,5.3046875,-1.111328125,-0.716796875,-0.498046875,0.0,180.0,360.0
3858616,,,,,,,,5.265625,-26.49609375,5.3046875,3.419921875,0.599609375,0.193359375,0.0,180.0,360.0
3858617,,,,,,,,-2.265625,-4.3984375,4.875,3.419921875,0.599609375,0.193359375,0.0,180.0,360.0
3858618,,,,,,,,-2.265625,-4.3984375,4.875,0.6796875,-2.171875,-0.037109375,0.0,180.0,360.0
3858619,,,,,,,,-12.17578125,-12.046875,2.2265625,0.6796875,-2.171875,-0.037109375,0.0,180.0,360.0
3858620,36.012580166666666,129.31943683333333,75.43999408989804,19.991478925230954,3.2,48.0,,-12.17578125,-12.046875,2.2265625,0.677734375,-1.95703125,1.505859375,0.0,180.0,360.0
3858621,,,,,,,,2.11328125,-8.890625,1.8203125,0.677734375,-1.95703125,1.505859375,0.0,180.0,360.0
3858622,,,,,,,,2.11328125,-8.890625,1.8203125,-0.162109375,-2.248046875,2.166015625,0.0,180.0,360.0
3858623,,,,,,,,0.73046875,-7.109375,-0.390625,-0.162109375,-2.248046875,2.166015625,0.0,180.0,360.0
3858624,,,,,,,,0.73046875,-7.109375,-0.390625,-0.498046875,-1.9765625,2.193359375,0.0,180.0,360.0
3858625,,,,,,,,0.73046875,-7.109375,-0.390625,-0.498046875,-1.9765625,2.193359375,0.0,180.0,360.0
3858626,,,,,,,,0.73046875,-7.109375,-0.390625,0.13671875,-1.47265625,1.689453125,0.0,180.0,360.0
3858627,,,,,,,,3.85546875,0.078125,-1.27734375,0.13671875,-1.47265625,1.689453125,0.0,180.0,360.0
3858628,,,,,,,,3.85546875,0.078125,-1.27734375,0.205078125,-1.224609375,1.140625,0.0,180.0,360.0
3858629,,,,,,,,3.85546875,0.078125,-1.27734375,0.234375,-1.01171875,0.802734375,0.0,180.0,360.0
3858630,36.0125835,129.31944216666668,75.92078751126763,20.361347179657535,3.1,51.0,,3.0,4.09375,-3.32421875,0.234375,-1.01171875,0.802734375,0.0,180.0,360.0
3858631,,,,,,,,3.0,4.09375,-3.32421875,0.546875,-0.798828125,0.556640625,0.0,180.0,360.0
3858632,,,,,,,,1.546875,11.2890625,-3.9921875,0.546875,-0.798828125,0.556640625,0.0,180.0,360.0
3858633,,,,,,,,1.546875,11.2890625,-3.9921875,0.400390625,-0.5703125,0.4765625,0.0,180.0,360.0
3858634,,,,,,,,1.31640625,12.53125,-5.37890625,0.400390625,-0.5703125,0.4765625,0.0,180.0,360.0
3858635,,,,,,,,1.31640625,12.53125,-5.37890625,-0.162109375,-0.177734375,0.359375,0.0,180.0,360.0
3858636,,,,,,,,1.31640625,12.53125,-5.37890625,-0.162109375,-0.177734375,0.359375,0.0,180.0,360.0
3858637,,,,,,,,1.31640625,12.53125,-5.37890625,-0.349609375,0.86328125,0.2421875,0.0,180.0,360.0
3858638,,,,,,,,2.6640625,5.86328125,-5.31640625,-0.349609375,0.86328125,0.2421875,0.0,180.0,360.0
3858639,,,,,,,,2.6640625,5.86328125,-5.31640625,0.0234375,0.953125,0.40234375,0.0,180.0,360.0
3858640,36.01258533333333,129.319445,76.17620894002577,20.564774652625733,3.1,52.0,,2.6640625,5.86328125,-5.31640625,0.912109375,-0.0078125,0.349609375,0.0,180.0,360.0
3858641,,,,,,,,-2.1171875,8.59375,-0.58203125,0.912109375,-0.0078125,0.349609375,0.0,180.0,360.0
3858642,,,,,,,,-2.1171875,8.59375,-0.58203125,1.04296875,-0.0546875,0.09765625,0.0,180.0,360.0
3858643,,,,,,,,-1.84765625,10.7265625,-1.13671875,1.04296875,-0.0546875,0.09765625,0.0,180.0,360.0
3858644,,,,,,,,-1.84765625,10.7265625,-1.13671875,1.04296875,-0.0546875,0.09765625,0.0,180.0,360.0
3858645,,,,,,,,-1.84765625,10.7265625,-1.13671875,-0.69921875,0.74609375,0.005859375,0.0,180.0,360.0
3858646,,,,,,,,0.7890625,6.12890625,0.3515625,-0.69921875,0.74609375,0.005859375,0.0,180.0,360.0
3858647,,,,,,,,0.7890625,6.12890625,0.3515625,-0.525390625,-1.796875,-0.26953125,0.0,180.0,360.0
3858648,,,,,,,,-2.0078125,-15.765625,10.19921875,-0.525390625,-1.796875,-0.26953125,0.0,180.0,360.0
3858649,,,,,,,,-2.0078125,-15.765625,10.19921875,2.6015625,1.267578125,-0.69140625,0.0,180.0,360.0
3858650,36.0125875,129.31944783333333,76.4316300335922,20.80518854547204,3.3000000000000003,48.0,,-7.6171875,-46.3125,18.83984375,2.6015625,1.267578125,-0.69140625,0.0,180.0,360.0
3858651,,,,,,,,-7.6171875,-46.3125,18.83984375,-0.859375,2.775390625,-0.5859375,0.0,180.0,360.0
3858652,,,,,,,,8.96484375,-4.3359375,-3.609375,-0.859375,2.775390625,-0.5859375,0.0,180.0,360.0
3858653,,,,,,,,8.96484375,-4.3359375,-3.609375,-0.158203125,2.521484375,-1.36328125,0.0,180.0,360.0
3858654,,,,,,,,6.7421875,-15.078125,4.76953125,-0.158203125,2.521484375,-1.36328125,0.0,180.0,360.0
3858655,,,,,,,,6.7421875,-15.078125,4.76953125,0.1015625,2.650390625,-2.05078125,0.0,180.0,360.0
3858656,,,,,,,,0.08203125,-6.95703125,-1.65234375,0.1015625,2.650390625,-2.05078125,0.0,180.0,360.0
3858657,,,,,,,,0.08203125,-6.95703125,-1.65234375,-0.900390625,1.861328125,-2.056640625,0.0,180.0,360.0
3858658,,,,,,,,0.08203125,-6.95703125,-1.65234375,-0.232421875,2.0234375,-1.7421875,0.0,180.0,360.0
3858659,,,,,,,,-2.80859375,-3.59375,0.75390625,-0.232421875,2.0234375,-1.7421875,0.0,180.0,360.0
3858660,36.01258933333334,129.31945016666666,76.64197675628307,21.00861564112147,3.1,47.0,,-2.80859375,-3.59375,0.75390625,0.052734375,2.181640625,-1.326171875,0.0,180.0,360.0
3858661,,,,,,,,-4.7421875,2.0390625,-1.8828125,0.052734375,2.181640625,-1.326171875,0.0,180.0,360.0
3858662,,,,,,,,-4.7421875,2.0390625,-1.8828125,-0.37109375,1.50390625,-0.9453125,0.0,180.0,360.0
3858663,,,,,,,,-5.72265625,6.21484375,-3.7890625,-0.37109375,1.50390625,-0.9453125,0.0,180.0,360.0
3858664,,,,,,,,-5.72265625,6.21484375,-3.7890625,-0.37109375,1.50390625,-0.9453125,0.0,180.0,360.0
3858665,,,,,,,,-5.72265625,6.21484375,-3.7890625,-0.443359375,0.390625,-0.6171875,0.0,180.0,360.0
3858666,,,,,,,,-4.29296875,12.015625,-3.71875,-0.443359375,0.390625,-0.6171875,0.0,180.0,360.0
3858667,,,,,,,,-4.29296875,12.015625,-3.71875,-0.591796875,-0.37109375,-0.328125,0.0,180.0,360.0
3858668,,,,,,,,-4.515625,9.265625,-3.625,-0.591796875,-0.37109375,-0.328125,0.0,180.0,360.0
3858669,,,,,,,,-4.515625,9.265625,-3.625,-0.06640625,-0.576171875,-0.251953125,0.0,180.0,360.0
3858670,36.01259116666667,129.319453,76.89739815233699,21.21204313488638,3.2,49.0,,-4.515625,6.41796875,-2.8515625,-0.06640625,-0.576171875,-0.251953125,0.0,180.0,360.0
3858671,,,,,,,,-4.515625,6.41796875,-2.8515625,0.478515625,-0.666015625,-0.3671875,0.0,180.0,360.0
3858672,,,,,,,,-1.9296875,7.7421875,-2.97265625,0.478515625,-0.666015625,-0.3671875,0.0,180.0,360.0
3858673,,,,,,,,-1.9296875,7.7421875,-2.97265625,0.599609375,-0.41796875,-0.416015625,0.0,180.0,360.0
3858674,,,,,,,,-0.8046875,9.59375,-3.3515625,0.599609375,-0.41796875,-0.416015625,0.0,180.0,360.0
3858675,,,,,,,,-0.8046875,9.59375,-3.3515625,0.431640625,-0.291015625,-0.318359375,0.0,180.0,360.0
3858676,,,,,,,,-1.28125,10.48828125,-3.28515625,0.431640625,-0.291015625,-0.318359375,0.0,180.0,360.0
3858677,,,,,,,,-1.28125,10.48828125,-3.28515625,-0.001953125,-0.404296875,-0.1015625,0.0,180.0,360.0
3858678,,,,,,,,-1.28125,10.48828125,-3.28515625,-1.298828125,-1.125,0.080078125,0.0,180.0,360.0
3858679,,,,,,,,-3.69140625,2.8671875,-0.078125,-1.298828125,-1.125,0.080078125,0.0,180.0,360.0
3858680,36.01259316666667,129.319456,77.16784426079631,21.433963975034978,3.3000000000000003,50.0,,-3.69140625,2.8671875,-0.078125,-1.451171875,-1.15625,-0.353515625,0.0,180.0,360.0
3858681,,,,,,,,5.02734375,-21.9921875,3.7109375,-1.451171875,-1.15625,-0.353515625,0.0,180.0,360.0
3858682,,,,,,,,5.02734375,-21.9921875,3.7109375,3.357421875,0.13671875,0.12890625,0.0,180.0,360.0
3858683,,,,,,,,15.8046875,-37.30859375,19.28125,3.357421875,0.13671875,0.12890625,0.0,180.0,360.0
3858684,,,,,,,,15.8046875,-37.30859375,19.28125,0.04296875,-2.6015625,0.509765625,0.0,180.0,360.0
3858685,,,,,,,,-7.86328125,-15.69921875,3.0625,0.04296875,-2.6015625,0.509765625,0.0,180.0,360.0
3858686,,,,,,,,-7.86328125,-15.69921875,3.0625,1.52734375,-2.61328125,1.4453125,0.0,180.0,360.0
3858687,,,,,,,,-7.86328125,-15.69921875,3.0625,0.427734375,-2.390625,2.005859375,0.0,180.0,360.0
3858688,,,,,,,,1.6640625,-7.88671875,0.8671875,0.427734375,-2.390625,2.005859375,0.0,180.0,360.0
3858689,,,,,,,,1.6640625,-7.88671875,0.8671875,-0.3359375,-2.537109375,2.275390625,0.0,180.0,360.0
3858690,36.012595000000005,129.319459,77.43829051882852,21.63739161781138,3.2,51.0,,1.703125,-6.83203125,-0.9609375,-0.3359375,-2.537109375,2.275390625,0.0,180.0,360.0
3858691,,,,,,,,1.703125,-6.83203125,-0.9609375,0.150390625,-2.017578125,1.982421875,0.0,180.0,360.0
3858692,,,,,,,,2.48828125,-7.57421875,0.43359375,0.150390625,-2.017578125,1.982421875,0.0,180.0,360.0
3858693,,,,,,,,2.48828125,-7.57421875,0.43359375,0.111328125,-1.466796875,1.591796875,0.0,180.0,360.0
3858694,,,,,,,,3.65625,-0.43359375,-2.0390625,0.111328125,-1.466796875,1.591796875,0.0,180.0,360.0
3858695,,,,,,,,3.65625,-0.43359375,-2.0390625,0.046875,-1.10546875,1.201171875,0.0,180.0,360.0
3858696,,,,,,,,3.484375,6.1796875,-3.01171875,0.046875,-1.10546875,1.201171875,0.0,180.0,360.0
3858697,,,,,,,,3.484375,6.1796875,-3.01171875,0.21875,-0.658203125,0.697265625,0.0,180.0,360.0
3858698,,,,,,,,3.484375,6.1796875,-3.01171875,0.576171875,-0.16015625,0.5625,0.0,180.0,360.0
3858699,,,,,,,,1.79296875,14.38671875,-4.9609375,0.576171875,-0.16015625,0.5625,0.0,180.0,360.0
3858700,36.01259816666666,129.31946433333331,77.91908392719016,21.988766776465642,3.1,53.0,123.0,1.79296875,14.38671875,-4.9609375,-0.01171875,0.12109375,0.33203125,0.0,180.0,360.0
3858701,,,,,,,,1.79296875,14.38671875,-4.9609375,-0.01171875,0.12109375,0.33203125,0.0,180.0,360.0
3858702,,,,,,,,2.5078125,9.93359375,-8.1015625,-0.01171875,0.12109375,0.33203125,0.0,180.0,360.0
3858703,,,,,,,,2.5078125,9.93359375,-8.1015625,-1.01953125,0.8125,-0.033203125,0.0,180.0,360.0
3858704,,,,,,,,2.5078125,9.93359375,-8.1015625,2.478515625,0.984375,-0.1015625,0.0,180.0,360.0
3858705,,,,,,,,-8.4140625,-42.83203125,15.65625,2.478515625,0.984375,-0.1015625,0.0,180.0,360.0
3858706,,,,,,,,-8.4140625,-42.83203125,15.65625,-0.32421875,2.546875,-0.705078125,0.0,180.0,360.0
3858707,,,,,,,,3.69140625,-2.65234375,-0.9375,-0.32421875,2.546875,-0.705078125,0.0,180.0,360.0
3858708,,,,,,,,3.69140625,-2.65234375,-0.9375,-0.32421875,2.546875,-0.705078125,0.0,180.0,360.0
3858709,,,,,,,,3.69140625,-2.65234375,-0.9375,0.376953125,2.8203125,-1.76171875,0.0,180.0,360.0
3858710,36.01259816666666,129.31946433333331,77.91908392719016,21.988766776465642,3.1,53.0,,2.15234375,-7.21484375,-1.43359375,0.376953125,2.8203125,-1.76171875,0.0,180.0,360.0
3858711,,,,,,,,2.15234375,-7.21484375,-1.43359375,0.376953125,2.8203125,-1.76171875,0.0,180.0,360.0
3858712,,,,,,,,2.15234375,-7.21484375,-1.43359375,-0.45703125,2.806640625,-2.05078125,0.0,180.0,360.0
3858713,,,,,,,,-1.55859375,-4.81640625,-0.55078125,-0.45703125,2.806640625,-2.05078125,0.0,180.0,360.0
3858714,,,,,,,,-1.55859375,-4.81640625,-0.55078125,-0.521484375,2.677734375,-1.681640625,0.0,180.0,360.0
3858715,,,,,,,,-1.55859375,-4.81640625,-0.55078125,-0.6640625,2.318359375,-1.294921875,0.0,180.0,360.0
3858716,,,,,,,,-4.81640625,3.68359375,-2.2734375,-0.6640625,2.318359375,-1.294921875,0.0,180.0,360.0
3858717,,,,,,,,-4.81640625,3.68359375,-2.2734375,-0.43359375,2.03515625,-0.98046875,0.0,180.0,360.0
3858718,,,,,,,,-5.484375,5.8359375,-2.47265625,-0.43359375,2.03515625,-0.98046875,0.0,180.0,360.0
3858719,,,,,,,,-5.484375,5.8359375,-2.47265625,-0.5859375,1.1953125,-0.755859375,0.0,180.0,360.0
3858720,36.0126035,129.31947133333333,78.55012405177727,22.580554978725438,3.0,49.0,,-5.109375,12.06640625,-4.05078125,-0.5859375,1.1953125,-0.755859375,0.0,180.0,360.0
3858721,,,,,,,,-5.109375,12.06640625,-4.05078125,-0.84375,0.3984375,-0.546875,0.0,180.0,360.0
3858722,,,,,,,,-3.6875,11.8984375,-4.7734375,-0.84375,0.3984375,-0.546875,0.0,180.0,360.0
3858723,,,,,,,,-3.6875,11.8984375,-4.7734375,-0.783203125,0.099609375,-0.400390625,0.0,180.0,360.0
3858724,,,,,,,,-3.6875,11.8984375,-4.7734375,-0.0625,-0.138671875,-0.4453125,0.0,180.0,360.0
3858725,,,,,,,,-3.46484375,7.05859375,-3.0390625,-0.0625,-0.138671875,-0.4453125,0.0,180.0,360.0
3858726,,,,,,,,-3.46484375,7.05859375,-3.0390625,0.44921875,-0.015625,-0.625,0.0,180.0,360.0
3858727,,,,,,,,-1.91796875,6.26953125,-2.41015625,0.44921875,-0.015625,-0.625,0.0,180.0,360.0
3858728,,,,,,,,-1.91796875,6.26953125,-2.41015625,0.6171875,0.111328125,-0.68359375,0.0,180.0,360.0
3858729,,,,,,,,-0.765625,9.57421875,-3.04296875,0.6171875,0.111328125,-0.68359375,0.0,180.0,360.0
3858730,36.01260516666667,129.31947383333332,78.77549574045224,22.76548905580316,3.0,49.0,,-0.765625,9.57421875,-3.04296875,0.681640625,0.01953125,-0.640625,0.0,180.0,360.0
3858731,,,,,,,,-0.765625,9.57421875,-3.04296875,0.681640625,0.01953125,-0.640625,0.0,180.0,360.0
3858732,,,,,,,,-0.765625,9.57421875,-3.04296875,0.287109375,-0.220703125,-0.51953125,0.0,180.0,360.0
3858733,,,,,,,,-2.00390625,7.2578125,-1.6796875,0.287109375,-0.220703125,-0.51953125,0.0,180.0,360.0
3858734,,,,,,,,-2.00390625,7.2578125,-1.6796875,-0.83984375,-0.85546875,-0.8125,0.0,180.0,360.0
3858735,,,,,,,,-2.00390625,7.2578125,-1.6796875,-0.724609375,-0.583984375,-0.279296875,0.0,180.0,360.0
3858736,,,,,,,,3.5546875,-10.69921875,-2.96484375,-0.724609375,-0.583984375,-0.279296875,0.0,180.0,360.0
3858737,,,,,,,,3.5546875,-10.69921875,-2.96484375,3.2109375,-0.158203125,-0.33984375,0.0,180.0,360.0
3858738,,,,,,,,5.109375,-13.6640625,12.609375,3.2109375,-0.158203125,-0.33984375,0.0,180.0,360.0
3858739,,,,,,,,5.109375,-13.6640625,12.609375,0.146484375,-2.435546875,0.666015625,0.0,180.0,360.0
3858740,36.012607,129.319477,79.06096681368791,22.96891688256239,3.1,51.0,,-3.91796875,-16.86328125,4.625,0.146484375,-2.435546875,0.666015625,0.0,180.0,360.0
3858741,,,,,,,,-3.91796875,-16.86328125,4.625,0.404296875,-2.33984375,1.384765625,0.0,180.0,360.0
3858742,,,,,,,,-3.91796875,-16.86328125,4.625,-0.1484375,-2.73828125,1.9296875,0.0,180.0,360.0
3858743,,,,,,,,2.5703125,-9.68359375,0.98046875,-0.1484375,-2.73828125,1.9296875,0.0,180.0,360.0
3858744,,,,,,,,2.5703125,-9.68359375,0.98046875,-0.240234375,-2.62890625,2.13671875,0.0,180.0,360.0
3858745,,,,,,,,1.9609375,-8.44921875,0.33984375,-0.240234375,-2.62890625,2.13671875,0.0,180.0,360.0
3858746,,,,,,,,1.9609375,-8.44921875,0.33984375,-0.49609375,-2.146484375,2.060546875,0.0,180.0,360.0
3858747,,,,,,,,1.51171875,-4.515625,-1.21875,-0.49609375,-2.146484375,2.060546875,0.0,180.0,360.0
3858748,,,,,,,,1.51171875,-4.515625,-1.21875,-0.4375,-1.607421875,1.802734375,0.0,180.0,360.0
3858749,,,,,,,,2.609375,-1.015625,-2.62109375,-0.4375,-1.607421875,1.802734375,0.0,180.0,360.0
3858750,36.01260883333334,129.31947916666667,79.25628853584355,23.172343906387365,2.9000000000000004,49.0,,2.609375,-1.015625,-2.62109375,-0.181640625,-0.9765625,1.33984375,0.0,180.0,360.0
3858751,,,,,,,,2.609375,-1.015625,-2.62109375,-0.181640625,-0.9765625,1.33984375,0.0,180.0,360.0
3858752,,,,,,,,2.609375,-1.015625,-2.62109375,-0.095703125,-0.7734375,0.958984375,0.0,180.0,360.0
3858753,,,,,,,,2.671875,11.4921875,-6.8515625,-0.095703125,-0.7734375,0.958984375,0.0,180.0,360.0
3858754,,,,,,,,2.671875,11.4921875,-6.8515625,-0.36328125,-0.36328125,0.90234375,0.0,180.0,360.0
3858755,,,,,,,,3.171875,11.578125,-7.7265625,-0.36328125,-0.36328125,0.90234375,0.0,180.0,360.0
3858756,,,,,,,,3.171875,11.578125,-7.7265625,-0.50390625,0.91796875,0.55078125,0.0,180.0,360.0
3858757,,,,,,,,3.171875,11.578125,-7.7265625,0.236328125,0.638671875,0.521484375,0.0,180.0,360.0
3858758,,,,,,,,0.2578125,5.6015625,-3.30859375,0.236328125,0.638671875,0.521484375,0.0,180.0,360.0
3858759,,,,,,,,0.2578125,5.6015625,-3.30859375,1.228515625,-1.09765625,0.8046875,0.0,180.0,360.0
3858760,36.012609833333336,129.31948150000002,79.4666359775646,23.28330504085577,2.7,52.0,,-0.70703125,7.5,-0.671875,1.228515625,-1.09765625,0.8046875,0.0,180.0,360.0
3858761,,,,,,,,-0.70703125,7.5,-0.671875,1.466796875,-0.59375,0.62890625,0.0,180.0,360.0
3858762,,,,,,,,-0.70703125,7.5,-0.671875,0.814453125,0.08984375,0.416015625,0.0,180.0,360.0
3858763,,,,,,,,0.34765625,11.3046875,-2.484375,0.814453125,0.08984375,0.416015625,0.0,180.0,360.0
3858764,,,,,,,,0.34765625,11.3046875,-2.484375,0.05078125,0.015625,0.267578125,0.0,180.0,360.0
3858765,,,,,,,,-0.12109375,12.58984375,-1.65234375,0.05078125,0.015625,0.267578125,0.0,180.0,360.0
3858766,,,,,,,,-0.12109375,12.58984375,-1.65234375,-0.98828125,-0.1796875,0.392578125,0.0,180.0,360.0
3858767,,,,,,,,0.2265625,8.546875,0.265625,-0.98828125,-0.1796875,0.392578125,0.0,180.0,360.0
3858768,,,,,,,,0.2265625,8.546875,0.265625,-0.904296875,-1.76953125,0.150390625,0.0,180.0,360.0
3858769,,,,,,,,-3.51171875,-12.390625,6.23046875,-0.904296875,-1.76953125,0.150390625,0.0,180.0,360.0
3858770,36.01261183333334,129.31948400000002,79.69200729395206,23.50522555153407,2.9000000000000004,49.0,,-3.51171875,-12.390625,6.23046875,1.9765625,-0.177734375,-0.091796875,0.0,180.0,360.0
3858771,,,,,,,,-3.51171875,-12.390625,6.23046875,1.9765625,-0.177734375,-0.091796875,0.0,180.0,360.0
3858772,,,,,,,,-3.51171875,-12.390625,6.23046875,-0.78515625,2.404296875,-0.78125,0.0,180.0,360.0
3858773,,,,,,,,8.5078125,-14.19921875,3.515625,-0.78515625,2.404296875,-0.78125,0.0,180.0,360.0
3858774,,,,,,,,8.5078125,-14.19921875,3.515625,0.171875,2.171875,-1.376953125,0.0,180.0,360.0
3858775,,,,,,,,8.5078125,-14.19921875,3.515625,-0.236328125,2.87109375,-1.85546875,0.0,180.0,360.0
3858776,,,,,,,,2.66015625,-10.29296875,1.83984375,-0.236328125,2.87109375,-1.85546875,0.0,180.0,360.0
3858777,,,,,,,,2.66015625,-10.29296875,1.83984375,-0.314453125,2.6953125,-1.982421875,0.0,180.0,360.0
3858778,,,,,,,,-0.93359375,-5.44140625,-0.6875,-0.314453125,2.6953125,-1.982421875,0.0,180.0,360.0
3858779,,,,,,,,-0.93359375,-5.44140625,-0.6875,-0.41796875,2.4375,-1.6875,0.0,180.0,360.0
3858780,36.012614,129.31948666666668,79.93240331806503,23.74563940946927,3.0,46.0,,-4.609375,0.95703125,-1.5390625,-0.41796875,2.4375,-1.6875,0.0,180.0,360.0
3858781,,,,,,,,-4.609375,0.95703125,-1.5390625,-0.310546875,2.19140625,-1.447265625,0.0,180.0,360.0
3858782,,,,,,,,-4.609375,0.95703125,-1.5390625,-0.310546875,2.19140625,-1.447265625,0.0,180.0,360.0
3858783,,,,,,,,-4.609375,0.95703125,-1.5390625,-0.0234375,1.634765625,-0.98046875,0.0,180.0,360.0
3858784,,,,,,,,-7.015625,7.20703125,-2.05078125,-0.0234375,1.634765625,-0.98046875,0.0,180.0,360.0
3858785,,,,,,,,-7.015625,7.20703125,-2.05078125,0.150390625,0.2109375,-0.8046875,0.0,180.0,360.0
3858786,,,,,,,,-7.015625,7.20703125,-2.05078125,-0.560546875,-0.18359375,-0.490234375,0.0,180.0,360.0
3858787,,,,,,,,-3.984375,14.66015625,-4.46484375,-0.560546875,-0.18359375,-0.490234375,0.0,180.0,360.0
3858788,,,,,,,,-3.984375,14.66015625,-4.46484375,-0.677734375,-0.37109375,-0.294921875,0.0,180.0,360.0
3858789,,,,,,,,-3.07421875,10.640625,-4.8671875,-0.677734375,-0.37109375,-0.294921875,0.0,180.0,360.0
3858790,36.0126155,129.3194895,80.18782489095335,23.912080589039835,3.1,50.0,,-3.07421875,10.640625,-4.8671875,0.0078125,-0.119140625,-0.400390625,0.0,180.0,360.0
3858791,,,,,,,,-1.69921875,5.9453125,-2.4140625,0.0078125,-0.119140625,-0.400390625,0.0,180.0,360.0
3858792,,,,,,,,-1.69921875,5.9453125,-2.4140625,0.5625,0.134765625,-0.634765625,0.0,180.0,360.0
3858793,,,,,,,,-1.69921875,5.9453125,-2.4140625,0.685546875,-0.013671875,-0.701171875,0.0,180.0,360.0
3858794,,,,,,,,-0.73828125,8.79296875,-2.23828125,0.685546875,-0.013671875,-0.701171875,0.0,180.0,360.0
3858795,,,,,,,,-0.73828125,8.79296875,-2.23828125,0.525390625,-0.154296875,-0.615234375,0.0,180.0,360.0
3858796,,,,,,,,-1.3046875,10.8125,-3.64453125,0.525390625,-0.154296875,-0.615234375,0.0,180.0,360.0
3858797,,,,,,,,-1.3046875,10.8125,-3.64453125,0.044921875,-0.498046875,-0.408203125,0.0,180.0,360.0
3858798,,,,,,,,-2.83203125,10.20703125,-1.4375,0.044921875,-0.498046875,-0.408203125,0.0,180.0,360.0
3858799,,,,,,,,-2.83203125,10.20703125,-1.4375,-1.134765625,-1.12890625,-0.40234375,0.0,180.0,360.0
3858800,36.012619,129.31949500000002,80.68364261402517,24.300442450127193,3.1,52.0,123.0,-2.83203125,10.20703125,-1.4375,-1.134765625,-1.12890625,-0.40234375,0.0,180.0,360.0
3858801,,,,,,,,-2.83203125,10.20703125,-1.4375,-1.134765625,-1.12890625,-0.40234375,0.0,180.0,360.0
3858802,,,,,,,,-2.55859375,4.14453125,0.6640625,-1.134765625,-1.12890625,-0.40234375,0.0,180.0,360.0
3858803,,,,,,,,-2.55859375,4.14453125,0.6640625,2.2734375,-0.68359375,0.630859375,0.0,180.0,360.0
3858804,,,,,,,,-2.55859375,4.14453125,0.6640625,-0.654296875,-0.037109375,0.390625,0.0,180.0,360.0
3858805,,,,,,,,2.73828125,11.24609375,-7.33984375,-0.654296875,-0.037109375,0.390625,0.0,180.0,360.0
3858806,,,,,,,,2.73828125,11.24609375,-7.33984375,-0.4375,0.908203125,0.25,0.0,180.0,360.0
3858807,,,,,,,,4.41796875,7.70703125,-6.578125,-0.4375,0.908203125,0.25,0.0,180.0,360.0
3858808,,,,,,,,4.41796875,7.70703125,-6.578125,0.3828125,0.94921875,0.439453125,0.0,180.0,360.0
3858809,,,,,,,,-2.96484375,6.98046875,-0.09765625,0.3828125,0.94921875,0.439453125,0.0,180.0,360.0
3858810,36.01262233333333,129.3195,81.13438580440338,24.670310716659554,3.1,52.0,,-2.96484375,6.98046875,-0.09765625,0.87109375,-0.37109375,0.64453125,0.0,180.0,360.0
3858811,,,,,,,,-2.96484375,6.98046875,-0.09765625,0.626953125,0.130859375,0.384765625,0.0,180.0,360.0
3858812,,,,,,,,-3.19140625,9.58984375,-0.27734375,0.626953125,0.130859375,0.384765625,0.0,180.0,360.0
3858813,,,,,,,,-3.19140625,9.58984375,-0.27734375,0.201171875,0.5625,0.19140625,0.0,180.0,360.0
3858814,,,,,,,,-0.42578125,11.23046875,-2.41796875,0.201171875,0.5625,0.19140625,0.0,180.0,360.0
3858815,,,,,,,,-0.42578125,11.23046875,-2.41796875,-0.755859375,0.56640625,0.09765625,0.0,180.0,360.0
3858816,,,,,,,,0.296875,10.2578125,-2.35546875,-0.755859375,0.56640625,0.09765625,0.0,180.0,360.0
3858817,,,,,,,,0.296875,10.2578125,-2.35546875,-1.244140625,0.681640625,0.009765625,0.0,180.0,360.0
3858818,,,,,,,,-0.8359375,-14.08984375,3.7109375,-1.244140625,0.681640625,0.009765625,0.0,180.0,360.0
3858819,,,,,,,,-0.8359375,-14.08984375,3.7109375,-0.8671875,-0.943359375,0.189453125,0.0,180.0,360.0
3858820,36.01262433333333,129.3195025,81.3597570427393,24.892231269860147,3.2,50.0,,-0.8359375,-14.08984375,3.7109375,2.607421875,1.69140625,-0.490234375,0.0,180.0,360.0
3858821,,,,,,,,1.1953125,-11.5859375,5.90625,2.607421875,1.69140625,-0.490234375,0.0,180.0,360.0
3858822,,,,,,,,1.1953125,-11.5859375,5.90625,-1.16796875,2.62109375,-0.81640625,0.0,180.0,360.0
3858823,,,,,,,,8.84375,-8.26953125,-4.78125,-1.16796875,2.62109375,-0.81640625,0.0,180.0,360.0
3858824,,,,,,,,8.84375,-8.26953125,-4.78125,0.16796875,2.421875,-1.427734375,0.0,180.0,360.0
3858825,,,,,,,,8.23828125,-15.8359375,3.66015625,0.16796875,2.421875,-1.427734375,0.0,180.0,360.0
3858826,,,,,,,,8.23828125,-15.8359375,3.66015625,-0.287109375,2.8515625,-1.83203125,0.0,180.0,360.0
3858827,,,,,,,,-0.88671875,-6.98046875,-0.72265625,-0.287109375,2.8515625,-1.83203125,0.0,180.0,360.0
3858828,,,,,,,,-0.88671875,-6.98046875,-0.72265625,-0.5,2.49609375,-1.79296875,0.0,180.0,360.0
3858829,,,,,,,,-1.96484375,-2.0703125,-1.83984375,-0.5,2.49609375,-1.79296875,0.0,180.0,360.0
3858830,36.01262633333333,129.319505,81.58512827020586,25.114151830658457,3.1,48.0,,-1.96484375,-2.0703125,-1.83984375,-0.681640625,2.044921875,-1.4609375,0.0,180.0,360.0
3858831,,,,,,,,-1.96484375,-2.0703125,-1.83984375,-0.375,1.9296875,-1.177734375,0.0,180.0,360.0
3858832,,,,,,,,-3.7734375,0.5390625,-1.59765625,-0.375,1.9296875,-1.177734375,0.0,180.0,360.0
3858833,,,,,,,,-3.7734375,0.5390625,-1.59765625,-0.037109375,1.55859375,-0.75390625,0.0,180.0,360.0
3858834,,,,,,,,-5.84375,6.765625,-2.53125,-0.037109375,1.55859375,-0.75390625,0.0,180.0,360.0
3858835,,,,,,,,-5.84375,6.765625,-2.53125,-0.0390625,0.412109375,-0.58984375,0.0,180.0,360.0
3858836,,,,,,,,-5.9375,10.94140625,-3.0859375,-0.0390625,0.412109375,-0.58984375,0.0,180.0,360.0
3858837,,,,,,,,-5.9375,10.94140625,-3.0859375,-0.46484375,-0.044921875,-0.37109375,0.0,180.0,360.0
3858838,,,,,,,,-3.33203125,10.5078125,-5.265625,-0.46484375,-0.044921875,-0.37109375,0.0,180.0,360.0
3858839,,,,,,,,-3.33203125,10.5078125,-5.265625,-0.29296875,-0.197265625,-0.330078125,0.0,180.0,360.0
3858840,36.012629999999994,129.31950983333334,82.0208461527134,25.521006415173893,3.2,47.0,,-3.33203125,10.5078125,-5.265625,0.228515625,-0.033203125,-0.5546875,0.0,180.0,360.0
3858841,,,,,,,,-1.2578125,6.140625,-2.75390625,0.228515625,-0.033203125,-0.5546875,0.0,180.0,360.0
3858842,,,,,,,,-1.2578125,6.140625,-2.75390625,0.6953125,0.33203125,-0.759765625,0.0,180.0,360.0
3858843,,,,,,,,-0.28125,6.62890625,-1.98046875,0.6953125,0.33203125,-0.759765625,0.0,180.0,360.0
3858844,,,,,,,,-0.28125,6.62890625,-1.98046875,0.880859375,0.244140625,-0.70703125,0.0,180.0,360.0
3858845,,,,,,,,-0.95703125,8.390625,-1.99609375,0.880859375,0.244140625,-0.70703125,0.0,180.0,360.0
3858846,,,,,,,,-0.95703125,8.390625,-1.99609375,0.5390625,-0.091796875,-0.521484375,0.0,180.0,360.0
3858847,,,,,,,,-3.00390625,10.71484375,-2.28515625,0.5390625,-0.091796875,-0.521484375,0.0,180.0,360.0
3858848,,,,,,,,-3.00390625,10.71484375,-2.28515625,-0.037109375,-0.935546875,-0.240234375,0.0,180.0,360.0
3858849,,,,,,,,-2.80859375,2.39453125,-0.5703125,-0.037109375,-0.935546875,-0.240234375,0.0,180.0,360.0
3858850,36.01263183333333,129.319513,82.30631705698318,25.72443434915338,3.2,51.0,,-2.80859375,2.39453125,-0.5703125,-1.224609375,-0.484375,-0.7421875,0.0,180.0,360.0
3858851,,,,,,,,-2.80859375,2.39453125,-0.5703125,-0.12109375,-0.49609375,0.97265625,0.0,180.0,360.0
3858852,,,,,,,,9.33203125,-28.31640625,3.8515625,-0.12109375,-0.49609375,0.97265625,0.0,180.0,360.0
3858853,,,,,,,,9.33203125,-28.31640625,3.8515625,2.771484375,-1.458984375,-0.3515625,0.0,180.0,360.0
3858854,,,,,,,,1.01953125,-5.97265625,1.9375,2.771484375,-1.458984375,-0.3515625,0.0,180.0,360.0
3858855,,,,,,,,1.01953125,-5.97265625,1.9375,0.232421875,-3.4296875,1.22265625,0.0,180.0,360.0
3858856,,,,,,,,-9.515625,-13.8359375,5.3359375,0.232421875,-3.4296875,1.22265625,0.0,180.0,360.0
3858857,,,,,,,,-9.515625,-13.8359375,5.3359375,0.91796875,-2.197265625,1.666015625,0.0,180.0,360.0
3858858,,,,,,,,1.71484375,-5.5625,0.23828125,0.91796875,-2.197265625,1.666015625,0.0,180.0,360.0
3858859,,,,,,,,1.71484375,-5.5625,0.23828125,0.91796875,-2.197265625,1.666015625,0.0,180.0,360.0
3858860,36.01263383333333,129.31951566666666,82.54671312233556,25.946355074219998,3.2,50.0,,1.71484375,-5.5625,0.23828125,-0.3203125,-2.52734375,2.232421875,0.0,180.0,360.0
3858861,,,,,,,,2.5234375,-6.171875,-0.1796875,-0.3203125,-2.52734375,2.232421875,0.0,180.0,360.0
3858862,,,,,,,,2.5234375,-6.171875,-0.1796875,0.099609375,-1.84375,1.5859375,0.0,180.0,360.0
3858863,,,,,,,,3.359375,-2.1640625,-1.05078125,0.099609375,-1.84375,1.5859375,0.0,180.0,360.0
3858864,,,,,,,,3.359375,-2.1640625,-1.05078125,-0.052734375,-1.443359375,1.130859375,0.0,180.0,360.0
3858865,,,,,,,,3.69140625,2.05859375,-3.203125,-0.052734375,-1.443359375,1.130859375,0.0,180.0,360.0
3858866,,,,,,,,3.69140625,2.05859375,-3.203125,-0.009765625,-0.890625,0.64453125,0.0,180.0,360.0
3858867,,,,,,,,4.30859375,9.0,-4.23828125,-0.009765625,-0.890625,0.64453125,0.0,180.0,360.0
3858868,,,,,,,,4.30859375,9.0,-4.23828125,0.017578125,-0.7578125,0.51953125,0.0,180.0,360.0
3858869,,,,,,,,4.30859375,9.0,-4.23828125,0.017578125,-0.7578125,0.51953125,0.0,180.0,360.0
3858870,36.012635,129.31951833333332,82.78711004691503,26.075809777273417,3.0,52.0,,4.30859375,9.0,-4.23828125,-0.111328125,-0.775390625,0.55078125,0.0,180.0,360.0
3858871,,,,,,,,2.72265625,8.54296875,-6.87109375,-0.111328125,-0.775390625,0.55078125,0.0,180.0,360.0
3858872,,,,,,,,2.72265625,8.54296875,-6.87109375,-0.181640625,0.341796875,0.3125,0.0,180.0,360.0
3858873,,,,,,,,2.72265625,8.54296875,-6.87109375,0.244140625,1.375,0.33203125,0.0,180.0,360.0
3858874,,,,,,,,0.47265625,6.26171875,-4.203125,0.244140625,1.375,0.33203125,0.0,180.0,360.0
3858875,,,,,,,,0.47265625,6.26171875,-4.203125,1.091796875,0.337890625,0.666015625,0.0,180.0,360.0
3858876,,,,,,,,-2.16015625,7.90625,-1.15625,1.091796875,0.337890625,0.666015625,0.0,180.0,360.0
3858877,,,,,,,,-2.16015625,7.90625,-1.15625,1.349609375,-0.833984375,0.60546875,0.0,180.0,360.0
3858878,,,,,,,,-0.79296875,12.74609375,-2.9296875,1.349609375,-0.833984375,0.60546875,0.0,180.0,360.0
3858879,,,,,,,,-0.79296875,12.74609375,-2.9296875,1.349609375,-0.833984375,0.60546875,0.0,180.0,360.0
3858880,36.01263683333333,129.31952099999998,83.02750626498644,26.27923730969676,3.1,53.0,,-0.79296875,12.74609375,-2.9296875,-0.451171875,0.90234375,0.359375,0.0,180.0,360.0
3858881,,,,,,,,0.92578125,6.39453125,-0.51171875,-0.451171875,0.90234375,0.359375,0.0,180.0,360.0
3858882,,,,,,,,0.92578125,6.39453125,-0.51171875,-0.05078125,-2.376953125,0.142578125,0.0,180.0,360.0
3858883,,,,,,,,-3.78515625,-17.046875,11.46875,-0.05078125,-2.376953125,0.142578125,0.0,180.0,360.0
3858884,,,,,,,,-3.78515625,-17.046875,11.46875,2.341796875,0.205078125,-0.353515625,0.0,180.0,360.0
3858885,,,,,,,,-8.62890625,-44.36328125,21.1640625,2.341796875,0.205078125,-0.353515625,0.0,180.0,360.0
3858886,,,,,,,,-8.62890625,-44.36328125,21.1640625,-1.119140625,2.20703125,0.041015625,0.0,180.0,360.0
3858887,,,,,,,,-0.25390625,-6.3203125,3.23828125,-1.119140625,2.20703125,0.041015625,0.0,180.0,360.0
3858888,,,,,,,,-0.25390625,-6.3203125,3.23828125,0.064453125,2.5078125,-0.966796875,0.0,180.0,360.0
3858889,,,,,,,,-0.25390625,-6.3203125,3.23828125,0.064453125,2.5078125,-0.966796875,0.0,180.0,360.0
3858890,36.01263933333333,129.3195233333333,83.23785200622362,26.556637387921857,3.3000000000000003,46.0,,-0.25390625,-6.3203125,3.23828125,0.205078125,3.083984375,-1.91796875,0.0,180.0,360.0
3858891,,,,,,,,-0.3125,-6.26953125,-2.2265625,0.205078125,3.083984375,-1.91796875,0.0,180.0,360.0
3858892,,,,,,,,-0.3125,-6.26953125,-2.2265625,-0.888671875,2.306640625,-2.005859375,0.0,180.0,360.0
3858893,,,,,,,,-0.3125,-6.26953125,-2.2265625,0.00390625,2.36328125,-1.8984375,0.0,180.0,360.0
3858894,,,,,,,,-2.04296875,-3.6875,1.21484375,0.00390625,2.36328125,-1.8984375,0.0,180.0,360.0
3858895,,,,,,,,-2.04296875,-3.6875,1.21484375,0.00390625,2.36328125,-1.8984375,0.0,180.0,360.0
3858896,,,,,,,,-2.04296875,-3.6875,1.21484375,-0.068359375,2.23828125,-1.30078125,0.0,180.0,360.0
3858897,,,,,,,,-8.125,5.5546875,-2.68359375,-0.068359375,2.23828125,-1.30078125,0.0,180.0,360.0
3858898,,,,,,,,-8.125,5.5546875,-2.68359375,-0.171875,1.240234375,-0.724609375,0.0,180.0,360.0
3858899,,,,,,,,-8.125,5.5546875,-2.68359375,-0.15625,0.544921875,-0.4296875,0.0,180.0,360.0
3858900,36.01264283333333,129.31952866666668,83.71864456549314,26.944999279377917,3.2,48.0,123.0,-8.125,5.5546875,-2.68359375,-0.15625,0.544921875,-0.4296875,0.0,180.0,360.0
3858901,,,,,,,,-8.125,5.5546875,-2.68359375,-0.15625,0.544921875,-0.4296875,0.0,180.0,360.0
3858902,,,,,,,,-5.90625,9.5859375,-2.30859375,-0.15625,0.544921875,-0.4296875,0.0,180.0,360.0
3858903,,,,,,,,-5.90625,9.5859375,-2.30859375,-0.1875,-0.10546875,-0.283203125,0.0,180.0,360.0
3858904,,,,,,,,-3.22265625,-4.1796875,0.484375,-0.1875,-0.10546875,-0.283203125,0.0,180.0,360.0
3858905,,,,,,,,-3.22265625,-4.1796875,0.484375,1.30078125,-2.005859375,0.046875,0.0,180.0,360.0
3858906,,,,,,,,-3.22265625,-4.1796875,0.484375,0.513671875,-2.13671875,1.017578125,0.0,180.0,360.0
3858907,,,,,,,,1.39453125,-11.93359375,2.74609375,0.513671875,-2.13671875,1.017578125,0.0,180.0,360.0
3858908,,,,,,,,1.39453125,-11.93359375,2.74609375,0.513671875,-2.13671875,1.017578125,0.0,180.0,360.0
3858909,,,,,,,,1.39453125,-11.93359375,2.74609375,0.087890625,-1.888671875,1.99609375,0.0,180.0,360.0
3858910,36.01264616666666,129.3195345,84.24451189960978,27.31486842292073,3.0,51.0,,-0.19921875,-5.91796875,-1.6171875,0.087890625,-1.888671875,1.99609375,0.0,180.0,360.0
3858911,,,,,,,,-0.19921875,-5.91796875,-1.6171875,-0.603515625,-1.37109375,1.896484375,0.0,180.0,360.0
3858912,,,,,,,,-0.19921875,-5.91796875,-1.6171875,0.35546875,-0.857421875,1.267578125,0.0,180.0,360.0
3858913,,,,,,,,4.73046875,-2.4375,1.09765625,0.35546875,-0.857421875,1.267578125,0.0,180.0,360.0
3858914,,,,,,,,4.73046875,-2.4375,1.09765625,0.66796875,-0.7734375,0.80859375,0.0,180.0,360.0
3858915,,,,,,,,4.57421875,2.7265625,-2.00390625,0.66796875,-0.7734375,0.80859375,0.0,180.0,360.0
3858916,,,,,,,,4.57421875,2.7265625,-2.00390625,0.64453125,-0.83984375,0.51953125,0.0,180.0,360.0
3858917,,,,,,,,3.3671875,10.49609375,-4.15234375,0.64453125,-0.83984375,0.51953125,0.0,180.0,360.0
3858918,,,,,,,,3.3671875,10.49609375,-4.15234375,0.732421875,-0.349609375,0.263671875,0.0,180.0,360.0
3858919,,,,,,,,3.3671875,10.49609375,-4.15234375,0.732421875,-0.349609375,0.263671875,0.0,180.0,360.0
3858920,36.012647666666666,129.31953716666666,84.48490840609806,27.481309584750704,3.0,52.0,,3.3671875,10.49609375,-4.15234375,0.501953125,0.11328125,0.208984375,0.0,180.0,360.0
3858921,,,,,,,,3.3671875,9.15234375,-5.484375,0.501953125,0.11328125,0.208984375,0.0,180.0,360.0
3858922,,,,,,,,3.3671875,9.15234375,-5.484375,-0.080078125,1.033203125,0.091796875,0.0,180.0,360.0
3858923,,,,,,,,3.3671875,9.15234375,-5.484375,-0.125,1.5859375,0.0234375,0.0,180.0,360.0
3858924,,,,,,,,3.38671875,7.703125,-4.3203125,-0.125,1.5859375,0.0234375,0.0,180.0,360.0
3858925,,,,,,,,3.38671875,7.703125,-4.3203125,-0.125,1.5859375,0.0234375,0.0,180.0,360.0
3858926,,,,,,,,3.38671875,7.703125,-4.3203125,0.568359375,1.109375,-0.095703125,0.0,180.0,360.0
3858927,,,,,,,,-1.9765625,10.84375,-1.484375,0.568359375,1.109375,-0.095703125,0.0,180.0,360.0
3858928,,,,,,,,-1.9765625,10.84375,-1.484375,0.568359375,1.109375,-0.095703125,0.0,180.0,360.0
3858929,,,,,,,,-1.9765625,10.84375,-1.484375,0.193359375,0.640625,-0.33203125,0.0,180.0,360.0
3858930,36.012649499999995,129.31953983333332,84.72530454710261,27.684737164336177,3.1,51.0,,-1.015625,9.1875,-2.21484375,0.193359375,0.640625,-0.33203125,0.0,180.0,360.0
3858931,,,,,,,,-1.015625,9.1875,-2.21484375,-0.65625,0.697265625,-0.248046875,0.0,180.0,360.0
3858932,,,,,,,,-1.015625,9.1875,-2.21484375,-1.73046875,-0.4140625,-0.1171875,0.0,180.0,360.0
3858933,,,,,,,,0.53125,-19.5546875,9.41015625,-1.73046875,-0.4140625,-0.1171875,0.0,180.0,360.0
3858934,,,,,,,,0.53125,-19.5546875,9.41015625,1.673828125,0.1015625,-0.6015625,0.0,180.0,360.0
3858935,,,,,,,,-7.8125,-42.00390625,20.01171875,1.673828125,0.1015625,-0.6015625,0.0,180.0,360.0
3858936,,,,,,,,-7.8125,-42.00390625,20.01171875,0.78125,1.765625,-0.576171875,0.0,180.0,360.0
3858937,,,,,,,,7.34765625,-7.046875,-3.23046875,0.78125,1.765625,-0.576171875,0.0,180.0,360.0
3858938,,,,,,,,7.34765625,-7.046875,-3.23046875,-0.9296875,2.421875,-0.767578125,0.0,180.0,360.0
3858939,,,,,,,,7.34765625,-7.046875,-3.23046875,0.099609375,2.880859375,-1.912109375,0.0,180.0,360.0
3858940,36.01265133333333,129.319542,84.92062603749503,27.88816431490756,3.1,48.0,,6.3125,-11.0625,3.0703125,0.099609375,2.880859375,-1.912109375,0.0,180.0,360.0
3858941,,,,,,,,6.3125,-11.0625,3.0703125,-0.63671875,2.318359375,-2.158203125,0.0,180.0,360.0
3858942,,,,,,,,1.8828125,-5.453125,0.2421875,-0.63671875,2.318359375,-2.158203125,0.0,180.0,360.0
3858943,,,,,,,,1.8828125,-5.453125,0.2421875,-0.62890625,1.974609375,-1.90625,0.0,180.0,360.0
3858944,,,,,,,,-0.3671875,-4.9375,0.40625,-0.62890625,1.974609375,-1.90625,0.0,180.0,360.0
3858945,,,,,,,,-0.3671875,-4.9375,0.40625,-0.62890625,1.974609375,-1.90625,0.0,180.0,360.0
3858946,,,,,,,,-0.3671875,-4.9375,0.40625,-0.642578125,1.69921875,-0.986328125,0.0,180.0,360.0
3858947,,,,,,,,-5.6484375,5.4296875,-1.9296875,-0.642578125,1.69921875,-0.986328125,0.0,180.0,360.0
3858948,,,,,,,,-5.6484375,5.4296875,-1.9296875,-0.443359375,0.861328125,-0.458984375,0.0,180.0,360.0
3858949,,,,,,,,-5.7890625,8.640625,-1.8125,-0.443359375,0.861328125,-0.458984375,0.0,180.0,360.0
3858950,36.012653,129.31954416666667,85.11594769573031,28.07309826341687,2.9000000000000004,47.0,,-5.7890625,8.640625,-1.8125,-0.45703125,-0.341796875,-0.3125,0.0,180.0,360.0
3858951,,,,,,,,-5.453125,12.08203125,-1.359375,-0.45703125,-0.341796875,-0.3125,0.0,180.0,360.0
3858952,,,,,,,,-5.453125,12.08203125,-1.359375,-0.8828125,-1.02734375,0.037109375,0.0,180.0,360.0
3858953,,,,,,,,-2.88671875,11.19921875,-4.15234375,-0.8828125,-1.02734375,0.037109375,0.0,180.0,360.0
3858954,,,,,,,,-2.88671875,11.19921875,-4.15234375,-0.693359375,-0.96875,0.18359375,0.0,180.0,360.0
3858955,,,,,,,,-2.43359375,7.125,-3.78125,-0.693359375,-0.96875,0.18359375,0.0,180.0,360.0
3858956,,,,,,,,-2.43359375,7.125,-3.78125,0.177734375,-0.3984375,-0.11328125,0.0,180.0,360.0
3858957,,,,,,,,-0.18359375,5.9609375,-3.36328125,0.177734375,-0.3984375,-0.11328125,0.0,180.0,360.0
3858958,,,,,,,,-0.18359375,5.9609375,-3.36328125,1.03515625,0.322265625,-0.416015625,0.0,180.0,360.0
3858959,,,,,,,,-0.18359375,5.9609375,-3.36328125,0.8203125,0.431640625,-0.43359375,0.0,180.0,360.0
3858960,36.012654500000004,129.3195465,85.32629440307902,28.239539157313143,2.9000000000000004,48.0,,-0.67578125,10.86328125,-2.80859375,0.8203125,0.431640625,-0.43359375,0.0,180.0,360.0
3858961,,,,,,,,-0.67578125,10.86328125,-2.80859375,0.26953125,-0.083984375,-0.236328125,0.0,180.0,360.0
3858962,,,,,,,,-2.9375,10.30078125,-2.078125,0.26953125,-0.083984375,-0.236328125,0.0,180.0,360.0
3858963,,,,,,,,-2.9375,10.30078125,-2.078125,-0.416015625,-1.19921875,-0.076171875,0.0,180.0,360.0
3858964,,,,,,,,-4.62890625,8.0859375,0.4140625,-0.416015625,-1.19921875,-0.076171875,0.0,180.0,360.0
3858965,,,,,,,,-4.62890625,8.0859375,0.4140625,-2.044921875,-0.8984375,-0.5859375,0.0,180.0,360.0
3858966,,,,,,,,-4.40234375,-0.67578125,2.23046875,-2.044921875,-0.8984375,-0.5859375,0.0,180.0,360.0
3858967,,,,,,,,-4.40234375,-0.67578125,2.23046875,3.705078125,0.591796875,0.15625,0.0,180.0,360.0
3858968,,,,,,,,-4.40234375,-0.67578125,2.23046875,3.705078125,0.591796875,0.15625,0.0,180.0,360.0
3858969,,,,,,,,-4.40234375,-0.67578125,2.23046875,0.888671875,-2.556640625,0.083984375,0.0,180.0,360.0
3858970,36.01265816666667,129.31955216666665,85.83713635127346,28.646394664374665,3.1,49.0,,-8.390625,-12.453125,5.609375,0.888671875,-2.556640625,0.083984375,0.0,180.0,360.0
3858971,,,,,,,,-8.390625,-12.453125,5.609375,0.55078125,-2.609375,1.24609375,0.0,180.0,360.0
3858972,,,,,,,,-8.390625,-12.453125,5.609375,0.08203125,-2.697265625,1.86328125,0.0,180.0,360.0
3858973,,,,,,,,-1.1328125,-12.23828125,4.18359375,0.08203125,-2.697265625,1.86328125,0.0,180.0,360.0
3858974,,,,,,,,-1.1328125,-12.23828125,4.18359375,0.08203125,-2.697265625,1.86328125,0.0,180.0,360.0
3858975,,,,,,,,-1.1328125,-12.23828125,4.18359375,-0.2109375,-2.755859375,2.056640625,0.0,180.0,360.0
3858976,,,,,,,,3.23828125,-7.62890625,0.9609375,-0.2109375,-2.755859375,2.056640625,0.0,180.0,360.0
3858977,,,,,,,,3.23828125,-7.62890625,0.9609375,-0.166015625,-2.29296875,1.673828125,0.0,180.0,360.0
3858978,,,,,,,,3.13671875,-2.2734375,-1.08984375,-0.166015625,-2.29296875,1.673828125,0.0,180.0,360.0
3858979,,,,,,,,3.13671875,-2.2734375,-1.08984375,-0.234375,-1.896484375,1.36328125,0.0,180.0,360.0
3858980,36.012659666666664,129.31955449999998,86.04748303341466,28.812835574178532,2.9000000000000004,50.0,,3.375,3.44921875,-1.7265625,-0.234375,-1.896484375,1.36328125,0.0,180.0,360.0
3858981,,,,,,,,3.375,3.44921875,-1.7265625,0.193359375,-1.5859375,1.0390625,0.0,180.0,360.0
3858982,,,,,,,,3.23828125,7.7578125,-2.73828125,0.193359375,-1.5859375,1.0390625,0.0,180.0,360.0
3858983,,,,,,,,3.23828125,7.7578125,-2.73828125,0.07421875,-1.373046875,0.8359375,0.0,180.0,360.0
3858984,,,,,,,,1.84765625,14.40625,-5.87109375,0.07421875,-1.373046875,0.8359375,0.0,180.0,360.0
3858985,,,,,,,,1.84765625,14.40625,-5.87109375,-0.654296875,-0.71875,0.72265625,0.0,180.0,360.0
3858986,,,,,,,,2.72265625,12.578125,-7.30078125,-0.654296875,-0.71875,0.72265625,0.0,180.0,360.0
3858987,,,,,,,,2.72265625,12.578125,-7.30078125,-1.03515625,0.3125,0.384765625,0.0,180.0,360.0
3858988,,,,,,,,2.72265625,12.578125,-7.30078125,-1.03515625,0.3125,0.384765625,0.0,180.0,360.0
3858989,,,,,,,,2.72265625,12.578125,-7.30078125,-0.1015625,1.04296875,0.4609375,0.0,180.0,360.0
3858990,36.01266116666667,129.31955716666667,86.28787946676793,28.979276786037293,2.9000000000000004,52.0,,-0.37109375,6.01953125,-1.03125,-0.1015625,1.04296875,0.4609375,0.0,180.0,360.0
3858991,,,,,,,,-0.37109375,6.01953125,-1.03125,1.05859375,0.21875,0.634765625,0.0,180.0,360.0
3858992,,,,,,,,-0.37109375,6.01953125,-1.03125,0.78125,-0.55859375,0.642578125,0.0,180.0,360.0
3858993,,,,,,,,-2.98046875,8.64453125,1.26171875,0.78125,-0.55859375,0.642578125,0.0,180.0,360.0
3858994,,,,,,,,-2.98046875,8.64453125,1.26171875,-0.08203125,0.822265625,0.349609375,0.0,180.0,360.0
3858995,,,,,,,,2.078125,12.4296875,-0.76953125,-0.08203125,0.822265625,0.349609375,0.0,180.0,360.0
3858996,,,,,,,,2.078125,12.4296875,-0.76953125,-0.755859375,0.154296875,0.490234375,0.0,180.0,360.0
3858997,,,,,,,,-1.91796875,-15.6640625,9.62109375,-0.755859375,0.154296875,0.490234375,0.0,180.0,360.0
3858998,,,,,,,,-1.91796875,-15.6640625,9.62109375,-0.98046875,-0.978515625,0.134765625,0.0,180.0,360.0
3858999,,,,,,,,-1.91796875,-15.6640625,9.62109375,1.40625,1.310546875,-0.046875,0.0,180.0,360.0
3859000,36.012665,129.31956183333332,86.70857187791731,29.40462466299905,2.9000000000000004,47.0,123.0,-0.140625,-29.1796875,16.96484375,1.40625,1.310546875,-0.046875,0.0,180.0,360.0
3859001,,,,,,,,-0.140625,-29.1796875,16.96484375,1.40625,1.310546875,-0.046875,0.0,180.0,360.0
3859002,,,,,,,,-0.140625,-29.1796875,16.96484375,-1.31640625,1.9140625,0.025390625,0.0,180.0,360.0
3859003,,,,,,,,-0.140625,-29.1796875,16.96484375,-0.640625,2.330078125,-0.837890625,0.0,180.0,360.0
3859004,,,,,,,,-5.3671875,9.01171875,-2.3515625,-0.640625,2.330078125,-0.837890625,0.0,180.0,360.0
3859005,,,,,,,,-5.3671875,9.01171875,-2.3515625,-0.76953125,1.03125,-0.326171875,0.0,180.0,360.0
3859006,,,,,,,,-5.3671875,9.01171875,-2.3515625,-0.76953125,1.03125,-0.326171875,0.0,180.0,360.0
3859007,,,,,,,,-2.2578125,12.1328125,-3.3984375,-0.76953125,1.03125,-0.326171875,0.0,180.0,360.0
3859008,,,,,,,,-2.2578125,12.1328125,-3.3984375,-0.759765625,0.234375,0.025390625,0.0,180.0,360.0
3859009,,,,,,,,-2.2578125,12.1328125,-3.3984375,-0.380859375,0.453125,0.052734375,0.0,180.0,360.0
3859010,36.0126665,129.31956383333332,86.8888687681858,29.571065298252975,2.7,47.0,,-2.42578125,9.30078125,-3.5390625,-0.380859375,0.453125,0.052734375,0.0,180.0,360.0
3859011,,,,,,,,-2.42578125,9.30078125,-3.5390625,0.544921875,0.447265625,-0.212890625,0.0,180.0,360.0
3859012,,,,,,,,-3.15234375,6.44921875,-2.1015625,0.544921875,0.447265625,-0.212890625,0.0,180.0,360.0
3859013,,,,,,,,-3.15234375,6.44921875,-2.1015625,0.81640625,0.06640625,-0.283203125,0.0,180.0,360.0
3859014,,,,,,,,-3.15234375,6.44921875,-2.1015625,0.81640625,0.06640625,-0.283203125,0.0,180.0,360.0
3859015,,,,,,,,-3.15234375,6.44921875,-2.1015625,0.5,0.193359375,-0.34375,0.0,180.0,360.0
3859016,,,,,,,,-1.31640625,10.0859375,0.8515625,0.5,0.193359375,-0.34375,0.0,180.0,360.0
3859017,,,,,,,,-1.31640625,10.0859375,0.8515625,0.40625,0.044921875,-0.435546875,0.0,180.0,360.0
3859018,,,,,,,,-1.31640625,10.0859375,0.8515625,-0.240234375,-0.658203125,-0.44140625,0.0,180.0,360.0
3859019,,,,,,,,-2.22265625,8.3984375,0.7265625,-0.240234375,-0.658203125,-0.44140625,0.0,180.0,360.0
3859020,36.012668500000004,129.319566,87.08418998331125,29.792985703467934,2.9000000000000004,46.0,,-2.22265625,8.3984375,0.7265625,-2.294921875,-1.162109375,-1.345703125,0.0,180.0,360.0
3859021,,,,,,,,2.30078125,-6.9921875,-1.20703125,-2.294921875,-1.162109375,-1.345703125,0.0,180.0,360.0
3859022,,,,,,,,2.30078125,-6.9921875,-1.20703125,2.3046875,-1.955078125,0.16015625,0.0,180.0,360.0
3859023,,,,,,,,3.5234375,-23.47265625,14.234375,2.3046875,-1.955078125,0.16015625,0.0,180.0,360.0
3859024,,,,,,,,3.5234375,-23.47265625,14.234375,2.109375,-1.349609375,0.142578125,0.0,180.0,360.0
3859025,,,,,,,,3.5234375,-23.47265625,14.234375,-0.48046875,-2.50390625,1.294921875,0.0,180.0,360.0
3859026,,,,,,,,-3.9609375,-9.93359375,2.13671875,-0.48046875,-2.50390625,1.294921875,0.0,180.0,360.0
3859027,,,,,,,,-3.9609375,-9.93359375,2.13671875,-0.359375,-2.1171875,1.462890625,0.0,180.0,360.0
3859028,,,,,,,,4.1328125,-9.88671875,1.2265625,-0.359375,-2.1171875,1.462890625,0.0,180.0,360.0
3859029,,,,,,,,4.1328125,-9.88671875,1.2265625,-0.48046875,-2.0078125,1.29296875,0.0,180.0,360.0
3859030,36.0126705,129.31956916666667,87.36966044708778,30.01490700873178,3.1,47.0,,5.015625,-7.92578125,0.9375,-0.48046875,-2.0078125,1.29296875,0.0,180.0,360.0
3859031,,,,,,,,5.015625,-7.92578125,0.9375,-0.48046875,-2.0078125,1.29296875,0.0,180.0,360.0
3859032,,,,,,,,5.015625,-7.92578125,0.9375,0.12890625,-1.951171875,0.927734375,0.0,180.0,360.0
3859033,,,,,,,,2.1015625,-1.60546875,-1.09375,0.12890625,-1.951171875,0.927734375,0.0,180.0,360.0
3859034,,,,,,,,2.1015625,-1.60546875,-1.09375,0.548828125,-0.94140625,0.82421875,0.0,180.0,360.0
3859035,,,,,,,,0.9765625,3.25390625,-0.8671875,0.548828125,-0.94140625,0.82421875,0.0,180.0,360.0
3859036,,,,,,,,0.9765625,3.25390625,-0.8671875,1.01953125,-0.90625,0.734375,0.0,180.0,360.0
3859037,,,,,,,,1.30859375,12.38671875,-3.3359375,1.01953125,-0.90625,0.734375,0.0,180.0,360.0
3859038,,,,,,,,1.30859375,12.38671875,-3.3359375,0.599609375,-1.30078125,0.57421875,0.0,180.0,360.0
3859039,,,,,,,,3.05078125,13.88671875,-4.6953125,0.599609375,-1.30078125,0.57421875,0.0,180.0,360.0
3859040,36.01267216666667,129.31957183333333,87.61005663565496,30.199841462014888,3.0,49.0,,3.05078125,13.88671875,-4.6953125,0.271484375,-1.744140625,0.509765625,0.0,180.0,360.0
3859041,,,,,,,,3.05078125,13.88671875,-4.6953125,-0.11328125,-0.14453125,0.478515625,0.0,180.0,360.0
3859042,,,,,,,,7.32421875,10.30859375,-7.09375,-0.11328125,-0.14453125,0.478515625,0.0,180.0,360.0
3859043,,,,,,,,7.32421875,10.30859375,-7.09375,-0.5703125,1.21484375,0.30078125,0.0,180.0,360.0
3859044,,,,,,,,1.88671875,6.03515625,-1.37890625,-0.5703125,1.21484375,0.30078125,0.0,180.0,360.0
3859045,,,,,,,,1.88671875,6.03515625,-1.37890625,-0.267578125,1.333984375,0.181640625,0.0,180.0,360.0
3859046,,,,,,,,1.5234375,6.80859375,1.09765625,-0.267578125,1.333984375,0.181640625,0.0,180.0,360.0
3859047,,,,,,,,1.5234375,6.80859375,1.09765625,0.41015625,1.712890625,-0.091796875,0.0,180.0,360.0
3859048,,,,,,,,1.578125,9.6875,2.73046875,0.41015625,1.712890625,-0.091796875,0.0,180.0,360.0
3859049,,,,,,,,1.578125,9.6875,2.73046875,0.318359375,1.6484375,-0.197265625,0.0,180.0,360.0
3859050,36.012676166666665,129.3195773333333,88.10587311744663,30.6436833627602,3.3000000000000003,48.0,,-1.171875,7.51953125,1.55859375,0.318359375,1.6484375,-0.197265625,0.0,180.0,360.0
3859051,,,,,,,,-1.171875,7.51953125,1.55859375,-1.0703125,0.0078125,0.404296875,0.0,180.0,360.0
3859052,,,,,,,,-1.171875,7.51953125,1.55859375,-0.490234375,-2.0,-0.220703125,0.0,180.0,360.0
3859053,,,,,,,,-7.71484375,-34.84765625,13.51953125,-0.490234375,-2.0,-0.220703125,0.0,180.0,360.0
3859054,,,,,,,,-7.71484375,-34.84765625,13.51953125,1.419921875,1.34765625,-0.376953125,0.0,180.0,360.0
3859055,,,,,,,,-0.0234375,-9.6796875,4.546875,1.419921875,1.34765625,-0.376953125,0.0,180.0,360.0
3859056,,,,,,,,-0.0234375,-9.6796875,4.546875,-0.6796875,1.74609375,-0.154296875,0.0,180.0,360.0
3859057,,,,,,,,5.53125,-13.44921875,1.14453125,-0.6796875,1.74609375,-0.154296875,0.0,180.0,360.0
3859058,,,,,,,,5.53125,-13.44921875,1.14453125,-0.5,1.92578125,-0.662109375,0.0,180.0,360.0
3859059,,,,,,,,5.27734375,-9.89453125,1.60546875,-0.5,1.92578125,-0.662109375,0.0,180.0,360.0
3859060,36.01267816666667,129.31957966666667,88.31621915399256,30.86560394711392,3.2,46.0,,5.27734375,-9.89453125,1.60546875,-0.171875,2.0234375,-1.19921875,0.0,180.0,360.0
3859061,,,,,,,,1.3984375,-7.44921875,0.16015625,-0.171875,2.0234375,-1.19921875,0.0,180.0,360.0
3859062,,,,,,,,1.3984375,-7.44921875,0.16015625,-0.115234375,2.181640625,-1.5625,0.0,180.0,360.0
3859063,,,,,,,,1.3984375,-7.44921875,0.16015625,-0.236328125,2.01953125,-1.54296875,0.0,180.0,360.0
3859064,,,,,,,,-0.37890625,-2.578125,-0.7421875,-0.236328125,2.01953125,-1.54296875,0.0,180.0,360.0
3859065,,,,,,,,-0.37890625,-2.578125,-0.7421875,-0.4765625,1.65234375,-1.12890625,0.0,180.0,360.0
3859066,,,,,,,,-3.890625,5.921875,-1.26953125,-0.4765625,1.65234375,-1.12890625,0.0,180.0,360.0
3859067,,,,,,,,-3.890625,5.921875,-1.26953125,-0.4296875,1.16796875,-0.65625,0.0,180.0,360.0
3859068,,,,,,,,-5.59375,9.32421875,-1.3046875,-0.4296875,1.16796875,-0.65625,0.0,180.0,360.0
3859069,,,,,,,,-5.59375,9.32421875,-1.3046875,-0.3671875,0.40234375,-0.357421875,0.0,180.0,360.0
3859070,36.01267983333333,129.31958216666666,88.54159042426191,31.050538273943157,3.1,48.0,,-3.94140625,14.625,-2.46875,-0.3671875,0.40234375,-0.357421875,0.0,180.0,360.0
3859071,,,,,,,,-3.94140625,14.625,-2.46875,-0.28125,0.021484375,-0.29296875,0.0,180.0,360.0
3859072,,,,,,,,-3.94140625,14.625,-2.46875,-0.32421875,-0.3515625,-0.080078125,0.0,180.0,360.0
3859073,,,,,,,,-4.29296875,9.046875,-1.7578125,-0.32421875,-0.3515625,-0.080078125,0.0,180.0,360.0
3859074,,,,,,,,-4.29296875,9.046875,-1.7578125,-0.32421875,-0.3515625,-0.080078125,0.0,180.0,360.0
3859075,,,,,,,,-4.29296875,9.046875,-1.7578125,0.22265625,-0.357421875,-0.21484375,0.0,180.0,360.0
3859076,,,,,,,,-1.5078125,6.6015625,-0.79296875,0.22265625,-0.357421875,-0.21484375,0.0,180.0,360.0
3859077,,,,,,,,-1.5078125,6.6015625,-0.79296875,0.388671875,-0.146484375,-0.31640625,0.0,180.0,360.0
3859078,,,,,,,,-1.5078125,6.6015625,-0.79296875,0.734375,-0.287109375,-0.318359375,0.0,180.0,360.0
3859079,,,,,,,,-1.59375,9.0859375,1.24609375,0.734375,-0.287109375,-0.318359375,0.0,180.0,360.0
3859080,36.01268183333333,129.3195845,88.75193643729874,31.27245886920807,3.1,47.0,,-1.59375,9.0859375,1.24609375,0.904296875,-0.490234375,-0.27734375,0.0,180.0,360.0
3859081,,,,,,,,-2.3125,10.21875,0.20703125,0.904296875,-0.490234375,-0.27734375,0.0,180.0,360.0
3859082,,,,,,,,-2.3125,10.21875,0.20703125,0.298828125,-0.775390625,-0.220703125,0.0,180.0,360.0
3859083,,,,,,,,-1.19921875,5.3984375,-1.45703125,0.298828125,-0.775390625,-0.220703125,0.0,180.0,360.0
3859084,,,,,,,,-1.19921875,5.3984375,-1.45703125,-2.193359375,-1.01171875,-1.09375,0.0,180.0,360.0
3859085,,,,,,,,9.6015625,-20.92578125,-2.046875,-2.193359375,-1.01171875,-1.09375,0.0,180.0,360.0
3859086,,,,,,,,9.6015625,-20.92578125,-2.046875,1.78515625,-2.328125,0.4296875,0.0,180.0,360.0
3859087,,,,,,,,9.6015625,-20.92578125,-2.046875,3.484375,-1.12890625,-0.009765625,0.0,180.0,360.0
3859088,,,,,,,,4.12109375,-13.54296875,3.18359375,3.484375,-1.12890625,-0.009765625,0.0,180.0,360.0
3859089,,,,,,,,4.12109375,-13.54296875,3.18359375,3.484375,-1.12890625,-0.009765625,0.0,180.0,360.0
3859090,36.0126835,129.31958766666668,89.03740718776282,31.457393817039943,3.1,49.0,,4.12109375,-13.54296875,3.18359375,0.375,-2.484375,1.18359375,0.0,180.0,360.0
3859091,,,,,,,,-3.046875,-8.3671875,1.24609375,0.375,-2.484375,1.18359375,0.0,180.0,360.0
3859092,,,,,,,,-3.046875,-8.3671875,1.24609375,0.03125,-2.525390625,1.38671875,0.0,180.0,360.0
3859093,,,,,,,,-3.046875,-8.3671875,1.24609375,-0.0859375,-2.47265625,1.4765625,0.0,180.0,360.0
3859094,,,,,,,,1.66015625,-7.73046875,2.79296875,-0.0859375,-2.47265625,1.4765625,0.0,180.0,360.0
3859095,,,,,,,,1.66015625,-7.73046875,2.79296875,-0.1796875,-2.283203125,1.26171875,0.0,180.0,360.0
3859096,,,,,,,,1.66015625,-7.73046875,2.79296875,-0.1796875,-2.283203125,1.26171875,0.0,180.0,360.0
3859097,,,,,,,,1.66015625,-7.73046875,2.79296875,0.017578125,-1.87890625,1.099609375,0.0,180.0,360.0
3859098,,,,,,,,1.7578125,1.6328125,-1.43359375,0.017578125,-1.87890625,1.099609375,0.0,180.0,360.0
3859099,,,,,,,,1.7578125,1.6328125,-1.43359375,0.375,-1.6171875,0.826171875,0.0,180.0,360.0
3859100,36.01268683333333,129.31959283333333,89.50317453326004,31.827262670482273,3.0,52.0,123.0,1.7578125,1.6328125,-1.43359375,0.375,-1.6171875,0.826171875,0.0,180.0,360.0
3859101,,,,,,,,1.7578125,1.6328125,-1.43359375,0.375,-1.6171875,0.826171875,0.0,180.0,360.0
3859102,,,,,,,,1.7578125,1.6328125,-1.43359375,0.388671875,-1.39453125,0.552734375,0.0,180.0,360.0
3859103,,,,,,,,3.3125,10.8203125,-4.86328125,0.388671875,-1.39453125,0.552734375,0.0,180.0,360.0
3859104,,,,,,,,-2.87890625,-18.703125,10.44921875,0.388671875,-1.39453125,0.552734375,0.0,180.0,360.0
3859105,,,,,,,,-2.87890625,-18.703125,10.44921875,0.009765625,1.845703125,-0.361328125,0.0,180.0,360.0
3859106,,,,,,,,-2.87890625,-18.703125,10.44921875,-0.701171875,1.8125,-0.736328125,0.0,180.0,360.0
3859107,,,,,,,,9.41796875,-11.79296875,0.58984375,-0.701171875,1.8125,-0.736328125,0.0,180.0,360.0
3859108,,,,,,,,9.41796875,-11.79296875,0.58984375,-0.16796875,2.822265625,-1.6953125,0.0,180.0,360.0
3859109,,,,,,,,9.6484375,-12.17578125,1.546875,-0.16796875,2.822265625,-1.6953125,0.0,180.0,360.0
3859110,36.012691000000004,129.319598,89.96894089418619,32.28959757742507,3.2,46.0,,9.6484375,-12.17578125,1.546875,-0.134765625,2.77734375,-2.154296875,0.0,180.0,360.0
3859111,,,,,,,,1.359375,-6.86328125,-0.18359375,-0.134765625,2.77734375,-2.154296875,0.0,180.0,360.0
3859112,,,,,,,,1.359375,-6.86328125,-0.18359375,-0.39453125,2.701171875,-1.94140625,0.0,180.0,360.0
3859113,,,,,,,,1.359375,-6.86328125,-0.18359375,-0.39453125,2.701171875,-1.94140625,0.0,180.0,360.0
3859114,,,,,,,,1.359375,-6.86328125,-0.18359375,-0.314453125,2.33203125,-1.494140625,0.0,180.0,360.0
3859115,,,,,,,,-5.98046875,5.76953125,-0.75,-0.314453125,2.33203125,-1.494140625,0.0,180.0,360.0
3859116,,,,,,,,-5.98046875,5.76953125,-0.75,0.025390625,2.02734375,-1.025390625,0.0,180.0,360.0
3859117,,,,,,,,-5.98046875,5.76953125,-0.75,-0.185546875,1.1796875,-0.693359375,0.0,180.0,360.0
3859118,,,,,,,,-6.640625,11.36328125,-2.94140625,-0.185546875,1.1796875,-0.693359375,0.0,180.0,360.0
3859119,,,,,,,,-6.640625,11.36328125,-2.94140625,-0.59375,0.361328125,-0.404296875,0.0,180.0,360.0
3859120,36.0126925,129.31960066666667,90.20933715585622,32.45603889699101,3.1,48.0,,-5.4296875,12.78125,-4.05859375,-0.59375,0.361328125,-0.404296875,0.0,180.0,360.0
3859121,,,,,,,,-5.4296875,12.78125,-4.05859375,-0.576171875,-0.052734375,-0.16015625,0.0,180.0,360.0
3859122,,,,,,,,-3.96875,7.1328125,-3.3203125,-0.576171875,-0.052734375,-0.16015625,0.0,180.0,360.0
3859123,,,,,,,,-3.96875,7.1328125,-3.3203125,-0.134765625,0.16015625,-0.1875,0.0,180.0,360.0
3859124,,,,,,,,-3.96875,7.1328125,-3.3203125,0.37109375,0.28515625,-0.341796875,0.0,180.0,360.0
3859125,,,,,,,,-1.05859375,7.65625,-0.66796875,0.37109375,0.28515625,-0.341796875,0.0,180.0,360.0
3859126,,,,,,,,-1.05859375,7.65625,-0.66796875,0.7421875,0.24609375,-0.427734375,0.0,180.0,360.0
3859127,,,,,,,,-0.7578125,9.1328125,-1.015625,0.7421875,0.24609375,-0.427734375,0.0,180.0,360.0
3859128,,,,,,,,-0.7578125,9.1328125,-1.015625,0.759765625,0.23828125,-0.3984375,0.0,180.0,360.0
3859129,,,,,,,,-1.05859375,10.75390625,-2.34375,0.759765625,0.23828125,-0.3984375,0.0,180.0,360.0
3859130,36.012694499999995,129.31960316666667,90.43470796549717,32.67795968574386,3.2,48.0,,-1.05859375,10.75390625,-2.34375,0.759765625,0.23828125,-0.3984375,0.0,180.0,360.0
3859131,,,,,,,,-1.05859375,10.75390625,-2.34375,-0.1484375,-0.177734375,-0.21875,0.0,180.0,360.0
3859132,,,,,,,,-4.1171875,6.40234375,0.50390625,-0.1484375,-0.177734375,-0.21875,0.0,180.0,360.0
3859133,,,,,,,,-4.1171875,6.40234375,0.50390625,-1.525390625,-0.158203125,-0.494140625,0.0,180.0,360.0
3859134,,,,,,,,1.09765625,-14.65234375,2.58203125,-1.525390625,-0.158203125,-0.494140625,0.0,180.0,360.0
3859135,,,,,,,,1.09765625,-14.65234375,2.58203125,3.564453125,0.01171875,0.259765625,0.0,180.0,360.0
3859136,,,,,,,,11.78515625,-39.97265625,19.875,3.564453125,0.01171875,0.259765625,0.0,180.0,360.0
3859137,,,,,,,,11.78515625,-39.97265625,19.875,0.490234375,-2.271484375,0.3515625,0.0,180.0,360.0
3859138,,,,,,,,-9.27734375,-8.5625,1.75390625,0.490234375,-2.271484375,0.3515625,0.0,180.0,360.0
3859139,,,,,,,,-9.27734375,-8.5625,1.75390625,0.7734375,-2.267578125,1.306640625,0.0,180.0,360.0
3859140,36.0126965,129.31960633333335,90.72017825540141,32.89988110164201,3.3000000000000003,49.0,,-2.3671875,-14.35546875,4.54296875,0.7734375,-2.267578125,1.306640625,0.0,180.0,360.0
3859141,,,,,,,,-2.3671875,-14.35546875,4.54296875,0.021484375,-2.259765625,1.78515625,0.0,180.0,360.0
3859142,,,,,,,,1.14453125,-6.7109375,0.7109375,0.021484375,-2.259765625,1.78515625,0.0,180.0,360.0
3859143,,,,,,,,1.14453125,-6.7109375,0.7109375,-0.474609375,-2.27734375,1.958984375,0.0,180.0,360.0
3859144,,,,,,,,1.14453125,-6.7109375,0.7109375,0.04296875,-1.728515625,1.669921875,0.0,180.0,360.0
3859145,,,,,,,,3.296875,-4.9921875,0.64453125,0.04296875,-1.728515625,1.669921875,0.0,180.0,360.0
3859146,,,,,,,,3.296875,-4.9921875,0.64453125,0.009765625,-1.501953125,1.31640625,0.0,180.0,360.0
3859147,,,,,,,,2.45703125,-0.5078125,-1.6484375,0.009765625,-1.501953125,1.31640625,0.0,180.0,360.0
3859148,,,,,,,,2.45703125,-0.5078125,-1.6484375,0.255859375,-1.236328125,0.875,0.0,180.0,360.0
3859149,,,,,,,,2.7109375,3.53125,-2.48828125,0.255859375,-1.236328125,0.875,0.0,180.0,360.0
3859150,36.01269833333333,129.319609,90.96057410332409,33.10330885354384,3.1,49.0,,2.7109375,3.53125,-2.48828125,0.255859375,-1.236328125,0.875,0.0,180.0,360.0
3859151,,,,,,,,2.7109375,3.53125,-2.48828125,0.587890625,-1.41796875,0.650390625,0.0,180.0,360.0
3859152,,,,,,,,2.0546875,11.7578125,-5.12109375,0.587890625,-1.41796875,0.650390625,0.0,180.0,360.0
3859153,,,,,,,,2.0546875,11.7578125,-5.12109375,0.26171875,-1.125,0.568359375,0.0,180.0,360.0
3859154,,,,,,,,2.17578125,11.671875,-6.46875,0.26171875,-1.125,0.568359375,0.0,180.0,360.0
3859155,,,,,,,,2.17578125,11.671875,-6.46875,-0.111328125,0.576171875,0.34375,0.0,180.0,360.0
3859156,,,,,,,,3.6796875,8.9140625,-7.13671875,-0.111328125,0.576171875,0.34375,0.0,180.0,360.0
3859157,,,,,,,,3.6796875,8.9140625,-7.13671875,0.078125,1.21875,0.49609375,0.0,180.0,360.0
3859158,,,,,,,,3.19140625,6.6171875,-5.75,0.078125,1.21875,0.49609375,0.0,180.0,360.0
3859159,,,,,,,,3.19140625,6.6171875,-5.75,0.7109375,-0.05859375,0.67578125,0.0,180.0,360.0
3859160,36.01270016666667,129.31961183333334,91.2159948114991,33.30673676811983,3.2,50.0,,-2.4296875,8.890625,-0.39453125,0.7109375,-0.05859375,0.67578125,0.0,180.0,360.0
3859161,,,,,,,,-2.4296875,8.890625,-0.39453125,0.890625,-0.708984375,0.51953125,0.0,180.0,360.0
3859162,,,,,,,,1.6171875,12.98046875,-0.515625,0.890625,-0.708984375,0.51953125,0.0,180.0,360.0
3859163,,,,,,,,1.6171875,12.98046875,-0.515625,-0.515625,0.53125,0.322265625,0.0,180.0,360.0
3859164,,,,,,,,1.6171875,12.98046875,-0.515625,-1.150390625,-0.40625,0.423828125,0.0,180.0,360.0
3859165,,,,,,,,-1.703125,-4.51171875,6.015625,-1.150390625,-0.40625,0.423828125,0.0,180.0,360.0
3859166,,,,,,,,-1.703125,-4.51171875,6.015625,0.396484375,-1.65625,-0.138671875,0.0,180.0,360.0
3859167,,,,,,,,-5.78125,-33.5234375,20.58203125,0.396484375,-1.65625,-0.138671875,0.0,180.0,360.0
3859168,,,,,,,,-5.78125,-33.5234375,20.58203125,1.18359375,1.70703125,-0.35546875,0.0,180.0,360.0
3859169,,,,,,,,-0.4140625,-16.66796875,4.97265625,1.18359375,1.70703125,-0.35546875,0.0,180.0,360.0
3859170,36.01270233333333,129.31961483333333,91.48643999328394,33.54715125765392,3.5,49.0,,-0.4140625,-16.66796875,4.97265625,-1.283203125,2.791015625,-0.49609375,0.0,180.0,360.0
3859171,,,,,,,,8.484375,-13.890625,3.46875,-1.283203125,2.791015625,-0.49609375,0.0,180.0,360.0
3859172,,,,,,,,8.484375,-13.890625,3.46875,-0.0859375,2.7109375,-1.54296875,0.0,180.0,360.0
3859173,,,,,,,,8.484375,-13.890625,3.46875,-0.0859375,2.7109375,-1.54296875,0.0,180.0,360.0
3859174,,,,,,,,8.484375,-13.890625,3.46875,-0.552734375,2.671875,-1.939453125,0.0,180.0,360.0
3859175,,,,,,,,-0.33203125,-6.9296875,0.453125,-0.552734375,2.671875,-1.939453125,0.0,180.0,360.0
3859176,,,,,,,,-0.33203125,-6.9296875,0.453125,-0.521484375,2.42578125,-1.869140625,0.0,180.0,360.0
3859177,,,,,,,,-0.33203125,-6.9296875,0.453125,-0.212890625,2.4140625,-1.5390625,0.0,180.0,360.0
3859178,,,,,,,,-1.75,-5.3046875,1.21484375,-0.212890625,2.4140625,-1.5390625,0.0,180.0,360.0
3859179,,,,,,,,-1.75,-5.3046875,1.21484375,-0.212890625,2.4140625,-1.5390625,0.0,180.0,360.0
3859180,36.012705833333335,129.31961983333335,91.93718206310932,33.93551329126144,3.0,49.0,,-1.75,-5.3046875,1.21484375,-0.29296875,2.140625,-1.0,0.0,180.0,360.0
3859181,,,,,,,,-5.0234375,7.19921875,-3.85546875,-0.29296875,2.140625,-1.0,0.0,180.0,360.0
3859182,,,,,,,,-5.0234375,7.19921875,-3.85546875,-0.37109375,1.681640625,-0.658203125,0.0,180.0,360.0
3859183,,,,,,,,-4.86328125,10.2265625,-3.87109375,-0.37109375,1.681640625,-0.658203125,0.0,180.0,360.0
3859184,,,,,,,,-4.86328125,10.2265625,-3.87109375,-0.515625,0.55078125,-0.5625,0.0,180.0,360.0
3859185,,,,,,,,-3.5859375,11.7578125,-4.53515625,-0.515625,0.55078125,-0.5625,0.0,180.0,360.0
3859186,,,,,,,,-3.5859375,11.7578125,-4.53515625,-0.994140625,-0.06640625,-0.4296875,0.0,180.0,360.0
3859187,,,,,,,,-3.10546875,7.875,-3.8125,-0.994140625,-0.06640625,-0.4296875,0.0,180.0,360.0
3859188,,,,,,,,-3.10546875,7.875,-3.8125,-0.671875,-0.55078125,-0.337890625,0.0,180.0,360.0
3859189,,,,,,,,-3.10546875,7.875,-3.8125,0.470703125,0.32421875,-0.578125,0.0,180.0,360.0
3859190,36.01270783333334,129.3196225,92.17757766081121,34.15743428330144,3.2,50.0,,-0.5,5.28515625,-2.69140625,0.470703125,0.32421875,-0.578125,0.0,180.0,360.0
3859191,,,,,,,,-0.5,5.28515625,-2.69140625,1.25,1.001953125,-0.810546875,0.0,180.0,360.0
3859192,,,,,,,,-1.421875,11.6796875,-0.2578125,1.25,1.001953125,-0.810546875,0.0,180.0,360.0
3859193,,,,,,,,-1.421875,11.6796875,-0.2578125,0.884765625,0.353515625,-0.658203125,0.0,180.0,360.0
3859194,,,,,,,,-2.703125,12.64453125,-2.66015625,0.884765625,0.353515625,-0.658203125,0.0,180.0,360.0
3859195,,,,,,,,-2.703125,12.64453125,-2.66015625,0.1171875,-0.193359375,-0.46484375,0.0,180.0,360.0
3859196,,,,,,,,-2.8515625,11.41796875,-3.55859375,0.1171875,-0.193359375,-0.46484375,0.0,180.0,360.0
3859197,,,,,,,,-2.8515625,11.41796875,-3.55859375,-0.470703125,-0.818359375,-0.28515625,0.0,180.0,360.0
3859198,,,,,,,,-5.91796875,-0.10546875,3.00390625,-0.470703125,-0.818359375,-0.28515625,0.0,180.0,360.0
3859199,,,,,,,,-5.91796875,-0.10546875,3.00390625,-1.23828125,-1.53515625,-0.294921875,0.0,180.0,360.0
3859200,36.012711833333334,129.3196285,92.7184682947335,34.60127692016755,3.4000000000000004,49.0,123.0,-5.91796875,-0.10546875,3.00390625,-1.23828125,-1.53515625,-0.294921875,0.0,180.0,360.0
3859201,,,,,,,,-5.91796875,-0.10546875,3.00390625,-1.23828125,-1.53515625,-0.294921875,0.0,180.0,360.0
3859202,,,,,,,,-5.91796875,-0.10546875,3.00390625,-0.029296875,-0.09375,0.6484375,0.0,180.0,360.0
3859203,,,,,,,,16.87890625,-32.92578125,22.36328125,-0.029296875,-0.09375,0.6484375,0.0,180.0,360.0
3859204,,,,,,,,16.87890625,-32.92578125,22.36328125,-0.00390625,-1.029296875,0.646484375,0.0,180.0,360.0
3859205,,,,,,,,16.87890625,-32.92578125,22.36328125,-0.31640625,0.419921875,0.453125,0.0,180.0,360.0
3859206,,,,,,,,3.30078125,6.8515625,-5.91796875,-0.31640625,0.419921875,0.453125,0.0,180.0,360.0
3859207,,,,,,,,3.30078125,6.8515625,-5.91796875,-0.052734375,0.943359375,0.56640625,0.0,180.0,360.0
3859208,,,,,,,,2.74609375,5.765625,-4.66796875,-0.052734375,0.943359375,0.56640625,0.0,180.0,360.0
3859209,,,,,,,,2.74609375,5.765625,-4.66796875,-0.052734375,0.943359375,0.56640625,0.0,180.0,360.0
3859210,36.012715,129.319634,93.21428525345051,34.95265308226634,3.3000000000000003,52.0,,2.74609375,5.765625,-4.66796875,1.044921875,0.744140625,0.330078125,0.0,180.0,360.0
3859211,,,,,,,,-0.421875,12.8203125,0.44140625,1.044921875,0.744140625,0.330078125,0.0,180.0,360.0
3859212,,,,,,,,-0.421875,12.8203125,0.44140625,-0.3125,0.90625,0.2109375,0.0,180.0,360.0
3859213,,,,,,,,0.42578125,13.33984375,0.51953125,-0.3125,0.90625,0.2109375,0.0,180.0,360.0
3859214,,,,,,,,0.42578125,13.33984375,0.51953125,-1.29296875,0.30859375,0.458984375,0.0,180.0,360.0
3859215,,,,,,,,0.2265625,8.359375,0.04296875,-1.29296875,0.30859375,0.458984375,0.0,180.0,360.0
3859216,,,,,,,,0.2265625,8.359375,0.04296875,-0.533203125,-2.046875,-0.09765625,0.0,180.0,360.0
3859217,,,,,,,,-2.921875,-10.6171875,7.421875,-0.533203125,-2.046875,-0.09765625,0.0,180.0,360.0
3859218,,,,,,,,-2.921875,-10.6171875,7.421875,2.205078125,0.9140625,-0.21875,0.0,180.0,360.0
3859219,,,,,,,,-2.921875,-10.6171875,7.421875,2.205078125,0.9140625,-0.21875,0.0,180.0,360.0
3859220,36.01271733333333,129.31963666666667,93.45468039716306,35.21156051977912,3.3000000000000003,48.0,,-2.921875,-10.6171875,7.421875,-1.7734375,2.6796875,-0.1484375,0.0,180.0,360.0
3859221,,,,,,,,8.80078125,-16.63671875,5.23046875,-1.7734375,2.6796875,-0.1484375,0.0,180.0,360.0
3859222,,,,,,,,8.80078125,-16.63671875,5.23046875,0.42578125,3.11328125,-1.28125,0.0,180.0,360.0
3859223,,,,,,,,8.80078125,-16.63671875,5.23046875,0.42578125,3.11328125,-1.28125,0.0,180.0,360.0
3859224,,,,,,,,8.80078125,-16.63671875,5.23046875,-0.439453125,3.078125,-1.84765625,0.0,180.0,360.0
3859225,,,,,,,,-1.0234375,-4.96875,-0.4765625,-0.439453125,3.078125,-1.84765625,0.0,180.0,360.0
3859226,,,,,,,,-1.0234375,-4.96875,-0.4765625,-0.880859375,2.341796875,-1.833984375,0.0,180.0,360.0
3859227,,,,,,,,-1.0234375,-4.96875,-0.4765625,-0.23046875,2.8671875,-1.619140625,0.0,180.0,360.0
3859228,,,,,,,,-1.5546875,-2.85546875,0.1875,-0.23046875,2.8671875,-1.619140625,0.0,180.0,360.0
3859229,,,,,,,,-1.5546875,-2.85546875,0.1875,-0.23046875,2.8671875,-1.619140625,0.0,180.0,360.0
3859230,36.012719,129.31963933333333,93.69507631622604,35.39649514211674,3.2,49.0,,-1.5546875,-2.85546875,0.1875,-0.9921875,2.423828125,-1.0703125,0.0,180.0,360.0
3859231,,,,,,,,-6.15234375,8.1953125,-2.2421875,-0.9921875,2.423828125,-1.0703125,0.0,180.0,360.0
3859232,,,,,,,,-6.15234375,8.1953125,-2.2421875,-0.212890625,0.486328125,-0.60546875,0.0,180.0,360.0
3859233,,,,,,,,-6.16015625,12.234375,-1.06640625,-0.212890625,0.486328125,-0.60546875,0.0,180.0,360.0
3859234,,,,,,,,-6.16015625,12.234375,-1.06640625,-0.640625,-0.30078125,-0.427734375,0.0,180.0,360.0
3859235,,,,,,,,-5.453125,13.7734375,-2.7421875,-0.640625,-0.30078125,-0.427734375,0.0,180.0,360.0
3859236,,,,,,,,-5.453125,13.7734375,-2.7421875,-0.986328125,-0.69140625,-0.12109375,0.0,180.0,360.0
3859237,,,,,,,,-4.80859375,11.53515625,-4.38671875,-0.986328125,-0.69140625,-0.12109375,0.0,180.0,360.0
3859238,,,,,,,,-4.80859375,11.53515625,-4.38671875,-0.40625,-0.5390625,-0.0546875,0.0,180.0,360.0
3859239,,,,,,,,-4.80859375,11.53515625,-4.38671875,-0.40625,-0.5390625,-0.0546875,0.0,180.0,360.0
3859240,36.01272083333333,129.31964166666666,93.90542229209385,35.599922655243496,3.1,48.0,,-4.80859375,11.53515625,-4.38671875,0.587890625,-0.185546875,-0.3046875,0.0,180.0,360.0
3859241,,,,,,,,1.2734375,7.18359375,-1.12109375,0.587890625,-0.185546875,-0.3046875,0.0,180.0,360.0
3859242,,,,,,,,1.2734375,7.18359375,-1.12109375,0.8515625,0.3828125,-0.55078125,0.0,180.0,360.0
3859243,,,,,,,,1.2734375,7.18359375,-1.12109375,0.73046875,0.099609375,-0.474609375,0.0,180.0,360.0
3859244,,,,,,,,0.21875,10.015625,-1.33984375,0.73046875,0.099609375,-0.474609375,0.0,180.0,360.0
3859245,,,,,,,,0.21875,10.015625,-1.33984375,0.451171875,-0.498046875,-0.30859375,0.0,180.0,360.0
3859246,,,,,,,,-3.49609375,10.2890625,-0.875,0.451171875,-0.498046875,-0.30859375,0.0,180.0,360.0
3859247,,,,,,,,-3.49609375,10.2890625,-0.875,-1.150390625,-1.251953125,-0.48046875,0.0,180.0,360.0
3859248,,,,,,,,-3.3984375,4.0859375,-0.390625,-1.150390625,-1.251953125,-0.48046875,0.0,180.0,360.0
3859249,,,,,,,,-3.3984375,4.0859375,-0.390625,-0.1640625,-0.689453125,0.11328125,0.0,180.0,360.0
3859250,36.0127225,129.31964433333331,94.14581819098947,35.784857289428686,3.1,50.0,,12.0859375,-35.1796875,22.1328125,-0.1640625,-0.689453125,0.11328125,0.0,180.0,360.0
3859251,,,,,,,,12.0859375,-35.1796875,22.1328125,2.6796875,-0.705078125,-0.44140625,0.0,180.0,360.0
3859252,,,,,,,,12.0859375,-35.1796875,22.1328125,0.26953125,-3.158203125,0.7734375,0.0,180.0,360.0
3859253,,,,,,,,-9.19921875,-15.0546875,4.83984375,0.26953125,-3.158203125,0.7734375,0.0,180.0,360.0
3859254,,,,,,,,-9.19921875,-15.0546875,4.83984375,0.26953125,-3.158203125,0.7734375,0.0,180.0,360.0
3859255,,,,,,,,-9.19921875,-15.0546875,4.83984375,0.720703125,-2.4375,1.40625,0.0,180.0,360.0
3859256,,,,,,,,0.5390625,-8.10546875,1.28515625,0.720703125,-2.4375,1.40625,0.0,180.0,360.0
3859257,,,,,,,,0.5390625,-8.10546875,1.28515625,-0.005859375,-2.93359375,1.939453125,0.0,180.0,360.0
3859258,,,,,,,,0.5390625,-8.10546875,1.28515625,-0.025390625,-2.69921875,2.048828125,0.0,180.0,360.0
3859259,,,,,,,,1.84765625,-6.84765625,0.03125,-0.025390625,-2.69921875,2.048828125,0.0,180.0,360.0
3859260,36.0127245,129.31964699999997,94.38621368173034,36.00677834139571,3.1,49.0,,1.84765625,-6.84765625,0.03125,-0.009765625,-2.212890625,1.734375,0.0,180.0,360.0
3859261,,,,,,,,1.84765625,-6.84765625,0.03125,-0.009765625,-2.212890625,1.734375,0.0,180.0,360.0
3859262,,,,,,,,1.84765625,-6.84765625,0.03125,0.0234375,-1.66015625,1.369140625,0.0,180.0,360.0
3859263,,,,,,,,4.296875,3.359375,-2.625,0.0234375,-1.66015625,1.369140625,0.0,180.0,360.0
3859264,,,,,,,,4.296875,3.359375,-2.625,0.10546875,-1.244140625,0.89453125,0.0,180.0,360.0
3859265,,,,,,,,4.296875,3.359375,-2.625,0.119140625,-0.990234375,0.701171875,0.0,180.0,360.0
3859266,,,,,,,,2.953125,11.65625,-3.9296875,0.119140625,-0.990234375,0.701171875,0.0,180.0,360.0
3859267,,,,,,,,2.953125,11.65625,-3.9296875,-0.337890625,-0.451171875,0.548828125,0.0,180.0,360.0
3859268,,,,,,,,1.67578125,13.734375,-5.453125,-0.337890625,-0.451171875,0.548828125,0.0,180.0,360.0
3859269,,,,,,,,1.67578125,13.734375,-5.453125,-0.8828125,0.53515625,0.1796875,0.0,180.0,360.0
3859270,36.012725833333334,129.31964966666666,94.62660996013537,36.1547265764239,3.0,51.0,,3.765625,7.0546875,-5.12109375,-0.8828125,0.53515625,0.1796875,0.0,180.0,360.0
3859271,,,,,,,,3.765625,7.0546875,-5.12109375,0.017578125,1.046875,0.158203125,0.0,180.0,360.0
3859272,,,,,,,,3.765625,7.0546875,-5.12109375,1.234375,0.044921875,0.451171875,0.0,180.0,360.0
3859273,,,,,,,,-1.5546875,6.4765625,-1.3671875,1.234375,0.044921875,0.451171875,0.0,180.0,360.0
3859274,,,,,,,,-1.5546875,6.4765625,-1.3671875,1.494140625,-0.697265625,0.392578125,0.0,180.0,360.0
3859275,,,,,,,,-2.57421875,9.48046875,-0.9375,1.494140625,-0.697265625,0.392578125,0.0,180.0,360.0
3859276,,,,,,,,-2.57421875,9.48046875,-0.9375,0.140625,0.232421875,0.193359375,0.0,180.0,360.0
3859277,,,,,,,,-1.23828125,13.53125,-0.3125,0.140625,0.232421875,0.193359375,0.0,180.0,360.0
3859278,,,,,,,,-1.23828125,13.53125,-0.3125,-0.44140625,0.681640625,0.109375,0.0,180.0,360.0
3859279,,,,,,,,0.69140625,9.8828125,1.04296875,-0.44140625,0.681640625,0.109375,0.0,180.0,360.0
3859280,36.01272766666667,129.31965266666666,94.89705536028642,36.35815476155564,3.1,52.0,,0.69140625,9.8828125,1.04296875,-0.27734375,-0.63671875,0.431640625,0.0,180.0,360.0
3859281,,,,,,,,-5.11328125,-39.73828125,17.19140625,-0.27734375,-0.63671875,0.431640625,0.0,180.0,360.0
3859282,,,,,,,,-5.11328125,-39.73828125,17.19140625,0.029296875,-0.294921875,0.166015625,0.0,180.0,360.0
3859283,,,,,,,,-5.11328125,-39.73828125,17.19140625,1.091796875,1.484375,-0.142578125,0.0,180.0,360.0
3859284,,,,,,,,-2.09375,-20.65625,10.18359375,1.091796875,1.484375,-0.142578125,0.0,180.0,360.0
3859285,,,,,,,,-2.09375,-20.65625,10.18359375,-1.216796875,2.009765625,-0.556640625,0.0,180.0,360.0
3859286,,,,,,,,10.1796875,-15.1171875,2.1328125,-1.216796875,2.009765625,-0.556640625,0.0,180.0,360.0
3859287,,,,,,,,10.1796875,-15.1171875,2.1328125,0.490234375,2.93359375,-1.47265625,0.0,180.0,360.0
3859288,,,,,,,,8.37890625,-14.734375,4.01171875,0.490234375,2.93359375,-1.47265625,0.0,180.0,360.0
3859289,,,,,,,,8.37890625,-14.734375,4.01171875,-0.224609375,2.7265625,-1.80078125,0.0,180.0,360.0
3859290,36.01272966666667,129.31965499999998,95.10740108579968,36.580075509816524,3.1,48.0,,-1.10546875,-6.43359375,0.03125,-0.224609375,2.7265625,-1.80078125,0.0,180.0,360.0
3859291,,,,,,,,-1.10546875,-6.43359375,0.03125,-0.275390625,2.6640625,-1.8125,0.0,180.0,360.0
3859292,,,,,,,,-1.10546875,-6.43359375,0.03125,-0.3515625,2.39453125,-1.4296875,0.0,180.0,360.0
3859293,,,,,,,,-3.515625,-0.6640625,-0.94921875,-0.3515625,2.39453125,-1.4296875,0.0,180.0,360.0
3859294,,,,,,,,-3.515625,-0.6640625,-0.94921875,-0.236328125,2.15234375,-1.044921875,0.0,180.0,360.0
3859295,,,,,,,,-5.00390625,2.95703125,-1.5,-0.236328125,2.15234375,-1.044921875,0.0,180.0,360.0
3859296,,,,,,,,-5.00390625,2.95703125,-1.5,-0.013671875,1.95703125,-0.666015625,0.0,180.0,360.0
3859297,,,,,,,,-5.44140625,5.6953125,-2.46484375,-0.013671875,1.95703125,-0.666015625,0.0,180.0,360.0
3859298,,,,,,,,-5.44140625,5.6953125,-2.46484375,-0.013671875,1.95703125,-0.666015625,0.0,180.0,360.0
3859299,,,,,,,,-5.44140625,5.6953125,-2.46484375,-0.27734375,-0.23046875,-0.412109375,0.0,180.0,360.0
3859300,36.01273316666666,129.31966016666667,95.57316770478971,36.968437891481244,3.1,48.0,123.0,-5.44140625,5.6953125,-2.46484375,-0.27734375,-0.23046875,-0.412109375,0.0,180.0,360.0
3859301,,,,,,,,-5.44140625,5.6953125,-2.46484375,-0.27734375,-0.23046875,-0.412109375,0.0,180.0,360.0
3859302,,,,,,,,-4.16796875,15.15625,-4.85546875,-0.27734375,-0.23046875,-0.412109375,0.0,180.0,360.0
3859303,,,,,,,,-4.16796875,15.15625,-4.85546875,-0.95703125,-0.607421875,-0.015625,0.0,180.0,360.0
3859304,,,,,,,,-4.16796875,15.15625,-4.85546875,0.232421875,-2.4921875,1.166015625,0.0,180.0,360.0
3859305,,,,,,,,3.56640625,-13.375,3.6015625,0.232421875,-2.4921875,1.166015625,0.0,180.0,360.0
3859306,,,,,,,,3.56640625,-13.375,3.6015625,-0.486328125,-2.7890625,1.9609375,0.0,180.0,360.0
3859307,,,,,,,,3.56640625,-13.375,3.6015625,-0.486328125,-2.7890625,1.9609375,0.0,180.0,360.0
3859308,,,,,,,,3.56640625,-13.375,3.6015625,-0.31640625,-2.302734375,1.921875,0.0,180.0,360.0
3859309,,,,,,,,2.1640625,-7.5546875,0.265625,-0.31640625,-2.302734375,1.921875,0.0,180.0,360.0
3859310,36.012737,129.31966583333332,96.08400846832674,37.393787205532114,3.2,50.0,,2.1640625,-7.5546875,0.265625,0.111328125,-1.841796875,1.62109375,0.0,180.0,360.0
3859311,,,,,,,,2.1640625,-7.5546875,0.265625,0.10546875,-1.408203125,1.244140625,0.0,180.0,360.0
3859312,,,,,,,,3.1796875,1.1640625,-2.23828125,0.10546875,-1.408203125,1.244140625,0.0,180.0,360.0
3859313,,,,,,,,3.1796875,1.1640625,-2.23828125,0.28125,-0.8359375,0.865234375,0.0,180.0,360.0
3859314,,,,,,,,3.43359375,5.01953125,-2.74609375,0.28125,-0.8359375,0.865234375,0.0,180.0,360.0
3859315,,,,,,,,3.43359375,5.01953125,-2.74609375,0.173828125,-1.173828125,0.763671875,0.0,180.0,360.0
3859316,,,,,,,,2.5546875,8.83984375,-4.27734375,0.173828125,-1.173828125,0.763671875,0.0,180.0,360.0
3859317,,,,,,,,2.5546875,8.83984375,-4.27734375,0.01171875,-1.490234375,0.833984375,0.0,180.0,360.0
3859318,,,,,,,,2.5546875,8.83984375,-4.27734375,0.01171875,-1.490234375,0.833984375,0.0,180.0,360.0
3859319,,,,,,,,2.5546875,8.83984375,-4.27734375,-0.423828125,-0.9921875,0.767578125,0.0,180.0,360.0
3859320,36.0127385,129.31966849999998,96.32440447437772,37.560228693561065,3.1,52.0,,3.875,5.9453125,-6.28125,-0.423828125,-0.9921875,0.767578125,0.0,180.0,360.0
3859321,,,,,,,,3.875,5.9453125,-6.28125,-0.486328125,0.48046875,0.5078125,0.0,180.0,360.0
3859322,,,,,,,,3.875,5.9453125,-6.28125,0.0546875,0.3046875,0.5,0.0,180.0,360.0
3859323,,,,,,,,2.578125,4.17578125,-4.765625,0.0546875,0.3046875,0.5,0.0,180.0,360.0
3859324,,,,,,,,2.578125,4.17578125,-4.765625,1.373046875,0.33984375,0.05859375,0.0,180.0,360.0
3859325,,,,,,,,-0.36328125,7.69921875,-1.2109375,1.373046875,0.33984375,0.05859375,0.0,180.0,360.0
3859326,,,,,,,,-0.36328125,7.69921875,-1.2109375,2.150390625,1.505859375,-0.3671875,0.0,180.0,360.0
3859327,,,,,,,,3.71875,15.2578125,3.93359375,2.150390625,1.505859375,-0.3671875,0.0,180.0,360.0
3859328,,,,,,,,3.71875,15.2578125,3.93359375,-0.5,1.70703125,-0.06640625,0.0,180.0,360.0
3859329,,,,,,,,-1.953125,9.87109375,2.390625,-0.5,1.70703125,-0.06640625,0.0,180.0,360.0
3859330,36.012742333333335,129.31967433333332,96.85027003478979,37.98557821612924,3.4000000000000004,51.0,,-1.953125,9.87109375,2.390625,-0.5390625,-1.69140625,0.359375,0.0,180.0,360.0
3859331,,,,,,,,-1.953125,9.87109375,2.390625,0.212890625,-0.23828125,-0.248046875,0.0,180.0,360.0
3859332,,,,,,,,-5.34375,-41.08984375,10.5078125,0.212890625,-0.23828125,-0.248046875,0.0,180.0,360.0
3859333,,,,,,,,-5.34375,-41.08984375,10.5078125,0.96484375,2.65234375,-0.388671875,0.0,180.0,360.0
3859334,,,,,,,,5.54296875,-8.9921875,3.859375,0.96484375,2.65234375,-0.388671875,0.0,180.0,360.0
3859335,,,,,,,,5.54296875,-8.9921875,3.859375,-0.763671875,3.013671875,-0.947265625,0.0,180.0,360.0
3859336,,,,,,,,10.83203125,-7.16015625,-1.00390625,-0.763671875,3.013671875,-0.947265625,0.0,180.0,360.0
3859337,,,,,,,,10.83203125,-7.16015625,-1.00390625,0.318359375,2.771484375,-1.732421875,0.0,180.0,360.0
