time,latitude,longitude,enu_x,enu_y,speed,course,Hrage,accX,accY,accZ,gyrX,gyrY,gyrZ,eulR,eulP,eulY
3855500,36.013073166666665,129.32017033333335,141.56367220990396,74.69520018439324,2.2,52.0,123.0,-0.7421875,-2.86328125,-1.4609375,0.1875,-0.705078125,0.60546875,0.0,180.0,360.0
3855501,,,,,,,,-0.7421875,-2.86328125,-1.4609375,0.1875,-0.705078125,0.60546875,0.0,180.0,360.0
3855502,,,,,,,,9.4765625,5.171875,-2.41796875,0.81640625,4.099609375,-0.80078125,0.0,180.0,360.0
3855503,,,,,,,,9.4765625,5.171875,-2.41796875,-0.779296875,2.53125,-0.677734375,0.0,180.0,360.0
3855504,,,,,,,,9.4765625,5.171875,-2.41796875,-0.779296875,2.53125,-0.677734375,0.0,180.0,360.0
3855505,,,,,,,,9.4765625,5.171875,-2.41796875,-0.724609375,3.517578125,-0.77734375,0.0,180.0,360.0
3855506,,,,,,,,-0.3125,-8.9609375,-0.84375,-0.724609375,3.517578125,-0.77734375,0.0,180.0,360.0
3855507,,,,,,,,-0.3125,-8.9609375,-0.84375,-0.19921875,3.44140625,-0.646484375,0.0,180.0,360.0
3855508,,,,,,,,-0.3125,-8.9609375,-0.84375,-0.19921875,3.44140625,-0.646484375,0.0,180.0,360.0
3855509,,,,,,,,-0.3125,-8.9609375,-0.84375,-0.447265625,3.591796875,-0.5,0.0,180.0,360.0
3855510,36.013075666666666,129.32017366666665,141.8641637399465,74.97260313962538,2.1,49.0,,-2.13671875,-3.75390625,-0.859375,-0.447265625,3.591796875,-0.5,0.0,180.0,360.0
3855511,,,,,,,,-2.13671875,-3.75390625,-0.859375,-0.361328125,3.482421875,-0.515625,0.0,180.0,360.0
3855512,,,,,,,,-2.13671875,-3.75390625,-0.859375,-0.216796875,3.419921875,-0.552734375,0.0,180.0,360.0
3855513,,,,,,,,-2.69921875,0.31640625,-1.59375,-0.216796875,3.419921875,-0.552734375,0.0,180.0,360.0
3855514,,,,,,,,-2.69921875,0.31640625,-1.59375,-0.267578125,3.205078125,-0.53125,0.0,180.0,360.0
3855515,,,,,,,,-2.69921875,0.31640625,-1.59375,-0.267578125,3.205078125,-0.53125,0.0,180.0,360.0
3855516,,,,,,,,-2.69921875,0.31640625,-1.59375,-0.271484375,3.078125,-0.615234375,0.0,180.0,360.0
3855517,,,,,,,,-3.3671875,8.390625,-2.8203125,-0.271484375,3.078125,-0.615234375,0.0,180.0,360.0
3855518,,,,,,,,-3.3671875,8.390625,-2.8203125,-0.4140625,2.87890625,-0.677734375,0.0,180.0,360.0
3855519,,,,,,,,-3.3671875,8.390625,-2.8203125,-0.5625,2.6328125,-0.595703125,0.0,180.0,360.0
3855520,36.01307733333333,129.32017566666667,142.04445835578736,75.15753812405882,1.6,47.0,,-3.40625,10.3359375,-2.8046875,-0.5625,2.6328125,-0.595703125,0.0,180.0,360.0
3855521,,,,,,,,-3.40625,10.3359375,-2.8046875,-0.640625,2.501953125,-0.462890625,0.0,180.0,360.0
3855522,,,,,,,,-3.73828125,10.7109375,-2.046875,-0.640625,2.501953125,-0.462890625,0.0,180.0,360.0
3855523,,,,,,,,-3.73828125,10.7109375,-2.046875,-0.630859375,2.34765625,-0.37890625,0.0,180.0,360.0
3855524,,,,,,,,-3.73828125,10.7109375,-2.046875,-0.630859375,2.34765625,-0.37890625,0.0,180.0,360.0
3855525,,,,,,,,-3.73828125,10.7109375,-2.046875,-0.572265625,2.34765625,-0.4140625,0.0,180.0,360.0
3855526,,,,,,,,-1.65234375,3.5625,1.1796875,-0.572265625,2.34765625,-0.4140625,0.0,180.0,360.0
3855527,,,,,,,,-1.65234375,3.5625,1.1796875,-0.869140625,2.421875,-0.619140625,0.0,180.0,360.0
3855528,,,,,,,,-1.65234375,3.5625,1.1796875,-1.0546875,2.091796875,-0.744140625,0.0,180.0,360.0
3855529,,,,,,,,1.73046875,-10.25,1.703125,-1.0546875,2.091796875,-0.744140625,0.0,180.0,360.0
3855530,36.013078166666666,129.32017750000003,142.20972965876734,75.2500068341501,1.6,51.0,,1.73046875,-10.25,1.703125,-0.16796875,1.806640625,-0.609375,0.0,180.0,360.0
3855531,,,,,,,,0.640625,-18.00390625,4.2890625,-0.16796875,1.806640625,-0.609375,0.0,180.0,360.0
3855532,,,,,,,,0.640625,-18.00390625,4.2890625,0.701171875,2.412109375,-0.634765625,0.0,180.0,360.0
3855533,,,,,,,,-1.4375,-10.40625,1.3359375,0.701171875,2.412109375,-0.634765625,0.0,180.0,360.0
3855534,,,,,,,,-1.4375,-10.40625,1.3359375,0.796875,2.068359375,-0.376953125,0.0,180.0,360.0
3855535,,,,,,,,-1.4375,-10.40625,1.3359375,0.990234375,1.845703125,-0.408203125,0.0,180.0,360.0
3855536,,,,,,,,-1.21484375,-5.953125,1.07421875,0.990234375,1.845703125,-0.408203125,0.0,180.0,360.0
3855537,,,,,,,,-1.21484375,-5.953125,1.07421875,0.857421875,1.607421875,-0.412109375,0.0,180.0,360.0
3855538,,,,,,,,-1.0859375,-2.4921875,0.265625,0.857421875,1.607421875,-0.412109375,0.0,180.0,360.0
3855539,,,,,,,,-1.0859375,-2.4921875,0.265625,0.5859375,1.544921875,-0.412109375,0.0,180.0,360.0
3855540,36.0130785,129.32017916666666,142.35997705347285,75.28699568170529,1.5,58.0,,-1.38671875,0.96484375,-1.26953125,0.5859375,1.544921875,-0.412109375,0.0,180.0,360.0
3855541,,,,,,,,-1.38671875,0.96484375,-1.26953125,0.24609375,1.689453125,-0.4453125,0.0,180.0,360.0
3855542,,,,,,,,-0.89453125,4.6640625,-1.984375,0.24609375,1.689453125,-0.4453125,0.0,180.0,360.0
3855543,,,,,,,,-0.89453125,4.6640625,-1.984375,0.24609375,1.689453125,-0.4453125,0.0,180.0,360.0
3855544,,,,,,,,-0.89453125,4.6640625,-1.984375,0.123046875,2.0,-0.455078125,0.0,180.0,360.0
3855545,,,,,,,,0.296875,6.35546875,-1.48046875,0.123046875,2.0,-0.455078125,0.0,180.0,360.0
3855546,,,,,,,,0.296875,6.35546875,-1.48046875,0.357421875,2.2890625,-0.6171875,0.0,180.0,360.0
3855547,,,,,,,,0.296875,6.35546875,-1.48046875,0.298828125,2.51953125,-0.708984375,0.0,180.0,360.0
3855548,,,,,,,,-0.3359375,8.984375,-2.859375,0.298828125,2.51953125,-0.708984375,0.0,180.0,360.0
3855549,,,,,,,,-0.3359375,8.984375,-2.859375,0.009765625,2.611328125,-0.7421875,0.0,180.0,360.0
3855550,36.013079,129.3201801666667,142.45012495458192,75.34247676548777,1.4000000000000001,61.0,,-1.15625,10.66796875,-3.6328125,0.009765625,2.611328125,-0.7421875,0.0,180.0,360.0
3855551,,,,,,,,-1.15625,10.66796875,-3.6328125,0.009765625,2.611328125,-0.7421875,0.0,180.0,360.0
3855552,,,,,,,,-1.15625,10.66796875,-3.6328125,-0.19140625,2.8046875,-0.810546875,0.0,180.0,360.0
3855553,,,,,,,,-3.01171875,10.734375,-3.58984375,-0.19140625,2.8046875,-0.810546875,0.0,180.0,360.0
3855554,,,,,,,,-3.01171875,10.734375,-3.58984375,-0.689453125,2.8203125,-0.84375,0.0,180.0,360.0
3855555,,,,,,,,-4.1015625,5.80859375,-3.19140625,-0.689453125,2.8203125,-0.84375,0.0,180.0,360.0
3855556,,,,,,,,-4.1015625,5.80859375,-3.19140625,-0.900390625,2.421875,-0.7109375,0.0,180.0,360.0
3855557,,,,,,,,-6.375,-12.42578125,-2.0703125,-0.900390625,2.421875,-0.7109375,0.0,180.0,360.0
3855558,,,,,,,,-6.375,-12.42578125,-2.0703125,-0.939453125,2.041015625,-0.791015625,0.0,180.0,360.0
3855559,,,,,,,,-9.74609375,-26.4453125,7.78125,-0.939453125,2.041015625,-0.791015625,0.0,180.0,360.0
3855560,36.0130795,129.32018183333332,142.60037204622992,75.3979588251817,1.4000000000000001,63.0,,-9.74609375,-26.4453125,7.78125,0.517578125,1.75,-0.505859375,0.0,180.0,360.0
3855561,,,,,,,,-6.16015625,-30.859375,-0.015625,0.517578125,1.75,-0.505859375,0.0,180.0,360.0
3855562,,,,,,,,-6.16015625,-30.859375,-0.015625,1.630859375,2.8671875,-0.7890625,0.0,180.0,360.0
3855563,,,,,,,,-6.16015625,-30.859375,-0.015625,1.630859375,2.8671875,-0.7890625,0.0,180.0,360.0
3855564,,,,,,,,-6.16015625,-30.859375,-0.015625,-0.21875,2.259765625,-0.798828125,0.0,180.0,360.0
3855565,,,,,,,,-6.46875,-13.53125,-2.75390625,-0.21875,2.259765625,-0.798828125,0.0,180.0,360.0
3855566,,,,,,,,-6.46875,-13.53125,-2.75390625,-0.08984375,2.3125,-1.083984375,0.0,180.0,360.0
3855567,,,,,,,,-6.46875,-13.53125,-2.75390625,-0.08984375,2.3125,-1.083984375,0.0,180.0,360.0
3855568,,,,,,,,-6.46875,-13.53125,-2.75390625,-0.046875,2.154296875,-1.138671875,0.0,180.0,360.0
3855569,,,,,,,,-5.94921875,-10.046875,-2.5859375,-0.046875,2.154296875,-1.138671875,0.0,180.0,360.0
3855570,36.01307966666666,129.320183,142.70554534245798,75.41645373831815,1.1,67.0,,-5.94921875,-10.046875,-2.5859375,0.11328125,2.255859375,-1.275390625,0.0,180.0,360.0
3855571,,,,,,,,-5.94921875,-10.046875,-2.5859375,0.361328125,2.033203125,-1.291015625,0.0,180.0,360.0
3855572,,,,,,,,-6.140625,-4.96875,-1.9375,0.361328125,2.033203125,-1.291015625,0.0,180.0,360.0
3855573,,,,,,,,-6.140625,-4.96875,-1.9375,0.3203125,1.87890625,-1.16796875,0.0,180.0,360.0
3855574,,,,,,,,-6.12109375,-1.96484375,-2.859375,0.3203125,1.87890625,-1.16796875,0.0,180.0,360.0
3855575,,,,,,,,-6.12109375,-1.96484375,-2.859375,0.775390625,2.158203125,-1.140625,0.0,180.0,360.0
3855576,,,,,,,,-6.12109375,-1.96484375,-2.859375,0.775390625,2.158203125,-1.140625,0.0,180.0,360.0
3855577,,,,,,,,-6.12109375,-1.96484375,-2.859375,1.107421875,1.90625,-1.208984375,0.0,180.0,360.0
3855578,,,,,,,,-4.796875,5.61328125,-2.78515625,1.107421875,1.90625,-1.208984375,0.0,180.0,360.0
3855579,,,,,,,,-4.796875,5.61328125,-2.78515625,0.880859375,1.767578125,-1.37890625,0.0,180.0,360.0
3855580,36.013079166666664,129.32018333333332,142.7355958423434,75.36097460584266,0.8,79.0,,-4.796875,5.61328125,-2.78515625,0.755859375,1.724609375,-1.46484375,0.0,180.0,360.0
3855581,,,,,,,,-1.6875,8.66796875,-2.8984375,0.755859375,1.724609375,-1.46484375,0.0,180.0,360.0
3855582,,,,,,,,-1.6875,8.66796875,-2.8984375,0.861328125,1.625,-1.47265625,0.0,180.0,360.0
3855583,,,,,,,,-2.38671875,12.046875,-3.546875,0.861328125,1.625,-1.47265625,0.0,180.0,360.0
3855584,,,,,,,,-2.38671875,12.046875,-3.546875,0.43359375,1.8515625,-1.185546875,0.0,180.0,360.0
3855585,,,,,,,,-2.44140625,11.890625,-3.796875,0.43359375,1.8515625,-1.185546875,0.0,180.0,360.0
3855586,,,,,,,,-2.44140625,11.890625,-3.796875,-0.10546875,1.33984375,-0.896484375,0.0,180.0,360.0
3855587,,,,,,,,-2.44140625,11.890625,-3.796875,-0.10546875,1.33984375,-0.896484375,0.0,180.0,360.0
3855588,,,,,,,,-2.44140625,11.890625,-3.796875,-0.4921875,0.677734375,-0.779296875,0.0,180.0,360.0
3855589,,,,,,,,-0.92578125,-1.10546875,0.765625,-0.4921875,0.677734375,-0.779296875,0.0,180.0,360.0
3855590,36.013078666666665,129.32018233333335,142.64544795027493,75.30549352022945,0.2,65535.0,,-0.92578125,-1.10546875,0.765625,-0.537109375,0.861328125,-0.60546875,0.0,180.0,360.0
3855591,,,,,,,,-0.92578125,-1.10546875,0.765625,1.26171875,1.263671875,-0.671875,0.0,180.0,360.0
3855592,,,,,,,,4.359375,-8.328125,4.88671875,1.26171875,1.263671875,-0.671875,0.0,180.0,360.0
3855593,,,,,,,,4.359375,-8.328125,4.88671875,1.6640625,1.25390625,-0.80078125,0.0,180.0,360.0
3855594,,,,,,,,4.359375,-8.328125,4.88671875,1.6640625,1.25390625,-0.80078125,0.0,180.0,360.0
3855595,,,,,,,,4.359375,-8.328125,4.88671875,0.814453125,0.310546875,-0.203125,0.0,180.0,360.0
3855596,,,,,,,,-1.30859375,-5.25390625,3.7578125,0.814453125,0.310546875,-0.203125,0.0,180.0,360.0
3855597,,,,,,,,-1.30859375,-5.25390625,3.7578125,-0.115234375,-0.15625,0.388671875,0.0,180.0,360.0
3855598,,,,,,,,-1.30859375,-5.25390625,3.7578125,-0.1328125,-0.048828125,0.591796875,0.0,180.0,360.0
3855599,,,,,,,,4.21875,-13.88671875,4.3984375,-0.1328125,-0.048828125,0.591796875,0.0,180.0,360.0
3855600,36.01307716666667,129.320181,142.52525225157976,75.13905270521082,0.8,188.0,123.0,4.21875,-13.88671875,4.3984375,-0.04296875,-0.150390625,0.6796875,0.0,180.0,360.0
3855601,,,,,,,,4.21875,-13.88671875,4.3984375,-0.04296875,-0.150390625,0.6796875,0.0,180.0,360.0
3855602,,,,,,,,0.8046875,-9.7109375,1.19921875,-0.04296875,-0.150390625,0.6796875,0.0,180.0,360.0
3855603,,,,,,,,0.8046875,-9.7109375,1.19921875,-0.0078125,1.533203125,-0.021484375,0.0,180.0,360.0
3855604,,,,,,,,0.8046875,-9.7109375,1.19921875,-0.52734375,1.59765625,-0.115234375,0.0,180.0,360.0
3855605,,,,,,,,-1.1484375,10.25,-4.33203125,-0.52734375,1.59765625,-0.115234375,0.0,180.0,360.0
3855606,,,,,,,,-1.1484375,10.25,-4.33203125,-1.052734375,1.48046875,-0.271484375,0.0,180.0,360.0
3855607,,,,,,,,-0.81640625,7.87109375,-3.83984375,-1.052734375,1.48046875,-0.271484375,0.0,180.0,360.0
3855608,,,,,,,,-0.81640625,7.87109375,-3.83984375,-1.30859375,0.8984375,-0.421875,0.0,180.0,360.0
3855609,,,,,,,,-2.63671875,-12.23828125,11.09765625,-1.30859375,0.8984375,-0.421875,0.0,180.0,360.0
3855610,36.01307416666667,129.3201765,142.119588037871,74.80616840342113,1.9000000000000001,219.0,,-2.63671875,-12.23828125,11.09765625,-1.30859375,0.8984375,-0.421875,0.0,180.0,360.0
3855611,,,,,,,,-2.63671875,-12.23828125,11.09765625,1.0546875,1.224609375,-1.21875,0.0,180.0,360.0
3855612,,,,,,,,-3.8671875,-7.1953125,3.09375,1.0546875,1.224609375,-1.21875,0.0,180.0,360.0
3855613,,,,,,,,-3.8671875,-7.1953125,3.09375,-0.388671875,1.623046875,-1.009765625,0.0,180.0,360.0
3855614,,,,,,,,-3.8671875,-7.1953125,3.09375,-0.583984375,1.884765625,-1.19140625,0.0,180.0,360.0
3855615,,,,,,,,2.984375,-12.75,6.16796875,-0.583984375,1.884765625,-1.19140625,0.0,180.0,360.0
3855616,,,,,,,,2.984375,-12.75,6.16796875,-0.3359375,2.30859375,-1.962890625,0.0,180.0,360.0
3855617,,,,,,,,3.44140625,-14.3671875,4.6875,-0.3359375,2.30859375,-1.962890625,0.0,180.0,360.0
3855618,,,,,,,,3.44140625,-14.3671875,4.6875,-0.611328125,2.05078125,-2.34765625,0.0,180.0,360.0
3855619,,,,,,,,-0.3359375,-9.37109375,4.16796875,-0.611328125,2.05078125,-2.34765625,0.0,180.0,360.0
3855620,36.013072666666666,129.3201755,142.02944192782,74.6397280813192,1.9000000000000001,220.0,,-0.3359375,-9.37109375,4.16796875,-0.611328125,2.05078125,-2.34765625,0.0,180.0,360.0
3855621,,,,,,,,-0.3359375,-9.37109375,4.16796875,-0.68359375,1.828125,-1.9921875,0.0,180.0,360.0
3855622,,,,,,,,-4.42578125,-1.9140625,0.5,-0.68359375,1.828125,-1.9921875,0.0,180.0,360.0
3855623,,,,,,,,-4.42578125,-1.9140625,0.5,-0.544921875,1.2421875,-1.271484375,0.0,180.0,360.0
3855624,,,,,,,,-5.77734375,0.46875,-0.140625,-0.544921875,1.2421875,-1.271484375,0.0,180.0,360.0
3855625,,,,,,,,-5.77734375,0.46875,-0.140625,-0.423828125,1.146484375,-0.8984375,0.0,180.0,360.0
3855626,,,,,,,,-4.77734375,3.7578125,0.2578125,-0.423828125,1.146484375,-0.8984375,0.0,180.0,360.0
3855627,,,,,,,,-4.77734375,3.7578125,0.2578125,-0.146484375,0.59375,-0.724609375,0.0,180.0,360.0
3855628,,,,,,,,-4.10546875,7.1875,-1.671875,-0.146484375,0.59375,-0.724609375,0.0,180.0,360.0
3855629,,,,,,,,-4.10546875,7.1875,-1.671875,0.177734375,0.31640625,-0.7734375,0.0,180.0,360.0
3855630,36.01307133333333,129.32017333333334,141.83412190566142,74.4917792675147,2.2,225.0,,-3.5234375,9.96875,-3.48046875,0.177734375,0.31640625,-0.7734375,0.0,180.0,360.0
3855631,,,,,,,,-3.5234375,9.96875,-3.48046875,0.095703125,0.330078125,-0.86328125,0.0,180.0,360.0
3855632,,,,,,,,-4.26171875,10.4140625,-5.1796875,0.095703125,0.330078125,-0.86328125,0.0,180.0,360.0
3855633,,,,,,,,-4.26171875,10.4140625,-5.1796875,-0.275390625,-0.2421875,-0.806640625,0.0,180.0,360.0
3855634,,,,,,,,-4.26171875,10.4140625,-5.1796875,-0.275390625,-0.2421875,-0.806640625,0.0,180.0,360.0
3855635,,,,,,,,-4.26171875,10.4140625,-5.1796875,-0.25390625,-0.6640625,-0.70703125,0.0,180.0,360.0
3855636,,,,,,,,-1.88671875,9.71484375,-4.23046875,-0.25390625,-0.6640625,-0.70703125,0.0,180.0,360.0
3855637,,,,,,,,-1.88671875,9.71484375,-4.23046875,-0.197265625,-0.537109375,-0.470703125,0.0,180.0,360.0
3855638,,,,,,,,-1.88671875,9.71484375,-4.23046875,-0.123046875,-0.201171875,-0.255859375,0.0,180.0,360.0
3855639,,,,,,,,-1.87109375,9.0859375,-4.71875,-0.123046875,-0.201171875,-0.255859375,0.0,180.0,360.0
3855640,36.01306983333333,129.32017050000002,141.5787029712051,74.32533628302255,2.6,228.0,,-1.87109375,9.0859375,-4.71875,-0.123046875,-0.201171875,-0.255859375,0.0,180.0,360.0
3855641,,,,,,,,-1.87109375,9.0859375,-4.71875,-1.482421875,-0.501953125,0.25,0.0,180.0,360.0
3855642,,,,,,,,-2.625,-8.76171875,5.98046875,-1.482421875,-0.501953125,0.25,0.0,180.0,360.0
3855643,,,,,,,,-2.625,-8.76171875,5.98046875,0.82421875,-0.326171875,0.5078125,0.0,180.0,360.0
3855644,,,,,,,,10.33984375,-21.109375,16.28515625,0.82421875,-0.326171875,0.5078125,0.0,180.0,360.0
3855645,,,,,,,,10.33984375,-21.109375,16.28515625,0.580078125,-0.7578125,0.421875,0.0,180.0,360.0
3855646,,,,,,,,7.52734375,-10.24609375,6.34765625,0.580078125,-0.7578125,0.421875,0.0,180.0,360.0
3855647,,,,,,,,7.52734375,-10.24609375,6.34765625,-0.0859375,-2.015625,1.154296875,0.0,180.0,360.0
3855648,,,,,,,,2.34375,-13.91015625,5.765625,-0.0859375,-2.015625,1.154296875,0.0,180.0,360.0
3855649,,,,,,,,2.34375,-13.91015625,5.765625,-0.13671875,-2.14453125,1.6171875,0.0,180.0,360.0
3855650,36.013067166666666,129.32016716666666,141.27821170001533,74.02944013069687,2.5,229.0,,2.07421875,-12.0,5.98046875,-0.13671875,-2.14453125,1.6171875,0.0,180.0,360.0
3855651,,,,,,,,2.07421875,-12.0,5.98046875,-0.498046875,-2.181640625,1.95703125,0.0,180.0,360.0
3855652,,,,,,,,0.9375,-7.19921875,1.87109375,-0.498046875,-2.181640625,1.95703125,0.0,180.0,360.0
3855653,,,,,,,,0.9375,-7.19921875,1.87109375,-0.44921875,-1.962890625,2.091796875,0.0,180.0,360.0
3855654,,,,,,,,0.5078125,-4.37890625,0.6484375,-0.44921875,-1.962890625,2.091796875,0.0,180.0,360.0
3855655,,,,,,,,0.5078125,-4.37890625,0.6484375,-0.375,-1.728515625,1.908203125,0.0,180.0,360.0
3855656,,,,,,,,0.5078125,-4.37890625,0.6484375,-0.072265625,-1.404296875,1.6015625,0.0,180.0,360.0
3855657,,,,,,,,2.68359375,3.21484375,-1.00390625,-0.072265625,-1.404296875,1.6015625,0.0,180.0,360.0
3855658,,,,,,,,2.68359375,3.21484375,-1.00390625,0.294921875,-1.068359375,1.279296875,0.0,180.0,360.0
3855659,,,,,,,,3.56640625,6.7890625,-1.21875,0.294921875,-1.068359375,1.279296875,0.0,180.0,360.0
3855660,36.01306566666666,129.3201645,141.03781754385497,73.8629974037716,2.8000000000000003,230.0,,3.56640625,6.7890625,-1.21875,-0.060546875,-0.853515625,1.046875,0.0,180.0,360.0
3855661,,,,,,,,3.2890625,12.265625,-4.90234375,-0.060546875,-0.853515625,1.046875,0.0,180.0,360.0
3855662,,,,,,,,3.2890625,12.265625,-4.90234375,-0.537109375,-0.255859375,0.994140625,0.0,180.0,360.0
3855663,,,,,,,,3.2890625,12.265625,-4.90234375,-0.537109375,-0.255859375,0.994140625,0.0,180.0,360.0
3855664,,,,,,,,3.2890625,12.265625,-4.90234375,-0.751953125,1.216796875,0.8125,0.0,180.0,360.0
3855665,,,,,,,,1.71875,6.0859375,-4.32421875,-0.751953125,1.216796875,0.8125,0.0,180.0,360.0
3855666,,,,,,,,1.71875,6.0859375,-4.32421875,0.099609375,1.521484375,0.712890625,0.0,180.0,360.0
3855667,,,,,,,,1.71875,6.0859375,-4.32421875,1.064453125,0.123046875,0.703125,0.0,180.0,360.0
3855668,,,,,,,,-1.2578125,5.83984375,-2.2421875,1.064453125,0.123046875,0.703125,0.0,180.0,360.0
3855669,,,,,,,,-1.2578125,5.83984375,-2.2421875,1.357421875,-0.21875,0.412109375,0.0,180.0,360.0
3855670,36.013064,129.32016166666665,140.78239886979864,73.67806123629231,3.2,231.0,,-0.61328125,11.1171875,-3.11328125,1.357421875,-0.21875,0.412109375,0.0,180.0,360.0
3855671,,,,,,,,-0.61328125,11.1171875,-3.11328125,0.384765625,0.94140625,0.0625,0.0,180.0,360.0
3855672,,,,,,,,3.2734375,11.0625,-0.09765625,0.384765625,0.94140625,0.0625,0.0,180.0,360.0
3855673,,,,,,,,3.2734375,11.0625,-0.09765625,-1.830078125,1.533203125,0.0625,0.0,180.0,360.0
3855674,,,,,,,,3.2734375,11.0625,-0.09765625,0.171875,-1.841796875,-0.412109375,0.0,180.0,360.0
3855675,,,,,,,,-7.2890625,-30.5234375,21.7109375,0.171875,-1.841796875,-0.412109375,0.0,180.0,360.0
3855676,,,,,,,,-7.2890625,-30.5234375,21.7109375,1.72265625,1.181640625,-0.796875,0.0,180.0,360.0
3855677,,,,,,,,-2.55078125,-21.1171875,6.5390625,1.72265625,1.181640625,-0.796875,0.0,180.0,360.0
3855678,,,,,,,,-2.55078125,-21.1171875,6.5390625,-1.009765625,2.087890625,-0.705078125,0.0,180.0,360.0
3855679,,,,,,,,2.63671875,-2.29296875,5.01171875,-1.009765625,2.087890625,-0.705078125,0.0,180.0,360.0
3855680,36.013062,129.32015950000002,140.58707999404297,73.4561396219843,3.1,228.0,,2.63671875,-2.29296875,5.01171875,-0.470703125,2.845703125,-1.5078125,0.0,180.0,360.0
3855681,,,,,,,,7.41015625,-14.98046875,5.734375,-0.470703125,2.845703125,-1.5078125,0.0,180.0,360.0
3855682,,,,,,,,7.41015625,-14.98046875,5.734375,-0.5625,3.009765625,-2.08984375,0.0,180.0,360.0
3855683,,,,,,,,1.8671875,-7.9296875,1.921875,-0.5625,3.009765625,-2.08984375,0.0,180.0,360.0
3855684,,,,,,,,1.8671875,-7.9296875,1.921875,-0.80078125,2.70703125,-2.404296875,0.0,180.0,360.0
3855685,,,,,,,,1.8671875,-7.9296875,1.921875,-0.7421875,2.474609375,-2.103515625,0.0,180.0,360.0
3855686,,,,,,,,-1.4296875,-3.05859375,1.3046875,-0.7421875,2.474609375,-2.103515625,0.0,180.0,360.0
3855687,,,,,,,,-1.4296875,-3.05859375,1.3046875,-0.634765625,2.34765625,-1.572265625,0.0,180.0,360.0
3855688,,,,,,,,-3.73046875,0.52734375,0.34765625,-0.634765625,2.34765625,-1.572265625,0.0,180.0,360.0
3855689,,,,,,,,-3.73046875,0.52734375,0.34765625,-0.572265625,2.005859375,-1.140625,0.0,180.0,360.0
3855690,36.01306066666667,129.320158,140.45185912997985,73.3081918025934,2.8000000000000003,227.0,,-5.93359375,7.2109375,-1.17578125,-0.572265625,2.005859375,-1.140625,0.0,180.0,360.0
3855691,,,,,,,,-5.93359375,7.2109375,-1.17578125,-0.671875,1.109375,-0.734375,0.0,180.0,360.0
3855692,,,,,,,,-6.39453125,12.25,-2.18359375,-0.671875,1.109375,-0.734375,0.0,180.0,360.0
3855693,,,,,,,,-6.39453125,12.25,-2.18359375,-0.849609375,-0.052734375,-0.474609375,0.0,180.0,360.0
3855694,,,,,,,,-6.39453125,12.25,-2.18359375,-0.7265625,-0.166015625,-0.42578125,0.0,180.0,360.0
3855695,,,,,,,,-4.55859375,12.0234375,-3.0,-0.7265625,-0.166015625,-0.42578125,0.0,180.0,360.0
3855696,,,,,,,,-4.55859375,12.0234375,-3.0,0.041015625,0.26953125,-0.5,0.0,180.0,360.0
3855697,,,,,,,,-2.375,7.90234375,-3.23046875,0.041015625,0.26953125,-0.5,0.0,180.0,360.0
3855698,,,,,,,,-2.375,7.90234375,-3.23046875,0.521484375,0.490234375,-0.591796875,0.0,180.0,360.0
3855699,,,,,,,,-1.640625,7.9296875,-2.1796875,0.521484375,0.490234375,-0.591796875,0.0,180.0,360.0
3855700,36.013057333333336,129.3201545,140.13634416822714,72.9383226213443,2.8000000000000003,224.0,123.0,-1.640625,7.9296875,-2.1796875,0.521484375,0.490234375,-0.591796875,0.0,180.0,360.0
3855701,,,,,,,,-1.640625,7.9296875,-2.1796875,0.521484375,0.490234375,-0.591796875,0.0,180.0,360.0
3855702,,,,,,,,-1.640625,7.9296875,-2.1796875,0.404296875,0.357421875,-0.517578125,0.0,180.0,360.0
3855703,,,,,,,,-3.15234375,11.390625,-1.91015625,0.404296875,0.357421875,-0.517578125,0.0,180.0,360.0
3855704,,,,,,,,-3.15234375,11.390625,-1.91015625,-0.3515625,-1.693359375,1.673828125,0.0,180.0,360.0
3855705,,,,,,,,4.2734375,6.15625,-1.80078125,-0.3515625,-1.693359375,1.673828125,0.0,180.0,360.0
3855706,,,,,,,,4.2734375,6.15625,-1.80078125,0.166015625,-1.462890625,0.953125,0.0,180.0,360.0
3855707,,,,,,,,4.4921875,6.1953125,-1.76171875,0.166015625,-1.462890625,0.953125,0.0,180.0,360.0
3855708,,,,,,,,4.4921875,6.1953125,-1.76171875,-0.185546875,-1.029296875,0.98046875,0.0,180.0,360.0
3855709,,,,,,,,4.4921875,6.1953125,-1.76171875,-0.185546875,-1.029296875,0.98046875,0.0,180.0,360.0
3855710,36.01305416666666,129.32014966666665,139.70063044643896,72.58694474490865,3.1,227.0,,4.4921875,6.1953125,-1.76171875,-0.75390625,-0.015625,0.82421875,0.0,180.0,360.0
3855711,,,,,,,,2.1640625,9.09375,-3.87890625,-0.75390625,-0.015625,0.82421875,0.0,180.0,360.0
3855712,,,,,,,,2.1640625,9.09375,-3.87890625,-0.501953125,0.548828125,0.642578125,0.0,180.0,360.0
3855713,,,,,,,,2.1640625,9.09375,-3.87890625,0.96875,-0.0546875,0.712890625,0.0,180.0,360.0
3855714,,,,,,,,1.015625,6.44921875,-1.53515625,0.96875,-0.0546875,0.712890625,0.0,180.0,360.0
3855715,,,,,,,,1.015625,6.44921875,-1.53515625,2.08203125,-0.337890625,0.546875,0.0,180.0,360.0
3855716,,,,,,,,0.08984375,9.7421875,-2.3203125,2.08203125,-0.337890625,0.546875,0.0,180.0,360.0
3855717,,,,,,,,0.08984375,9.7421875,-2.3203125,1.5,0.54296875,0.16796875,0.0,180.0,360.0
3855718,,,,,,,,0.69921875,12.8515625,-4.07421875,1.5,0.54296875,0.16796875,0.0,180.0,360.0
3855719,,,,,,,,0.69921875,12.8515625,-4.07421875,1.5,0.54296875,0.16796875,0.0,180.0,360.0
3855720,36.013052333333334,129.32014716666666,139.47526161206025,72.38351588584274,3.2,228.0,,0.69921875,12.8515625,-4.07421875,-1.015625,0.873046875,0.12109375,0.0,180.0,360.0
3855721,,,,,,,,-0.39453125,2.19140625,3.078125,-1.015625,0.873046875,0.12109375,0.0,180.0,360.0
3855722,,,,,,,,-0.39453125,2.19140625,3.078125,0.015625,-1.583984375,-0.185546875,0.0,180.0,360.0
3855723,,,,,,,,-4.9453125,-29.07421875,16.25,0.015625,-1.583984375,-0.185546875,0.0,180.0,360.0
3855724,,,,,,,,-4.9453125,-29.07421875,16.25,2.060546875,0.974609375,-0.53515625,0.0,180.0,360.0
3855725,,,,,,,,-4.7109375,-28.5078125,14.31640625,2.060546875,0.974609375,-0.53515625,0.0,180.0,360.0
3855726,,,,,,,,-4.7109375,-28.5078125,14.31640625,-0.927734375,1.955078125,-0.634765625,0.0,180.0,360.0
3855727,,,,,,,,5.91015625,-1.10546875,4.3984375,-0.927734375,1.955078125,-0.634765625,0.0,180.0,360.0
3855728,,,,,,,,5.91015625,-1.10546875,4.3984375,0.015625,2.654296875,-1.49609375,0.0,180.0,360.0
3855729,,,,,,,,8.09765625,-15.21484375,5.08984375,0.015625,2.654296875,-1.49609375,0.0,180.0,360.0
3855730,36.013050666666665,129.320144,139.18979325494578,72.19857928734513,3.4000000000000004,230.0,,8.09765625,-15.21484375,5.08984375,-0.349609375,2.806640625,-2.087890625,0.0,180.0,360.0
3855731,,,,,,,,8.09765625,-15.21484375,5.08984375,-0.349609375,2.806640625,-2.087890625,0.0,180.0,360.0
3855732,,,,,,,,8.09765625,-15.21484375,5.08984375,-0.6015625,2.591796875,-2.33203125,0.0,180.0,360.0
3855733,,,,,,,,0.43359375,-4.2265625,1.55859375,-0.6015625,2.591796875,-2.33203125,0.0,180.0,360.0
3855734,,,,,,,,0.43359375,-4.2265625,1.55859375,-0.7421875,2.259765625,-1.984375,0.0,180.0,360.0
3855735,,,,,,,,0.43359375,-4.2265625,1.55859375,-0.50390625,2.107421875,-1.4921875,0.0,180.0,360.0
3855736,,,,,,,,-3.82421875,2.35546875,0.03125,-0.50390625,2.107421875,-1.4921875,0.0,180.0,360.0
3855737,,,,,,,,-3.82421875,2.35546875,0.03125,-0.05859375,2.14453125,-1.078125,0.0,180.0,360.0
3855738,,,,,,,,-4.9921875,6.0,-0.7578125,-0.05859375,2.14453125,-1.078125,0.0,180.0,360.0
3855739,,,,,,,,-4.9921875,6.0,-0.7578125,-0.177734375,0.4921875,-0.69140625,0.0,180.0,360.0
3855740,36.01304916666666,129.320142,139.00949822862668,72.03213756850987,3.1,231.0,,-6.1953125,14.10546875,-2.328125,-0.177734375,0.4921875,-0.69140625,0.0,180.0,360.0
3855741,,,,,,,,-6.1953125,14.10546875,-2.328125,-0.888671875,-0.623046875,-0.330078125,0.0,180.0,360.0
3855742,,,,,,,,-6.1953125,14.10546875,-2.328125,-0.9296875,-0.349609375,-0.216796875,0.0,180.0,360.0
3855743,,,,,,,,-3.5625,8.64453125,-3.8125,-0.9296875,-0.349609375,-0.216796875,0.0,180.0,360.0
3855744,,,,,,,,-3.5625,8.64453125,-3.8125,0.111328125,-0.171875,-0.3671875,0.0,180.0,360.0
3855745,,,,,,,,-3.42578125,6.546875,-2.7890625,0.111328125,-0.171875,-0.3671875,0.0,180.0,360.0
3855746,,,,,,,,-3.42578125,6.546875,-2.7890625,1.228515625,0.111328125,-0.615234375,0.0,180.0,360.0
3855747,,,,,,,,-2.44140625,6.35546875,-2.171875,1.228515625,0.111328125,-0.615234375,0.0,180.0,360.0
3855748,,,,,,,,-2.44140625,6.35546875,-2.171875,0.728515625,0.52734375,-0.70703125,0.0,180.0,360.0
3855749,,,,,,,,-0.7421875,12.04296875,-1.91796875,0.728515625,0.52734375,-0.70703125,0.0,180.0,360.0
3855750,36.013047,129.3201395,138.78412994811242,71.79172231270609,3.5,228.0,,-0.7421875,12.04296875,-1.91796875,0.2578125,-0.208984375,-0.55859375,0.0,180.0,360.0
3855751,,,,,,,,-0.7421875,12.04296875,-1.91796875,0.2578125,-0.208984375,-0.55859375,0.0,180.0,360.0
3855752,,,,,,,,-0.7421875,12.04296875,-1.91796875,0.02734375,-0.435546875,-0.345703125,0.0,180.0,360.0
3855753,,,,,,,,-3.7890625,8.2109375,0.1953125,0.02734375,-0.435546875,-0.345703125,0.0,180.0,360.0
3855754,,,,,,,,-3.7890625,8.2109375,0.1953125,-1.212890625,-1.703125,-0.04296875,0.0,180.0,360.0
3855755,,,,,,,,-3.7890625,8.2109375,0.1953125,-1.197265625,-0.884765625,-0.330078125,0.0,180.0,360.0
3855756,,,,,,,,10.8125,-35.6875,15.84765625,-1.197265625,-0.884765625,-0.330078125,0.0,180.0,360.0
3855757,,,,,,,,10.8125,-35.6875,15.84765625,3.66015625,-0.162109375,-0.263671875,0.0,180.0,360.0
3855758,,,,,,,,12.57421875,-24.7421875,17.72265625,3.66015625,-0.162109375,-0.263671875,0.0,180.0,360.0
3855759,,,,,,,,12.57421875,-24.7421875,17.72265625,-0.287109375,-3.53125,0.8984375,0.0,180.0,360.0
3855760,36.013044666666666,129.32013633333332,138.49866272154637,71.53281290878351,3.7,228.0,,-4.3671875,-16.0234375,6.0546875,-0.287109375,-3.53125,0.8984375,0.0,180.0,360.0
3855761,,,,,,,,-4.3671875,-16.0234375,6.0546875,0.619140625,-2.58984375,1.5625,0.0,180.0,360.0
3855762,,,,,,,,-4.3671875,-16.0234375,6.0546875,-0.41796875,-2.875,2.02734375,0.0,180.0,360.0
3855763,,,,,,,,1.8046875,-5.00390625,0.234375,-0.41796875,-2.875,2.02734375,0.0,180.0,360.0
3855764,,,,,,,,1.8046875,-5.00390625,0.234375,-0.431640625,-2.578125,2.09375,0.0,180.0,360.0
3855765,,,,,,,,2.94921875,-6.3203125,0.48046875,-0.431640625,-2.578125,2.09375,0.0,180.0,360.0
3855766,,,,,,,,2.94921875,-6.3203125,0.48046875,-0.162109375,-2.1875,1.81640625,0.0,180.0,360.0
3855767,,,,,,,,3.13671875,-3.9453125,0.15234375,-0.162109375,-2.1875,1.81640625,0.0,180.0,360.0
3855768,,,,,,,,3.13671875,-3.9453125,0.15234375,-0.318359375,-1.630859375,1.439453125,0.0,180.0,360.0
3855769,,,,,,,,4.55859375,5.6171875,-2.7734375,-0.318359375,-1.630859375,1.439453125,0.0,180.0,360.0
3855770,36.013041666666666,129.32013266666667,138.16812222310529,71.19992997564259,4.2,226.0,,4.55859375,5.6171875,-2.7734375,-0.244140625,-1.2265625,1.0859375,0.0,180.0,360.0
3855771,,,,,,,,3.57421875,10.95703125,-3.53515625,-0.244140625,-1.2265625,1.0859375,0.0,180.0,360.0
3855772,,,,,,,,3.57421875,10.95703125,-3.53515625,-0.408203125,-0.8125,0.900390625,0.0,180.0,360.0
3855773,,,,,,,,3.5859375,11.44921875,-4.96875,-0.408203125,-0.8125,0.900390625,0.0,180.0,360.0
3855774,,,,,,,,3.5859375,11.44921875,-4.96875,-0.45703125,0.62890625,0.537109375,0.0,180.0,360.0
3855775,,,,,,,,4.8984375,8.80078125,-5.9609375,-0.45703125,0.62890625,0.537109375,0.0,180.0,360.0
3855776,,,,,,,,4.8984375,8.80078125,-5.9609375,0.2421875,0.927734375,0.55859375,0.0,180.0,360.0
3855777,,,,,,,,4.2265625,5.67578125,-4.58984375,0.2421875,0.927734375,0.55859375,0.0,180.0,360.0
3855778,,,,,,,,4.2265625,5.67578125,-4.58984375,1.298828125,0.37109375,0.712890625,0.0,180.0,360.0
3855779,,,,,,,,-0.8515625,8.9296875,0.28125,1.298828125,0.37109375,0.712890625,0.0,180.0,360.0
3855780,36.013037833333335,129.32012699999999,137.65728546116503,70.7745781943732,3.7,228.0,,-0.8515625,8.9296875,0.28125,1.001953125,0.1953125,0.64453125,0.0,180.0,360.0
3855781,,,,,,,,-0.11328125,14.12890625,-3.05859375,1.001953125,0.1953125,0.64453125,0.0,180.0,360.0
3855782,,,,,,,,-0.11328125,14.12890625,-3.05859375,0.439453125,0.74609375,0.435546875,0.0,180.0,360.0
3855783,,,,,,,,-0.11328125,14.12890625,-3.05859375,-0.103515625,0.630859375,0.279296875,0.0,180.0,360.0
3855784,,,,,,,,-0.140625,12.83984375,-3.0859375,-0.103515625,0.630859375,0.279296875,0.0,180.0,360.0
3855785,,,,,,,,-0.140625,12.83984375,-3.0859375,-1.318359375,0.947265625,0.115234375,0.0,180.0,360.0
3855786,,,,,,,,2.58203125,6.375,3.0,-1.318359375,0.947265625,0.115234375,0.0,180.0,360.0
3855787,,,,,,,,2.58203125,6.375,3.0,-0.703125,-1.912109375,-0.234375,0.0,180.0,360.0
3855788,,,,,,,,-3.26171875,-19.6640625,11.984375,-0.703125,-1.912109375,-0.234375,0.0,180.0,360.0
3855789,,,,,,,,-3.26171875,-19.6640625,11.984375,2.853515625,1.33203125,-0.171875,0.0,180.0,360.0
3855790,36.01303516666667,129.32012383333333,137.37181874891442,70.47868241290895,3.8000000000000003,226.0,,4.19140625,-4.62109375,3.8203125,2.853515625,1.33203125,-0.171875,0.0,180.0,360.0
3855791,,,,,,,,4.19140625,-4.62109375,3.8203125,-1.107421875,3.0546875,-0.921875,0.0,180.0,360.0
3855792,,,,,,,,4.19140625,-4.62109375,3.8203125,-0.3125,2.423828125,-1.68359375,0.0,180.0,360.0
3855793,,,,,,,,8.47265625,-14.69921875,7.69140625,-0.3125,2.423828125,-1.68359375,0.0,180.0,360.0
3855794,,,,,,,,8.47265625,-14.69921875,7.69140625,-0.767578125,2.755859375,-2.1328125,0.0,180.0,360.0
3855795,,,,,,,,2.546875,-8.30859375,0.875,-0.767578125,2.755859375,-2.1328125,0.0,180.0,360.0
3855796,,,,,,,,2.546875,-8.30859375,0.875,-0.740234375,2.798828125,-2.33203125,0.0,180.0,360.0
3855797,,,,,,,,-0.5703125,-5.23828125,0.15625,-0.740234375,2.798828125,-2.33203125,0.0,180.0,360.0
3855798,,,,,,,,-0.5703125,-5.23828125,0.15625,-1.169921875,2.54296875,-1.919921875,0.0,180.0,360.0
3855799,,,,,,,,-0.5078125,-2.37890625,0.10546875,-1.169921875,2.54296875,-1.919921875,0.0,180.0,360.0
3855800,36.013031500000004,129.32011933333334,136.9661552780525,70.0718255233644,3.4000000000000004,226.0,123.0,-0.5078125,-2.37890625,0.10546875,-1.0546875,2.28515625,-1.439453125,0.0,180.0,360.0
3855801,,,,,,,,-0.5078125,-2.37890625,0.10546875,-1.0546875,2.28515625,-1.439453125,0.0,180.0,360.0
3855802,,,,,,,,-6.59765625,6.921875,-0.85546875,-1.0546875,2.28515625,-1.439453125,0.0,180.0,360.0
3855803,,,,,,,,-0.875,12.390625,-2.9453125,-1.0546875,2.28515625,-1.439453125,0.0,180.0,360.0
3855804,,,,,,,,-0.875,12.390625,-2.9453125,0.24609375,-0.146484375,-0.4921875,0.0,180.0,360.0
3855805,,,,,,,,-0.875,12.390625,-2.9453125,0.24609375,-0.146484375,-0.4921875,0.0,180.0,360.0
3855806,,,,,,,,-0.875,12.390625,-2.9453125,0.224609375,-0.53515625,-0.267578125,0.0,180.0,360.0
3855807,,,,,,,,-4.6484375,7.06640625,3.3515625,0.224609375,-0.53515625,-0.267578125,0.0,180.0,360.0
3855808,,,,,,,,-4.6484375,7.06640625,3.3515625,-0.884765625,-1.708984375,-0.732421875,0.0,180.0,360.0
3855809,,,,,,,,-4.6484375,7.06640625,3.3515625,-0.966796875,-0.314453125,0.40625,0.0,180.0,360.0
3855810,36.01302966666666,129.32011633333335,136.69571188993,69.86839603294881,3.5,229.0,,10.28515625,-43.7578125,15.21875,-0.966796875,-0.314453125,0.40625,0.0,180.0,360.0
3855811,,,,,,,,10.28515625,-43.7578125,15.21875,4.087890625,-0.25,-0.26953125,0.0,180.0,360.0
3855812,,,,,,,,13.3828125,-19.44921875,16.375,4.087890625,-0.25,-0.26953125,0.0,180.0,360.0
3855813,,,,,,,,13.3828125,-19.44921875,16.375,0.48046875,-3.279296875,1.25,0.0,180.0,360.0
3855814,,,,,,,,-8.64453125,-16.80078125,6.15625,0.48046875,-3.279296875,1.25,0.0,180.0,360.0
3855815,,,,,,,,-8.64453125,-16.80078125,6.15625,0.875,-1.9765625,1.6328125,0.0,180.0,360.0
3855816,,,,,,,,-8.64453125,-16.80078125,6.15625,0.875,-1.9765625,1.6328125,0.0,180.0,360.0
3855817,,,,,,,,-8.64453125,-16.80078125,6.15625,0.0390625,-2.98828125,2.115234375,0.0,180.0,360.0
3855818,,,,,,,,1.74609375,-7.26953125,1.54296875,0.0390625,-2.98828125,2.115234375,0.0,180.0,360.0
3855819,,,,,,,,1.74609375,-7.26953125,1.54296875,0.111328125,-2.490234375,2.111328125,0.0,180.0,360.0
3855820,36.013027666666666,129.3201125,136.35014472678404,69.64647217886728,3.7,231.0,,1.74609375,-7.26953125,1.54296875,-0.408203125,-2.1328125,1.771484375,0.0,180.0,360.0
3855821,,,,,,,,1.9765625,-1.69921875,-0.28125,-0.408203125,-2.1328125,1.771484375,0.0,180.0,360.0
3855822,,,,,,,,1.9765625,-1.69921875,-0.28125,-0.193359375,-1.48828125,1.337890625,0.0,180.0,360.0
3855823,,,,,,,,4.90625,3.56640625,-1.7265625,-0.193359375,-1.48828125,1.337890625,0.0,180.0,360.0
3855824,,,,,,,,4.90625,3.56640625,-1.7265625,0.369140625,-1.123046875,0.76171875,0.0,180.0,360.0
3855825,,,,,,,,5.33984375,7.359375,-2.0390625,0.369140625,-1.123046875,0.76171875,0.0,180.0,360.0
3855826,,,,,,,,5.33984375,7.359375,-2.0390625,0.23828125,-1.080078125,0.7265625,0.0,180.0,360.0
3855827,,,,,,,,5.33984375,7.359375,-2.0390625,-0.595703125,-0.296875,0.59765625,0.0,180.0,360.0
3855828,,,,,,,,2.125,12.921875,-5.6484375,-0.595703125,-0.296875,0.59765625,0.0,180.0,360.0
3855829,,,,,,,,2.125,12.921875,-5.6484375,-0.712890625,0.859375,0.4140625,0.0,180.0,360.0
3855830,36.01302583333334,129.32011016666667,136.1398005488086,69.44304363940692,3.5,231.0,,3.49609375,4.37890625,-4.56640625,-0.712890625,0.859375,0.4140625,0.0,180.0,360.0
3855831,,,,,,,,3.49609375,4.37890625,-4.56640625,0.833984375,0.53125,0.54296875,0.0,180.0,360.0
3855832,,,,,,,,1.69921875,5.4296875,-1.80859375,0.833984375,0.53125,0.54296875,0.0,180.0,360.0
3855833,,,,,,,,1.69921875,5.4296875,-1.80859375,2.1875,0.1015625,0.380859375,0.0,180.0,360.0
3855834,,,,,,,,-0.71875,13.16796875,-2.44921875,2.1875,0.1015625,0.380859375,0.0,180.0,360.0
3855835,,,,,,,,-0.71875,13.16796875,-2.44921875,2.1875,0.1015625,0.380859375,0.0,180.0,360.0
3855836,,,,,,,,-0.71875,13.16796875,-2.44921875,0.365234375,0.205078125,0.1796875,0.0,180.0,360.0
3855837,,,,,,,,1.2578125,13.70703125,-1.20703125,0.365234375,0.205078125,0.1796875,0.0,180.0,360.0
3855838,,,,,,,,1.2578125,13.70703125,-1.20703125,-0.732421875,0.9609375,0.015625,0.0,180.0,360.0
3855839,,,,,,,,1.796875,10.0625,0.65234375,-0.732421875,0.9609375,0.015625,0.0,180.0,360.0
3855840,36.013024,129.3201075,135.89940674084554,69.23961464014938,3.4000000000000004,231.0,,1.796875,10.0625,0.65234375,-0.38671875,0.306640625,0.044921875,0.0,180.0,360.0
3855841,,,,,,,,2.6953125,5.609375,2.7109375,-0.38671875,0.306640625,0.044921875,0.0,180.0,360.0
3855842,,,,,,,,2.6953125,5.609375,2.7109375,-0.494140625,-0.380859375,-0.08984375,0.0,180.0,360.0
3855843,,,,,,,,-3.296875,-19.375,10.234375,-0.494140625,-0.380859375,-0.08984375,0.0,180.0,360.0
3855844,,,,,,,,-3.296875,-19.375,10.234375,2.341796875,0.51953125,-0.4296875,0.0,180.0,360.0
3855845,,,,,,,,-3.296875,-19.375,10.234375,2.341796875,0.51953125,-0.4296875,0.0,180.0,360.0
3855846,,,,,,,,-3.296875,-19.375,10.234375,-1.5703125,3.396484375,-0.97265625,0.0,180.0,360.0
3855847,,,,,,,,8.3828125,-12.81640625,6.30078125,-1.5703125,3.396484375,-0.97265625,0.0,180.0,360.0
3855848,,,,,,,,8.3828125,-12.81640625,6.30078125,0.609375,2.7890625,-1.85546875,0.0,180.0,360.0
3855849,,,,,,,,8.3828125,-12.81640625,6.30078125,-0.92578125,2.580078125,-2.23828125,0.0,180.0,360.0
3855850,36.01302183333333,129.32010416666665,135.59891425066849,68.99919830480869,3.7,231.0,,-0.5390625,-5.26171875,-2.11328125,-0.92578125,2.580078125,-2.23828125,0.0,180.0,360.0
3855851,,,,,,,,-0.5390625,-5.26171875,-2.11328125,-0.486328125,1.91015625,-1.8984375,0.0,180.0,360.0
3855852,,,,,,,,-3.1328125,-3.0390625,1.5234375,-0.486328125,1.91015625,-1.8984375,0.0,180.0,360.0
3855853,,,,,,,,-3.1328125,-3.0390625,1.5234375,-0.037109375,2.236328125,-1.6015625,0.0,180.0,360.0
3855854,,,,,,,,-4.42578125,1.51171875,0.328125,-0.037109375,2.236328125,-1.6015625,0.0,180.0,360.0
3855855,,,,,,,,-4.42578125,1.51171875,0.328125,-0.037109375,2.236328125,-1.6015625,0.0,180.0,360.0
3855856,,,,,,,,-4.42578125,1.51171875,0.328125,-0.724609375,1.232421875,-0.92578125,0.0,180.0,360.0
3855857,,,,,,,,-5.5859375,10.91015625,-1.95703125,-0.724609375,1.232421875,-0.92578125,0.0,180.0,360.0
3855858,,,,,,,,-5.5859375,10.91015625,-1.95703125,-0.48828125,-0.34375,-0.56640625,0.0,180.0,360.0
3855859,,,,,,,,-4.1875,11.4609375,-1.83203125,-0.48828125,-0.34375,-0.56640625,0.0,180.0,360.0
3855860,36.013017500000004,129.3201,135.22330139235396,68.51836913363914,3.4000000000000004,225.0,,-4.1875,11.4609375,-1.83203125,-0.42578125,-0.501953125,-0.41796875,0.0,180.0,360.0
3855861,,,,,,,,-2.83984375,8.75,-3.1015625,-0.42578125,-0.501953125,-0.41796875,0.0,180.0,360.0
3855862,,,,,,,,-2.83984375,8.75,-3.1015625,0.556640625,-0.02734375,-0.328125,0.0,180.0,360.0
3855863,,,,,,,,-3.1484375,5.5,-2.41796875,0.556640625,-0.02734375,-0.328125,0.0,180.0,360.0
3855864,,,,,,,,-3.1484375,5.5,-2.41796875,1.216796875,-0.6796875,-0.279296875,0.0,180.0,360.0
3855865,,,,,,,,-3.1484375,5.5,-2.41796875,1.216796875,-0.6796875,-0.279296875,0.0,180.0,360.0
3855866,,,,,,,,-3.1484375,5.5,-2.41796875,0.751953125,-0.7734375,-0.19921875,0.0,180.0,360.0
3855867,,,,,,,,-1.25,12.24609375,-3.21484375,0.751953125,-0.7734375,-0.19921875,0.0,180.0,360.0
3855868,,,,,,,,-1.25,12.24609375,-3.21484375,0.365234375,-0.80078125,-0.046875,0.0,180.0,360.0
3855869,,,,,,,,-1.25,12.24609375,-3.21484375,0.158203125,-0.595703125,0.10546875,0.0,180.0,360.0
3855870,36.013015333333335,129.32009699999998,134.95285847987637,68.2779532837576,3.5,225.0,,-1.16015625,10.453125,-3.125,0.158203125,-0.595703125,0.10546875,0.0,180.0,360.0
3855871,,,,,,,,-1.16015625,10.453125,-3.125,-1.32421875,-1.2578125,0.30859375,0.0,180.0,360.0
3855872,,,,,,,,-2.84765625,4.8046875,0.38671875,-1.32421875,-1.2578125,0.30859375,0.0,180.0,360.0
3855873,,,,,,,,-2.84765625,4.8046875,0.38671875,-1.4921875,-0.44140625,0.064453125,0.0,180.0,360.0
3855874,,,,,,,,2.44921875,-18.51953125,3.87109375,-1.4921875,-0.44140625,0.064453125,0.0,180.0,360.0
3855875,,,,,,,,2.44921875,-18.51953125,3.87109375,-1.4921875,-0.44140625,0.064453125,0.0,180.0,360.0
3855876,,,,,,,,2.44921875,-18.51953125,3.87109375,2.091796875,-1.5,0.0390625,0.0,180.0,360.0
3855877,,,,,,,,-9.49609375,-9.71875,1.83203125,2.091796875,-1.5,0.0390625,0.0,180.0,360.0
3855878,,,,,,,,-9.49609375,-9.71875,1.83203125,0.841796875,-1.8984375,1.43359375,0.0,180.0,360.0
3855879,,,,,,,,0.39453125,-13.51171875,4.78125,0.841796875,-1.8984375,1.43359375,0.0,180.0,360.0
3855880,36.01301383333334,129.32009433333332,134.71246404560003,68.11151073180343,3.4000000000000004,227.0,,0.39453125,-13.51171875,4.78125,-0.080078125,-2.509765625,2.0625,0.0,180.0,360.0
3855881,,,,,,,,2.58984375,-9.58203125,3.953125,-0.080078125,-2.509765625,2.0625,0.0,180.0,360.0
3855882,,,,,,,,2.58984375,-9.58203125,3.953125,-0.751953125,-2.150390625,2.1796875,0.0,180.0,360.0
3855883,,,,,,,,-0.77734375,-8.34765625,0.33203125,-0.751953125,-2.150390625,2.1796875,0.0,180.0,360.0
3855884,,,,,,,,-0.77734375,-8.34765625,0.33203125,0.0390625,-1.705078125,1.7890625,0.0,180.0,360.0
3855885,,,,,,,,-0.77734375,-8.34765625,0.33203125,0.0390625,-1.705078125,1.7890625,0.0,180.0,360.0
3855886,,,,,,,,-0.77734375,-8.34765625,0.33203125,0.05078125,-1.59375,1.29296875,0.0,180.0,360.0
3855887,,,,,,,,3.6484375,4.03515625,-2.85546875,0.05078125,-1.59375,1.29296875,0.0,180.0,360.0
3855888,,,,,,,,3.6484375,4.03515625,-2.85546875,-0.046875,-1.1953125,0.798828125,0.0,180.0,360.0
3855889,,,,,,,,3.6484375,4.03515625,-2.85546875,0.125,-1.07421875,0.533203125,0.0,180.0,360.0
3855890,36.01301266666667,129.32009266666668,134.56221791275541,67.98205597979835,3.0,229.0,,4.0,7.23828125,-3.3515625,0.125,-1.07421875,0.533203125,0.0,180.0,360.0
3855891,,,,,,,,4.0,7.23828125,-3.3515625,0.23828125,-0.787109375,0.591796875,0.0,180.0,360.0
3855892,,,,,,,,2.77734375,11.0703125,-4.83984375,0.23828125,-0.787109375,0.591796875,0.0,180.0,360.0
3855893,,,,,,,,2.77734375,11.0703125,-4.83984375,-0.046875,0.27734375,0.447265625,0.0,180.0,360.0
3855894,,,,,,,,2.265625,9.9140625,-5.75,-0.046875,0.27734375,0.447265625,0.0,180.0,360.0
3855895,,,,,,,,2.265625,9.9140625,-5.75,0.13671875,0.96875,0.365234375,0.0,180.0,360.0
3855896,,,,,,,,0.359375,7.4140625,-3.61328125,0.13671875,0.96875,0.365234375,0.0,180.0,360.0
3855897,,,,,,,,0.359375,7.4140625,-3.61328125,0.576171875,0.06640625,0.4609375,0.0,180.0,360.0
3855898,,,,,,,,0.359375,7.4140625,-3.61328125,0.8671875,-0.126953125,0.259765625,0.0,180.0,360.0
3855899,,,,,,,,0.73828125,9.796875,-1.41796875,0.8671875,-0.126953125,0.259765625,0.0,180.0,360.0
3855900,36.01300983333333,129.32008716666667,134.06640390745935,67.66766387913518,3.1,233.0,123.0,0.73828125,9.796875,-1.41796875,0.57421875,0.33203125,0.080078125,0.0,180.0,360.0
3855901,,,,,,,,0.73828125,9.796875,-1.41796875,0.57421875,0.33203125,0.080078125,0.0,180.0,360.0
3855902,,,,,,,,1.3671875,10.84375,-0.44921875,0.57421875,0.33203125,0.080078125,0.0,180.0,360.0
3855903,,,,,,,,-4.6875,5.95703125,-2.625,0.57421875,0.33203125,0.080078125,0.0,180.0,360.0
3855904,,,,,,,,-4.6875,5.95703125,-2.625,-0.384765625,2.146484375,-0.74609375,0.0,180.0,360.0
3855905,,,,,,,,-4.6875,5.95703125,-2.625,-0.810546875,1.5625,-0.583984375,0.0,180.0,360.0
3855906,,,,,,,,-4.12109375,10.4765625,-4.00390625,-0.810546875,1.5625,-0.583984375,0.0,180.0,360.0
3855907,,,,,,,,-4.12109375,10.4765625,-4.00390625,-0.91796875,0.716796875,-0.556640625,0.0,180.0,360.0
3855908,,,,,,,,-3.90625,10.6015625,-3.79296875,-0.91796875,0.716796875,-0.556640625,0.0,180.0,360.0
3855909,,,,,,,,-3.90625,10.6015625,-3.79296875,-0.658203125,-0.025390625,-0.4609375,0.0,180.0,360.0
3855910,36.01300666666667,129.320083,133.69078893822387,67.31628722280564,3.1,230.0,,-3.9375,7.64453125,-3.53125,-0.658203125,-0.025390625,-0.4609375,0.0,180.0,360.0
3855911,,,,,,,,-3.9375,7.64453125,-3.53125,0.294921875,0.25390625,-0.53515625,0.0,180.0,360.0
3855912,,,,,,,,-1.78515625,3.8046875,-3.58203125,0.294921875,0.25390625,-0.53515625,0.0,180.0,360.0
3855913,,,,,,,,-1.78515625,3.8046875,-3.58203125,1.181640625,0.765625,-0.7109375,0.0,180.0,360.0
3855914,,,,,,,,-1.78515625,3.8046875,-3.58203125,1.181640625,0.765625,-0.7109375,0.0,180.0,360.0
3855915,,,,,,,,-1.78515625,3.8046875,-3.58203125,1.064453125,-0.0546875,-0.580078125,0.0,180.0,360.0
3855916,,,,,,,,-2.2890625,13.4375,0.65234375,1.064453125,-0.0546875,-0.580078125,0.0,180.0,360.0
3855917,,,,,,,,-2.2890625,13.4375,0.65234375,0.65234375,-0.451171875,-0.478515625,0.0,180.0,360.0
3855918,,,,,,,,-2.2890625,13.4375,0.65234375,0.091796875,-0.43359375,-0.3515625,0.0,180.0,360.0
3855919,,,,,,,,-2.8125,9.16015625,-2.27734375,0.091796875,-0.43359375,-0.3515625,0.0,180.0,360.0
3855920,36.013005166666666,129.32008,133.42034482315032,67.14984424920002,3.2,232.0,,-2.8125,9.16015625,-2.27734375,-1.30078125,-1.009765625,-0.236328125,0.0,180.0,360.0
3855921,,,,,,,,-4.58984375,-1.48046875,1.03515625,-1.30078125,-1.009765625,-0.236328125,0.0,180.0,360.0
3855922,,,,,,,,-4.58984375,-1.48046875,1.03515625,0.29296875,-0.978515625,0.583984375,0.0,180.0,360.0
3855923,,,,,,,,14.58203125,-24.15625,20.39453125,0.29296875,-0.978515625,0.583984375,0.0,180.0,360.0
3855924,,,,,,,,14.58203125,-24.15625,20.39453125,2.70703125,-0.69140625,-0.263671875,0.0,180.0,360.0
3855925,,,,,,,,14.58203125,-24.15625,20.39453125,0.03515625,-2.8203125,0.97265625,0.0,180.0,360.0
3855926,,,,,,,,-6.12890625,-12.66015625,0.59375,0.03515625,-2.8203125,0.97265625,0.0,180.0,360.0
3855927,,,,,,,,-6.12890625,-12.66015625,0.59375,0.154296875,-2.15625,1.47265625,0.0,180.0,360.0
3855928,,,,,,,,4.046875,-13.5078125,4.1953125,0.154296875,-2.15625,1.47265625,0.0,180.0,360.0
3855929,,,,,,,,4.046875,-13.5078125,4.1953125,-0.197265625,-2.634765625,1.865234375,0.0,180.0,360.0
3855930,36.01300333333334,129.320076,133.05975237833582,66.9464135036409,3.7,235.0,,2.43359375,-9.2109375,1.84375,-0.197265625,-2.634765625,1.865234375,0.0,180.0,360.0
3855931,,,,,,,,2.43359375,-9.2109375,1.84375,-0.365234375,-2.2421875,1.87109375,0.0,180.0,360.0
3855932,,,,,,,,0.4296875,-7.83203125,0.14453125,-0.365234375,-2.2421875,1.87109375,0.0,180.0,360.0
3855933,,,,,,,,0.4296875,-7.83203125,0.14453125,0.0546875,-1.8671875,1.498046875,0.0,180.0,360.0
3855934,,,,,,,,0.4296875,-7.83203125,0.14453125,0.0546875,-1.8671875,1.498046875,0.0,180.0,360.0
3855935,,,,,,,,0.4296875,-7.83203125,0.14453125,0.16796875,-1.7265625,1.060546875,0.0,180.0,360.0
3855936,,,,,,,,3.4765625,6.7890625,-3.5078125,0.16796875,-1.7265625,1.060546875,0.0,180.0,360.0
3855937,,,,,,,,3.4765625,6.7890625,-3.5078125,0.220703125,-1.466796875,0.7421875,0.0,180.0,360.0
3855938,,,,,,,,3.4765625,6.7890625,-3.5078125,0.2578125,-1.412109375,0.5625,0.0,180.0,360.0
3855939,,,,,,,,3.8515625,10.046875,-4.05078125,0.2578125,-1.412109375,0.5625,0.0,180.0,360.0
3855940,36.013001833333334,129.32007383333334,132.86443231655787,66.77997168397997,3.3000000000000003,234.0,,3.8515625,10.046875,-4.05078125,0.05078125,-1.05078125,0.626953125,0.0,180.0,360.0
3855941,,,,,,,,3.546875,10.62109375,-6.13671875,0.05078125,-1.05078125,0.626953125,0.0,180.0,360.0
3855942,,,,,,,,3.546875,10.62109375,-6.13671875,-0.005859375,0.578125,0.359375,0.0,180.0,360.0
3855943,,,,,,,,2.62109375,6.453125,-4.88671875,-0.005859375,0.578125,0.359375,0.0,180.0,360.0
3855944,,,,,,,,2.62109375,6.453125,-4.88671875,0.26953125,1.08984375,0.44921875,0.0,180.0,360.0
3855945,,,,,,,,2.62109375,6.453125,-4.88671875,0.58984375,0.033203125,0.73046875,0.0,180.0,360.0
3855946,,,,,,,,-1.06640625,9.5546875,-1.2265625,0.58984375,0.033203125,0.73046875,0.0,180.0,360.0
3855947,,,,,,,,-1.06640625,9.5546875,-1.2265625,0.6953125,-0.029296875,0.548828125,0.0,180.0,360.0
3855948,,,,,,,,-0.23828125,11.9921875,-0.35546875,0.6953125,-0.029296875,0.548828125,0.0,180.0,360.0
3855949,,,,,,,,-0.23828125,11.9921875,-0.35546875,0.173828125,0.765625,0.30859375,0.0,180.0,360.0
3855950,36.013000166666664,129.32007133333335,132.6390628950118,66.59503620968246,3.3000000000000003,232.0,,2.078125,12.546875,-0.94921875,0.173828125,0.765625,0.30859375,0.0,180.0,360.0
3855951,,,,,,,,2.078125,12.546875,-0.94921875,-0.40625,1.140625,0.1796875,0.0,180.0,360.0
3855952,,,,,,,,2.140625,10.42578125,-1.953125,-0.40625,1.140625,0.1796875,0.0,180.0,360.0
3855953,,,,,,,,2.140625,10.42578125,-1.953125,-1.85546875,1.01171875,0.2578125,0.0,180.0,360.0
3855954,,,,,,,,2.140625,10.42578125,-1.953125,-1.85546875,1.01171875,0.2578125,0.0,180.0,360.0
3855955,,,,,,,,2.140625,10.42578125,-1.953125,-0.810546875,-3.140625,-0.314453125,0.0,180.0,360.0
3855956,,,,,,,,-9.61328125,-40.85546875,15.46875,-0.810546875,-3.140625,-0.314453125,0.0,180.0,360.0
3855957,,,,,,,,-9.61328125,-40.85546875,15.46875,2.6796875,1.08203125,-0.158203125,0.0,180.0,360.0
3855958,,,,,,,,-9.61328125,-40.85546875,15.46875,-1.1953125,3.12890625,-0.556640625,0.0,180.0,360.0
3855959,,,,,,,,4.59375,-2.8125,-4.77734375,-1.1953125,3.12890625,-0.556640625,0.0,180.0,360.0
3855960,36.01299816666666,129.32006850000002,132.38364439341066,66.37311387296991,3.6,230.0,,4.59375,-2.8125,-4.77734375,0.484375,3.16015625,-1.544921875,0.0,180.0,360.0
3855961,,,,,,,,6.05859375,-12.95703125,6.6953125,0.484375,3.16015625,-1.544921875,0.0,180.0,360.0
3855962,,,,,,,,6.05859375,-12.95703125,6.6953125,0.255859375,2.759765625,-2.1953125,0.0,180.0,360.0
3855963,,,,,,,,-0.30859375,-3.83984375,-3.62890625,0.255859375,2.759765625,-2.1953125,0.0,180.0,360.0
3855964,,,,,,,,-0.30859375,-3.83984375,-3.62890625,-1.181640625,2.041015625,-1.9921875,0.0,180.0,360.0
3855965,,,,,,,,-3.07421875,-2.47265625,0.359375,-1.181640625,2.041015625,-1.9921875,0.0,180.0,360.0
3855966,,,,,,,,-3.07421875,-2.47265625,0.359375,-0.0625,2.169921875,-1.771484375,0.0,180.0,360.0
3855967,,,,,,,,-3.07421875,-2.47265625,0.359375,-0.11328125,2.39453125,-1.392578125,0.0,180.0,360.0
3855968,,,,,,,,-4.73828125,5.46484375,-2.62890625,-0.11328125,2.39453125,-1.392578125,0.0,180.0,360.0
3855969,,,,,,,,-4.73828125,5.46484375,-2.62890625,-0.453125,1.373046875,-0.81640625,0.0,180.0,360.0
3855970,36.0129965,129.32006616666666,132.17329976416593,66.18817863642329,3.4000000000000004,229.0,,-6.06640625,10.26953125,-2.8046875,-0.453125,1.373046875,-0.81640625,0.0,180.0,360.0
3855971,,,,,,,,-6.06640625,10.26953125,-2.8046875,-0.26171875,0.087890625,-0.5546875,0.0,180.0,360.0
3855972,,,,,,,,-6.12109375,12.09375,-1.41015625,-0.26171875,0.087890625,-0.5546875,0.0,180.0,360.0
3855973,,,,,,,,-6.12109375,12.09375,-1.41015625,-0.474609375,-0.1328125,-0.390625,0.0,180.0,360.0
3855974,,,,,,,,-6.12109375,12.09375,-1.41015625,-0.474609375,-0.1328125,-0.390625,0.0,180.0,360.0
3855975,,,,,,,,-6.12109375,12.09375,-1.41015625,-0.30078125,-0.255859375,-0.111328125,0.0,180.0,360.0
3855976,,,,,,,,-5.08203125,6.30078125,-1.875,-0.30078125,-0.255859375,-0.111328125,0.0,180.0,360.0
3855977,,,,,,,,-5.08203125,6.30078125,-1.875,0.169921875,-1.064453125,-0.095703125,0.0,180.0,360.0
3855978,,,,,,,,-5.08203125,6.30078125,-1.875,0.482421875,-0.830078125,-0.361328125,0.0,180.0,360.0
3855979,,,,,,,,-2.18359375,7.10546875,-1.71484375,0.482421875,-0.830078125,-0.361328125,0.0,180.0,360.0
3855980,36.01299483333333,129.32006466666664,132.03807920464448,66.00324453405995,3.1,227.0,,-2.18359375,7.10546875,-1.71484375,0.58203125,-0.21875,-0.421875,0.0,180.0,360.0
3855981,,,,,,,,0.3515625,10.91796875,-2.55859375,0.58203125,-0.21875,-0.421875,0.0,180.0,360.0
3855982,,,,,,,,0.3515625,10.91796875,-2.55859375,0.150390625,-0.54296875,-0.2578125,0.0,180.0,360.0
3855983,,,,,,,,-1.375,11.27734375,-2.875,0.150390625,-0.54296875,-0.2578125,0.0,180.0,360.0
3855984,,,,,,,,-1.375,11.27734375,-2.875,-1.6171875,-1.2578125,-0.392578125,0.0,180.0,360.0
3855985,,,,,,,,4.421875,-17.453125,3.37890625,-1.6171875,-1.2578125,-0.392578125,0.0,180.0,360.0
3855986,,,,,,,,4.421875,-17.453125,3.37890625,-0.259765625,-1.078125,-0.03125,0.0,180.0,360.0
3855987,,,,,,,,4.421875,-17.453125,3.37890625,3.435546875,-0.646484375,-0.5,0.0,180.0,360.0
3855988,,,,,,,,3.29296875,-3.82421875,4.65234375,3.435546875,-0.646484375,-0.5,0.0,180.0,360.0
3855989,,,,,,,,3.29296875,-3.82421875,4.65234375,-0.052734375,-3.27734375,0.818359375,0.0,180.0,360.0
3855990,36.01299133333334,129.3200585,131.48216684229251,65.61487885102065,3.5,230.0,,-10.0703125,-8.60546875,2.51953125,-0.052734375,-3.27734375,0.818359375,0.0,180.0,360.0
3855991,,,,,,,,-10.0703125,-8.60546875,2.51953125,0.58203125,-2.5390625,1.494140625,0.0,180.0,360.0
3855992,,,,,,,,-1.75,-16.51953125,3.99609375,0.58203125,-2.5390625,1.494140625,0.0,180.0,360.0
3855993,,,,,,,,-1.75,-16.51953125,3.99609375,0.58203125,-2.5390625,1.494140625,0.0,180.0,360.0
3855994,,,,,,,,-1.75,-16.51953125,3.99609375,-0.02734375,-2.720703125,2.046875,0.0,180.0,360.0
3855995,,,,,,,,1.36328125,-7.87109375,0.42578125,-0.02734375,-2.720703125,2.046875,0.0,180.0,360.0
3855996,,,,,,,,1.36328125,-7.87109375,0.42578125,-0.197265625,-2.205078125,1.796875,0.0,180.0,360.0
3855997,,,,,,,,1.796875,-4.08203125,-1.03515625,-0.197265625,-2.205078125,1.796875,0.0,180.0,360.0
3855998,,,,,,,,1.796875,-4.08203125,-1.03515625,-0.06640625,-1.583984375,1.33984375,0.0,180.0,360.0
3855999,,,,,,,,3.4296875,-0.18359375,-1.69921875,-0.06640625,-1.583984375,1.33984375,0.0,180.0,360.0
3856000,36.012988,129.32005316666667,131.00137823937374,65.24500752907592,3.4000000000000004,231.0,123.0,3.4296875,-0.18359375,-1.69921875,-0.06640625,-1.583984375,1.33984375,0.0,180.0,360.0
3856001,,,,,,,,3.4296875,-0.18359375,-1.69921875,-0.06640625,-1.583984375,1.33984375,0.0,180.0,360.0
3856002,,,,,,,,3.4296875,-0.18359375,-1.69921875,-0.06640625,-1.583984375,1.33984375,0.0,180.0,360.0
3856003,,,,,,,,3.4296875,-0.18359375,-1.69921875,0.25390625,-1.09765625,0.833984375,0.0,180.0,360.0
3856004,,,,,,,,4.390625,11.953125,-4.359375,0.25390625,-1.09765625,0.833984375,0.0,180.0,360.0
3856005,,,,,,,,4.390625,11.953125,-4.359375,1.908203125,-0.203125,-0.162109375,0.0,180.0,360.0
3856006,,,,,,,,4.390625,11.953125,-4.359375,-1.236328125,2.400390625,-0.681640625,0.0,180.0,360.0
3856007,,,,,,,,8.453125,-12.87890625,-0.26171875,-1.236328125,2.400390625,-0.681640625,0.0,180.0,360.0
3856008,,,,,,,,8.453125,-12.87890625,-0.26171875,0.439453125,2.96875,-1.544921875,0.0,180.0,360.0
3856009,,,,,,,,8.515625,-17.10546875,5.3203125,0.439453125,2.96875,-1.544921875,0.0,180.0,360.0
3856010,36.01298416666667,129.320048,130.5356152380666,64.81965683806956,3.2,230.0,,8.515625,-17.10546875,5.3203125,-0.0625,3.08984375,-1.892578125,0.0,180.0,360.0
3856011,,,,,,,,-1.4921875,-8.6484375,-0.24609375,-0.0625,3.08984375,-1.892578125,0.0,180.0,360.0
3856012,,,,,,,,-1.4921875,-8.6484375,-0.24609375,-0.373046875,2.83984375,-1.826171875,0.0,180.0,360.0
3856013,,,,,,,,-1.4921875,-8.6484375,-0.24609375,-0.34765625,2.599609375,-1.529296875,0.0,180.0,360.0
3856014,,,,,,,,-2.60546875,-1.8515625,-0.03515625,-0.34765625,2.599609375,-1.529296875,0.0,180.0,360.0
3856015,,,,,,,,-2.60546875,-1.8515625,-0.03515625,-0.3203125,2.435546875,-1.232421875,0.0,180.0,360.0
3856016,,,,,,,,-4.00390625,2.39453125,-1.22265625,-0.3203125,2.435546875,-1.232421875,0.0,180.0,360.0
3856017,,,,,,,,-4.00390625,2.39453125,-1.22265625,-0.228515625,2.224609375,-0.904296875,0.0,180.0,360.0
3856018,,,,,,,,-4.6015625,6.09375,-2.47265625,-0.228515625,2.224609375,-0.904296875,0.0,180.0,360.0
3856019,,,,,,,,-4.6015625,6.09375,-2.47265625,-0.2265625,0.84765625,-0.626953125,0.0,180.0,360.0
3856020,36.01298216666667,129.320046,130.35532071922705,64.59773567723931,3.2,227.0,,-5.90234375,12.9375,-2.6484375,-0.2265625,0.84765625,-0.626953125,0.0,180.0,360.0
3856021,,,,,,,,-5.90234375,12.9375,-2.6484375,-0.640625,0.0703125,-0.275390625,0.0,180.0,360.0
3856022,,,,,,,,-3.515625,11.05859375,-4.31640625,-0.640625,0.0703125,-0.275390625,0.0,180.0,360.0
3856023,,,,,,,,-3.515625,11.05859375,-4.31640625,-0.5390625,-0.01953125,-0.0703125,0.0,180.0,360.0
3856024,,,,,,,,-3.515625,11.05859375,-4.31640625,-0.099609375,-0.369140625,-0.2265625,0.0,180.0,360.0
3856025,,,,,,,,-4.54296875,8.2734375,-2.94140625,-0.099609375,-0.369140625,-0.2265625,0.0,180.0,360.0
3856026,,,,,,,,-4.54296875,8.2734375,-2.94140625,0.173828125,0.23828125,-0.55078125,0.0,180.0,360.0
3856027,,,,,,,,0.859375,6.80859375,-2.328125,0.173828125,0.23828125,-0.55078125,0.0,180.0,360.0
3856028,,,,,,,,0.859375,6.80859375,-2.328125,0.537109375,0.533203125,-0.677734375,0.0,180.0,360.0
3856029,,,,,,,,1.23828125,8.5234375,-1.9609375,0.537109375,0.533203125,-0.677734375,0.0,180.0,360.0
3856030,36.012980166666665,129.32004333333333,130.11492691904382,64.37581363029062,3.2,226.0,,1.23828125,8.5234375,-1.9609375,0.626953125,0.2578125,-0.6796875,0.0,180.0,360.0
3856031,,,,,,,,-1.53515625,10.26171875,-2.9765625,0.626953125,0.2578125,-0.6796875,0.0,180.0,360.0
3856032,,,,,,,,-1.53515625,10.26171875,-2.9765625,0.4921875,-0.171875,-0.55859375,0.0,180.0,360.0
3856033,,,,,,,,-1.53515625,10.26171875,-2.9765625,0.4921875,-0.171875,-0.55859375,0.0,180.0,360.0
3856034,,,,,,,,-1.53515625,10.26171875,-2.9765625,-0.34375,-1.55078125,-0.3203125,0.0,180.0,360.0
3856035,,,,,,,,-0.546875,-7.76171875,-1.25390625,-0.34375,-1.55078125,-0.3203125,0.0,180.0,360.0
3856036,,,,,,,,-0.546875,-7.76171875,-1.25390625,-1.630859375,-0.8359375,-1.265625,0.0,180.0,360.0
3856037,,,,,,,,-0.546875,-7.76171875,-1.25390625,2.857421875,-0.841796875,0.65625,0.0,180.0,360.0
3856038,,,,,,,,5.80078125,-38.65625,15.578125,2.857421875,-0.841796875,0.65625,0.0,180.0,360.0
3856039,,,,,,,,5.80078125,-38.65625,15.578125,1.052734375,-2.298828125,0.1015625,0.0,180.0,360.0
3856040,36.01297816666667,129.32004,129.81443383106665,64.15389070209909,3.4000000000000004,228.0,,-4.671875,-5.90234375,1.5625,1.052734375,-2.298828125,0.1015625,0.0,180.0,360.0
3856041,,,,,,,,-4.671875,-5.90234375,1.5625,1.060546875,-2.921875,1.23828125,0.0,180.0,360.0
3856042,,,,,,,,1.12109375,-8.58984375,1.7265625,1.060546875,-2.921875,1.23828125,0.0,180.0,360.0
3856043,,,,,,,,1.12109375,-8.58984375,1.7265625,0.29296875,-2.673828125,1.677734375,0.0,180.0,360.0
3856044,,,,,,,,1.12109375,-8.58984375,1.7265625,-0.51171875,-2.8046875,1.974609375,0.0,180.0,360.0
3856045,,,,,,,,2.65625,-4.56640625,0.65625,-0.51171875,-2.8046875,1.974609375,0.0,180.0,360.0
3856046,,,,,,,,2.65625,-4.56640625,0.65625,0.130859375,-2.140625,1.734375,0.0,180.0,360.0
3856047,,,,,,,,2.60546875,-5.1171875,0.3828125,0.130859375,-2.140625,1.734375,0.0,180.0,360.0
3856048,,,,,,,,2.60546875,-5.1171875,0.3828125,0.181640625,-1.978515625,1.30859375,0.0,180.0,360.0
3856049,,,,,,,,2.76171875,0.015625,-1.26171875,0.181640625,-1.978515625,1.30859375,0.0,180.0,360.0
3856050,36.0129765,129.32003733333335,129.5740394600045,63.96895508453405,3.2,229.0,,2.76171875,0.015625,-1.26171875,-0.046875,-1.548828125,0.845703125,0.0,180.0,360.0
3856051,,,,,,,,4.31640625,7.10546875,-4.15234375,-0.046875,-1.548828125,0.845703125,0.0,180.0,360.0
3856052,,,,,,,,4.31640625,7.10546875,-4.15234375,-0.046875,-1.548828125,0.845703125,0.0,180.0,360.0
3856053,,,,,,,,4.31640625,7.10546875,-4.15234375,-0.1171875,-1.181640625,0.4921875,0.0,180.0,360.0
3856054,,,,,,,,2.171875,11.51171875,-5.390625,-0.1171875,-1.181640625,0.4921875,0.0,180.0,360.0
3856055,,,,,,,,2.171875,11.51171875,-5.390625,-0.32421875,-0.14453125,0.609375,0.0,180.0,360.0
3856056,,,,,,,,1.9140625,10.9453125,-6.30859375,-0.32421875,-0.14453125,0.609375,0.0,180.0,360.0
3856057,,,,,,,,1.9140625,10.9453125,-6.30859375,-0.25390625,1.05078125,0.44140625,0.0,180.0,360.0
3856058,,,,,,,,2.11328125,7.765625,-6.5234375,-0.25390625,1.05078125,0.44140625,0.0,180.0,360.0
3856059,,,,,,,,2.11328125,7.765625,-6.5234375,0.49609375,0.421875,0.77734375,0.0,180.0,360.0
3856060,36.012975,129.32003483333335,129.34866962523867,63.8025129020626,3.4000000000000004,230.0,,-1.015625,6.35546875,-2.5859375,0.49609375,0.421875,0.77734375,0.0,180.0,360.0
3856061,,,,,,,,-1.015625,6.35546875,-2.5859375,1.65234375,-0.734375,0.763671875,0.0,180.0,360.0
3856062,,,,,,,,-1.1640625,8.65234375,-1.40234375,1.65234375,-0.734375,0.763671875,0.0,180.0,360.0
3856063,,,,,,,,-1.1640625,8.65234375,-1.40234375,1.626953125,0.107421875,0.28515625,0.0,180.0,360.0
3856064,,,,,,,,-1.1640625,8.65234375,-1.40234375,-0.798828125,1.13671875,0.287109375,0.0,180.0,360.0
3856065,,,,,,,,1.71875,15.98046875,-1.66015625,-0.798828125,1.13671875,0.287109375,0.0,180.0,360.0
3856066,,,,,,,,1.71875,15.98046875,-1.66015625,-1.435546875,0.205078125,0.4453125,0.0,180.0,360.0
3856067,,,,,,,,-1.14453125,1.36328125,3.23046875,-1.435546875,0.205078125,0.4453125,0.0,180.0,360.0
3856068,,,,,,,,-1.14453125,1.36328125,3.23046875,0.123046875,-2.580078125,-0.0234375,0.0,180.0,360.0
3856069,,,,,,,,-5.53515625,-35.0390625,21.53125,0.123046875,-2.580078125,-0.0234375,0.0,180.0,360.0
3856070,36.01297316666667,129.32003166666667,129.06320104523843,63.59908342754636,3.4000000000000004,231.0,,-5.53515625,-35.0390625,21.53125,2.541015625,1.134765625,-0.580078125,0.0,180.0,360.0
3856071,,,,,,,,6.453125,0.8125,-2.15625,2.541015625,1.134765625,-0.580078125,0.0,180.0,360.0
3856072,,,,,,,,6.453125,0.8125,-2.15625,2.541015625,1.134765625,-0.580078125,0.0,180.0,360.0
3856073,,,,,,,,6.453125,0.8125,-2.15625,-1.1171875,3.076171875,-0.865234375,0.0,180.0,360.0
3856074,,,,,,,,7.4765625,-15.17578125,4.88671875,-1.1171875,3.076171875,-0.865234375,0.0,180.0,360.0
3856075,,,,,,,,7.4765625,-15.17578125,4.88671875,-0.4140625,2.87109375,-2.0234375,0.0,180.0,360.0
3856076,,,,,,,,2.40234375,-8.96875,1.26953125,-0.4140625,2.87109375,-2.0234375,0.0,180.0,360.0
3856077,,,,,,,,2.40234375,-8.96875,1.26953125,-0.693359375,2.373046875,-1.9765625,0.0,180.0,360.0
3856078,,,,,,,,-1.4375,-7.18359375,-0.51953125,-0.693359375,2.373046875,-1.9765625,0.0,180.0,360.0
3856079,,,,,,,,-1.4375,-7.18359375,-0.51953125,-0.13671875,2.69921875,-1.55078125,0.0,180.0,360.0
3856080,36.012971,129.32002833333334,128.762708175817,63.35866732934072,3.6,230.0,,-2.0390625,-5.55078125,0.93359375,-0.13671875,2.69921875,-1.55078125,0.0,180.0,360.0
3856081,,,,,,,,-2.0390625,-5.55078125,0.93359375,-0.544921875,2.5625,-0.978515625,0.0,180.0,360.0
3856082,,,,,,,,-2.0390625,-5.55078125,0.93359375,-0.544921875,2.5625,-0.978515625,0.0,180.0,360.0
3856083,,,,,,,,-2.0390625,-5.55078125,0.93359375,-0.662109375,2.353515625,-0.546875,0.0,180.0,360.0
3856084,,,,,,,,-5.0703125,10.9375,-2.71875,-0.662109375,2.353515625,-0.546875,0.0,180.0,360.0
3856085,,,,,,,,-5.0703125,10.9375,-2.71875,-0.181640625,1.30859375,-0.400390625,0.0,180.0,360.0
3856086,,,,,,,,-5.0703125,10.9375,-2.71875,-0.53125,0.671875,-0.341796875,0.0,180.0,360.0
3856087,,,,,,,,-3.81640625,12.15625,-4.86328125,-0.53125,0.671875,-0.341796875,0.0,180.0,360.0
3856088,,,,,,,,-3.81640625,12.15625,-4.86328125,-0.90234375,0.25,-0.185546875,0.0,180.0,360.0
3856089,,,,,,,,-3.8984375,7.65234375,-4.15234375,-0.90234375,0.25,-0.185546875,0.0,180.0,360.0
3856090,36.012969500000004,129.32002633333335,128.58241277286464,63.19222582670324,3.1,229.0,,-3.8984375,7.65234375,-4.15234375,0.05078125,-0.205078125,-0.310546875,0.0,180.0,360.0
3856091,,,,,,,,-4.07421875,4.0625,-2.7734375,0.05078125,-0.205078125,-0.310546875,0.0,180.0,360.0
3856092,,,,,,,,-4.07421875,4.0625,-2.7734375,0.05078125,-0.205078125,-0.310546875,0.0,180.0,360.0
3856093,,,,,,,,-4.07421875,4.0625,-2.7734375,1.48828125,0.376953125,-0.861328125,0.0,180.0,360.0
3856094,,,,,,,,0.91015625,12.71875,-1.59765625,1.48828125,0.376953125,-0.861328125,0.0,180.0,360.0
3856095,,,,,,,,0.91015625,12.71875,-1.59765625,0.130859375,0.15625,-0.693359375,0.0,180.0,360.0
3856096,,,,,,,,-1.203125,13.6796875,-2.0078125,0.130859375,0.15625,-0.693359375,0.0,180.0,360.0
3856097,,,,,,,,-1.203125,13.6796875,-2.0078125,-0.3671875,-0.34375,-0.5,0.0,180.0,360.0
3856098,,,,,,,,-2.19921875,11.48046875,-3.1484375,-0.3671875,-0.34375,-0.5,0.0,180.0,360.0
3856099,,,,,,,,-2.19921875,11.48046875,-3.1484375,-1.283203125,-1.53125,-0.4140625,0.0,180.0,360.0
3856100,36.01296633333333,129.3200205,128.05654917870442,62.840847214414914,3.4000000000000004,232.0,123.0,-3.6640625,8.4296875,0.5078125,-1.283203125,-1.53125,-0.4140625,0.0,180.0,360.0
3856101,,,,,,,,-3.6640625,8.4296875,0.5078125,-1.283203125,-1.53125,-0.4140625,0.0,180.0,360.0
3856102,,,,,,,,-3.6640625,8.4296875,0.5078125,-1.44140625,-0.36328125,-0.21875,0.0,180.0,360.0
3856103,,,,,,,,-3.6640625,8.4296875,0.5078125,-0.20703125,-1.873046875,1.447265625,0.0,180.0,360.0
3856104,,,,,,,,3.8125,2.375,-1.6796875,-0.20703125,-1.873046875,1.447265625,0.0,180.0,360.0
3856105,,,,,,,,3.8125,2.375,-1.6796875,0.140625,-1.60546875,0.580078125,0.0,180.0,360.0
3856106,,,,,,,,3.8125,2.375,-1.6796875,-0.005859375,-1.33203125,0.412109375,0.0,180.0,360.0
3856107,,,,,,,,2.41796875,11.0546875,-3.6484375,-0.005859375,-1.33203125,0.412109375,0.0,180.0,360.0
3856108,,,,,,,,2.41796875,11.0546875,-3.6484375,0.05078125,-1.265625,0.484375,0.0,180.0,360.0
3856109,,,,,,,,2.41796875,11.0546875,-3.6484375,0.05078125,-1.265625,0.484375,0.0,180.0,360.0
3856110,36.0129635,129.3200155,127.60580911913945,62.526456139217984,3.2,232.0,,2.41796875,11.0546875,-3.6484375,-0.42578125,-0.984375,0.517578125,0.0,180.0,360.0
3856111,,,,,,,,1.92578125,9.625,-5.5703125,-0.42578125,-0.984375,0.517578125,0.0,180.0,360.0
3856112,,,,,,,,1.92578125,9.625,-5.5703125,-0.466796875,-0.205078125,0.384765625,0.0,180.0,360.0
3856113,,,,,,,,1.92578125,9.625,-5.5703125,-0.052734375,0.466796875,0.46875,0.0,180.0,360.0
3856114,,,,,,,,1.8515625,7.2421875,-3.32421875,-0.052734375,0.466796875,0.46875,0.0,180.0,360.0
3856115,,,,,,,,1.8515625,7.2421875,-3.32421875,0.6484375,0.455078125,0.6640625,0.0,180.0,360.0
3856116,,,,,,,,0.109375,8.5390625,-1.515625,0.6484375,0.455078125,0.6640625,0.0,180.0,360.0
3856117,,,,,,,,0.109375,8.5390625,-1.515625,1.294921875,0.208984375,0.45703125,0.0,180.0,360.0
3856118,,,,,,,,-0.65234375,13.29296875,0.1875,1.294921875,0.208984375,0.45703125,0.0,180.0,360.0
3856119,,,,,,,,-0.65234375,13.29296875,0.1875,0.01953125,0.6640625,0.3359375,0.0,180.0,360.0
3856120,36.01296183333333,129.32001200000002,127.2902905469538,62.34151949270556,3.3000000000000003,233.0,,-0.65234375,13.29296875,0.1875,-1.11328125,0.912109375,0.255859375,0.0,180.0,360.0
3856121,,,,,,,,1.265625,9.53125,0.03515625,-1.11328125,0.912109375,0.255859375,0.0,180.0,360.0
3856122,,,,,,,,1.265625,9.53125,0.03515625,-1.4609375,0.296875,0.287109375,0.0,180.0,360.0
3856123,,,,,,,,0.9453125,1.48828125,0.3984375,-1.4609375,0.296875,0.287109375,0.0,180.0,360.0
3856124,,,,,,,,0.9453125,1.48828125,0.3984375,-0.849609375,-1.64453125,0.25390625,0.0,180.0,360.0
3856125,,,,,,,,-7.5625,-38.6328125,20.1640625,-0.849609375,-1.64453125,0.25390625,0.0,180.0,360.0
3856126,,,,,,,,-7.5625,-38.6328125,20.1640625,2.494140625,1.689453125,-0.234375,0.0,180.0,360.0
3856127,,,,,,,,7.74609375,-2.3515625,-4.98046875,2.494140625,1.689453125,-0.234375,0.0,180.0,360.0
3856128,,,,,,,,7.74609375,-2.3515625,-4.98046875,-1.482421875,3.51953125,-0.82421875,0.0,180.0,360.0
3856129,,,,,,,,7.74609375,-2.3515625,-4.98046875,-1.482421875,3.51953125,-0.82421875,0.0,180.0,360.0
3856130,36.01295966666667,129.32000933333333,127.04989687289897,62.10110432469728,3.4000000000000004,230.0,,7.74609375,-2.3515625,-4.98046875,1.33203125,2.96875,-1.59375,0.0,180.0,360.0
3856131,,,,,,,,3.46484375,-6.53515625,-0.62109375,1.33203125,2.96875,-1.59375,0.0,180.0,360.0
3856132,,,,,,,,3.46484375,-6.53515625,-0.62109375,-0.470703125,2.7109375,-2.041015625,0.0,180.0,360.0
3856133,,,,,,,,3.46484375,-6.53515625,-0.62109375,-0.658203125,1.861328125,-1.712890625,0.0,180.0,360.0
3856134,,,,,,,,-2.13671875,-4.21875,-2.7734375,-0.658203125,1.861328125,-1.712890625,0.0,180.0,360.0
3856135,,,,,,,,-2.13671875,-4.21875,-2.7734375,0.376953125,2.6875,-1.59375,0.0,180.0,360.0
3856136,,,,,,,,-4.3359375,0.64453125,0.16015625,0.376953125,2.6875,-1.59375,0.0,180.0,360.0
3856137,,,,,,,,-4.3359375,0.64453125,0.16015625,-0.505859375,2.384765625,-1.046875,0.0,180.0,360.0
3856138,,,,,,,,-7.19140625,10.0,-1.92578125,-0.505859375,2.384765625,-1.046875,0.0,180.0,360.0
3856139,,,,,,,,-7.19140625,10.0,-1.92578125,-0.328125,0.87890625,-0.423828125,0.0,180.0,360.0
3856140,36.012958499999996,129.32000716666667,126.85457605274883,61.97164905552933,3.0,231.0,,-7.19140625,10.0,-1.92578125,-0.001953125,-0.015625,-0.294921875,0.0,180.0,360.0
3856141,,,,,,,,-5.4296875,14.65625,-2.28515625,-0.001953125,-0.015625,-0.294921875,0.0,180.0,360.0
3856142,,,,,,,,-5.4296875,14.65625,-2.28515625,-0.580078125,-0.16015625,-0.05078125,0.0,180.0,360.0
3856143,,,,,,,,-5.57421875,12.63671875,-4.125,-0.580078125,-0.16015625,-0.05078125,0.0,180.0,360.0
3856144,,,,,,,,-5.57421875,12.63671875,-4.125,-0.513671875,-0.634765625,0.115234375,0.0,180.0,360.0
3856145,,,,,,,,-6.08984375,8.98828125,-2.59765625,-0.513671875,-0.634765625,0.115234375,0.0,180.0,360.0
3856146,,,,,,,,-6.08984375,8.98828125,-2.59765625,-0.248046875,-0.939453125,-0.12109375,0.0,180.0,360.0
3856147,,,,,,,,-4.84765625,6.59765625,-1.69140625,-0.248046875,-0.939453125,-0.12109375,0.0,180.0,360.0
3856148,,,,,,,,-4.84765625,6.59765625,-1.69140625,0.197265625,-0.3359375,-0.423828125,0.0,180.0,360.0
3856149,,,,,,,,-4.84765625,6.59765625,-1.69140625,0.197265625,-0.3359375,-0.423828125,0.0,180.0,360.0
3856150,36.012957666666665,129.32000516666668,126.67427951829372,61.8791804188321,2.7,232.0,,-4.84765625,6.59765625,-1.69140625,0.38671875,-0.099609375,-0.482421875,0.0,180.0,360.0
3856151,,,,,,,,-1.28125,12.17578125,-3.30078125,0.38671875,-0.099609375,-0.482421875,0.0,180.0,360.0
3856152,,,,,,,,-1.28125,12.17578125,-3.30078125,0.169921875,-0.203125,-0.376953125,0.0,180.0,360.0
3856153,,,,,,,,-2.36328125,10.48828125,-2.2890625,0.169921875,-0.203125,-0.376953125,0.0,180.0,360.0
3856154,,,,,,,,-2.36328125,10.48828125,-2.2890625,-0.609375,-0.83203125,-0.220703125,0.0,180.0,360.0
3856155,,,,,,,,-2.36328125,10.48828125,-2.2890625,-2.421875,-1.384765625,-1.330078125,0.0,180.0,360.0
3856156,,,,,,,,4.69921875,-22.96875,4.07421875,-2.421875,-1.384765625,-1.330078125,0.0,180.0,360.0
3856157,,,,,,,,4.69921875,-22.96875,4.07421875,3.84765625,0.185546875,0.310546875,0.0,180.0,360.0
3856158,,,,,,,,3.015625,-2.14453125,2.93359375,3.84765625,0.185546875,0.310546875,0.0,180.0,360.0
3856159,,,,,,,,3.015625,-2.14453125,2.93359375,0.9765625,-1.763671875,-0.033203125,0.0,180.0,360.0
3856160,36.01295616666666,129.32000250000002,126.43388475254933,61.71273809426795,2.9000000000000004,234.0,,3.015625,-2.14453125,2.93359375,1.0234375,-2.2421875,0.8359375,0.0,180.0,360.0
3856161,,,,,,,,-11.19140625,-10.98046875,4.27734375,1.0234375,-2.2421875,0.8359375,0.0,180.0,360.0
3856162,,,,,,,,-11.19140625,-10.98046875,4.27734375,0.2578125,-2.5078125,1.505859375,0.0,180.0,360.0
3856163,,,,,,,,0.48046875,-5.6875,2.13671875,0.2578125,-2.5078125,1.505859375,0.0,180.0,360.0
3856164,,,,,,,,0.48046875,-5.6875,2.13671875,0.162109375,-2.673828125,1.849609375,0.0,180.0,360.0
3856165,,,,,,,,0.93359375,-6.4296875,2.52734375,0.162109375,-2.673828125,1.849609375,0.0,180.0,360.0
3856166,,,,,,,,0.93359375,-6.4296875,2.52734375,-0.291015625,-2.376953125,1.79296875,0.0,180.0,360.0
3856167,,,,,,,,1.11328125,-4.59375,-0.16796875,-0.291015625,-2.376953125,1.79296875,0.0,180.0,360.0
3856168,,,,,,,,1.11328125,-4.59375,-0.16796875,-0.41796875,-1.90625,1.48046875,0.0,180.0,360.0
3856169,,,,,,,,1.11328125,-4.59375,-0.16796875,-0.41796875,-1.90625,1.48046875,0.0,180.0,360.0
3856170,36.01295483333333,129.31999983333333,126.19348970968215,61.56478898354063,2.9000000000000004,235.0,,1.11328125,-4.59375,-0.16796875,-0.2109375,-1.359375,0.958984375,0.0,180.0,360.0
3856171,,,,,,,,4.69140625,7.765625,-2.7734375,-0.2109375,-1.359375,0.958984375,0.0,180.0,360.0
3856172,,,,,,,,4.69140625,7.765625,-2.7734375,-0.1484375,-0.87890625,0.53515625,0.0,180.0,360.0
3856173,,,,,,,,4.69140625,7.765625,-2.7734375,-0.515625,-0.736328125,0.583984375,0.0,180.0,360.0
3856174,,,,,,,,3.4296875,10.79296875,-3.73828125,-0.515625,-0.736328125,0.583984375,0.0,180.0,360.0
3856175,,,,,,,,3.4296875,10.79296875,-3.73828125,-0.9921875,0.158203125,0.40234375,0.0,180.0,360.0
3856176,,,,,,,,1.8203125,11.421875,-5.55859375,-0.9921875,0.158203125,0.40234375,0.0,180.0,360.0
3856177,,,,,,,,1.8203125,11.421875,-5.55859375,-0.3671875,0.734375,0.181640625,0.0,180.0,360.0
3856178,,,,,,,,-0.0546875,5.9921875,-1.21875,-0.3671875,0.734375,0.181640625,0.0,180.0,360.0
3856179,,,,,,,,-0.0546875,5.9921875,-1.21875,1.0390625,-0.095703125,0.38671875,0.0,180.0,360.0
3856180,36.01295316666666,129.31999766666667,125.99816966055954,61.379854112276085,3.1,232.0,,-0.0546875,5.9921875,-1.21875,1.0390625,-0.095703125,0.38671875,0.0,180.0,360.0
3856181,,,,,,,,-0.0546875,5.9921875,-1.21875,1.654296875,-0.60546875,0.3984375,0.0,180.0,360.0
3856182,,,,,,,,-1.359375,10.625,0.05859375,1.654296875,-0.60546875,0.3984375,0.0,180.0,360.0
3856183,,,,,,,,-1.359375,10.625,0.05859375,0.603515625,0.2421875,0.255859375,0.0,180.0,360.0
3856184,,,,,,,,-1.359375,10.625,0.05859375,-0.03125,0.58984375,0.2265625,0.0,180.0,360.0
3856185,,,,,,,,0.59375,12.5078125,0.09375,-0.03125,0.58984375,0.2265625,0.0,180.0,360.0
3856186,,,,,,,,0.59375,12.5078125,0.09375,-0.4921875,0.146484375,0.4140625,0.0,180.0,360.0
3856187,,,,,,,,-0.0078125,8.8671875,0.171875,-0.4921875,0.146484375,0.4140625,0.0,180.0,360.0
3856188,,,,,,,,-0.0078125,8.8671875,0.171875,-0.591796875,-1.447265625,0.455078125,0.0,180.0,360.0
3856189,,,,,,,,-3.45703125,-38.59375,19.05859375,-0.591796875,-1.447265625,0.455078125,0.0,180.0,360.0
3856190,36.012951666666666,129.3199948333333,125.74275004266707,61.21341159081543,3.2,231.0,,-3.45703125,-38.59375,19.05859375,1.884765625,1.263671875,-0.30859375,0.0,180.0,360.0
3856191,,,,,,,,-3.45703125,-38.59375,19.05859375,-0.640625,1.404296875,-0.37890625,0.0,180.0,360.0
3856192,,,,,,,,5.37890625,-9.55859375,2.09765625,-0.640625,1.404296875,-0.37890625,0.0,180.0,360.0
3856193,,,,,,,,5.37890625,-9.55859375,2.09765625,-0.380859375,2.791015625,-0.884765625,0.0,180.0,360.0
3856194,,,,,,,,8.91796875,-11.21484375,1.5078125,-0.380859375,2.791015625,-0.884765625,0.0,180.0,360.0
3856195,,,,,,,,8.91796875,-11.21484375,1.5078125,-0.431640625,2.87890625,-1.435546875,0.0,180.0,360.0
3856196,,,,,,,,1.34765625,-9.50390625,2.71875,-0.431640625,2.87890625,-1.435546875,0.0,180.0,360.0
3856197,,,,,,,,1.34765625,-9.50390625,2.71875,-0.353515625,2.935546875,-1.66796875,0.0,180.0,360.0
3856198,,,,,,,,0.9921875,-6.4609375,-0.02734375,-0.353515625,2.935546875,-1.66796875,0.0,180.0,360.0
3856199,,,,,,,,0.9921875,-6.4609375,-0.02734375,-0.3203125,2.6953125,-1.609375,0.0,180.0,360.0
3856200,36.0129485,129.31999016666666,125.32205999185057,60.862034651811996,2.8000000000000003,231.0,123.0,0.9921875,-6.4609375,-0.02734375,-0.19140625,2.201171875,-1.23046875,0.0,180.0,360.0
3856201,,,,,,,,0.9921875,-6.4609375,-0.02734375,-0.19140625,2.201171875,-1.23046875,0.0,180.0,360.0
3856202,,,,,,,,-4.828125,6.1171875,-1.546875,-0.19140625,2.201171875,-1.23046875,0.0,180.0,360.0
3856203,,,,,,,,-4.828125,6.1171875,-1.546875,-1.208984375,-0.990234375,-0.328125,0.0,180.0,360.0
3856204,,,,,,,,-4.828125,6.1171875,-1.546875,-2.4453125,-1.056640625,-0.509765625,0.0,180.0,360.0
3856205,,,,,,,,-4.23046875,-10.8828125,-1.6796875,-2.4453125,-1.056640625,-0.509765625,0.0,180.0,360.0
3856206,,,,,,,,-4.23046875,-10.8828125,-1.6796875,-0.70703125,-1.93359375,0.501953125,0.0,180.0,360.0
3856207,,,,,,,,-4.23046875,-10.8828125,-1.6796875,-0.70703125,-1.93359375,0.501953125,0.0,180.0,360.0
3856208,,,,,,,,-4.23046875,-10.8828125,-1.6796875,3.05859375,1.0,-0.75390625,0.0,180.0,360.0
3856209,,,,,,,,-5.2109375,-9.2265625,1.41796875,3.05859375,1.0,-0.75390625,0.0,180.0,360.0
3856210,36.01294566666666,129.3199855,124.90136937975157,60.547644143552134,2.9000000000000004,231.0,,-5.2109375,-9.2265625,1.41796875,0.650390625,-2.681640625,0.615234375,0.0,180.0,360.0
3856211,,,,,,,,-5.2109375,-9.2265625,1.41796875,0.396484375,-2.8125,1.01953125,0.0,180.0,360.0
3856212,,,,,,,,-0.875,-8.66015625,-2.19140625,0.396484375,-2.8125,1.01953125,0.0,180.0,360.0
3856213,,,,,,,,-0.875,-8.66015625,-2.19140625,0.68359375,-1.8203125,1.453125,0.0,180.0,360.0
3856214,,,,,,,,3.234375,-7.2578125,2.421875,0.68359375,-1.8203125,1.453125,0.0,180.0,360.0
3856215,,,,,,,,3.234375,-7.2578125,2.421875,0.49609375,-2.0859375,1.693359375,0.0,180.0,360.0
3856216,,,,,,,,1.30859375,-2.4140625,-1.97265625,0.49609375,-2.0859375,1.693359375,0.0,180.0,360.0
3856217,,,,,,,,1.30859375,-2.4140625,-1.97265625,0.384765625,-1.7890625,1.40234375,0.0,180.0,360.0
3856218,,,,,,,,1.30859375,-2.4140625,-1.97265625,0.50390625,-1.263671875,0.8828125,0.0,180.0,360.0
3856219,,,,,,,,4.28515625,5.8515625,-2.64453125,0.50390625,-1.263671875,0.8828125,0.0,180.0,360.0
3856220,36.012943,129.31998049999999,124.45062882280793,60.25174643829263,2.7,234.0,,4.28515625,5.8515625,-2.64453125,0.19140625,-0.74609375,0.359375,0.0,180.0,360.0
3856221,,,,,,,,3.765625,9.875,-3.63671875,0.19140625,-0.74609375,0.359375,0.0,180.0,360.0
3856222,,,,,,,,3.765625,9.875,-3.63671875,-0.25,-0.466796875,0.236328125,0.0,180.0,360.0
3856223,,,,,,,,2.9375,12.140625,-4.2890625,-0.25,-0.466796875,0.236328125,0.0,180.0,360.0
3856224,,,,,,,,2.9375,12.140625,-4.2890625,-0.5390625,-0.09375,0.23046875,0.0,180.0,360.0
3856225,,,,,,,,1.7734375,13.3203125,-4.33984375,-0.5390625,-0.09375,0.23046875,0.0,180.0,360.0
3856226,,,,,,,,1.7734375,13.3203125,-4.33984375,-0.3046875,-0.2421875,0.3203125,0.0,180.0,360.0
3856227,,,,,,,,4.01171875,7.38671875,-3.6171875,-0.3046875,-0.2421875,0.3203125,0.0,180.0,360.0
3856228,,,,,,,,4.01171875,7.38671875,-3.6171875,0.5859375,0.458984375,0.41796875,0.0,180.0,360.0
3856229,,,,,,,,4.01171875,7.38671875,-3.6171875,1.314453125,1.107421875,0.279296875,0.0,180.0,360.0
3856230,36.01294133333333,129.31997850000002,124.27033353763636,60.066811818342245,2.7,231.0,,2.859375,7.27734375,-3.94921875,1.314453125,1.107421875,0.279296875,0.0,180.0,360.0
3856231,,,,,,,,2.859375,7.27734375,-3.94921875,1.15625,0.6484375,0.19140625,0.0,180.0,360.0
3856232,,,,,,,,-0.82421875,12.046875,-2.53125,1.15625,0.6484375,0.19140625,0.0,180.0,360.0
3856233,,,,,,,,-0.82421875,12.046875,-2.53125,0.720703125,0.994140625,-0.025390625,0.0,180.0,360.0
3856234,,,,,,,,0.33984375,12.23828125,-1.8828125,0.720703125,0.994140625,-0.025390625,0.0,180.0,360.0
3856235,,,,,,,,0.33984375,12.23828125,-1.8828125,-0.494140625,1.24609375,-0.01171875,0.0,180.0,360.0
3856236,,,,,,,,-3.88671875,-0.390625,3.4921875,-0.494140625,1.24609375,-0.01171875,0.0,180.0,360.0
3856237,,,,,,,,-3.88671875,-0.390625,3.4921875,-1.787109375,-1.197265625,-0.0546875,0.0,180.0,360.0
3856238,,,,,,,,-3.88671875,-0.390625,3.4921875,1.37109375,1.013671875,-0.35546875,0.0,180.0,360.0
3856239,,,,,,,,1.125,-24.8203125,2.65625,1.37109375,1.013671875,-0.35546875,0.0,180.0,360.0
3856240,36.0129395,129.31997633333333,124.07501367406006,59.863383783337916,2.6,229.0,,1.125,-24.8203125,2.65625,0.923828125,2.05859375,-0.8046875,0.0,180.0,360.0
3856241,,,,,,,,5.078125,-7.84375,2.74609375,0.923828125,2.05859375,-0.8046875,0.0,180.0,360.0
3856242,,,,,,,,5.078125,-7.84375,2.74609375,-1.6015625,1.677734375,-0.703125,0.0,180.0,360.0
3856243,,,,,,,,4.09765625,-7.984375,5.18359375,-1.6015625,1.677734375,-0.703125,0.0,180.0,360.0
3856244,,,,,,,,4.09765625,-7.984375,5.18359375,-1.09765625,1.232421875,-0.970703125,0.0,180.0,360.0
3856245,,,,,,,,3.55078125,-7.23046875,1.55859375,-1.09765625,1.232421875,-0.970703125,0.0,180.0,360.0
3856246,,,,,,,,3.55078125,-7.23046875,1.55859375,-1.091796875,2.55078125,-0.9375,0.0,180.0,360.0
3856247,,,,,,,,-0.04296875,-4.1328125,-0.20703125,-1.091796875,2.55078125,-0.9375,0.0,180.0,360.0
3856248,,,,,,,,-0.04296875,-4.1328125,-0.20703125,-0.841796875,2.49609375,-0.75390625,0.0,180.0,360.0
3856249,,,,,,,,-0.04296875,-4.1328125,-0.20703125,-0.751953125,1.669921875,-0.462890625,0.0,180.0,360.0
3856250,36.01293783333333,129.3199745,123.90974319690042,59.678449382978606,2.6,225.0,,-2.81640625,0.2265625,-1.27734375,-0.751953125,1.669921875,-0.462890625,0.0,180.0,360.0
3856251,,,,,,,,-2.81640625,0.2265625,-1.27734375,-0.640625,1.396484375,-0.240234375,0.0,180.0,360.0
3856252,,,,,,,,-3.3828125,7.32421875,-2.0546875,-0.640625,1.396484375,-0.240234375,0.0,180.0,360.0
3856253,,,,,,,,-3.3828125,7.32421875,-2.0546875,-0.29296875,1.291015625,-0.23046875,0.0,180.0,360.0
3856254,,,,,,,,-3.421875,10.45703125,-2.484375,-0.29296875,1.291015625,-0.23046875,0.0,180.0,360.0
3856255,,,,,,,,-3.421875,10.45703125,-2.484375,0.134765625,1.138671875,-0.353515625,0.0,180.0,360.0
3856256,,,,,,,,-5.703125,9.421875,-3.41796875,0.134765625,1.138671875,-0.353515625,0.0,180.0,360.0
3856257,,,,,,,,-5.703125,9.421875,-3.41796875,0.25390625,0.3984375,-0.4296875,0.0,180.0,360.0
3856258,,,,,,,,-5.703125,9.421875,-3.41796875,0.298828125,-0.3828125,-0.3046875,0.0,180.0,360.0
3856259,,,,,,,,-3.421875,7.546875,-2.2421875,0.298828125,-0.3828125,-0.3046875,0.0,180.0,360.0
3856260,36.01293616666667,129.31997199999998,123.68437340350718,59.493514139182686,2.9000000000000004,226.0,,-3.421875,7.546875,-2.2421875,0.615234375,-0.5234375,-0.212890625,0.0,180.0,360.0
3856261,,,,,,,,-1.9140625,8.1875,-1.31640625,0.615234375,-0.5234375,-0.212890625,0.0,180.0,360.0
3856262,,,,,,,,-1.9140625,8.1875,-1.31640625,0.97265625,-0.078125,-0.2734375,0.0,180.0,360.0
3856263,,,,,,,,-0.796875,9.6640625,-1.1484375,0.97265625,-0.078125,-0.2734375,0.0,180.0,360.0
3856264,,,,,,,,-0.796875,9.6640625,-1.1484375,0.837890625,-0.095703125,-0.3046875,0.0,180.0,360.0
3856265,,,,,,,,-0.890625,11.21875,-1.08984375,0.837890625,-0.095703125,-0.3046875,0.0,180.0,360.0
3856266,,,,,,,,-0.890625,11.21875,-1.08984375,0.26171875,-0.71875,-0.25390625,0.0,180.0,360.0
3856267,,,,,,,,-0.890625,11.21875,-1.08984375,0.26171875,-0.71875,-0.25390625,0.0,180.0,360.0
3856268,,,,,,,,-0.890625,11.21875,-1.08984375,-0.728515625,-0.75390625,-0.408203125,0.0,180.0,360.0
3856269,,,,,,,,-2.47265625,-4.05078125,-0.06640625,-0.728515625,-0.75390625,-0.408203125,0.0,180.0,360.0
3856270,36.01293416666667,129.31996866666665,123.38387998628531,59.27159143344038,3.2,228.0,,-2.47265625,-4.05078125,-0.06640625,-1.4375,0.373046875,-0.609375,0.0,180.0,360.0
3856271,,,,,,,,-2.47265625,-4.05078125,-0.06640625,3.9453125,0.396484375,0.171875,0.0,180.0,360.0
3856272,,,,,,,,17.1484375,-28.140625,18.44140625,3.9453125,0.396484375,0.171875,0.0,180.0,360.0
3856273,,,,,,,,17.1484375,-28.140625,18.44140625,1.630859375,-1.931640625,0.10546875,0.0,180.0,360.0
3856274,,,,,,,,-7.875,0.1328125,0.19921875,1.630859375,-1.931640625,0.10546875,0.0,180.0,360.0
3856275,,,,,,,,-7.875,0.1328125,0.19921875,0.10546875,-2.8359375,0.88671875,0.0,180.0,360.0
3856276,,,,,,,,-1.25,-13.421875,0.92578125,0.10546875,-2.8359375,0.88671875,0.0,180.0,360.0
3856277,,,,,,,,-1.25,-13.421875,0.92578125,0.10546875,-2.8359375,0.88671875,0.0,180.0,360.0
3856278,,,,,,,,-1.25,-13.421875,0.92578125,-0.431640625,-2.0234375,2.0859375,0.0,180.0,360.0
3856279,,,,,,,,1.73828125,-8.9296875,-0.8046875,-0.431640625,-2.0234375,2.0859375,0.0,180.0,360.0
3856280,36.012932666666664,129.31996566666666,123.11343543217852,59.10514877811631,3.1,231.0,,1.73828125,-8.9296875,-0.8046875,0.26953125,-1.513671875,1.640625,0.0,180.0,360.0
3856281,,,,,,,,3.6171875,-5.37890625,0.54296875,0.26953125,-1.513671875,1.640625,0.0,180.0,360.0
3856282,,,,,,,,3.6171875,-5.37890625,0.54296875,0.47265625,-1.439453125,1.1171875,0.0,180.0,360.0
3856283,,,,,,,,4.60546875,-0.69140625,-0.453125,0.47265625,-1.439453125,1.1171875,0.0,180.0,360.0
3856284,,,,,,,,4.60546875,-0.69140625,-0.453125,0.169921875,-1.595703125,0.80859375,0.0,180.0,360.0
3856285,,,,,,,,3.40625,2.86328125,-2.84375,0.169921875,-1.595703125,0.80859375,0.0,180.0,360.0
3856286,,,,,,,,3.40625,2.86328125,-2.84375,-0.142578125,-1.15234375,0.580078125,0.0,180.0,360.0
3856287,,,,,,,,3.40625,2.86328125,-2.84375,-0.142578125,-1.15234375,0.580078125,0.0,180.0,360.0
3856288,,,,,,,,3.40625,2.86328125,-2.84375,0.201171875,-0.83984375,0.384765625,0.0,180.0,360.0
3856289,,,,,,,,1.58203125,13.11328125,-4.60546875,0.201171875,-0.83984375,0.384765625,0.0,180.0,360.0
3856290,36.012930833333336,129.3199635,122.91811552263727,58.90172076931351,3.0,229.0,,1.58203125,13.11328125,-4.60546875,0.2578125,-0.904296875,0.484375,0.0,180.0,360.0
3856291,,,,,,,,1.58203125,13.11328125,-4.60546875,0.029296875,-0.150390625,0.4921875,0.0,180.0,360.0
3856292,,,,,,,,3.99609375,6.34765625,-5.2109375,0.029296875,-0.150390625,0.4921875,0.0,180.0,360.0
3856293,,,,,,,,3.99609375,6.34765625,-5.2109375,0.302734375,0.626953125,0.515625,0.0,180.0,360.0
3856294,,,,,,,,2.15234375,7.30078125,-4.23828125,0.302734375,0.626953125,0.515625,0.0,180.0,360.0
3856295,,,,,,,,2.15234375,7.30078125,-4.23828125,0.513671875,0.837890625,0.34765625,0.0,180.0,360.0
3856296,,,,,,,,-1.19921875,10.82421875,-1.16796875,0.513671875,0.837890625,0.34765625,0.0,180.0,360.0
3856297,,,,,,,,-1.19921875,10.82421875,-1.16796875,0.572265625,0.27734375,0.216796875,0.0,180.0,360.0
3856298,,,,,,,,-0.53125,12.56640625,-0.7734375,0.572265625,0.27734375,0.216796875,0.0,180.0,360.0
3856299,,,,,,,,-0.53125,12.56640625,-0.7734375,-0.07421875,0.732421875,0.078125,0.0,180.0,360.0
3856300,36.0129275,129.31995833333335,122.45235102242172,58.5318501300127,3.1,229.0,123.0,-0.53125,12.56640625,-0.7734375,-1.59375,1.21484375,0.2578125,0.0,180.0,360.0
3856301,,,,,,,,-0.53125,12.56640625,-0.7734375,-1.59375,1.21484375,0.2578125,0.0,180.0,360.0
3856302,,,,,,,,-3.421875,-12.359375,7.4609375,-1.59375,1.21484375,0.2578125,0.0,180.0,360.0
3856303,,,,,,,,-3.421875,-12.359375,7.4609375,1.02734375,-0.123046875,-0.40625,0.0,180.0,360.0
3856304,,,,,,,,-3.421875,-12.359375,7.4609375,0.7421875,-0.041015625,-0.34765625,0.0,180.0,360.0
3856305,,,,,,,,-2.34375,11.62890625,-0.3515625,0.7421875,-0.041015625,-0.34765625,0.0,180.0,360.0
3856306,,,,,,,,-2.34375,11.62890625,-0.3515625,0.19921875,-1.08984375,-0.154296875,0.0,180.0,360.0
3856307,,,,,,,,-4.4453125,5.62109375,-0.4453125,0.19921875,-1.08984375,-0.154296875,0.0,180.0,360.0
3856308,,,,,,,,-4.4453125,5.62109375,-0.4453125,-1.203125,-1.236328125,-0.517578125,0.0,180.0,360.0
3856309,,,,,,,,4.66796875,-19.8046875,2.16796875,-1.203125,-1.236328125,-0.517578125,0.0,180.0,360.0
3856310,36.012922,129.31995049999998,121.74619254203186,57.921564493616,3.2,228.0,,4.66796875,-19.8046875,2.16796875,0.470703125,-0.630859375,0.56640625,0.0,180.0,360.0
3856311,,,,,,,,4.66796875,-19.8046875,2.16796875,2.255859375,-0.6171875,-0.3515625,0.0,180.0,360.0
3856312,,,,,,,,5.00390625,-6.2265625,2.3359375,2.255859375,-0.6171875,-0.3515625,0.0,180.0,360.0
3856313,,,,,,,,5.00390625,-6.2265625,2.3359375,0.36328125,-2.802734375,0.9296875,0.0,180.0,360.0
3856314,,,,,,,,-9.72265625,-10.1328125,4.87109375,0.36328125,-2.802734375,0.9296875,0.0,180.0,360.0
3856315,,,,,,,,-9.72265625,-10.1328125,4.87109375,0.23828125,-2.43359375,1.404296875,0.0,180.0,360.0
3856316,,,,,,,,-1.09765625,-7.94921875,1.1328125,0.23828125,-2.43359375,1.404296875,0.0,180.0,360.0
3856317,,,,,,,,-1.09765625,-7.94921875,1.1328125,-0.025390625,-2.666015625,1.76953125,0.0,180.0,360.0
3856318,,,,,,,,0.98046875,-9.16796875,1.41796875,-0.025390625,-2.666015625,1.76953125,0.0,180.0,360.0
3856319,,,,,,,,0.98046875,-9.16796875,1.41796875,-0.025390625,-2.666015625,1.76953125,0.0,180.0,360.0
3856320,36.01291983333333,129.31994716666668,121.44569928217406,57.6811486459609,3.4000000000000004,229.0,,0.98046875,-9.16796875,1.41796875,-0.0078125,-2.115234375,1.658203125,0.0,180.0,360.0
3856321,,,,,,,,2.2578125,-2.5859375,-1.59375,-0.0078125,-2.115234375,1.658203125,0.0,180.0,360.0
3856322,,,,,,,,2.2578125,-2.5859375,-1.59375,-0.166015625,-1.666015625,1.3203125,0.0,180.0,360.0
3856323,,,,,,,,2.2578125,-2.5859375,-1.59375,-0.00390625,-1.33203125,0.998046875,0.0,180.0,360.0
3856324,,,,,,,,3.41796875,4.18359375,-2.77734375,-0.00390625,-1.33203125,0.998046875,0.0,180.0,360.0
3856325,,,,,,,,3.41796875,4.18359375,-2.77734375,0.0078125,-1.421875,0.79296875,0.0,180.0,360.0
3856326,,,,,,,,3.3359375,7.33984375,-3.34765625,0.0078125,-1.421875,0.79296875,0.0,180.0,360.0
3856327,,,,,,,,3.3359375,7.33984375,-3.34765625,-0.357421875,-0.99609375,0.771484375,0.0,180.0,360.0
3856328,,,,,,,,3.3359375,7.33984375,-3.34765625,-0.357421875,-0.99609375,0.771484375,0.0,180.0,360.0
3856329,,,,,,,,3.3359375,7.33984375,-3.34765625,-0.775390625,0.298828125,0.3828125,0.0,180.0,360.0
3856330,36.01291833333333,129.3199445,121.20530429989986,57.51470646645602,3.1,230.0,,4.05859375,7.0859375,-5.5390625,-0.775390625,0.298828125,0.3828125,0.0,180.0,360.0
3856331,,,,,,,,4.05859375,7.0859375,-5.5390625,-0.06640625,0.763671875,0.23828125,0.0,180.0,360.0
3856332,,,,,,,,4.05859375,7.0859375,-5.5390625,0.95703125,-0.072265625,0.482421875,0.0,180.0,360.0
3856333,,,,,,,,1.3515625,6.296875,-2.70703125,0.95703125,-0.072265625,0.482421875,0.0,180.0,360.0
3856334,,,,,,,,1.3515625,6.296875,-2.70703125,0.9765625,-0.552734375,0.439453125,0.0,180.0,360.0
3856335,,,,,,,,-2.04296875,9.67578125,1.6328125,0.9765625,-0.552734375,0.439453125,0.0,180.0,360.0
3856336,,,,,,,,-2.04296875,9.67578125,1.6328125,0.615234375,0.416015625,0.10546875,0.0,180.0,360.0
3856337,,,,,,,,0.21875,11.89453125,-1.3125,0.615234375,0.416015625,0.10546875,0.0,180.0,360.0
3856338,,,,,,,,0.21875,11.89453125,-1.3125,0.1015625,0.517578125,0.0234375,0.0,180.0,360.0
3856339,,,,,,,,0.671875,10.140625,-0.5078125,0.1015625,0.517578125,0.0234375,0.0,180.0,360.0
3856340,36.012914333333335,129.319939,120.70949100720145,57.0708626790037,3.3000000000000003,230.0,,0.671875,10.140625,-0.5078125,-0.765625,0.37890625,0.12109375,0.0,180.0,360.0
3856341,,,,,,,,0.671875,10.140625,-0.5078125,0.11328125,-0.73828125,-0.119140625,0.0,180.0,360.0
3856342,,,,,,,,-6.921875,-38.78515625,17.34375,0.11328125,-0.73828125,-0.119140625,0.0,180.0,360.0
3856343,,,,,,,,-6.921875,-38.78515625,17.34375,1.55078125,1.451171875,-0.240234375,0.0,180.0,360.0
3856344,,,,,,,,0.48828125,-13.06640625,7.375,1.55078125,1.451171875,-0.240234375,0.0,180.0,360.0
3856345,,,,,,,,0.48828125,-13.06640625,7.375,-0.71484375,1.84765625,-0.5703125,0.0,180.0,360.0
3856346,,,,,,,,5.3984375,-7.0234375,-0.75,-0.71484375,1.84765625,-0.5703125,0.0,180.0,360.0
3856347,,,,,,,,5.3984375,-7.0234375,-0.75,0.169921875,2.5078125,-1.3046875,0.0,180.0,360.0
3856348,,,,,,,,4.10546875,-12.73046875,3.10546875,0.169921875,2.5078125,-1.3046875,0.0,180.0,360.0
3856349,,,,,,,,4.10546875,-12.73046875,3.10546875,-0.318359375,2.572265625,-1.658203125,0.0,180.0,360.0
3856350,36.01291233333333,129.31993616666665,120.45407192480945,56.84894069323997,3.2,228.0,,4.10546875,-12.73046875,3.10546875,-0.318359375,2.572265625,-1.658203125,0.0,180.0,360.0
3856351,,,,,,,,4.10546875,-12.73046875,3.10546875,-0.494140625,2.365234375,-1.720703125,0.0,180.0,360.0
3856352,,,,,,,,-0.66015625,-4.2265625,-0.30859375,-0.494140625,2.365234375,-1.720703125,0.0,180.0,360.0
3856353,,,,,,,,-0.66015625,-4.2265625,-0.30859375,-0.3203125,2.1953125,-1.5625,0.0,180.0,360.0
3856354,,,,,,,,-0.66015625,-4.2265625,-0.30859375,-0.326171875,2.09375,-1.197265625,0.0,180.0,360.0
3856355,,,,,,,,-4.33203125,3.11328125,-2.33984375,-0.326171875,2.09375,-1.197265625,0.0,180.0,360.0
3856356,,,,,,,,-4.33203125,3.11328125,-2.33984375,0.09765625,1.541015625,-0.841796875,0.0,180.0,360.0
3856357,,,,,,,,-6.1171875,6.68359375,-2.41015625,0.09765625,1.541015625,-0.841796875,0.0,180.0,360.0
3856358,,,,,,,,-6.1171875,6.68359375,-2.41015625,0.1796875,0.392578125,-0.544921875,0.0,180.0,360.0
3856359,,,,,,,,-4.953125,13.04296875,-4.09375,0.1796875,0.392578125,-0.544921875,0.0,180.0,360.0
3856360,36.01291083333333,129.31993433333335,120.28880106147308,56.682499568178,2.9000000000000004,227.0,,-4.953125,13.04296875,-4.09375,-0.189453125,0.15625,-0.2578125,0.0,180.0,360.0
3856361,,,,,,,,-4.953125,13.04296875,-4.09375,-0.146484375,-0.130859375,-0.041015625,0.0,180.0,360.0
3856362,,,,,,,,-4.65625,9.3359375,-2.59375,-0.146484375,-0.130859375,-0.041015625,0.0,180.0,360.0
3856363,,,,,,,,-4.65625,9.3359375,-2.59375,0.0390625,-0.359375,-0.1484375,0.0,180.0,360.0
3856364,,,,,,,,-3.72265625,8.015625,-1.87890625,0.0390625,-0.359375,-0.1484375,0.0,180.0,360.0
3856365,,,,,,,,-3.72265625,8.015625,-1.87890625,0.326171875,-0.052734375,-0.40234375,0.0,180.0,360.0
3856366,,,,,,,,-1.09375,7.80859375,-2.4765625,0.326171875,-0.052734375,-0.40234375,0.0,180.0,360.0
3856367,,,,,,,,-1.09375,7.80859375,-2.4765625,0.326171875,-0.052734375,-0.40234375,0.0,180.0,360.0
3856368,,,,,,,,-1.09375,7.80859375,-2.4765625,0.3046875,-0.146484375,-0.4296875,0.0,180.0,360.0
3856369,,,,,,,,-1.3671875,11.37109375,-2.6328125,0.3046875,-0.146484375,-0.4296875,0.0,180.0,360.0
3856370,36.012909,129.3199316666667,120.04840653780573,56.47907100711712,3.1,229.0,,-1.3671875,11.37109375,-2.6328125,0.3046875,-0.146484375,-0.4296875,0.0,180.0,360.0
3856371,,,,,,,,-1.3671875,11.37109375,-2.6328125,-0.134765625,-0.626953125,-0.240234375,0.0,180.0,360.0
3856372,,,,,,,,-2.39453125,6.13671875,-0.80078125,-0.134765625,-0.626953125,-0.240234375,0.0,180.0,360.0
3856373,,,,,,,,-2.39453125,6.13671875,-0.80078125,-0.984375,-0.798828125,-0.48828125,0.0,180.0,360.0
3856374,,,,,,,,-2.39453125,6.13671875,-0.80078125,-0.314453125,-0.681640625,0.291015625,0.0,180.0,360.0
3856375,,,,,,,,8.21875,-37.31640625,19.1796875,-0.314453125,-0.681640625,0.291015625,0.0,180.0,360.0
3856376,,,,,,,,8.21875,-37.31640625,19.1796875,2.830078125,-0.333984375,-0.3828125,0.0,180.0,360.0
3856377,,,,,,,,7.31640625,-11.2734375,7.421875,2.830078125,-0.333984375,-0.3828125,0.0,180.0,360.0
3856378,,,,,,,,7.31640625,-11.2734375,7.421875,0.44921875,-2.73046875,0.634765625,0.0,180.0,360.0
3856379,,,,,,,,-4.2265625,-14.26953125,2.9921875,0.44921875,-2.73046875,0.634765625,0.0,180.0,360.0
3856380,36.01290733333334,129.31992833333334,119.74791242135137,56.29413483897892,3.2,232.0,,-4.2265625,-14.26953125,2.9921875,0.26953125,-2.478515625,1.248046875,0.0,180.0,360.0
3856381,,,,,,,,-4.2265625,-14.26953125,2.9921875,0.03515625,-2.63671875,1.740234375,0.0,180.0,360.0
3856382,,,,,,,,1.71875,-9.7421875,1.29296875,0.03515625,-2.63671875,1.740234375,0.0,180.0,360.0
3856383,,,,,,,,1.71875,-9.7421875,1.29296875,0.0,-2.349609375,1.87890625,0.0,180.0,360.0
3856384,,,,,,,,1.9140625,-8.375,-0.16796875,0.0,-2.349609375,1.87890625,0.0,180.0,360.0
3856385,,,,,,,,1.9140625,-8.375,-0.16796875,0.03125,-1.908203125,1.67578125,0.0,180.0,360.0
3856386,,,,,,,,1.765625,-4.94921875,-0.84765625,0.03125,-1.908203125,1.67578125,0.0,180.0,360.0
3856387,,,,,,,,1.765625,-4.94921875,-0.84765625,0.087890625,-1.521484375,1.314453125,0.0,180.0,360.0
3856388,,,,,,,,3.4765625,1.74609375,-2.53515625,0.087890625,-1.521484375,1.314453125,0.0,180.0,360.0
3856389,,,,,,,,3.4765625,1.74609375,-2.53515625,0.337890625,-0.984375,0.865234375,0.0,180.0,360.0
3856390,36.01290566666667,129.31992566666668,119.50751762276042,56.109199498994904,3.1,231.0,,3.4765625,1.74609375,-2.53515625,0.337890625,-0.984375,0.865234375,0.0,180.0,360.0
3856391,,,,,,,,3.4765625,1.74609375,-2.53515625,0.44921875,-0.705078125,0.587890625,0.0,180.0,360.0
3856392,,,,,,,,2.0078125,12.87109375,-5.66015625,0.44921875,-0.705078125,0.587890625,0.0,180.0,360.0
3856393,,,,,,,,2.0078125,12.87109375,-5.66015625,0.076171875,-0.125,0.455078125,0.0,180.0,360.0
3856394,,,,,,,,2.0078125,12.87109375,-5.66015625,-0.35546875,0.283203125,0.2109375,0.0,180.0,360.0
3856395,,,,,,,,3.09765625,9.24609375,-6.609375,-0.35546875,0.283203125,0.2109375,0.0,180.0,360.0
3856396,,,,,,,,3.09765625,9.24609375,-6.609375,0.115234375,0.76953125,0.154296875,0.0,180.0,360.0
3856397,,,,,,,,2.77734375,6.50390625,-5.0,0.115234375,0.76953125,0.154296875,0.0,180.0,360.0
3856398,,,,,,,,2.77734375,6.50390625,-5.0,0.529296875,-0.15234375,0.46875,0.0,180.0,360.0
3856399,,,,,,,,-1.08984375,8.44921875,-0.0390625,0.529296875,-0.15234375,0.46875,0.0,180.0,360.0
3856400,36.01290166666667,129.31991950000003,118.95160483112127,55.665354995609015,3.4000000000000004,231.0,123.0,-1.08984375,8.44921875,-0.0390625,0.529296875,-0.15234375,0.46875,0.0,180.0,360.0
3856401,,,,,,,,-1.08984375,8.44921875,-0.0390625,0.529296875,-0.15234375,0.46875,0.0,180.0,360.0
3856402,,,,,,,,-1.08984375,8.44921875,-0.0390625,0.634765625,-0.15625,0.423828125,0.0,180.0,360.0
3856403,,,,,,,,-1.08984375,8.44921875,-0.0390625,0.365234375,0.466796875,0.1640625,0.0,180.0,360.0
3856404,,,,,,,,-1.08984375,8.44921875,-0.0390625,-0.4140625,2.1875,-1.3515625,0.0,180.0,360.0
3856405,,,,,,,,-4.5390625,2.21484375,-0.98046875,-0.4140625,2.1875,-1.3515625,0.0,180.0,360.0
3856406,,,,,,,,-4.5390625,2.21484375,-0.98046875,-0.076171875,1.724609375,-0.98828125,0.0,180.0,360.0
3856407,,,,,,,,-4.5390625,2.21484375,-0.98046875,-0.076171875,1.724609375,-0.98828125,0.0,180.0,360.0
3856408,,,,,,,,-4.5390625,2.21484375,-0.98046875,-0.35546875,0.3515625,-0.392578125,0.0,180.0,360.0
3856409,,,,,,,,-4.984375,10.94921875,-3.65234375,-0.35546875,0.3515625,-0.392578125,0.0,180.0,360.0
3856410,36.01289833333333,129.31991466666665,118.51588965267082,55.2954849723574,2.9000000000000004,230.0,,-4.984375,10.94921875,-3.65234375,-0.392578125,-0.11328125,-0.001953125,0.0,180.0,360.0
3856411,,,,,,,,-4.984375,10.94921875,-3.65234375,-0.076171875,-0.39453125,-0.025390625,0.0,180.0,360.0
3856412,,,,,,,,-6.16015625,8.71875,-2.84765625,-0.076171875,-0.39453125,-0.025390625,0.0,180.0,360.0
3856413,,,,,,,,-6.16015625,8.71875,-2.84765625,-0.16796875,-0.328125,-0.20703125,0.0,180.0,360.0
3856414,,,,,,,,-2.50390625,7.88671875,-3.890625,-0.16796875,-0.328125,-0.20703125,0.0,180.0,360.0
3856415,,,,,,,,-2.50390625,7.88671875,-3.890625,-0.015625,-0.349609375,-0.373046875,0.0,180.0,360.0
3856416,,,,,,,,-0.46875,8.53515625,-2.9765625,-0.015625,-0.349609375,-0.373046875,0.0,180.0,360.0
3856417,,,,,,,,-0.46875,8.53515625,-2.9765625,0.19921875,-0.34375,-0.376953125,0.0,180.0,360.0
3856418,,,,,,,,-0.46875,8.53515625,-2.9765625,0.19921875,-0.34375,-0.376953125,0.0,180.0,360.0
3856419,,,,,,,,-0.46875,8.53515625,-2.9765625,0.34765625,-0.48828125,-0.3203125,0.0,180.0,360.0
3856420,36.012896833333336,129.31991216666665,118.29051938795726,55.12904307469368,2.9000000000000004,232.0,,-1.23046875,10.3203125,-2.1953125,0.34765625,-0.48828125,-0.3203125,0.0,180.0,360.0
3856421,,,,,,,,-1.23046875,10.3203125,-2.1953125,-0.02734375,-0.705078125,-0.109375,0.0,180.0,360.0
3856422,,,,,,,,-1.23046875,10.3203125,-2.1953125,-0.791015625,-1.3828125,-0.01171875,0.0,180.0,360.0
3856423,,,,,,,,-2.671875,6.51171875,-0.40234375,-0.791015625,-1.3828125,-0.01171875,0.0,180.0,360.0
3856424,,,,,,,,-2.671875,6.51171875,-0.40234375,-2.330078125,-0.384765625,-0.8046875,0.0,180.0,360.0
3856425,,,,,,,,4.05078125,-12.75390625,-3.98828125,-2.330078125,-0.384765625,-0.8046875,0.0,180.0,360.0
3856426,,,,,,,,4.05078125,-12.75390625,-3.98828125,-2.330078125,-0.384765625,-0.8046875,0.0,180.0,360.0
3856427,,,,,,,,4.05078125,-12.75390625,-3.98828125,2.111328125,-1.1171875,-0.353515625,0.0,180.0,360.0
3856428,,,,,,,,-7.15234375,-10.37890625,1.88671875,2.111328125,-1.1171875,-0.353515625,0.0,180.0,360.0
3856429,,,,,,,,-7.15234375,-10.37890625,1.88671875,1.009765625,-2.125,1.08984375,0.0,180.0,360.0
3856430,36.012895,129.31990866666666,117.97500060251991,54.92561355954354,3.2,233.0,,-5.95703125,-15.58203125,4.359375,1.009765625,-2.125,1.08984375,0.0,180.0,360.0
3856431,,,,,,,,-5.95703125,-15.58203125,4.359375,-0.0234375,-2.353515625,1.634765625,0.0,180.0,360.0
3856432,,,,,,,,-0.77734375,-7.1796875,-0.5,-0.0234375,-2.353515625,1.634765625,0.0,180.0,360.0
3856433,,,,,,,,-0.77734375,-7.1796875,-0.5,-0.099609375,-2.2890625,1.791015625,0.0,180.0,360.0
3856434,,,,,,,,2.7265625,-6.91015625,0.15234375,-0.099609375,-2.2890625,1.791015625,0.0,180.0,360.0
3856435,,,,,,,,2.7265625,-6.91015625,0.15234375,-0.130859375,-1.876953125,1.552734375,0.0,180.0,360.0
3856436,,,,,,,,2.84375,-2.73828125,-1.234375,-0.130859375,-1.876953125,1.552734375,0.0,180.0,360.0
3856437,,,,,,,,2.84375,-2.73828125,-1.234375,-0.041015625,-1.3125,1.146484375,0.0,180.0,360.0
3856438,,,,,,,,3.859375,3.58984375,-2.71875,-0.041015625,-1.3125,1.146484375,0.0,180.0,360.0
3856439,,,,,,,,3.859375,3.58984375,-2.71875,0.1171875,-0.7265625,0.662109375,0.0,180.0,360.0
3856440,36.012893500000004,129.31990583333334,117.71958064720312,54.75917127404915,2.9000000000000004,233.0,,3.859375,3.58984375,-2.71875,0.1171875,-0.7265625,0.662109375,0.0,180.0,360.0
3856441,,,,,,,,3.859375,3.58984375,-2.71875,-0.00390625,-0.408203125,0.42578125,0.0,180.0,360.0
3856442,,,,,,,,2.0,14.36328125,-5.66796875,-0.00390625,-0.408203125,0.42578125,0.0,180.0,360.0
3856443,,,,,,,,2.0,14.36328125,-5.66796875,-0.23046875,-0.208984375,0.400390625,0.0,180.0,360.0
3856444,,,,,,,,2.0,14.36328125,-5.66796875,-0.427734375,0.513671875,0.1796875,0.0,180.0,360.0
3856445,,,,,,,,2.76171875,13.40625,-6.79296875,-0.427734375,0.513671875,0.1796875,0.0,180.0,360.0
3856446,,,,,,,,2.76171875,13.40625,-6.79296875,-0.427734375,0.513671875,0.1796875,0.0,180.0,360.0
3856447,,,,,,,,2.76171875,13.40625,-6.79296875,0.140625,0.3359375,0.626953125,0.0,180.0,360.0
3856448,,,,,,,,-2.8359375,6.84765625,0.06640625,0.140625,0.3359375,0.626953125,0.0,180.0,360.0
3856449,,,,,,,,-2.8359375,6.84765625,0.06640625,0.712890625,-0.251953125,0.4375,0.0,180.0,360.0
3856450,36.012891833333335,129.31990333333334,117.4942105986781,54.57423619011418,3.0,233.0,,-1.546875,9.4375,-1.8203125,0.712890625,-0.251953125,0.4375,0.0,180.0,360.0
3856451,,,,,,,,-1.546875,9.4375,-1.8203125,0.39453125,0.2890625,0.24609375,0.0,180.0,360.0
3856452,,,,,,,,0.125,11.03125,-1.96875,0.39453125,0.2890625,0.24609375,0.0,180.0,360.0
3856453,,,,,,,,0.125,11.03125,-1.96875,-0.560546875,0.6171875,0.32421875,0.0,180.0,360.0
3856454,,,,,,,,1.61328125,11.2421875,-0.17578125,-0.560546875,0.6171875,0.32421875,0.0,180.0,360.0
3856455,,,,,,,,1.61328125,11.2421875,-0.17578125,-0.68359375,-0.6953125,0.123046875,0.0,180.0,360.0
3856456,,,,,,,,-3.04296875,-17.71484375,7.12109375,-0.68359375,-0.6953125,0.123046875,0.0,180.0,360.0
3856457,,,,,,,,-3.04296875,-17.71484375,7.12109375,1.4921875,0.142578125,0.224609375,0.0,180.0,360.0
3856458,,,,,,,,1.95703125,-4.921875,3.796875,1.4921875,0.142578125,0.224609375,0.0,180.0,360.0
3856459,,,,,,,,1.95703125,-4.921875,3.796875,-0.25,1.822265625,-0.087890625,0.0,180.0,360.0
3856460,36.01288783333334,129.31989766666666,116.98337211465774,54.130392414595164,3.2,229.0,,1.95703125,-4.921875,3.796875,0.09765625,2.349609375,-0.962890625,0.0,180.0,360.0
3856461,,,,,,,,7.9140625,-14.98828125,3.2265625,0.09765625,2.349609375,-0.962890625,0.0,180.0,360.0
3856462,,,,,,,,7.9140625,-14.98828125,3.2265625,-0.099609375,2.490234375,-1.29296875,0.0,180.0,360.0
3856463,,,,,,,,2.359375,-9.73828125,0.8515625,-0.099609375,2.490234375,-1.29296875,0.0,180.0,360.0
3856464,,,,,,,,2.359375,-9.73828125,0.8515625,-0.111328125,2.720703125,-1.634765625,0.0,180.0,360.0
3856465,,,,,,,,1.16796875,-9.02734375,0.0546875,-0.111328125,2.720703125,-1.634765625,0.0,180.0,360.0
3856466,,,,,,,,1.16796875,-9.02734375,0.0546875,-0.158203125,2.681640625,-1.50390625,0.0,180.0,360.0
3856467,,,,,,,,-2.12109375,-3.91015625,-1.5625,-0.158203125,2.681640625,-1.50390625,0.0,180.0,360.0
3856468,,,,,,,,-2.12109375,-3.91015625,-1.5625,-0.173828125,2.474609375,-1.138671875,0.0,180.0,360.0
3856469,,,,,,,,-2.12109375,-3.91015625,-1.5625,0.158203125,2.44140625,-0.83203125,0.0,180.0,360.0
3856470,36.01288616666667,129.31989533333333,116.77302687100185,53.94545755016695,3.0,229.0,,-4.87890625,4.04296875,-2.55078125,0.158203125,2.44140625,-0.83203125,0.0,180.0,360.0
3856471,,,,,,,,-4.87890625,4.04296875,-2.55078125,0.33203125,1.546875,-0.517578125,0.0,180.0,360.0
3856472,,,,,,,,-5.8828125,7.74609375,-3.234375,0.33203125,1.546875,-0.517578125,0.0,180.0,360.0
3856473,,,,,,,,-5.8828125,7.74609375,-3.234375,-0.078125,0.576171875,-0.482421875,0.0,180.0,360.0
3856474,,,,,,,,-5.73828125,12.06640625,-3.02734375,-0.078125,0.576171875,-0.482421875,0.0,180.0,360.0
3856475,,,,,,,,-5.73828125,12.06640625,-3.02734375,-0.51953125,0.478515625,-0.236328125,0.0,180.0,360.0
3856476,,,,,,,,-3.9765625,11.4375,-4.66796875,-0.51953125,0.478515625,-0.236328125,0.0,180.0,360.0
3856477,,,,,,,,-3.9765625,11.4375,-4.66796875,-0.07421875,0.00390625,-0.14453125,0.0,180.0,360.0
3856478,,,,,,,,-3.75390625,6.83984375,-1.5859375,-0.07421875,0.00390625,-0.14453125,0.0,180.0,360.0
3856479,,,,,,,,-3.75390625,6.83984375,-1.5859375,0.15625,-0.095703125,-0.359375,0.0,180.0,360.0
3856480,36.012884166666666,129.3198928333333,116.54765727017326,53.7235360778414,3.2,228.0,,-3.75390625,6.83984375,-1.5859375,0.44921875,0.1171875,-0.564453125,0.0,180.0,360.0
3856481,,,,,,,,-0.30078125,9.29296875,-1.265625,0.44921875,0.1171875,-0.564453125,0.0,180.0,360.0
3856482,,,,,,,,-0.30078125,9.29296875,-1.265625,0.6015625,-0.109375,-0.578125,0.0,180.0,360.0
3856483,,,,,,,,-1.046875,11.23046875,-1.2734375,0.6015625,-0.109375,-0.578125,0.0,180.0,360.0
3856484,,,,,,,,-1.046875,11.23046875,-1.2734375,0.34765625,-0.291015625,-0.51171875,0.0,180.0,360.0
3856485,,,,,,,,-1.37890625,12.125,-1.828125,0.34765625,-0.291015625,-0.51171875,0.0,180.0,360.0
3856486,,,,,,,,-1.37890625,12.125,-1.828125,-0.421875,-0.84375,-0.35546875,0.0,180.0,360.0
3856487,,,,,,,,-2.25390625,7.41015625,-1.12109375,-0.421875,-0.84375,-0.35546875,0.0,180.0,360.0
3856488,,,,,,,,-2.25390625,7.41015625,-1.12109375,-1.599609375,-0.3828125,-1.322265625,0.0,180.0,360.0
3856489,,,,,,,,-2.25390625,7.41015625,-1.12109375,1.146484375,-0.669921875,0.91015625,0.0,180.0,360.0
3856490,36.01288233333333,129.31988966666668,116.26218807113646,53.52010702251095,3.3000000000000003,230.0,,8.0703125,-42.28515625,21.78515625,1.146484375,-0.669921875,0.91015625,0.0,180.0,360.0
3856491,,,,,,,,8.0703125,-42.28515625,21.78515625,2.00390625,-0.98828125,-0.330078125,0.0,180.0,360.0
3856492,,,,,,,,7.71484375,-9.40625,7.49609375,2.00390625,-0.98828125,-0.330078125,0.0,180.0,360.0
3856493,,,,,,,,7.71484375,-9.40625,7.49609375,0.4453125,-2.76953125,0.8671875,0.0,180.0,360.0
3856494,,,,,,,,-10.93359375,-7.515625,2.28515625,0.4453125,-2.76953125,0.8671875,0.0,180.0,360.0
3856495,,,,,,,,-10.93359375,-7.515625,2.28515625,0.7265625,-2.45703125,1.427734375,0.0,180.0,360.0
3856496,,,,,,,,1.2265625,-9.1875,1.234375,0.7265625,-2.45703125,1.427734375,0.0,180.0,360.0
3856497,,,,,,,,1.2265625,-9.1875,1.234375,0.244140625,-2.60546875,1.900390625,0.0,180.0,360.0
3856498,,,,,,,,2.171875,-6.54296875,-0.1328125,0.244140625,-2.60546875,1.900390625,0.0,180.0,360.0
3856499,,,,,,,,2.171875,-6.54296875,-0.1328125,0.517578125,-2.251953125,1.9140625,0.0,180.0,360.0
3856500,36.01287883333334,129.31988416666667,115.76637356800353,53.13174313703173,3.3000000000000003,231.0,123.0,2.171875,-6.54296875,-0.1328125,0.341796875,-1.947265625,1.578125,0.0,180.0,360.0
3856501,,,,,,,,2.171875,-6.54296875,-0.1328125,0.341796875,-1.947265625,1.578125,0.0,180.0,360.0
3856502,,,,,,,,4.3671875,3.2265625,-3.296875,0.341796875,-1.947265625,1.578125,0.0,180.0,360.0
3856503,,,,,,,,0.5546875,6.82421875,-1.7265625,0.341796875,-1.947265625,1.578125,0.0,180.0,360.0
3856504,,,,,,,,0.5546875,6.82421875,-1.7265625,1.32421875,-0.09375,0.51171875,0.0,180.0,360.0
3856505,,,,,,,,0.265625,13.05859375,-2.91015625,1.32421875,-0.09375,0.51171875,0.0,180.0,360.0
3856506,,,,,,,,0.265625,13.05859375,-2.91015625,0.61328125,0.376953125,0.259765625,0.0,180.0,360.0
3856507,,,,,,,,0.04296875,13.953125,-3.5078125,0.61328125,0.376953125,0.259765625,0.0,180.0,360.0
3856508,,,,,,,,0.04296875,13.953125,-3.5078125,-0.890625,0.33203125,0.2109375,0.0,180.0,360.0
3856509,,,,,,,,-2.921875,-7.703125,8.64453125,-0.890625,0.33203125,0.2109375,0.0,180.0,360.0
3856510,36.01287683333333,129.31988066666665,115.45085489530345,52.909820504737404,3.5,232.0,,-2.921875,-7.703125,8.64453125,-1.62109375,-1.44140625,0.26953125,0.0,180.0,360.0
3856511,,,,,,,,-2.921875,-7.703125,8.64453125,0.9140625,0.228515625,-0.2890625,0.0,180.0,360.0
3856512,,,,,,,,-2.515625,-17.1171875,5.59375,0.9140625,0.228515625,-0.2890625,0.0,180.0,360.0
3856513,,,,,,,,-2.515625,-17.1171875,5.59375,0.9140625,0.228515625,-0.2890625,0.0,180.0,360.0
3856514,,,,,,,,-2.515625,-17.1171875,5.59375,-1.556640625,2.658203125,-0.439453125,0.0,180.0,360.0
3856515,,,,,,,,9.97265625,-15.36328125,5.4453125,-1.556640625,2.658203125,-0.439453125,0.0,180.0,360.0
3856516,,,,,,,,9.97265625,-15.36328125,5.4453125,-0.01953125,2.509765625,-1.46484375,0.0,180.0,360.0
3856517,,,,,,,,4.08984375,-13.1484375,4.28125,-0.01953125,2.509765625,-1.46484375,0.0,180.0,360.0
3856518,,,,,,,,4.08984375,-13.1484375,4.28125,-0.42578125,2.650390625,-2.0625,0.0,180.0,360.0
3856519,,,,,,,,4.08984375,-13.1484375,4.28125,-0.490234375,2.255859375,-2.0546875,0.0,180.0,360.0
3856520,36.012874499999995,129.31987783333335,115.19543604780765,52.65091226058226,3.4000000000000004,228.0,,-0.71875,-7.26171875,1.23046875,-0.490234375,2.255859375,-2.0546875,0.0,180.0,360.0
3856521,,,,,,,,-0.71875,-7.26171875,1.23046875,-0.310546875,2.431640625,-1.63671875,0.0,180.0,360.0
3856522,,,,,,,,-4.734375,0.95703125,-1.88671875,-0.310546875,2.431640625,-1.63671875,0.0,180.0,360.0
3856523,,,,,,,,-4.734375,0.95703125,-1.88671875,-0.35546875,2.140625,-0.958984375,0.0,180.0,360.0
3856524,,,,,,,,-4.734375,0.95703125,-1.88671875,-0.35546875,2.140625,-0.958984375,0.0,180.0,360.0
3856525,,,,,,,,-4.734375,0.95703125,-1.88671875,-0.09765625,1.955078125,-0.6640625,0.0,180.0,360.0
3856526,,,,,,,,-4.50390625,7.81640625,-3.35546875,-0.09765625,1.955078125,-0.6640625,0.0,180.0,360.0
3856527,,,,,,,,-4.50390625,7.81640625,-3.35546875,-0.109375,1.24609375,-0.5234375,0.0,180.0,360.0
3856528,,,,,,,,-4.50390625,7.81640625,-3.35546875,-0.625,0.404296875,-0.345703125,0.0,180.0,360.0
3856529,,,,,,,,-3.984375,13.9765625,-3.90625,-0.625,0.404296875,-0.345703125,0.0,180.0,360.0
3856530,36.012873,129.31987533333333,114.9700656483077,52.4844704488945,3.1,228.0,,-3.984375,13.9765625,-3.90625,-1.05078125,-0.099609375,-0.1171875,0.0,180.0,360.0
3856531,,,,,,,,-3.77734375,11.56640625,-4.79296875,-1.05078125,-0.099609375,-0.1171875,0.0,180.0,360.0
3856532,,,,,,,,-3.77734375,11.56640625,-4.79296875,-0.31640625,-0.55078125,-0.27734375,0.0,180.0,360.0
3856533,,,,,,,,-3.77734375,11.56640625,-4.79296875,-0.31640625,-0.55078125,-0.27734375,0.0,180.0,360.0
3856534,,,,,,,,-3.77734375,11.56640625,-4.79296875,0.576171875,-0.595703125,-0.572265625,0.0,180.0,360.0
3856535,,,,,,,,0.1328125,10.2109375,-3.21875,0.576171875,-0.595703125,-0.572265625,0.0,180.0,360.0
3856536,,,,,,,,0.1328125,10.2109375,-3.21875,0.5859375,-0.05078125,-0.66015625,0.0,180.0,360.0
3856537,,,,,,,,0.1328125,10.2109375,-3.21875,0.109375,-0.1484375,-0.486328125,0.0,180.0,360.0
3856538,,,,,,,,0.12890625,12.26953125,-3.3359375,0.109375,-0.1484375,-0.486328125,0.0,180.0,360.0
3856539,,,,,,,,0.12890625,12.26953125,-3.3359375,-0.3359375,-0.3984375,-0.275390625,0.0,180.0,360.0
3856540,36.01287083333333,129.31987283333333,114.7446962084356,52.24405581748078,3.3000000000000003,228.0,,-1.46484375,10.69140625,-3.6953125,-0.3359375,-0.3984375,-0.275390625,0.0,180.0,360.0
3856541,,,,,,,,-1.46484375,10.69140625,-3.6953125,-0.796875,-1.12890625,-0.09375,0.0,180.0,360.0
3856542,,,,,,,,-2.9921875,7.87109375,-0.4609375,-0.796875,-1.12890625,-0.09375,0.0,180.0,360.0
3856543,,,,,,,,-2.9921875,7.87109375,-0.4609375,-1.294921875,-1.7890625,0.013671875,0.0,180.0,360.0
3856544,,,,,,,,5.9375,-31.69921875,3.765625,-1.294921875,-1.7890625,0.013671875,0.0,180.0,360.0
3856545,,,,,,,,5.9375,-31.69921875,3.765625,1.2265625,-0.201171875,0.80859375,0.0,180.0,360.0
3856546,,,,,,,,5.9375,-31.69921875,3.765625,1.9453125,-1.09765625,-0.208984375,0.0,180.0,360.0
3856547,,,,,,,,-1.40234375,-3.8046875,2.77734375,1.9453125,-1.09765625,-0.208984375,0.0,180.0,360.0
3856548,,,,,,,,-1.40234375,-3.8046875,2.77734375,0.423828125,-3.134765625,0.9375,0.0,180.0,360.0
3856549,,,,,,,,-10.3203125,-11.1328125,1.84765625,0.423828125,-3.134765625,0.9375,0.0,180.0,360.0
3856550,36.012866833333334,129.31986633333332,114.15873325023951,51.8002112266079,3.4000000000000004,229.0,,-10.3203125,-11.1328125,1.84765625,0.88671875,-1.830078125,1.515625,0.0,180.0,360.0
3856551,,,,,,,,-0.68359375,-10.9609375,2.4296875,0.88671875,-1.830078125,1.515625,0.0,180.0,360.0
3856552,,,,,,,,-0.68359375,-10.9609375,2.4296875,-0.3984375,-2.228515625,2.123046875,0.0,180.0,360.0
3856553,,,,,,,,1.20703125,-5.4140625,-1.5234375,-0.3984375,-2.228515625,2.123046875,0.0,180.0,360.0
3856554,,,,,,,,1.20703125,-5.4140625,-1.5234375,-0.5390625,-1.5390625,1.79296875,0.0,180.0,360.0
3856555,,,,,,,,1.20703125,-5.4140625,-1.5234375,0.365234375,-1.3046875,1.125,0.0,180.0,360.0
3856556,,,,,,,,3.6875,-3.3046875,1.3125,0.365234375,-1.3046875,1.125,0.0,180.0,360.0
3856557,,,,,,,,3.6875,-3.3046875,1.3125,0.189453125,-1.28515625,0.67578125,0.0,180.0,360.0
3856558,,,,,,,,3.51171875,1.52734375,-1.72265625,0.189453125,-1.28515625,0.67578125,0.0,180.0,360.0
3856559,,,,,,,,3.51171875,1.52734375,-1.72265625,0.08203125,-1.05078125,0.359375,0.0,180.0,360.0
3856560,36.012865166666664,129.31986366666666,113.91833821134891,51.615276040745506,3.3000000000000003,229.0,,2.4375,10.30859375,-4.5703125,0.08203125,-1.05078125,0.359375,0.0,180.0,360.0
3856561,,,,,,,,2.4375,10.30859375,-4.5703125,0.1953125,-0.8984375,0.345703125,0.0,180.0,360.0
3856562,,,,,,,,1.44921875,12.38671875,-4.79296875,0.1953125,-0.8984375,0.345703125,0.0,180.0,360.0
3856563,,,,,,,,1.44921875,12.38671875,-4.79296875,-0.130859375,-0.65234375,0.48828125,0.0,180.0,360.0
3856564,,,,,,,,0.921875,11.734375,-6.1484375,-0.130859375,-0.65234375,0.48828125,0.0,180.0,360.0
3856565,,,,,,,,0.921875,11.734375,-6.1484375,-0.38671875,0.10546875,0.34765625,0.0,180.0,360.0
3856566,,,,,,,,0.921875,11.734375,-6.1484375,-0.23828125,0.49609375,0.4921875,0.0,180.0,360.0
3856567,,,,,,,,2.625,6.3046875,-4.33203125,-0.23828125,0.49609375,0.4921875,0.0,180.0,360.0
3856568,,,,,,,,2.625,6.3046875,-4.33203125,0.3671875,0.318359375,0.580078125,0.0,180.0,360.0
3856569,,,,,,,,0.87890625,7.1171875,-2.63671875,0.3671875,0.318359375,0.580078125,0.0,180.0,360.0
3856570,36.012863,129.31986033333334,113.61784451671963,51.37486046473009,3.6,230.0,,0.87890625,7.1171875,-2.63671875,1.0234375,0.376953125,0.291015625,0.0,180.0,360.0
3856571,,,,,,,,-0.2734375,9.6640625,-0.9921875,1.0234375,0.376953125,0.291015625,0.0,180.0,360.0
3856572,,,,,,,,-0.2734375,9.6640625,-0.9921875,1.0234375,0.376953125,0.291015625,0.0,180.0,360.0
3856573,,,,,,,,-0.2734375,9.6640625,-0.9921875,-0.47265625,0.99609375,0.06640625,0.0,180.0,360.0
3856574,,,,,,,,0.26953125,8.9609375,-1.48046875,-0.47265625,0.99609375,0.06640625,0.0,180.0,360.0
3856575,,,,,,,,0.26953125,8.9609375,-1.48046875,-0.47265625,0.99609375,0.06640625,0.0,180.0,360.0
3856576,,,,,,,,0.26953125,8.9609375,-1.48046875,-1.1640625,-2.18359375,0.1328125,0.0,180.0,360.0
3856577,,,,,,,,-7.66796875,-44.69921875,21.58203125,-1.1640625,-2.18359375,0.1328125,0.0,180.0,360.0
3856578,,,,,,,,-7.66796875,-44.69921875,21.58203125,2.158203125,0.58203125,-0.458984375,0.0,180.0,360.0
3856579,,,,,,,,-7.66796875,-44.69921875,21.58203125,-0.65234375,2.283203125,-0.09375,0.0,180.0,360.0
3856580,36.01286066666667,129.31985666666665,113.28730136263815,51.11595130395949,3.6,230.0,,9.15625,-4.9140625,-4.05078125,-0.65234375,2.283203125,-0.09375,0.0,180.0,360.0
3856581,,,,,,,,9.15625,-4.9140625,-4.05078125,-0.25390625,2.837890625,-1.048828125,0.0,180.0,360.0
3856582,,,,,,,,8.43359375,-16.54296875,6.04296875,-0.25390625,2.837890625,-1.048828125,0.0,180.0,360.0
3856583,,,,,,,,8.43359375,-16.54296875,6.04296875,0.232421875,3.126953125,-1.8046875,0.0,180.0,360.0
3856584,,,,,,,,1.0625,-5.703125,-1.8125,0.232421875,3.126953125,-1.8046875,0.0,180.0,360.0
3856585,,,,,,,,1.0625,-5.703125,-1.8125,-1.115234375,2.359375,-1.876953125,0.0,180.0,360.0
3856586,,,,,,,,1.0625,-5.703125,-1.8125,-0.291015625,2.736328125,-1.6484375,0.0,180.0,360.0
3856587,,,,,,,,-2.50390625,-3.6953125,0.08984375,-0.291015625,2.736328125,-1.6484375,0.0,180.0,360.0
3856588,,,,,,,,-2.50390625,-3.6953125,0.08984375,-0.57421875,2.654296875,-1.31640625,0.0,180.0,360.0
3856589,,,,,,,,-4.328125,1.8359375,-2.875,-0.57421875,2.654296875,-1.31640625,0.0,180.0,360.0
3856590,36.012859000000006,129.3198545,113.09198080981908,50.931016723295365,3.0,228.0,,-4.328125,1.8359375,-2.875,-0.943359375,2.05859375,-0.755859375,0.0,180.0,360.0
3856591,,,,,,,,-5.8671875,5.30078125,-4.0,-0.943359375,2.05859375,-0.755859375,0.0,180.0,360.0
3856592,,,,,,,,-5.8671875,5.30078125,-4.0,-0.943359375,2.05859375,-0.755859375,0.0,180.0,360.0
3856593,,,,,,,,-5.8671875,5.30078125,-4.0,-0.01953125,0.28125,-0.58203125,0.0,180.0,360.0
3856594,,,,,,,,-4.4765625,14.40234375,-3.375,-0.01953125,0.28125,-0.58203125,0.0,180.0,360.0
3856595,,,,,,,,-4.4765625,14.40234375,-3.375,-0.01953125,0.28125,-0.58203125,0.0,180.0,360.0
3856596,,,,,,,,-4.4765625,14.40234375,-3.375,-1.080078125,-0.48046875,-0.09765625,0.0,180.0,360.0
3856597,,,,,,,,-3.7421875,11.6953125,-4.55078125,-1.080078125,-0.48046875,-0.09765625,0.0,180.0,360.0
3856598,,,,,,,,-3.7421875,11.6953125,-4.55078125,-0.69921875,-0.33984375,-0.05859375,0.0,180.0,360.0
3856599,,,,,,,,-3.7421875,11.6953125,-4.55078125,0.599609375,-0.666015625,-0.3125,0.0,180.0,360.0
3856600,36.0128555,129.31985,112.68631507699779,50.54265417198185,3.0,227.0,123.0,-3.7421875,11.6953125,-4.55078125,0.599609375,-0.666015625,-0.3125,0.0,180.0,360.0
3856601,,,,,,,,-3.7421875,11.6953125,-4.55078125,0.599609375,-0.666015625,-0.3125,0.0,180.0,360.0
3856602,,,,,,,,-1.69140625,5.09765625,-1.97265625,0.599609375,-0.666015625,-0.3125,0.0,180.0,360.0
3856603,,,,,,,,-1.69140625,5.09765625,-1.97265625,1.302734375,0.103515625,-0.595703125,0.0,180.0,360.0
3856604,,,,,,,,-1.69140625,5.09765625,-1.97265625,-0.078125,-2.36328125,1.78515625,0.0,180.0,360.0
3856605,,,,,,,,2.484375,-3.53125,-1.55859375,-0.078125,-2.36328125,1.78515625,0.0,180.0,360.0
3856606,,,,,,,,2.484375,-3.53125,-1.55859375,-0.177734375,-1.603515625,1.25390625,0.0,180.0,360.0
3856607,,,,,,,,3.5234375,2.94140625,-2.65234375,-0.177734375,-1.603515625,1.25390625,0.0,180.0,360.0
3856608,,,,,,,,3.5234375,2.94140625,-2.65234375,0.01171875,-1.16015625,0.78125,0.0,180.0,360.0
3856609,,,,,,,,4.234375,6.796875,-3.2109375,0.01171875,-1.16015625,0.78125,0.0,180.0,360.0
3856610,36.01285233333333,129.31984416666668,112.16045009270283,50.19127651935801,3.0,231.0,,4.234375,6.796875,-3.2109375,0.021484375,-0.7890625,0.572265625,0.0,180.0,360.0
3856611,,,,,,,,4.234375,6.796875,-3.2109375,0.021484375,-0.7890625,0.572265625,0.0,180.0,360.0
3856612,,,,,,,,4.234375,6.796875,-3.2109375,-0.462890625,-0.35546875,0.533203125,0.0,180.0,360.0
3856613,,,,,,,,2.484375,13.00390625,-6.84375,-0.462890625,-0.35546875,0.533203125,0.0,180.0,360.0
3856614,,,,,,,,2.484375,13.00390625,-6.84375,-0.416015625,1.224609375,0.19921875,0.0,180.0,360.0
3856615,,,,,,,,3.98828125,8.29296875,-5.7734375,-0.416015625,1.224609375,0.19921875,0.0,180.0,360.0
3856616,,,,,,,,3.98828125,8.29296875,-5.7734375,0.732421875,1.03125,0.44140625,0.0,180.0,360.0
3856617,,,,,,,,2.359375,5.45703125,-3.69140625,0.732421875,1.03125,0.44140625,0.0,180.0,360.0
3856618,,,,,,,,2.359375,5.45703125,-3.69140625,1.39453125,-0.330078125,0.630859375,0.0,180.0,360.0
3856619,,,,,,,,-3.8125,9.02734375,-1.234375,1.39453125,-0.330078125,0.630859375,0.0,180.0,360.0
3856620,36.012850666666665,129.31984150000002,111.92005496754685,50.006341389665295,3.1,233.0,,-3.8125,9.02734375,-1.234375,1.255859375,-0.822265625,0.439453125,0.0,180.0,360.0
3856621,,,,,,,,-2.640625,12.36328125,-0.84375,1.255859375,-0.822265625,0.439453125,0.0,180.0,360.0
3856622,,,,,,,,-2.640625,12.36328125,-0.84375,0.080078125,0.509765625,0.2109375,0.0,180.0,360.0
3856623,,,,,,,,-2.640625,12.36328125,-0.84375,0.080078125,0.509765625,0.2109375,0.0,180.0,360.0
3856624,,,,,,,,-2.640625,12.36328125,-0.84375,-1.01953125,0.97265625,0.21875,0.0,180.0,360.0
3856625,,,,,,,,1.00390625,5.875,0.03515625,-1.01953125,0.97265625,0.21875,0.0,180.0,360.0
3856626,,,,,,,,1.00390625,5.875,0.03515625,-0.35546875,-2.068359375,0.28515625,0.0,180.0,360.0
3856627,,,,,,,,1.00390625,5.875,0.03515625,2.30078125,0.6484375,0.029296875,0.0,180.0,360.0
3856628,,,,,,,,-7.87890625,-40.16796875,15.16015625,2.30078125,0.6484375,0.029296875,0.0,180.0,360.0
3856629,,,,,,,,-7.87890625,-40.16796875,15.16015625,-0.7890625,2.28515625,-0.080078125,0.0,180.0,360.0
3856630,36.012848500000004,129.3198378333333,111.58951147267362,49.76592549941081,3.4000000000000004,232.0,,4.265625,-1.0546875,0.01953125,-0.7890625,2.28515625,-0.080078125,0.0,180.0,360.0
3856631,,,,,,,,4.265625,-1.0546875,0.01953125,-0.7890625,2.28515625,-0.080078125,0.0,180.0,360.0
3856632,,,,,,,,4.265625,-1.0546875,0.01953125,0.39453125,2.685546875,-1.435546875,0.0,180.0,360.0
3856633,,,,,,,,1.05078125,-7.84765625,0.0625,0.39453125,2.685546875,-1.435546875,0.0,180.0,360.0
3856634,,,,,,,,1.05078125,-7.84765625,0.0625,-0.412109375,2.6953125,-1.83203125,0.0,180.0,360.0
3856635,,,,,,,,-0.9375,-6.66796875,0.125,-0.412109375,2.6953125,-1.83203125,0.0,180.0,360.0
3856636,,,,,,,,-0.9375,-6.66796875,0.125,-0.412109375,2.6953125,-1.83203125,0.0,180.0,360.0
