time,latitude,longitude,enu_x,enu_y,speed,course,Hrage,accX,accY,accZ,gyrX,gyrY,gyrZ,eulR,eulP,eulY
3868700,36.01250266666667,129.31932066666667,64.96770638752808,11.3920546663538,1.3,233.0,123.0,-1.63671875,-10.7421875,3.1875,0.580078125,1.919921875,0.017578125,0.0,180.0,360.0
3868701,,,,,,,,-1.63671875,-10.7421875,3.1875,0.580078125,1.919921875,0.017578125,0.0,180.0,360.0
3868702,,,,,,,,-1.63671875,-10.7421875,3.1875,0.359375,2.34375,-0.23046875,0.0,180.0,360.0
3868703,,,,,,,,-1.63671875,-10.7421875,3.1875,0.80859375,2.806640625,-0.611328125,0.0,180.0,360.0
3868704,,,,,,,,-1.63671875,-10.7421875,3.1875,0.80859375,2.806640625,-0.611328125,0.0,180.0,360.0
3868705,,,,,,,,-1.63671875,-10.7421875,3.1875,0.328125,2.62109375,-0.814453125,0.0,180.0,360.0
3868706,,,,,,,,-3.1328125,10.93359375,-3.7578125,0.328125,2.62109375,-0.814453125,0.0,180.0,360.0
3868707,,,,,,,,-3.1328125,10.93359375,-3.7578125,-0.619140625,2.55859375,-1.037109375,0.0,180.0,360.0
3868708,,,,,,,,-0.23828125,5.9765625,-1.94140625,-0.619140625,2.55859375,-1.037109375,0.0,180.0,360.0
3868709,,,,,,,,-0.23828125,5.9765625,-1.94140625,-0.89453125,2.919921875,-1.154296875,0.0,180.0,360.0
3868710,36.01250183333333,129.3193195,64.86253270753703,11.299587859946193,1.2000000000000002,234.0,,-0.453125,2.359375,-1.6171875,-0.89453125,2.919921875,-1.154296875,0.0,180.0,360.0
3868711,,,,,,,,-0.453125,2.359375,-1.6171875,-1.427734375,2.673828125,-1.068359375,0.0,180.0,360.0
3868712,,,,,,,,-2.4453125,-4.51953125,-1.02734375,-1.427734375,2.673828125,-1.068359375,0.0,180.0,360.0
3868713,,,,,,,,-2.4453125,-4.51953125,-1.02734375,-1.578125,1.927734375,-0.8984375,0.0,180.0,360.0
3868714,,,,,,,,-2.4453125,-4.51953125,-1.02734375,-1.578125,1.927734375,-0.8984375,0.0,180.0,360.0
3868715,,,,,,,,-2.4453125,-4.51953125,-1.02734375,-0.623046875,2.529296875,-0.802734375,0.0,180.0,360.0
3868716,,,,,,,,-8.703125,-24.046875,6.33203125,-0.623046875,2.529296875,-0.802734375,0.0,180.0,360.0
3868717,,,,,,,,-8.703125,-24.046875,6.33203125,1.25390625,2.814453125,0.00390625,0.0,180.0,360.0
3868718,,,,,,,,-8.703125,-24.046875,6.33203125,0.142578125,3.24609375,-0.298828125,0.0,180.0,360.0
3868719,,,,,,,,-4.49609375,-9.140625,1.4765625,0.142578125,3.24609375,-0.298828125,0.0,180.0,360.0
3868720,36.01250116666667,129.31931766666668,64.69725925125373,11.225613820142964,1.3,239.0,,-4.49609375,-9.140625,1.4765625,0.142578125,3.24609375,-0.298828125,0.0,180.0,360.0
3868721,,,,,,,,-4.49609375,-9.140625,1.4765625,-0.013671875,3.009765625,-0.826171875,0.0,180.0,360.0
3868722,,,,,,,,-3.34375,-8.375,0.484375,-0.013671875,3.009765625,-0.826171875,0.0,180.0,360.0
3868723,,,,,,,,-3.34375,-8.375,0.484375,0.052734375,2.423828125,-1.33984375,0.0,180.0,360.0
3868724,,,,,,,,-3.34375,-8.375,0.484375,-0.27734375,2.3125,-1.505859375,0.0,180.0,360.0
3868725,,,,,,,,-4.33984375,-3.578125,-1.5546875,-0.27734375,2.3125,-1.505859375,0.0,180.0,360.0
3868726,,,,,,,,-4.33984375,-3.578125,-1.5546875,-0.443359375,2.267578125,-1.318359375,0.0,180.0,360.0
3868727,,,,,,,,-5.5859375,-0.05859375,-1.7890625,-0.443359375,2.267578125,-1.318359375,0.0,180.0,360.0
3868728,,,,,,,,-5.5859375,-0.05859375,-1.7890625,-0.470703125,2.294921875,-1.1015625,0.0,180.0,360.0
3868729,,,,,,,,-5.5859375,-0.05859375,-1.7890625,-0.494140625,2.37109375,-0.970703125,0.0,180.0,360.0
3868730,36.0125,129.31931649999999,64.59208583565622,11.096160608924784,0.4,238.0,,-4.7109375,3.55078125,-2.9140625,-0.494140625,2.37109375,-0.970703125,0.0,180.0,360.0
3868731,,,,,,,,-4.7109375,3.55078125,-2.9140625,-0.607421875,2.00390625,-0.845703125,0.0,180.0,360.0
3868732,,,,,,,,-3.84375,5.65625,-2.9765625,-0.607421875,2.00390625,-0.845703125,0.0,180.0,360.0
3868733,,,,,,,,-3.84375,5.65625,-2.9765625,-0.671875,1.810546875,-0.87109375,0.0,180.0,360.0
3868734,,,,,,,,-2.3515625,7.07421875,-3.55078125,-0.671875,1.810546875,-0.87109375,0.0,180.0,360.0
3868735,,,,,,,,-2.3515625,7.07421875,-3.55078125,-0.671875,1.810546875,-0.87109375,0.0,180.0,360.0
3868736,,,,,,,,-2.3515625,7.07421875,-3.55078125,-0.34375,2.005859375,-0.978515625,0.0,180.0,360.0
3868737,,,,,,,,-0.734375,6.77734375,-3.9765625,-0.34375,2.005859375,-0.978515625,0.0,180.0,360.0
3868738,,,,,,,,-0.734375,6.77734375,-3.9765625,0.224609375,2.087890625,-1.0390625,0.0,180.0,360.0
3868739,,,,,,,,-2.0390625,5.54296875,-3.2734375,0.224609375,2.087890625,-1.0390625,0.0,180.0,360.0
3868740,36.0125,129.31931683333332,64.6221356563221,11.096160830179095,0.1,65535.0,,-2.0390625,5.54296875,-3.2734375,0.328125,1.87890625,-1.01953125,0.0,180.0,360.0
3868741,,,,,,,,-1.953125,5.08203125,-2.64453125,0.328125,1.87890625,-1.01953125,0.0,180.0,360.0
3868742,,,,,,,,-1.953125,5.08203125,-2.64453125,0.28125,1.65234375,-1.033203125,0.0,180.0,360.0
3868743,,,,,,,,-1.265625,3.359375,-2.41796875,0.28125,1.65234375,-1.033203125,0.0,180.0,360.0
3868744,,,,,,,,-1.265625,3.359375,-2.41796875,0.28125,1.65234375,-1.033203125,0.0,180.0,360.0
3868745,,,,,,,,-1.265625,3.359375,-2.41796875,0.494140625,1.6484375,-1.07421875,0.0,180.0,360.0
3868746,,,,,,,,-0.04296875,-6.90234375,1.65625,0.494140625,1.6484375,-1.07421875,0.0,180.0,360.0
3868747,,,,,,,,-0.04296875,-6.90234375,1.65625,1.595703125,1.783203125,-1.1796875,0.0,180.0,360.0
3868748,,,,,,,,-0.04296875,-6.90234375,1.65625,1.595703125,1.783203125,-1.1796875,0.0,180.0,360.0
3868749,,,,,,,,-0.04296875,-6.90234375,1.65625,1.236328125,1.572265625,-0.8984375,0.0,180.0,360.0
3868750,36.01250016666667,129.31931733333334,64.66721025006348,11.11465436677144,0.4,342.0,,-0.93359375,-4.5,1.9921875,1.236328125,1.572265625,-0.8984375,0.0,180.0,360.0
3868751,,,,,,,,-0.93359375,-4.5,1.9921875,0.416015625,0.916015625,-0.39453125,0.0,180.0,360.0
3868752,,,,,,,,-1.23828125,-7.7109375,2.875,0.416015625,0.916015625,-0.39453125,0.0,180.0,360.0
3868753,,,,,,,,-1.23828125,-7.7109375,2.875,0.142578125,0.638671875,-0.26953125,0.0,180.0,360.0
3868754,,,,,,,,-1.20703125,-10.67578125,3.2734375,0.142578125,0.638671875,-0.26953125,0.0,180.0,360.0
3868755,,,,,,,,-1.20703125,-10.67578125,3.2734375,-0.02734375,0.548828125,-0.1875,0.0,180.0,360.0
3868756,,,,,,,,1.3046875,-14.234375,3.3359375,-0.02734375,0.548828125,-0.1875,0.0,180.0,360.0
3868757,,,,,,,,1.3046875,-14.234375,3.3359375,-0.203125,0.42578125,0.087890625,0.0,180.0,360.0
3868758,,,,,,,,1.3046875,-14.234375,3.3359375,-0.203125,0.42578125,0.087890625,0.0,180.0,360.0
3868759,,,,,,,,1.3046875,-14.234375,3.3359375,-0.267578125,0.431640625,0.30078125,0.0,180.0,360.0
3868760,36.0125005,129.3193175,64.6822348868336,11.151640888262794,0.6000000000000001,21.0,,-0.96484375,-6.8671875,0.1171875,-0.267578125,0.431640625,0.30078125,0.0,180.0,360.0
3868761,,,,,,,,-0.96484375,-6.8671875,0.1171875,-0.302734375,0.41015625,0.4609375,0.0,180.0,360.0
3868762,,,,,,,,-0.96484375,-6.8671875,0.1171875,-0.119140625,0.544921875,0.5546875,0.0,180.0,360.0
3868763,,,,,,,,-1.21484375,-3.91015625,-0.81640625,-0.119140625,0.544921875,0.5546875,0.0,180.0,360.0
3868764,,,,,,,,-1.21484375,-3.91015625,-0.81640625,0.072265625,0.537109375,0.47265625,0.0,180.0,360.0
3868765,,,,,,,,0.53515625,2.6953125,-2.0625,0.072265625,0.537109375,0.47265625,0.0,180.0,360.0
3868766,,,,,,,,0.53515625,2.6953125,-2.0625,0.328125,0.6015625,0.283203125,0.0,180.0,360.0
3868767,,,,,,,,2.4140625,8.87890625,-3.23046875,0.328125,0.6015625,0.283203125,0.0,180.0,360.0
3868768,,,,,,,,2.4140625,8.87890625,-3.23046875,0.22265625,0.474609375,-0.04296875,0.0,180.0,360.0
3868769,,,,,,,,2.4140625,8.87890625,-3.23046875,-0.146484375,0.537109375,-0.08984375,0.0,180.0,360.0
3868770,36.01250116666667,129.31931883333334,64.8024336155576,11.225614595036308,1.1,41.0,,2.73828125,10.2265625,-3.67578125,-0.146484375,0.537109375,-0.08984375,0.0,180.0,360.0
3868771,,,,,,,,2.73828125,10.2265625,-3.67578125,-0.091796875,1.06640625,-0.08203125,0.0,180.0,360.0
3868772,,,,,,,,2.06640625,7.6171875,-4.67578125,-0.091796875,1.06640625,-0.08203125,0.0,180.0,360.0
3868773,,,,,,,,2.06640625,7.6171875,-4.67578125,0.16796875,1.681640625,-0.244140625,0.0,180.0,360.0
3868774,,,,,,,,0.6953125,7.625,-4.5546875,0.16796875,1.681640625,-0.244140625,0.0,180.0,360.0
3868775,,,,,,,,0.6953125,7.625,-4.5546875,0.064453125,1.99609375,-0.357421875,0.0,180.0,360.0
3868776,,,,,,,,-0.390625,9.5625,-4.35546875,0.064453125,1.99609375,-0.357421875,0.0,180.0,360.0
3868777,,,,,,,,-0.390625,9.5625,-4.35546875,-0.26171875,1.787109375,-0.3828125,0.0,180.0,360.0
3868778,,,,,,,,-0.390625,9.5625,-4.35546875,-0.26171875,1.787109375,-0.3828125,0.0,180.0,360.0
3868779,,,,,,,,-0.390625,9.5625,-4.35546875,-0.572265625,1.82421875,-0.34765625,0.0,180.0,360.0
3868780,36.01250183333333,129.31932016666667,64.92263234264502,11.299588304036305,1.3,43.0,,0.25,-2.6171875,-1.140625,-0.572265625,1.82421875,-0.34765625,0.0,180.0,360.0
3868781,,,,,,,,0.25,-2.6171875,-1.140625,-0.787109375,2.2578125,-0.626953125,0.0,180.0,360.0
3868782,,,,,,,,0.25,-2.6171875,-1.140625,0.576171875,0.37890625,-0.658203125,0.0,180.0,360.0
3868783,,,,,,,,-5.10546875,-10.8671875,11.50390625,0.576171875,0.37890625,-0.658203125,0.0,180.0,360.0
3868784,,,,,,,,-5.10546875,-10.8671875,11.50390625,0.828125,1.375,-0.830078125,0.0,180.0,360.0
3868785,,,,,,,,-1.78125,-6.2109375,3.8515625,0.828125,1.375,-0.830078125,0.0,180.0,360.0
3868786,,,,,,,,-1.78125,-6.2109375,3.8515625,-0.509765625,1.884765625,-0.89453125,0.0,180.0,360.0
3868787,,,,,,,,3.15234375,-11.4765625,4.85546875,-0.509765625,1.884765625,-0.89453125,0.0,180.0,360.0
3868788,,,,,,,,3.15234375,-11.4765625,4.85546875,-0.55078125,2.1796875,-1.34765625,0.0,180.0,360.0
3868789,,,,,,,,3.15234375,-11.4765625,4.85546875,-0.55078125,2.1796875,-1.34765625,0.0,180.0,360.0
3868790,36.01250283333333,129.319321,64.99775606831696,11.410548091851293,1.5,43.0,,3.15234375,-11.4765625,4.85546875,-0.58203125,2.505859375,-1.869140625,0.0,180.0,360.0
3868791,,,,,,,,-0.66015625,-12.375,3.58984375,-0.58203125,2.505859375,-1.869140625,0.0,180.0,360.0
3868792,,,,,,,,-0.66015625,-12.375,3.58984375,-1.03125,2.328125,-1.921875,0.0,180.0,360.0
3868793,,,,,,,,-0.66015625,-12.375,3.58984375,-1.271484375,2.193359375,-1.7421875,0.0,180.0,360.0
3868794,,,,,,,,-2.6640625,-5.6640625,0.0546875,-1.271484375,2.193359375,-1.7421875,0.0,180.0,360.0
3868795,,,,,,,,-2.6640625,-5.6640625,0.0546875,-1.091796875,2.134765625,-1.58984375,0.0,180.0,360.0
3868796,,,,,,,,-3.33984375,-2.625,-0.40234375,-1.091796875,2.134765625,-1.58984375,0.0,180.0,360.0
3868797,,,,,,,,-3.33984375,-2.625,-0.40234375,-0.791015625,1.912109375,-1.50390625,0.0,180.0,360.0
3868798,,,,,,,,-3.48046875,3.6328125,-0.796875,-0.791015625,1.912109375,-1.50390625,0.0,180.0,360.0
3868799,,,,,,,,-3.48046875,3.6328125,-0.796875,-0.4921875,0.78125,-1.044921875,0.0,180.0,360.0
3868800,36.01250466666667,129.31932550000002,65.40342709554089,11.613976363676684,2.1,54.0,123.0,-4.3125,7.03515625,-0.93359375,-0.4921875,0.78125,-1.044921875,0.0,180.0,360.0
3868801,,,,,,,,-4.3125,7.03515625,-0.93359375,-0.4921875,0.78125,-1.044921875,0.0,180.0,360.0
3868802,,,,,,,,-4.3125,7.03515625,-0.93359375,-0.486328125,-0.017578125,-0.701171875,0.0,180.0,360.0
3868803,,,,,,,,-4.3125,7.03515625,-0.93359375,0.185546875,-0.810546875,-0.310546875,0.0,180.0,360.0
3868804,,,,,,,,-4.3125,7.03515625,-0.93359375,-1.095703125,-0.517578125,-0.19921875,0.0,180.0,360.0
3868805,,,,,,,,4.08984375,-10.03515625,4.9296875,-1.095703125,-0.517578125,-0.19921875,0.0,180.0,360.0
3868806,,,,,,,,4.08984375,-10.03515625,4.9296875,2.072265625,-0.685546875,0.01953125,0.0,180.0,360.0
3868807,,,,,,,,3.69921875,-11.09375,7.01171875,2.072265625,-0.685546875,0.01953125,0.0,180.0,360.0
3868808,,,,,,,,3.69921875,-11.09375,7.01171875,0.65234375,-1.7265625,0.814453125,0.0,180.0,360.0
3868809,,,,,,,,0.50390625,-10.20703125,6.6328125,0.65234375,-1.7265625,0.814453125,0.0,180.0,360.0
3868810,36.01250733333333,129.319331,65.89924685781968,11.909871355031267,2.6,59.0,,0.50390625,-10.20703125,6.6328125,0.46875,-2.09375,1.470703125,0.0,180.0,360.0
3868811,,,,,,,,2.421875,-9.484375,5.23828125,0.46875,-2.09375,1.470703125,0.0,180.0,360.0
3868812,,,,,,,,2.421875,-9.484375,5.23828125,0.15625,-2.4609375,1.873046875,0.0,180.0,360.0
3868813,,,,,,,,2.1953125,-8.1328125,3.4140625,0.15625,-2.4609375,1.873046875,0.0,180.0,360.0
3868814,,,,,,,,2.1953125,-8.1328125,3.4140625,-0.005859375,-2.53125,2.064453125,0.0,180.0,360.0
3868815,,,,,,,,1.2734375,-3.26171875,-0.22265625,-0.005859375,-2.53125,2.064453125,0.0,180.0,360.0
3868816,,,,,,,,1.2734375,-3.26171875,-0.22265625,-0.26171875,-2.328125,2.07421875,0.0,180.0,360.0
3868817,,,,,,,,2.203125,-0.0625,-1.4609375,-0.26171875,-2.328125,2.07421875,0.0,180.0,360.0
3868818,,,,,,,,2.203125,-0.0625,-1.4609375,-0.25,-2.09375,1.80859375,0.0,180.0,360.0
3868819,,,,,,,,3.53515625,3.5390625,-1.65234375,-0.25,-2.09375,1.80859375,0.0,180.0,360.0
3868820,36.01250833333334,129.31933366666667,66.1396445511221,12.02083239455618,2.7,60.0,,3.53515625,3.5390625,-1.65234375,0.072265625,-1.509765625,1.263671875,0.0,180.0,360.0
3868821,,,,,,,,3.53515625,3.5390625,-1.65234375,0.072265625,-1.509765625,1.263671875,0.0,180.0,360.0
3868822,,,,,,,,3.53515625,3.5390625,-1.65234375,-0.1015625,-1.185546875,1.130859375,0.0,180.0,360.0
3868823,,,,,,,,2.375,11.1640625,-4.66796875,-0.1015625,-1.185546875,1.130859375,0.0,180.0,360.0
3868824,,,,,,,,2.375,11.1640625,-4.66796875,-0.576171875,-0.599609375,0.984375,0.0,180.0,360.0
3868825,,,,,,,,2.375,11.1640625,-4.66796875,-0.576171875,-0.599609375,0.984375,0.0,180.0,360.0
3868826,,,,,,,,2.375,11.1640625,-4.66796875,-0.75,-0.12109375,0.767578125,0.0,180.0,360.0
3868827,,,,,,,,2.90234375,7.2109375,-3.03125,-0.75,-0.12109375,0.767578125,0.0,180.0,360.0
3868828,,,,,,,,2.90234375,7.2109375,-3.03125,-0.095703125,0.24609375,0.693359375,0.0,180.0,360.0
3868829,,,,,,,,2.90234375,7.2109375,-3.03125,0.986328125,0.251953125,0.662109375,0.0,180.0,360.0
3868830,36.012509666666666,129.31933650000002,66.39506687091877,12.168779964471746,2.8000000000000003,59.0,,1.6875,5.640625,-2.15234375,0.986328125,0.251953125,0.662109375,0.0,180.0,360.0
3868831,,,,,,,,1.6875,5.640625,-2.15234375,1.671875,0.115234375,0.453125,0.0,180.0,360.0
3868832,,,,,,,,1.6875,5.640625,-2.15234375,1.671875,0.115234375,0.453125,0.0,180.0,360.0
3868833,,,,,,,,1.6875,5.640625,-2.15234375,0.375,0.193359375,0.322265625,0.0,180.0,360.0
3868834,,,,,,,,1.24609375,14.2890625,-1.75390625,0.375,0.193359375,0.322265625,0.0,180.0,360.0
3868835,,,,,,,,1.24609375,14.2890625,-1.75390625,-0.83203125,0.5234375,0.1640625,0.0,180.0,360.0
3868836,,,,,,,,1.24609375,14.2890625,-1.75390625,-1.134765625,0.626953125,0.087890625,0.0,180.0,360.0
3868837,,,,,,,,2.0546875,10.19140625,-0.30078125,-1.134765625,0.626953125,0.087890625,0.0,180.0,360.0
3868838,,,,,,,,2.0546875,10.19140625,-0.30078125,-0.92578125,-1.421875,-0.248046875,0.0,180.0,360.0
3868839,,,,,,,,-1.5,-26.765625,15.8515625,-0.92578125,-1.421875,-0.248046875,0.0,180.0,360.0
3868840,36.01251083333333,129.31933916666668,66.63546441063048,12.29823422249304,2.9000000000000004,58.0,,-1.5,-26.765625,15.8515625,2.787109375,0.76953125,-0.49609375,0.0,180.0,360.0
3868841,,,,,,,,7.3359375,-0.08203125,4.53125,2.787109375,0.76953125,-0.49609375,0.0,180.0,360.0
3868842,,,,,,,,7.3359375,-0.08203125,4.53125,-0.357421875,2.431640625,-0.626953125,0.0,180.0,360.0
3868843,,,,,,,,7.28515625,-8.58203125,-0.453125,-0.357421875,2.431640625,-0.626953125,0.0,180.0,360.0
3868844,,,,,,,,7.28515625,-8.58203125,-0.453125,-1.12890625,2.3203125,-1.279296875,0.0,180.0,360.0
3868845,,,,,,,,7.28515625,-8.58203125,-0.453125,-0.11328125,2.767578125,-1.82421875,0.0,180.0,360.0
3868846,,,,,,,,3.3125,-9.18359375,4.078125,-0.11328125,2.767578125,-1.82421875,0.0,180.0,360.0
3868847,,,,,,,,3.3125,-9.18359375,4.078125,-0.11328125,2.767578125,-1.82421875,0.0,180.0,360.0
3868848,,,,,,,,3.3125,-9.18359375,4.078125,-1.015625,2.431640625,-1.849609375,0.0,180.0,360.0
3868849,,,,,,,,-1.078125,-2.72265625,0.49609375,-1.015625,2.431640625,-1.849609375,0.0,180.0,360.0
3868850,36.012512666666666,129.3193415,66.84581156437342,12.50166108039344,2.9000000000000004,54.0,,-1.078125,-2.72265625,0.49609375,-1.11328125,2.365234375,-1.57421875,0.0,180.0,360.0
3868851,,,,,,,,-1.078125,-2.72265625,0.49609375,-1.11328125,2.365234375,-1.57421875,0.0,180.0,360.0
3868852,,,,,,,,-1.078125,-2.72265625,0.49609375,-0.884765625,2.0546875,-1.267578125,0.0,180.0,360.0
3868853,,,,,,,,-3.46875,4.86328125,-0.83203125,-0.884765625,2.0546875,-1.267578125,0.0,180.0,360.0
3868854,,,,,,,,-3.46875,4.86328125,-0.83203125,-0.916015625,1.171875,-0.83984375,0.0,180.0,360.0
3868855,,,,,,,,-4.63671875,7.24609375,-1.203125,-0.916015625,1.171875,-0.83984375,0.0,180.0,360.0
3868856,,,,,,,,-4.63671875,7.24609375,-1.203125,-0.830078125,0.119140625,-0.5546875,0.0,180.0,360.0
3868857,,,,,,,,-6.0078125,9.828125,-1.22265625,-0.830078125,0.119140625,-0.5546875,0.0,180.0,360.0
3868858,,,,,,,,-6.0078125,9.828125,-1.22265625,-0.587890625,0.083984375,-0.525390625,0.0,180.0,360.0
3868859,,,,,,,,-4.4921875,10.1875,-3.08203125,-0.587890625,0.083984375,-0.525390625,0.0,180.0,360.0
3868860,36.01251366666667,129.31934366666667,67.04113450985311,12.612621802766476,2.6,54.0,,-4.4921875,10.1875,-3.08203125,0.158203125,0.005859375,-0.56640625,0.0,180.0,360.0
3868861,,,,,,,,-4.328125,8.54296875,-2.70703125,0.158203125,0.005859375,-0.56640625,0.0,180.0,360.0
3868862,,,,,,,,-4.328125,8.54296875,-2.70703125,0.6796875,-0.03515625,-0.6171875,0.0,180.0,360.0
3868863,,,,,,,,-4.328125,8.54296875,-2.70703125,0.6796875,-0.03515625,-0.6171875,0.0,180.0,360.0
3868864,,,,,,,,-4.328125,8.54296875,-2.70703125,0.6015625,0.427734375,-0.5390625,0.0,180.0,360.0
3868865,,,,,,,,-1.828125,9.421875,1.1875,0.6015625,0.427734375,-0.5390625,0.0,180.0,360.0
3868866,,,,,,,,-1.828125,9.421875,1.1875,0.81640625,-0.0703125,-0.34765625,0.0,180.0,360.0
3868867,,,,,,,,-1.828125,9.421875,1.1875,0.501953125,-0.47265625,-0.115234375,0.0,180.0,360.0
3868868,,,,,,,,-2.3359375,11.86328125,-1.26171875,0.501953125,-0.47265625,-0.115234375,0.0,180.0,360.0
3868869,,,,,,,,-2.3359375,11.86328125,-1.26171875,-0.546875,-1.44921875,-0.36328125,0.0,180.0,360.0
3868870,36.01251533333333,129.31934666666666,67.3115814155075,12.797555924046769,2.9000000000000004,53.0,,-2.91796875,10.56640625,1.47265625,-0.546875,-1.44921875,-0.36328125,0.0,180.0,360.0
3868871,,,,,,,,-2.91796875,10.56640625,1.47265625,-0.546875,-1.44921875,-0.36328125,0.0,180.0,360.0
3868872,,,,,,,,-2.91796875,10.56640625,1.47265625,0.93359375,-0.03515625,0.662109375,0.0,180.0,360.0
3868873,,,,,,,,7.50390625,-17.61328125,17.265625,0.93359375,-0.03515625,0.662109375,0.0,180.0,360.0
3868874,,,,,,,,7.50390625,-17.61328125,17.265625,0.017578125,-2.28125,0.890625,0.0,180.0,360.0
3868875,,,,,,,,-3.7421875,-4.83203125,3.41796875,0.017578125,-2.28125,0.890625,0.0,180.0,360.0
3868876,,,,,,,,-3.7421875,-4.83203125,3.41796875,0.462890625,-2.162109375,1.658203125,0.0,180.0,360.0
3868877,,,,,,,,-3.578125,-15.14453125,6.9296875,0.462890625,-2.162109375,1.658203125,0.0,180.0,360.0
3868878,,,,,,,,-3.578125,-15.14453125,6.9296875,0.462890625,-2.162109375,1.658203125,0.0,180.0,360.0
3868879,,,,,,,,-3.578125,-15.14453125,6.9296875,-0.09765625,-2.451171875,2.044921875,0.0,180.0,360.0
3868880,36.01251666666667,129.319349,67.52192897048442,12.945503182336065,2.7,53.0,,3.95703125,-7.828125,2.33203125,-0.09765625,-2.451171875,2.044921875,0.0,180.0,360.0
3868881,,,,,,,,3.95703125,-7.828125,2.33203125,0.029296875,-2.41015625,2.203125,0.0,180.0,360.0
3868882,,,,,,,,3.95703125,-7.828125,2.33203125,-0.193359375,-2.1015625,2.244140625,0.0,180.0,360.0
3868883,,,,,,,,1.921875,-0.4375,0.07421875,-0.193359375,-2.1015625,2.244140625,0.0,180.0,360.0
3868884,,,,,,,,1.921875,-0.4375,0.07421875,-0.26171875,-1.884765625,2.078125,0.0,180.0,360.0
3868885,,,,,,,,1.921875,-0.4375,0.07421875,-0.26171875,-1.884765625,2.078125,0.0,180.0,360.0
3868886,,,,,,,,1.921875,-0.4375,0.07421875,0.1796875,-1.7265625,1.76171875,0.0,180.0,360.0
3868887,,,,,,,,4.828125,7.765625,-1.56640625,0.1796875,-1.7265625,1.76171875,0.0,180.0,360.0
3868888,,,,,,,,4.828125,7.765625,-1.56640625,0.580078125,-1.30078125,1.29296875,0.0,180.0,360.0
3868889,,,,,,,,4.828125,7.765625,-1.56640625,0.56640625,-0.486328125,0.982421875,0.0,180.0,360.0
3868890,36.012518,129.319351,67.70222670872393,13.09345021420307,2.5,53.0,,4.85546875,10.89453125,-2.984375,0.56640625,-0.486328125,0.982421875,0.0,180.0,360.0
3868891,,,,,,,,4.85546875,10.89453125,-2.984375,0.56640625,-0.486328125,0.982421875,0.0,180.0,360.0
3868892,,,,,,,,4.85546875,10.89453125,-2.984375,-0.5078125,-0.208984375,0.740234375,0.0,180.0,360.0
3868893,,,,,,,,3.7890625,8.53125,-4.3125,-0.5078125,-0.208984375,0.740234375,0.0,180.0,360.0
3868894,,,,,,,,3.7890625,8.53125,-4.3125,-0.1796875,0.708984375,0.728515625,0.0,180.0,360.0
3868895,,,,,,,,4.44140625,6.01953125,-3.2890625,-0.1796875,0.708984375,0.728515625,0.0,180.0,360.0
3868896,,,,,,,,4.44140625,6.01953125,-3.2890625,0.865234375,0.908203125,0.546875,0.0,180.0,360.0
3868897,,,,,,,,2.375,6.06640625,-1.68359375,0.865234375,0.908203125,0.546875,0.0,180.0,360.0
3868898,,,,,,,,2.375,6.06640625,-1.68359375,1.572265625,0.61328125,0.142578125,0.0,180.0,360.0
3868899,,,,,,,,-0.01171875,8.8203125,-1.01171875,1.572265625,0.61328125,0.142578125,0.0,180.0,360.0
3868900,36.01252133333333,129.31935616666667,68.16799592416837,13.463317924510047,3.1,50.0,123.0,-0.01171875,8.8203125,-1.01171875,0.658203125,0.1328125,0.01953125,0.0,180.0,360.0
3868901,,,,,,,,-0.01171875,8.8203125,-1.01171875,0.658203125,0.1328125,0.01953125,0.0,180.0,360.0
3868902,,,,,,,,0.6953125,10.95703125,0.69921875,0.658203125,0.1328125,0.01953125,0.0,180.0,360.0
3868903,,,,,,,,0.6953125,10.95703125,0.69921875,-0.638671875,2.1953125,-1.513671875,0.0,180.0,360.0
3868904,,,,,,,,-5.69921875,6.39453125,-0.34375,-0.638671875,2.1953125,-1.513671875,0.0,180.0,360.0
3868905,,,,,,,,-5.69921875,6.39453125,-0.34375,-0.26953125,1.822265625,-1.134765625,0.0,180.0,360.0
3868906,,,,,,,,-5.69921875,6.39453125,-0.34375,-0.15625,0.541015625,-0.873046875,0.0,180.0,360.0
3868907,,,,,,,,-5.953125,12.74609375,-0.47265625,-0.15625,0.541015625,-0.873046875,0.0,180.0,360.0
3868908,,,,,,,,-5.953125,12.74609375,-0.47265625,-0.4375,-0.404296875,-0.587890625,0.0,180.0,360.0
3868909,,,,,,,,-4.109375,11.0546875,-2.90234375,-0.4375,-0.404296875,-0.587890625,0.0,180.0,360.0
3868910,36.01252416666667,129.31936,68.51356629575619,13.777705107150226,2.6,48.0,,-4.109375,11.0546875,-2.90234375,-0.4375,-0.404296875,-0.587890625,0.0,180.0,360.0
3868911,,,,,,,,-4.109375,11.0546875,-2.90234375,-0.28515625,-0.806640625,-0.548828125,0.0,180.0,360.0
3868912,,,,,,,,-2.30859375,6.28125,-1.89453125,-0.28515625,-0.806640625,-0.548828125,0.0,180.0,360.0
3868913,,,,,,,,-2.30859375,6.28125,-1.89453125,0.759765625,-0.341796875,-0.734375,0.0,180.0,360.0
3868914,,,,,,,,-2.30859375,6.28125,-1.89453125,1.10546875,0.095703125,-0.642578125,0.0,180.0,360.0
3868915,,,,,,,,0.21875,10.24609375,-0.703125,1.10546875,0.095703125,-0.642578125,0.0,180.0,360.0
3868916,,,,,,,,0.21875,10.24609375,-0.703125,0.775390625,-0.142578125,-0.421875,0.0,180.0,360.0
3868917,,,,,,,,-1.1015625,11.43359375,-0.5859375,0.775390625,-0.142578125,-0.421875,0.0,180.0,360.0
3868918,,,,,,,,-1.1015625,11.43359375,-0.5859375,0.4609375,-0.5625,-0.28515625,0.0,180.0,360.0
3868919,,,,,,,,-2.67578125,7.33984375,0.31640625,0.4609375,-0.5625,-0.28515625,0.0,180.0,360.0
3868920,36.01252566666667,129.31936133333332,68.63376423447596,13.94414489364608,2.4000000000000004,46.0,,-2.67578125,7.33984375,0.31640625,0.4609375,-0.5625,-0.28515625,0.0,180.0,360.0
3868921,,,,,,,,-2.67578125,7.33984375,0.31640625,-1.1640625,-1.0,-0.638671875,0.0,180.0,360.0
3868922,,,,,,,,9.15234375,-27.46484375,20.33984375,-1.1640625,-1.0,-0.638671875,0.0,180.0,360.0
3868923,,,,,,,,9.15234375,-27.46484375,20.33984375,2.0234375,-1.556640625,-0.091796875,0.0,180.0,360.0
3868924,,,,,,,,4.26171875,-10.97265625,13.09375,2.0234375,-1.556640625,-0.091796875,0.0,180.0,360.0
3868925,,,,,,,,4.26171875,-10.97265625,13.09375,0.017578125,-2.5859375,1.052734375,0.0,180.0,360.0
3868926,,,,,,,,-5.97265625,-6.35546875,3.5,0.017578125,-2.5859375,1.052734375,0.0,180.0,360.0
3868927,,,,,,,,-5.97265625,-6.35546875,3.5,0.03125,-2.05859375,1.751953125,0.0,180.0,360.0
3868928,,,,,,,,4.9921875,-11.45703125,5.69921875,0.03125,-2.05859375,1.751953125,0.0,180.0,360.0
3868929,,,,,,,,4.9921875,-11.45703125,5.69921875,0.03125,-2.05859375,1.751953125,0.0,180.0,360.0
3868930,36.01252733333333,129.3193638333333,68.85913635363704,14.129078711330205,2.6,49.0,,4.9921875,-11.45703125,5.69921875,-0.73046875,-2.48046875,2.103515625,0.0,180.0,360.0
3868931,,,,,,,,1.015625,-8.4140625,2.0390625,-0.73046875,-2.48046875,2.103515625,0.0,180.0,360.0
3868932,,,,,,,,1.015625,-8.4140625,2.0390625,-0.24609375,-1.79296875,1.931640625,0.0,180.0,360.0
3868933,,,,,,,,1.3671875,-6.55078125,1.375,-0.24609375,-1.79296875,1.931640625,0.0,180.0,360.0
3868934,,,,,,,,1.3671875,-6.55078125,1.375,0.03125,-1.541015625,1.61328125,0.0,180.0,360.0
3868935,,,,,,,,2.734375,2.29296875,-0.9921875,0.03125,-1.541015625,1.61328125,0.0,180.0,360.0
3868936,,,,,,,,2.734375,2.29296875,-0.9921875,0.03125,-1.541015625,1.61328125,0.0,180.0,360.0
3868937,,,,,,,,2.734375,2.29296875,-0.9921875,0.478515625,-1.205078125,1.2265625,0.0,180.0,360.0
3868938,,,,,,,,3.31640625,9.2578125,-3.421875,0.478515625,-1.205078125,1.2265625,0.0,180.0,360.0
3868939,,,,,,,,3.31640625,9.2578125,-3.421875,0.51953125,-1.41015625,1.0703125,0.0,180.0,360.0
3868940,36.012530500000004,129.319368,69.23475619273762,14.480452569129724,2.5,49.0,,3.31640625,9.2578125,-3.421875,0.51953125,-1.41015625,1.0703125,0.0,180.0,360.0
3868941,,,,,,,,3.31640625,9.2578125,-3.421875,0.07421875,-0.884765625,0.92578125,0.0,180.0,360.0
3868942,,,,,,,,3.46875,8.23046875,-4.89453125,0.07421875,-0.884765625,0.92578125,0.0,180.0,360.0
3868943,,,,,,,,3.46875,8.23046875,-4.89453125,0.330078125,0.826171875,0.466796875,0.0,180.0,360.0
3868944,,,,,,,,3.9921875,5.1328125,-3.72265625,0.330078125,0.826171875,0.466796875,0.0,180.0,360.0
3868945,,,,,,,,3.9921875,5.1328125,-3.72265625,0.984375,0.271484375,0.55859375,0.0,180.0,360.0
3868946,,,,,,,,2.53125,6.015625,-1.6953125,0.984375,0.271484375,0.55859375,0.0,180.0,360.0
3868947,,,,,,,,2.53125,6.015625,-1.6953125,1.322265625,0.216796875,0.451171875,0.0,180.0,360.0
3868948,,,,,,,,1.20703125,9.5,-0.3671875,1.322265625,0.216796875,0.451171875,0.0,180.0,360.0
3868949,,,,,,,,1.20703125,9.5,-0.3671875,0.3515625,0.4140625,0.337890625,0.0,180.0,360.0
3868950,36.01253216666667,129.31937033333332,69.4451033831328,14.6653862844765,2.8000000000000003,47.0,,1.20703125,9.5,-0.3671875,0.3515625,0.4140625,0.337890625,0.0,180.0,360.0
3868951,,,,,,,,1.20703125,9.5,-0.3671875,-0.7265625,0.330078125,0.369140625,0.0,180.0,360.0
3868952,,,,,,,,0.52734375,4.6484375,1.890625,-0.7265625,0.330078125,0.369140625,0.0,180.0,360.0
3868953,,,,,,,,0.52734375,4.6484375,1.890625,-1.287109375,-1.998046875,0.705078125,0.0,180.0,360.0
3868954,,,,,,,,0.52734375,4.6484375,1.890625,0.98828125,0.40234375,-0.560546875,0.0,180.0,360.0
3868955,,,,,,,,-5.09375,-35.64453125,13.76171875,0.98828125,0.40234375,-0.560546875,0.0,180.0,360.0
3868956,,,,,,,,-5.09375,-35.64453125,13.76171875,1.3671875,1.494140625,-0.484375,0.0,180.0,360.0
3868957,,,,,,,,0.7265625,-5.55078125,3.796875,1.3671875,1.494140625,-0.484375,0.0,180.0,360.0
3868958,,,,,,,,0.7265625,-5.55078125,3.796875,-1.486328125,2.5390625,-0.740234375,0.0,180.0,360.0
3868959,,,,,,,,8.79296875,-6.44921875,-0.31640625,-1.486328125,2.5390625,-0.740234375,0.0,180.0,360.0
3868960,36.012533833333336,129.31937266666668,69.65545056626112,14.850320004556163,2.9000000000000004,45.0,,8.79296875,-6.44921875,-0.31640625,-1.486328125,2.5390625,-0.740234375,0.0,180.0,360.0
3868961,,,,,,,,8.79296875,-6.44921875,-0.31640625,-0.494140625,2.908203125,-2.0,0.0,180.0,360.0
3868962,,,,,,,,1.09765625,-8.15625,1.03515625,-0.494140625,2.908203125,-2.0,0.0,180.0,360.0
3868963,,,,,,,,1.09765625,-8.15625,1.03515625,-0.626953125,2.44140625,-2.0859375,0.0,180.0,360.0
3868964,,,,,,,,-0.01171875,-5.90234375,2.86328125,-0.626953125,2.44140625,-2.0859375,0.0,180.0,360.0
3868965,,,,,,,,-0.01171875,-5.90234375,2.86328125,-0.626953125,2.44140625,-2.0859375,0.0,180.0,360.0
3868966,,,,,,,,-0.01171875,-5.90234375,2.86328125,-0.416015625,2.638671875,-1.697265625,0.0,180.0,360.0
3868967,,,,,,,,-4.01953125,2.56640625,-1.03515625,-0.416015625,2.638671875,-1.697265625,0.0,180.0,360.0
3868968,,,,,,,,-4.01953125,2.56640625,-1.03515625,-0.60546875,2.390625,-1.2265625,0.0,180.0,360.0
3868969,,,,,,,,-4.01953125,2.56640625,-1.03515625,-0.77734375,1.896484375,-0.888671875,0.0,180.0,360.0
3868970,36.0125355,129.31937533333334,69.8958475429162,15.035253968709092,2.9000000000000004,47.0,,-4.80078125,9.18359375,-2.3125,-0.77734375,1.896484375,-0.888671875,0.0,180.0,360.0
3868971,,,,,,,,-4.80078125,9.18359375,-2.3125,-0.8359375,1.169921875,-0.78515625,0.0,180.0,360.0
3868972,,,,,,,,-4.80078125,9.18359375,-2.3125,-1.05859375,0.458984375,-0.783203125,0.0,180.0,360.0
3868973,,,,,,,,-4.796875,11.0546875,-2.515625,-1.05859375,0.458984375,-0.783203125,0.0,180.0,360.0
3868974,,,,,,,,-4.796875,11.0546875,-2.515625,-0.607421875,-0.603515625,-0.671875,0.0,180.0,360.0
3868975,,,,,,,,-4.47265625,8.359375,-2.44140625,-0.607421875,-0.603515625,-0.671875,0.0,180.0,360.0
3868976,,,,,,,,-4.47265625,8.359375,-2.44140625,0.591796875,-0.109375,-0.802734375,0.0,180.0,360.0
3868977,,,,,,,,-1.42578125,4.7734375,-3.62109375,0.591796875,-0.109375,-0.802734375,0.0,180.0,360.0
3868978,,,,,,,,-1.42578125,4.7734375,-3.62109375,1.38671875,1.107421875,-1.041015625,0.0,180.0,360.0
3868979,,,,,,,,-0.9296875,7.30859375,-3.33984375,1.38671875,1.107421875,-1.041015625,0.0,180.0,360.0
3868980,36.01253733333333,129.31937716666667,70.06111984923159,15.238680544928844,2.8000000000000003,45.0,,-0.9296875,7.30859375,-3.33984375,1.490234375,0.58984375,-0.888671875,0.0,180.0,360.0
3868981,,,,,,,,-2.28125,10.9296875,0.7265625,1.490234375,0.58984375,-0.888671875,0.0,180.0,360.0
3868982,,,,,,,,-2.28125,10.9296875,0.7265625,0.765625,-0.205078125,-0.630859375,0.0,180.0,360.0
3868983,,,,,,,,-2.28125,10.9296875,0.7265625,0.306640625,-1.1328125,-0.392578125,0.0,180.0,360.0
3868984,,,,,,,,-4.8359375,9.78515625,0.890625,0.306640625,-1.1328125,-0.392578125,0.0,180.0,360.0
3868985,,,,,,,,-4.8359375,9.78515625,0.890625,-0.6484375,-1.697265625,-0.505859375,0.0,180.0,360.0
3868986,,,,,,,,-5.62109375,5.0625,0.43359375,-0.6484375,-1.697265625,-0.505859375,0.0,180.0,360.0
3868987,,,,,,,,-5.62109375,5.0625,0.43359375,-1.857421875,-1.12109375,0.267578125,0.0,180.0,360.0
3868988,,,,,,,,0.4140625,-15.29296875,3.65625,-1.857421875,-1.12109375,0.267578125,0.0,180.0,360.0
3868989,,,,,,,,0.4140625,-15.29296875,3.65625,3.228515625,-0.79296875,-0.134765625,0.0,180.0,360.0
3868990,36.012539,129.31937966666666,70.28649190546835,15.42361440111442,2.8000000000000003,47.0,,0.4140625,-15.29296875,3.65625,3.228515625,-0.79296875,-0.134765625,0.0,180.0,360.0
3868991,,,,,,,,0.4140625,-15.29296875,3.65625,-0.099609375,-3.453125,0.908203125,0.0,180.0,360.0
3868992,,,,,,,,-1.515625,-14.8203125,5.18359375,-0.099609375,-3.453125,0.908203125,0.0,180.0,360.0
3868993,,,,,,,,-1.515625,-14.8203125,5.18359375,0.62890625,-2.193359375,1.552734375,0.0,180.0,360.0
3868994,,,,,,,,-1.515625,-14.8203125,5.18359375,-0.0703125,-2.689453125,2.033203125,0.0,180.0,360.0
3868995,,,,,,,,3.8671875,-8.50390625,4.01953125,-0.0703125,-2.689453125,2.033203125,0.0,180.0,360.0
3868996,,,,,,,,3.8671875,-8.50390625,4.01953125,-0.0703125,-2.689453125,2.033203125,0.0,180.0,360.0
3868997,,,,,,,,3.8671875,-8.50390625,4.01953125,-0.4296875,-2.33984375,1.966796875,0.0,180.0,360.0
3868998,,,,,,,,2.6484375,-3.765625,1.80859375,-0.4296875,-2.33984375,1.966796875,0.0,180.0,360.0
3868999,,,,,,,,2.6484375,-3.765625,1.80859375,0.09765625,-2.0234375,1.564453125,0.0,180.0,360.0
3869000,36.0125425,129.31938416666665,70.69216113458258,15.811974972504903,2.9000000000000004,48.0,123.0,2.6484375,-3.765625,1.80859375,0.04296875,-1.759765625,1.267578125,0.0,180.0,360.0
3869001,,,,,,,,2.6484375,-3.765625,1.80859375,0.04296875,-1.759765625,1.267578125,0.0,180.0,360.0
3869002,,,,,,,,2.9609375,5.85546875,-2.16015625,0.04296875,-1.759765625,1.267578125,0.0,180.0,360.0
3869003,,,,,,,,2.9609375,5.85546875,-2.16015625,-0.693359375,2.916015625,-1.83984375,0.0,180.0,360.0
3869004,,,,,,,,2.9609375,5.85546875,-2.16015625,-0.630859375,2.697265625,-1.509765625,0.0,180.0,360.0
3869005,,,,,,,,-2.67578125,-0.2578125,-1.08984375,-0.630859375,2.697265625,-1.509765625,0.0,180.0,360.0
3869006,,,,,,,,-2.67578125,-0.2578125,-1.08984375,-0.630859375,2.697265625,-1.509765625,0.0,180.0,360.0
3869007,,,,,,,,-2.67578125,-0.2578125,-1.08984375,-0.6640625,2.275390625,-1.171875,0.0,180.0,360.0
3869008,,,,,,,,-5.140625,6.578125,-1.31640625,-0.6640625,2.275390625,-1.171875,0.0,180.0,360.0
3869009,,,,,,,,-5.140625,6.578125,-1.31640625,-0.43359375,1.91796875,-0.86328125,0.0,180.0,360.0
3869010,36.012548333333335,129.31939216666666,71.41335114341472,16.45924300067125,3.0,46.0,,-5.140625,6.578125,-1.31640625,-0.66796875,0.806640625,-0.67578125,0.0,180.0,360.0
3869011,,,,,,,,-6.48828125,13.6328125,-3.12890625,-0.66796875,0.806640625,-0.67578125,0.0,180.0,360.0
3869012,,,,,,,,-6.48828125,13.6328125,-3.12890625,-1.078125,-0.142578125,-0.369140625,0.0,180.0,360.0
3869013,,,,,,,,-4.65234375,8.078125,-2.13671875,-1.078125,-0.142578125,-0.369140625,0.0,180.0,360.0
3869014,,,,,,,,-4.65234375,8.078125,-2.13671875,-0.548828125,-0.419921875,-0.345703125,0.0,180.0,360.0
3869015,,,,,,,,-4.65234375,8.078125,-2.13671875,0.388671875,-0.1171875,-0.5859375,0.0,180.0,360.0
3869016,,,,,,,,-3.046875,6.38671875,-2.3984375,0.388671875,-0.1171875,-0.5859375,0.0,180.0,360.0
3869017,,,,,,,,-3.046875,6.38671875,-2.3984375,0.759765625,0.376953125,-0.712890625,0.0,180.0,360.0
3869018,,,,,,,,0.71484375,7.296875,-1.44140625,0.759765625,0.376953125,-0.712890625,0.0,180.0,360.0
3869019,,,,,,,,0.71484375,7.296875,-1.44140625,0.861328125,0.26953125,-0.708984375,0.0,180.0,360.0
3869020,36.012550166666664,129.31939400000002,71.57862338991428,16.66266960543704,3.0,44.0,,-0.5,9.1484375,0.02734375,0.861328125,0.26953125,-0.708984375,0.0,180.0,360.0
3869021,,,,,,,,-0.5,9.1484375,0.02734375,1.0703125,-0.0234375,-0.6484375,0.0,180.0,360.0
3869022,,,,,,,,-3.19140625,9.4453125,-0.20703125,1.0703125,-0.0234375,-0.6484375,0.0,180.0,360.0
3869023,,,,,,,,-3.19140625,9.4453125,-0.20703125,0.197265625,-1.091796875,-0.369140625,0.0,180.0,360.0
3869024,,,,,,,,-3.19140625,9.4453125,-0.20703125,-1.880859375,-0.91796875,-1.20703125,0.0,180.0,360.0
3869025,,,,,,,,3.1796875,-14.34375,0.84375,-1.880859375,-0.91796875,-1.20703125,0.0,180.0,360.0
3869026,,,,,,,,3.1796875,-14.34375,0.84375,-1.880859375,-0.91796875,-1.20703125,0.0,180.0,360.0
3869027,,,,,,,,3.1796875,-14.34375,0.84375,2.732421875,-0.099609375,0.361328125,0.0,180.0,360.0
3869028,,,,,,,,6.1640625,-9.05859375,8.0078125,2.732421875,-0.099609375,0.361328125,0.0,180.0,360.0
3869029,,,,,,,,6.1640625,-9.05859375,8.0078125,1.0625,-1.77734375,0.07421875,0.0,180.0,360.0
3869030,36.012552,129.31939716666665,71.86409482133509,16.866097197737414,3.1,47.0,,6.1640625,-9.05859375,8.0078125,0.50390625,-2.81640625,1.13671875,0.0,180.0,360.0
3869031,,,,,,,,-3.015625,-16.37890625,5.1015625,0.50390625,-2.81640625,1.13671875,0.0,180.0,360.0
3869032,,,,,,,,-3.015625,-16.37890625,5.1015625,0.279296875,-2.62109375,1.693359375,0.0,180.0,360.0
3869033,,,,,,,,2.3671875,-7.0390625,1.30859375,0.279296875,-2.62109375,1.693359375,0.0,180.0,360.0
3869034,,,,,,,,2.3671875,-7.0390625,1.30859375,-0.080078125,-2.52734375,1.9453125,0.0,180.0,360.0
3869035,,,,,,,,2.3671875,-7.0390625,1.30859375,-0.080078125,-2.52734375,1.9453125,0.0,180.0,360.0
3869036,,,,,,,,2.3671875,-7.0390625,1.30859375,0.09765625,-2.087890625,1.900390625,0.0,180.0,360.0
3869037,,,,,,,,2.56640625,-2.546875,-0.17578125,0.09765625,-2.087890625,1.900390625,0.0,180.0,360.0
3869038,,,,,,,,2.56640625,-2.546875,-0.17578125,0.03125,-1.876953125,1.658203125,0.0,180.0,360.0
3869039,,,,,,,,2.56640625,-2.546875,-0.17578125,0.171875,-1.4296875,1.25,0.0,180.0,360.0
3869040,36.01255383333333,129.3193998333333,72.10449154463669,17.069524427554835,3.0,48.0,,3.55859375,4.2734375,-1.9765625,0.171875,-1.4296875,1.25,0.0,180.0,360.0
3869041,,,,,,,,3.55859375,4.2734375,-1.9765625,0.259765625,-1.35546875,0.85546875,0.0,180.0,360.0
3869042,,,,,,,,3.66015625,10.7265625,-3.94140625,0.259765625,-1.35546875,0.85546875,0.0,180.0,360.0
3869043,,,,,,,,3.66015625,10.7265625,-3.94140625,-0.1484375,-1.505859375,1.0,0.0,180.0,360.0
3869044,,,,,,,,3.66015625,10.7265625,-3.94140625,-0.1484375,-1.505859375,1.0,0.0,180.0,360.0
3869045,,,,,,,,3.66015625,10.7265625,-3.94140625,-0.71484375,-1.05078125,0.923828125,0.0,180.0,360.0
3869046,,,,,,,,3.86328125,7.34765625,-5.9140625,-0.71484375,-1.05078125,0.923828125,0.0,180.0,360.0
3869047,,,,,,,,3.86328125,7.34765625,-5.9140625,-0.73828125,0.63671875,0.67578125,0.0,180.0,360.0
3869048,,,,,,,,3.86328125,7.34765625,-5.9140625,0.255859375,0.841796875,0.818359375,0.0,180.0,360.0
3869049,,,,,,,,2.99609375,4.51171875,-3.875,0.255859375,0.841796875,0.818359375,0.0,180.0,360.0
3869050,36.01255716666667,129.31940466666668,72.54021057404589,17.439392126787084,3.0,50.0,,2.99609375,4.51171875,-3.875,1.587890625,0.00390625,0.701171875,0.0,180.0,360.0
3869051,,,,,,,,0.24609375,4.703125,-1.1640625,1.587890625,0.00390625,0.701171875,0.0,180.0,360.0
3869052,,,,,,,,0.24609375,4.703125,-1.1640625,1.892578125,0.171875,0.310546875,0.0,180.0,360.0
3869053,,,,,,,,0.24609375,4.703125,-1.1640625,1.892578125,0.171875,0.310546875,0.0,180.0,360.0
3869054,,,,,,,,0.24609375,4.703125,-1.1640625,-0.31640625,0.79296875,0.310546875,0.0,180.0,360.0
3869055,,,,,,,,0.05859375,9.3359375,0.25390625,-0.31640625,0.79296875,0.310546875,0.0,180.0,360.0
3869056,,,,,,,,0.05859375,9.3359375,0.25390625,-0.841796875,-0.015625,0.5546875,0.0,180.0,360.0
3869057,,,,,,,,0.05859375,9.3359375,0.25390625,-0.376953125,-1.203125,-0.05859375,0.0,180.0,360.0
3869058,,,,,,,,-10.34375,-42.26171875,15.9453125,-0.376953125,-1.203125,-0.05859375,0.0,180.0,360.0
3869059,,,,,,,,-10.34375,-42.26171875,15.9453125,2.060546875,0.43359375,-0.25,0.0,180.0,360.0
3869060,36.01255966666667,129.31940766666668,72.81065644852862,17.716792448505707,3.3000000000000003,47.0,,-0.1328125,-10.984375,10.3046875,2.060546875,0.43359375,-0.25,0.0,180.0,360.0
3869061,,,,,,,,-0.1328125,-10.984375,10.3046875,-1.28125,2.64453125,-0.779296875,0.0,180.0,360.0
3869062,,,,,,,,8.3359375,-17.04296875,3.63671875,-1.28125,2.64453125,-0.779296875,0.0,180.0,360.0
3869063,,,,,,,,8.3359375,-17.04296875,3.63671875,0.36328125,2.822265625,-1.619140625,0.0,180.0,360.0
3869064,,,,,,,,4.28125,-12.37890625,4.14453125,0.36328125,2.822265625,-1.619140625,0.0,180.0,360.0
3869065,,,,,,,,4.28125,-12.37890625,4.14453125,-0.423828125,3.056640625,-2.080078125,0.0,180.0,360.0
3869066,,,,,,,,4.28125,-12.37890625,4.14453125,-0.423828125,3.056640625,-2.080078125,0.0,180.0,360.0
3869067,,,,,,,,4.28125,-12.37890625,4.14453125,-0.59375,2.8203125,-2.12109375,0.0,180.0,360.0
3869068,,,,,,,,-1.95703125,-3.13671875,-0.0546875,-0.59375,2.8203125,-2.12109375,0.0,180.0,360.0
3869069,,,,,,,,-1.95703125,-3.13671875,-0.0546875,-0.765625,2.794921875,-1.78125,0.0,180.0,360.0
3869070,36.01256133333333,129.319411,73.1111528727776,17.901726999203593,3.2,50.0,,-1.95703125,-3.13671875,-0.0546875,-0.86328125,2.1875,-1.4296875,0.0,180.0,360.0
3869071,,,,,,,,-4.73828125,0.05859375,-1.390625,-0.86328125,2.1875,-1.4296875,0.0,180.0,360.0
3869072,,,,,,,,-4.73828125,0.05859375,-1.390625,-0.494140625,2.091796875,-1.140625,0.0,180.0,360.0
3869073,,,,,,,,-4.73828125,0.05859375,-1.390625,-0.494140625,2.091796875,-1.140625,0.0,180.0,360.0
3869074,,,,,,,,-4.73828125,0.05859375,-1.390625,-0.33984375,1.00390625,-1.0078125,0.0,180.0,360.0
3869075,,,,,,,,-6.25390625,13.7578125,-2.75390625,-0.33984375,1.00390625,-1.0078125,0.0,180.0,360.0
3869076,,,,,,,,-6.25390625,13.7578125,-2.75390625,-0.763671875,-0.357421875,-0.701171875,0.0,180.0,360.0
3869077,,,,,,,,-6.25390625,13.7578125,-2.75390625,-0.90625,-0.748046875,-0.451171875,0.0,180.0,360.0
3869078,,,,,,,,-3.26171875,7.41015625,-3.75390625,-0.90625,-0.748046875,-0.451171875,0.0,180.0,360.0
3869079,,,,,,,,-3.26171875,7.41015625,-3.75390625,-0.21484375,-0.171875,-0.560546875,0.0,180.0,360.0
3869080,36.01256333333333,129.3194135,73.33652448765406,18.12364734563463,3.2,48.0,,-2.375,5.25,-3.19921875,-0.21484375,-0.171875,-0.560546875,0.0,180.0,360.0
3869081,,,,,,,,-2.375,5.25,-3.19921875,0.720703125,0.544921875,-0.806640625,0.0,180.0,360.0
3869082,,,,,,,,0.2421875,7.1328125,-1.0,0.720703125,0.544921875,-0.806640625,0.0,180.0,360.0
3869083,,,,,,,,0.2421875,7.1328125,-1.0,0.990234375,0.46875,-0.814453125,0.0,180.0,360.0
3869084,,,,,,,,-1.4609375,9.7734375,-1.1953125,0.990234375,0.46875,-0.814453125,0.0,180.0,360.0
3869085,,,,,,,,-1.4609375,9.7734375,-1.1953125,1.03125,-0.0234375,-0.623046875,0.0,180.0,360.0
3869086,,,,,,,,-1.4609375,9.7734375,-1.1953125,0.619140625,-0.44140625,-0.38671875,0.0,180.0,360.0
3869087,,,,,,,,-3.48828125,10.484375,-0.83203125,0.619140625,-0.44140625,-0.38671875,0.0,180.0,360.0
3869088,,,,,,,,-3.48828125,10.484375,-0.83203125,-0.802734375,-1.556640625,-0.447265625,0.0,180.0,360.0
3869089,,,,,,,,-4.74609375,7.2265625,2.9296875,-0.802734375,-1.556640625,-0.447265625,0.0,180.0,360.0
3869090,36.01256516666667,129.31941616666666,73.57692114266186,18.32707461755538,3.2,48.0,,-4.74609375,7.2265625,2.9296875,-1.4296875,0.037109375,-0.580078125,0.0,180.0,360.0
3869091,,,,,,,,4.4609375,-13.41015625,-1.48046875,-1.4296875,0.037109375,-0.580078125,0.0,180.0,360.0
3869092,,,,,,,,4.4609375,-13.41015625,-1.48046875,3.5546875,-0.521484375,-0.20703125,0.0,180.0,360.0
3869093,,,,,,,,4.4609375,-13.41015625,-1.48046875,3.5546875,-0.521484375,-0.20703125,0.0,180.0,360.0
3869094,,,,,,,,4.4609375,-13.41015625,-1.48046875,0.29296875,-2.75,0.849609375,0.0,180.0,360.0
3869095,,,,,,,,-2.66796875,-15.8828125,4.46875,0.29296875,-2.75,0.849609375,0.0,180.0,360.0
3869096,,,,,,,,-2.66796875,-15.8828125,4.46875,0.51171875,-2.251953125,1.56640625,0.0,180.0,360.0
3869097,,,,,,,,-2.66796875,-15.8828125,4.46875,0.255859375,-2.591796875,2.041015625,0.0,180.0,360.0
3869098,,,,,,,,0.81640625,-9.98046875,2.4375,0.255859375,-2.591796875,2.041015625,0.0,180.0,360.0
3869099,,,,,,,,0.81640625,-9.98046875,2.4375,0.03125,-2.46484375,2.17578125,0.0,180.0,360.0
3869100,36.012569,129.31942166666667,74.07273916142188,18.75242251240994,3.0,47.0,123.0,0.81640625,-9.98046875,2.4375,0.03125,-2.46484375,2.17578125,0.0,180.0,360.0
3869101,,,,,,,,0.81640625,-9.98046875,2.4375,0.03125,-2.46484375,2.17578125,0.0,180.0,360.0
3869102,,,,,,,,2.015625,-6.625,-0.12890625,0.03125,-2.46484375,2.17578125,0.0,180.0,360.0
3869103,,,,,,,,2.015625,-6.625,-0.12890625,-0.078125,-1.943359375,1.990234375,0.0,180.0,360.0
3869104,,,,,,,,2.015625,-6.625,-0.12890625,-0.138671875,0.578125,0.07421875,0.0,180.0,360.0
3869105,,,,,,,,2.015625,-6.625,-0.12890625,-0.515625,-0.046875,0.369140625,0.0,180.0,360.0
3869106,,,,,,,,-0.73046875,0.69140625,1.0625,-0.515625,-0.046875,0.369140625,0.0,180.0,360.0
3869107,,,,,,,,-0.73046875,0.69140625,1.0625,-0.275390625,-0.08984375,0.123046875,0.0,180.0,360.0
3869108,,,,,,,,-5.6171875,-32.58984375,13.44140625,-0.275390625,-0.08984375,0.123046875,0.0,180.0,360.0
3869109,,,,,,,,-5.6171875,-32.58984375,13.44140625,-0.275390625,-0.08984375,0.123046875,0.0,180.0,360.0
3869110,36.01257283333334,129.31942616666666,74.47840775607307,19.177769672172687,3.0,45.0,,-5.6171875,-32.58984375,13.44140625,-0.490234375,2.392578125,-0.359375,0.0,180.0,360.0
3869111,,,,,,,,8.46484375,-13.50390625,0.98046875,-0.490234375,2.392578125,-0.359375,0.0,180.0,360.0
3869112,,,,,,,,8.46484375,-13.50390625,0.98046875,0.140625,2.796875,-1.380859375,0.0,180.0,360.0
3869113,,,,,,,,6.234375,-13.84375,4.40625,0.140625,2.796875,-1.380859375,0.0,180.0,360.0
3869114,,,,,,,,6.234375,-13.84375,4.40625,-0.267578125,3.123046875,-1.7578125,0.0,180.0,360.0
3869115,,,,,,,,0.7734375,-9.8359375,1.16015625,-0.267578125,3.123046875,-1.7578125,0.0,180.0,360.0
3869116,,,,,,,,0.7734375,-9.8359375,1.16015625,-0.291015625,2.806640625,-1.833984375,0.0,180.0,360.0
3869117,,,,,,,,-0.32421875,-5.08203125,0.546875,-0.291015625,2.806640625,-1.833984375,0.0,180.0,360.0
3869118,,,,,,,,-0.32421875,-5.08203125,0.546875,-0.53515625,2.6484375,-1.5,0.0,180.0,360.0
3869119,,,,,,,,-2.16796875,-1.7109375,-0.984375,-0.53515625,2.6484375,-1.5,0.0,180.0,360.0
3869120,36.012574666666666,129.31942916666668,74.74885414977683,19.381197230361927,3.1,45.0,,-2.16796875,-1.7109375,-0.984375,-0.58203125,2.16796875,-1.091796875,0.0,180.0,360.0
3869121,,,,,,,,-4.94140625,5.53125,-1.6484375,-0.58203125,2.16796875,-1.091796875,0.0,180.0,360.0
3869122,,,,,,,,-4.94140625,5.53125,-1.6484375,-0.20703125,1.99609375,-0.828125,0.0,180.0,360.0
3869123,,,,,,,,-4.94140625,5.53125,-1.6484375,-0.138671875,0.982421875,-0.54296875,0.0,180.0,360.0
3869124,,,,,,,,-5.83984375,10.734375,-1.47265625,-0.138671875,0.982421875,-0.54296875,0.0,180.0,360.0
3869125,,,,,,,,-5.83984375,10.734375,-1.47265625,-0.482421875,-0.43359375,-0.458984375,0.0,180.0,360.0
3869126,,,,,,,,-4.875,13.93359375,-3.15625,-0.482421875,-0.43359375,-0.458984375,0.0,180.0,360.0
3869127,,,,,,,,-4.875,13.93359375,-3.15625,-0.66796875,-0.423828125,-0.28125,0.0,180.0,360.0
3869128,,,,,,,,-3.3515625,12.40234375,-4.78515625,-0.66796875,-0.423828125,-0.28125,0.0,180.0,360.0
3869129,,,,,,,,-3.3515625,12.40234375,-4.78515625,-0.064453125,-0.119140625,-0.5078125,0.0,180.0,360.0
3869130,36.01257633333333,129.31943116666667,74.92915131458027,19.566130822270786,3.0,46.0,,-1.74609375,6.3203125,-3.63671875,-0.064453125,-0.119140625,-0.5078125,0.0,180.0,360.0
3869131,,,,,,,,-1.74609375,6.3203125,-3.63671875,0.658203125,0.41796875,-0.771484375,0.0,180.0,360.0
3869132,,,,,,,,-1.74609375,6.3203125,-3.63671875,0.658203125,0.41796875,-0.771484375,0.0,180.0,360.0
3869133,,,,,,,,-1.74609375,6.3203125,-3.63671875,0.70703125,0.6953125,-0.841796875,0.0,180.0,360.0
3869134,,,,,,,,-1.08984375,9.5,-0.1484375,0.70703125,0.6953125,-0.841796875,0.0,180.0,360.0
3869135,,,,,,,,-1.08984375,9.5,-0.1484375,0.6015625,0.10546875,-0.740234375,0.0,180.0,360.0
3869136,,,,,,,,-1.08984375,9.5,-0.1484375,0.138671875,-0.701171875,-0.658203125,0.0,180.0,360.0
3869137,,,,,,,,-2.84765625,9.14453125,-0.265625,0.138671875,-0.701171875,-0.658203125,0.0,180.0,360.0
3869138,,,,,,,,-2.84765625,9.14453125,-0.265625,-0.865234375,-0.56640625,-1.205078125,0.0,180.0,360.0
3869139,,,,,,,,0.7734375,-13.47265625,2.02734375,-0.865234375,-0.56640625,-1.205078125,0.0,180.0,360.0
3869140,36.01257816666667,129.319434,75.18457278786236,19.769558267848044,3.2,48.0,,0.7734375,-13.47265625,2.02734375,2.833984375,-0.5546875,0.19140625,0.0,180.0,360.0
3869141,,,,,,,,2.01953125,-7.6796875,9.98046875,2.833984375,-0.5546875,0.19140625,0.0,180.0,360.0
3869142,,,,,,,,2.01953125,-7.6796875,9.98046875,1.01953125,-2.205078125,-0.046875,0.0,180.0,360.0
3869143,,,,,,,,2.01953125,-7.6796875,9.98046875,0.142578125,-2.86328125,1.349609375,0.0,180.0,360.0
3869144,,,,,,,,-1.5859375,-14.453125,3.90234375,0.142578125,-2.86328125,1.349609375,0.0,180.0,360.0
3869145,,,,,,,,-1.5859375,-14.453125,3.90234375,0.04296875,-2.2265625,1.80078125,0.0,180.0,360.0
3869146,,,,,,,,6.859375,-10.5390625,3.87890625,0.04296875,-2.2265625,1.80078125,0.0,180.0,360.0
3869147,,,,,,,,6.859375,-10.5390625,3.87890625,-0.30078125,-2.58984375,1.990234375,0.0,180.0,360.0
3869148,,,,,,,,4.37890625,-8.09375,1.51953125,-0.30078125,-2.58984375,1.990234375,0.0,180.0,360.0
3869149,,,,,,,,4.37890625,-8.09375,1.51953125,-0.068359375,-2.1953125,1.6796875,0.0,180.0,360.0
3869150,36.01257966666667,129.31943666666666,75.42496967244236,19.935999178509412,3.0,51.0,,2.515625,-6.0625,1.23046875,-0.068359375,-2.1953125,1.6796875,0.0,180.0,360.0
3869151,,,,,,,,2.515625,-6.0625,1.23046875,0.142578125,-1.888671875,1.41015625,0.0,180.0,360.0
3869152,,,,,,,,2.515625,-6.0625,1.23046875,0.142578125,-1.888671875,1.41015625,0.0,180.0,360.0
3869153,,,,,,,,2.515625,-6.0625,1.23046875,0.47265625,-1.541015625,1.125,0.0,180.0,360.0
3869154,,,,,,,,2.3984375,7.828125,-2.6875,0.47265625,-1.541015625,1.125,0.0,180.0,360.0
3869155,,,,,,,,2.3984375,7.828125,-2.6875,0.732421875,-1.232421875,0.82421875,0.0,180.0,360.0
3869156,,,,,,,,2.3984375,7.828125,-2.6875,0.44921875,-1.189453125,0.736328125,0.0,180.0,360.0
3869157,,,,,,,,2.6875,11.3984375,-4.4140625,0.44921875,-1.189453125,0.736328125,0.0,180.0,360.0
3869158,,,,,,,,2.6875,11.3984375,-4.4140625,-0.060546875,-1.806640625,0.9296875,0.0,180.0,360.0
3869159,,,,,,,,2.1171875,12.1640625,-6.4453125,-0.060546875,-1.806640625,0.9296875,0.0,180.0,360.0
3869160,36.0125815,129.31943950000002,75.680391125461,20.139426638081158,3.1,52.0,,2.1171875,12.1640625,-6.4453125,-0.263671875,-0.02734375,0.59765625,0.0,180.0,360.0
3869161,,,,,,,,4.30859375,5.73046875,-6.41796875,-0.263671875,-0.02734375,0.59765625,0.0,180.0,360.0
3869162,,,,,,,,4.30859375,5.73046875,-6.41796875,0.109375,1.4765625,0.498046875,0.0,180.0,360.0
3869163,,,,,,,,4.30859375,5.73046875,-6.41796875,0.697265625,0.396484375,0.7734375,0.0,180.0,360.0
3869164,,,,,,,,0.78125,6.13671875,-3.35546875,0.697265625,0.396484375,0.7734375,0.0,180.0,360.0
3869165,,,,,,,,0.78125,6.13671875,-3.35546875,0.830078125,-0.029296875,0.591796875,0.0,180.0,360.0
3869166,,,,,,,,-0.85546875,11.95703125,1.3203125,0.830078125,-0.029296875,0.591796875,0.0,180.0,360.0
3869167,,,,,,,,-0.85546875,11.95703125,1.3203125,-0.271484375,0.466796875,0.5078125,0.0,180.0,360.0
3869168,,,,,,,,1.4296875,13.6875,0.828125,-0.271484375,0.466796875,0.5078125,0.0,180.0,360.0
3869169,,,,,,,,1.4296875,13.6875,0.828125,-1.275390625,0.50390625,0.65234375,0.0,180.0,360.0
3869170,36.0125855,129.31944566666667,76.23630835162275,20.58326838025598,3.4000000000000004,50.0,,1.125,4.39453125,0.5625,-1.275390625,0.50390625,0.65234375,0.0,180.0,360.0
3869171,,,,,,,,1.125,4.39453125,0.5625,-0.62890625,-1.92578125,0.4921875,0.0,180.0,360.0
3869172,,,,,,,,1.125,4.39453125,0.5625,-0.62890625,-1.92578125,0.4921875,0.0,180.0,360.0
3869173,,,,,,,,1.125,4.39453125,0.5625,1.267578125,0.81640625,-0.357421875,0.0,180.0,360.0
3869174,,,,,,,,3.0703125,-5.6796875,1.98828125,1.267578125,0.81640625,-0.357421875,0.0,180.0,360.0
3869175,,,,,,,,3.0703125,-5.6796875,1.98828125,0.130859375,2.8203125,-0.328125,0.0,180.0,360.0
3869176,,,,,,,,3.0703125,-5.6796875,1.98828125,-0.669921875,3.201171875,-1.0078125,0.0,180.0,360.0
3869177,,,,,,,,14.0390625,-7.81640625,-1.58203125,-0.669921875,3.201171875,-1.0078125,0.0,180.0,360.0
3869178,,,,,,,,14.0390625,-7.81640625,-1.58203125,0.462890625,3.107421875,-1.93359375,0.0,180.0,360.0
3869179,,,,,,,,2.30078125,-9.5859375,2.5703125,0.462890625,3.107421875,-1.93359375,0.0,180.0,360.0
3869180,36.012587333333336,129.31944783333333,76.43163019409964,20.786695340870164,3.1,47.0,,2.30078125,-9.5859375,2.5703125,-0.6796875,2.658203125,-2.126953125,0.0,180.0,360.0
3869181,,,,,,,,-2.1328125,-4.765625,0.703125,-0.6796875,2.658203125,-2.126953125,0.0,180.0,360.0
3869182,,,,,,,,-2.1328125,-4.765625,0.703125,-0.33203125,2.126953125,-1.78515625,0.0,180.0,360.0
3869183,,,,,,,,-2.1328125,-4.765625,0.703125,0.0625,2.5078125,-1.4375,0.0,180.0,360.0
3869184,,,,,,,,-3.72265625,-1.9609375,1.20703125,0.0625,2.5078125,-1.4375,0.0,180.0,360.0
3869185,,,,,,,,-3.72265625,-1.9609375,1.20703125,-0.380859375,2.17578125,-1.029296875,0.0,180.0,360.0
3869186,,,,,,,,-6.2578125,7.171875,-4.390625,-0.380859375,2.17578125,-1.029296875,0.0,180.0,360.0
3869187,,,,,,,,-6.2578125,7.171875,-4.390625,-0.3125,1.0703125,-0.685546875,0.0,180.0,360.0
3869188,,,,,,,,-5.71484375,10.734375,-3.44921875,-0.3125,1.0703125,-0.685546875,0.0,180.0,360.0
3869189,,,,,,,,-5.71484375,10.734375,-3.44921875,-0.201171875,0.384765625,-0.701171875,0.0,180.0,360.0
3869190,36.012589166666665,129.31945050000002,76.67202670711937,20.99012269746443,3.3000000000000003,48.0,,-4.78125,12.62890625,-2.4609375,-0.201171875,0.384765625,-0.701171875,0.0,180.0,360.0
3869191,,,,,,,,-4.78125,12.62890625,-2.4609375,-0.73046875,-0.185546875,-0.650390625,0.0,180.0,360.0
3869192,,,,,,,,-4.78125,12.62890625,-2.4609375,-0.73046875,-0.185546875,-0.650390625,0.0,180.0,360.0
3869193,,,,,,,,-4.78125,12.62890625,-2.4609375,-0.4765625,-0.67578125,-0.673828125,0.0,180.0,360.0
3869194,,,,,,,,-0.34375,6.66796875,-2.2578125,-0.4765625,-0.67578125,-0.673828125,0.0,180.0,360.0
3869195,,,,,,,,-0.34375,6.66796875,-2.2578125,0.189453125,0.107421875,-0.87109375,0.0,180.0,360.0
3869196,,,,,,,,-0.34375,6.66796875,-2.2578125,0.76953125,0.265625,-0.873046875,0.0,180.0,360.0
3869197,,,,,,,,-0.1953125,8.875,-1.453125,0.76953125,0.265625,-0.873046875,0.0,180.0,360.0
3869198,,,,,,,,-0.1953125,8.875,-1.453125,0.77734375,0.080078125,-0.669921875,0.0,180.0,360.0
3869199,,,,,,,,-1.578125,11.66015625,-2.7421875,0.77734375,0.080078125,-0.669921875,0.0,180.0,360.0
3869200,36.01259266666667,129.319456,77.16784474821304,21.378484358436392,3.2,50.0,123.0,-1.578125,11.66015625,-2.7421875,0.19921875,-0.09765625,-0.4296875,0.0,180.0,360.0
3869201,,,,,,,,-1.578125,11.66015625,-2.7421875,0.19921875,-0.09765625,-0.4296875,0.0,180.0,360.0
3869202,,,,,,,,-3.6328125,8.83984375,-1.328125,0.19921875,-0.09765625,-0.4296875,0.0,180.0,360.0
3869203,,,,,,,,-3.6328125,8.83984375,-1.328125,-0.53515625,-2.716796875,2.5234375,0.0,180.0,360.0
3869204,,,,,,,,2.25,-7.16015625,-1.3203125,-0.53515625,-2.716796875,2.5234375,0.0,180.0,360.0
3869205,,,,,,,,2.25,-7.16015625,-1.3203125,-0.6640625,-2.03515625,2.16015625,0.0,180.0,360.0
3869206,,,,,,,,2.25,-7.16015625,-1.3203125,0.306640625,-1.591796875,1.439453125,0.0,180.0,360.0
3869207,,,,,,,,4.0546875,-0.1953125,-0.8515625,0.306640625,-1.591796875,1.439453125,0.0,180.0,360.0
3869208,,,,,,,,4.0546875,-0.1953125,-0.8515625,0.705078125,-1.662109375,0.912109375,0.0,180.0,360.0
3869209,,,,,,,,4.0546875,-0.1953125,-0.8515625,0.5078125,-1.81640625,0.763671875,0.0,180.0,360.0
3869210,36.0125945,129.3194586666667,77.40824122747873,21.58191173496285,3.2,50.0,,2.4609375,9.6953125,-4.08203125,0.5078125,-1.81640625,0.763671875,0.0,180.0,360.0
3869211,,,,,,,,2.4609375,9.6953125,-4.08203125,0.1796875,-1.5546875,0.595703125,0.0,180.0,360.0
3869212,,,,,,,,2.125,11.671875,-5.30859375,0.1796875,-1.5546875,0.595703125,0.0,180.0,360.0
3869213,,,,,,,,2.125,11.671875,-5.30859375,-0.166015625,-1.205078125,0.57421875,0.0,180.0,360.0
3869214,,,,,,,,1.10546875,12.33984375,-6.41015625,-0.166015625,-1.205078125,0.57421875,0.0,180.0,360.0
3869215,,,,,,,,1.10546875,12.33984375,-6.41015625,-0.255859375,-0.275390625,0.2734375,0.0,180.0,360.0
3869216,,,,,,,,1.10546875,12.33984375,-6.41015625,-0.255859375,-0.275390625,0.2734375,0.0,180.0,360.0
3869217,,,,,,,,1.10546875,12.33984375,-6.41015625,0.056640625,0.61328125,0.4140625,0.0,180.0,360.0
3869218,,,,,,,,1.0078125,8.625,-3.16796875,0.056640625,0.61328125,0.4140625,0.0,180.0,360.0
3869219,,,,,,,,1.0078125,8.625,-3.16796875,0.66796875,0.87890625,0.5859375,0.0,180.0,360.0
3869220,36.012596,129.31946116666668,77.63361312989633,21.74835257625224,3.1,51.0,,1.0078125,8.625,-3.16796875,0.884765625,0.37890625,0.498046875,0.0,180.0,360.0
3869221,,,,,,,,-1.0703125,10.98046875,-2.3125,0.884765625,0.37890625,0.498046875,0.0,180.0,360.0
3869222,,,,,,,,-1.0703125,10.98046875,-2.3125,0.091796875,-0.00390625,0.39453125,0.0,180.0,360.0
3869223,,,,,,,,-1.32421875,12.6796875,-2.921875,0.091796875,-0.00390625,0.39453125,0.0,180.0,360.0
3869224,,,,,,,,-1.32421875,12.6796875,-2.921875,-1.248046875,-0.251953125,0.46484375,0.0,180.0,360.0
3869225,,,,,,,,-1.84375,-7.95703125,4.75,-1.248046875,-0.251953125,0.46484375,0.0,180.0,360.0
3869226,,,,,,,,-1.84375,-7.95703125,4.75,-1.654296875,-1.794921875,-0.076171875,0.0,180.0,360.0
3869227,,,,,,,,-5.73046875,-47.17578125,17.375,-1.654296875,-1.794921875,-0.076171875,0.0,180.0,360.0
3869228,,,,,,,,-5.73046875,-47.17578125,17.375,3.8046875,-0.283203125,-0.111328125,0.0,180.0,360.0
3869229,,,,,,,,-5.73046875,-47.17578125,17.375,-0.81640625,2.5703125,-0.84765625,0.0,180.0,360.0
3869230,36.012598000000004,129.31946416666668,77.9040592030302,21.970273438927567,3.2,50.0,,11.078125,0.10546875,-5.53515625,-0.81640625,2.5703125,-0.84765625,0.0,180.0,360.0
3869231,,,,,,,,11.078125,0.10546875,-5.53515625,-0.474609375,2.755859375,-1.306640625,0.0,180.0,360.0
3869232,,,,,,,,7.84765625,-15.3359375,3.33984375,-0.474609375,2.755859375,-1.306640625,0.0,180.0,360.0
3869233,,,,,,,,7.84765625,-15.3359375,3.33984375,0.220703125,3.0,-1.8203125,0.0,180.0,360.0
3869234,,,,,,,,3.34375,-13.7421875,5.515625,0.220703125,3.0,-1.8203125,0.0,180.0,360.0
3869235,,,,,,,,3.34375,-13.7421875,5.515625,-1.359375,2.640625,-1.931640625,0.0,180.0,360.0
3869236,,,,,,,,-1.6640625,-5.7890625,-1.5625,-1.359375,2.640625,-1.931640625,0.0,180.0,360.0
3869237,,,,,,,,-1.6640625,-5.7890625,-1.5625,-0.67578125,2.53125,-1.7890625,0.0,180.0,360.0
3869238,,,,,,,,-1.6640625,-5.7890625,-1.5625,-0.724609375,2.26171875,-1.482421875,0.0,180.0,360.0
3869239,,,,,,,,-3.55078125,-1.71875,-0.44140625,-0.724609375,2.26171875,-1.482421875,0.0,180.0,360.0
3869240,36.01259983333333,129.31946633333334,78.09938097652365,22.173700434957063,3.0,47.0,,-3.55078125,-1.71875,-0.44140625,-0.634765625,1.751953125,-1.2265625,0.0,180.0,360.0
3869241,,,,,,,,-4.26953125,3.390625,-2.42578125,-0.634765625,1.751953125,-1.2265625,0.0,180.0,360.0
3869242,,,,,,,,-4.26953125,3.390625,-2.42578125,-0.169921875,1.34765625,-1.119140625,0.0,180.0,360.0
3869243,,,,,,,,-2.76953125,9.90625,-3.2890625,-0.169921875,1.34765625,-1.119140625,0.0,180.0,360.0
3869244,,,,,,,,-2.76953125,9.90625,-3.2890625,-0.029296875,0.693359375,-1.015625,0.0,180.0,360.0
3869245,,,,,,,,-2.14453125,14.71484375,-5.01953125,-0.029296875,0.693359375,-1.015625,0.0,180.0,360.0
3869246,,,,,,,,-2.14453125,14.71484375,-5.01953125,-1.025390625,0.486328125,-0.427734375,0.0,180.0,360.0
3869247,,,,,,,,-5.6796875,8.6171875,-5.609375,-1.025390625,0.486328125,-0.427734375,0.0,180.0,360.0
3869248,,,,,,,,-5.6796875,8.6171875,-5.609375,-1.240234375,-0.2265625,-0.0859375,0.0,180.0,360.0
3869249,,,,,,,,-5.6796875,8.6171875,-5.609375,-0.38671875,-0.31640625,-0.21875,0.0,180.0,360.0
3869250,36.012601333333336,129.31946933333333,78.36982752005308,22.340141695726967,3.0,50.0,,-2.24609375,3.28125,-2.9921875,-0.38671875,-0.31640625,-0.21875,0.0,180.0,360.0
3869251,,,,,,,,-2.24609375,3.28125,-2.9921875,0.65625,0.248046875,-0.443359375,0.0,180.0,360.0
3869252,,,,,,,,0.33203125,4.71875,-2.30078125,0.65625,0.248046875,-0.443359375,0.0,180.0,360.0
3869253,,,,,,,,0.33203125,4.71875,-2.30078125,0.91015625,0.365234375,-0.404296875,0.0,180.0,360.0
3869254,,,,,,,,0.171875,7.69921875,-1.68359375,0.91015625,0.365234375,-0.404296875,0.0,180.0,360.0
3869255,,,,,,,,0.171875,7.69921875,-1.68359375,0.91015625,0.365234375,-0.404296875,0.0,180.0,360.0
3869256,,,,,,,,0.171875,7.69921875,-1.68359375,0.052734375,-0.751953125,-0.09765625,0.0,180.0,360.0
3869257,,,,,,,,-3.26171875,4.96875,-1.2734375,0.052734375,-0.751953125,-0.09765625,0.0,180.0,360.0
3869258,,,,,,,,-3.26171875,4.96875,-1.2734375,-1.75,-0.15234375,-0.369140625,0.0,180.0,360.0
3869259,,,,,,,,8.15625,-22.5859375,1.3984375,-1.75,-0.15234375,-0.369140625,0.0,180.0,360.0
3869260,36.012605,129.31947499999998,78.88067013330354,22.746996792671982,3.0,49.0,,8.15625,-22.5859375,1.3984375,3.240234375,-0.65625,-0.267578125,0.0,180.0,360.0
3869261,,,,,,,,9.48828125,-33.0859375,24.76953125,3.240234375,-0.65625,-0.267578125,0.0,180.0,360.0
3869262,,,,,,,,9.48828125,-33.0859375,24.76953125,0.39453125,-2.244140625,0.599609375,0.0,180.0,360.0
3869263,,,,,,,,-6.6875,-13.0546875,4.33984375,0.39453125,-2.244140625,0.599609375,0.0,180.0,360.0
3869264,,,,,,,,-6.6875,-13.0546875,4.33984375,0.556640625,-2.37890625,1.15625,0.0,180.0,360.0
3869265,,,,,,,,-2.44140625,-13.328125,2.96875,0.556640625,-2.37890625,1.15625,0.0,180.0,360.0
3869266,,,,,,,,-2.44140625,-13.328125,2.96875,0.1015625,-2.650390625,1.591796875,0.0,180.0,360.0
3869267,,,,,,,,1.98828125,-9.13671875,1.71875,0.1015625,-2.650390625,1.591796875,0.0,180.0,360.0
3869268,,,,,,,,1.98828125,-9.13671875,1.71875,-0.025390625,-2.681640625,1.73046875,0.0,180.0,360.0
3869269,,,,,,,,1.98828125,-9.13671875,1.71875,-0.109375,-2.318359375,1.716796875,0.0,180.0,360.0
3869270,36.01260683333333,129.3194778333333,79.13609142213566,22.95042435317845,2.9000000000000004,49.0,,1.84375,-3.62890625,-1.3046875,-0.109375,-2.318359375,1.716796875,0.0,180.0,360.0
3869271,,,,,,,,1.84375,-3.62890625,-1.3046875,0.09765625,-1.916015625,1.580078125,0.0,180.0,360.0
3869272,,,,,,,,2.0,0.00390625,-2.19140625,0.09765625,-1.916015625,1.580078125,0.0,180.0,360.0
3869273,,,,,,,,2.0,0.00390625,-2.19140625,0.345703125,-1.498046875,1.24609375,0.0,180.0,360.0
3869274,,,,,,,,2.078125,3.26171875,-3.1796875,0.345703125,-1.498046875,1.24609375,0.0,180.0,360.0
3869275,,,,,,,,2.078125,3.26171875,-3.1796875,0.345703125,-1.498046875,1.24609375,0.0,180.0,360.0
3869276,,,,,,,,2.078125,3.26171875,-3.1796875,-0.1015625,-0.591796875,0.787109375,0.0,180.0,360.0
3869277,,,,,,,,1.703125,13.0625,-6.7578125,-0.1015625,-0.591796875,0.787109375,0.0,180.0,360.0
3869278,,,,,,,,1.703125,13.0625,-6.7578125,-1.00390625,-0.09765625,0.5703125,0.0,180.0,360.0
3869279,,,,,,,,1.69140625,12.58203125,-8.1953125,-1.00390625,-0.09765625,0.5703125,0.0,180.0,360.0
3869280,36.012608500000006,129.31948016666666,79.34643820302868,23.135358308680683,3.0,49.0,,1.69140625,12.58203125,-8.1953125,-0.529296875,0.9140625,0.24609375,0.0,180.0,360.0
3869281,,,,,,,,3.09765625,8.17578125,-7.38671875,-0.529296875,0.9140625,0.24609375,0.0,180.0,360.0
3869282,,,,,,,,3.09765625,8.17578125,-7.38671875,0.7421875,0.015625,0.478515625,0.0,180.0,360.0
3869283,,,,,,,,1.54296875,5.3515625,-4.28515625,0.7421875,0.015625,0.478515625,0.0,180.0,360.0
3869284,,,,,,,,1.54296875,5.3515625,-4.28515625,1.662109375,-1.0859375,0.5546875,0.0,180.0,360.0
3869285,,,,,,,,-3.03125,5.80859375,0.37109375,1.662109375,-1.0859375,0.5546875,0.0,180.0,360.0
3869286,,,,,,,,-3.03125,5.80859375,0.37109375,1.044921875,0.078125,0.265625,0.0,180.0,360.0
3869287,,,,,,,,2.05859375,12.81640625,-2.08203125,1.044921875,0.078125,0.265625,0.0,180.0,360.0
3869288,,,,,,,,2.05859375,12.81640625,-2.08203125,0.34375,0.798828125,0.13671875,0.0,180.0,360.0
3869289,,,,,,,,0.8046875,11.89453125,-0.296875,0.34375,0.798828125,0.13671875,0.0,180.0,360.0
3869290,36.0126105,129.3194826666667,79.57180952832294,23.35727881591424,3.2,48.0,,0.8046875,11.89453125,-0.296875,-0.6640625,0.255859375,0.1875,0.0,180.0,360.0
3869291,,,,,,,,0.8046875,11.89453125,-0.296875,-1.283203125,-1.33984375,-0.310546875,0.0,180.0,360.0
3869292,,,,,,,,-2.4296875,-20.8046875,7.61328125,-1.283203125,-1.33984375,-0.310546875,0.0,180.0,360.0
3869293,,,,,,,,-2.4296875,-20.8046875,7.61328125,2.55859375,0.220703125,-0.10546875,0.0,180.0,360.0
3869294,,,,,,,,-8.60546875,-40.75390625,20.05859375,2.55859375,0.220703125,-0.10546875,0.0,180.0,360.0
3869295,,,,,,,,-8.60546875,-40.75390625,20.05859375,-0.373046875,2.529296875,-0.517578125,0.0,180.0,360.0
3869296,,,,,,,,8.88671875,-9.83984375,-3.01953125,-0.373046875,2.529296875,-0.517578125,0.0,180.0,360.0
3869297,,,,,,,,8.88671875,-9.83984375,-3.01953125,-0.509765625,2.11328125,-0.998046875,0.0,180.0,360.0
3869298,,,,,,,,8.88671875,-9.83984375,-3.01953125,0.08984375,2.88671875,-1.62109375,0.0,180.0,360.0
3869299,,,,,,,,3.33203125,-11.83203125,2.421875,0.08984375,2.88671875,-1.62109375,0.0,180.0,360.0
3869300,36.01261416666667,129.31948783333334,80.03757736406955,23.76413357416951,3.0,47.0,123.0,3.33203125,-11.83203125,2.421875,-0.380859375,2.671875,-1.66015625,0.0,180.0,360.0
3869301,,,,,,,,3.33203125,-11.83203125,2.421875,-0.380859375,2.671875,-1.66015625,0.0,180.0,360.0
3869302,,,,,,,,-1.328125,-5.11328125,-0.8359375,-0.380859375,2.671875,-1.66015625,0.0,180.0,360.0
3869303,,,,,,,,-1.328125,-5.11328125,-0.8359375,0.794921875,0.359375,-0.650390625,0.0,180.0,360.0
3869304,,,,,,,,-1.328125,-5.11328125,-0.8359375,0.794921875,0.359375,-0.650390625,0.0,180.0,360.0
3869305,,,,,,,,-1.328125,-5.11328125,-0.8359375,0.365234375,-0.2890625,-0.427734375,0.0,180.0,360.0
3869306,,,,,,,,-4.015625,10.234375,-1.76171875,0.365234375,-0.2890625,-0.427734375,0.0,180.0,360.0
3869307,,,,,,,,-4.015625,10.234375,-1.76171875,-0.705078125,-1.537109375,-0.419921875,0.0,180.0,360.0
3869308,,,,,,,,-5.19140625,6.90625,0.171875,-0.705078125,-1.537109375,-0.419921875,0.0,180.0,360.0
3869309,,,,,,,,-5.19140625,6.90625,0.171875,-2.349609375,-0.41796875,-0.8203125,0.0,180.0,360.0
3869310,36.01261733333333,129.3194925,80.45827100267786,24.115508325099498,3.1,49.0,,1.68359375,-10.75,-4.2265625,-2.349609375,-0.41796875,-0.8203125,0.0,180.0,360.0
3869311,,,,,,,,1.68359375,-10.75,-4.2265625,3.720703125,-0.46875,0.099609375,0.0,180.0,360.0
3869312,,,,,,,,11.40625,-16.6796875,10.859375,3.720703125,-0.46875,0.099609375,0.0,180.0,360.0
3869313,,,,,,,,11.40625,-16.6796875,10.859375,0.6875,-2.9453125,0.71484375,0.0,180.0,360.0
3869314,,,,,,,,-7.08984375,-8.6328125,1.9140625,0.6875,-2.9453125,0.71484375,0.0,180.0,360.0
3869315,,,,,,,,-7.08984375,-8.6328125,1.9140625,1.205078125,-2.35546875,1.26953125,0.0,180.0,360.0
3869316,,,,,,,,-7.08984375,-8.6328125,1.9140625,0.154296875,-2.6484375,1.697265625,0.0,180.0,360.0
3869317,,,,,,,,0.671875,-8.93359375,-0.0703125,0.154296875,-2.6484375,1.697265625,0.0,180.0,360.0
3869318,,,,,,,,0.671875,-8.93359375,-0.0703125,0.23828125,-2.580078125,1.84765625,0.0,180.0,360.0
3869319,,,,,,,,3.26171875,-9.3671875,0.28125,0.23828125,-2.580078125,1.84765625,0.0,180.0,360.0
3869320,36.012619,129.3194955,80.72871727422695,24.300442864055228,2.9000000000000004,49.0,,3.26171875,-9.3671875,0.28125,0.193359375,-2.166015625,1.6796875,0.0,180.0,360.0
3869321,,,,,,,,2.51953125,-4.54296875,-1.02734375,0.193359375,-2.166015625,1.6796875,0.0,180.0,360.0
3869322,,,,,,,,2.51953125,-4.54296875,-1.02734375,0.099609375,-1.873046875,1.4609375,0.0,180.0,360.0
3869323,,,,,,,,2.34375,2.37109375,-2.4140625,0.099609375,-1.873046875,1.4609375,0.0,180.0,360.0
3869324,,,,,,,,2.34375,2.37109375,-2.4140625,0.099609375,-1.873046875,1.4609375,0.0,180.0,360.0
3869325,,,,,,,,2.34375,2.37109375,-2.4140625,0.423828125,-1.04296875,0.7890625,0.0,180.0,360.0
3869326,,,,,,,,2.953125,9.25,-4.62109375,0.423828125,-1.04296875,0.7890625,0.0,180.0,360.0
3869327,,,,,,,,2.953125,9.25,-4.62109375,-0.216796875,-0.578125,0.53125,0.0,180.0,360.0
3869328,,,,,,,,1.78125,13.08203125,-6.12890625,-0.216796875,-0.578125,0.53125,0.0,180.0,360.0
3869329,,,,,,,,1.78125,13.08203125,-6.12890625,-0.791015625,-0.359375,0.423828125,0.0,180.0,360.0
3869330,36.01262066666666,129.31949783333332,80.93906398459607,24.48537685693568,3.0,50.0,,0.984375,13.90234375,-6.80078125,-0.791015625,-0.359375,0.423828125,0.0,180.0,360.0
3869331,,,,,,,,0.984375,13.90234375,-6.80078125,-0.640625,0.736328125,0.240234375,0.0,180.0,360.0
3869332,,,,,,,,2.80078125,9.921875,-7.3046875,-0.640625,0.736328125,0.240234375,0.0,180.0,360.0
3869333,,,,,,,,2.80078125,9.921875,-7.3046875,0.107421875,0.95703125,0.513671875,0.0,180.0,360.0
3869334,,,,,,,,2.80078125,9.921875,-7.3046875,0.107421875,0.95703125,0.513671875,0.0,180.0,360.0
3869335,,,,,,,,2.80078125,9.921875,-7.3046875,0.94140625,-0.458984375,0.6484375,0.0,180.0,360.0
3869336,,,,,,,,-3.99609375,9.60546875,-0.6484375,0.94140625,-0.458984375,0.6484375,0.0,180.0,360.0
3869337,,,,,,,,-3.99609375,9.60546875,-0.6484375,0.984375,-0.841796875,0.419921875,0.0,180.0,360.0
3869338,,,,,,,,-3.99609375,9.60546875,-0.6484375,-0.015625,0.591796875,0.19921875,0.0,180.0,360.0
3869339,,,,,,,,2.85546875,11.765625,-2.61328125,-0.015625,0.591796875,0.19921875,0.0,180.0,360.0
3869340,36.012622666666665,129.31950033333334,81.16443523491641,24.70729740527779,3.2,49.0,,2.85546875,11.765625,-2.61328125,-1.0078125,1.146484375,0.109375,0.0,180.0,360.0
3869341,,,,,,,,2.390625,9.48046875,-0.48046875,-1.0078125,1.146484375,0.109375,0.0,180.0,360.0
3869342,,,,,,,,2.390625,9.48046875,-0.48046875,-0.74609375,-0.705078125,0.21484375,0.0,180.0,360.0
3869343,,,,,,,,-0.54296875,-0.0703125,0.1171875,-0.74609375,-0.705078125,0.21484375,0.0,180.0,360.0
3869344,,,,,,,,-0.54296875,-0.0703125,0.1171875,-0.74609375,-0.705078125,0.21484375,0.0,180.0,360.0
3869345,,,,,,,,-0.54296875,-0.0703125,0.1171875,2.486328125,0.9140625,-0.578125,0.0,180.0,360.0
3869346,,,,,,,,4.6015625,-4.7890625,1.91015625,2.486328125,0.9140625,-0.578125,0.0,180.0,360.0
3869347,,,,,,,,4.6015625,-4.7890625,1.91015625,-1.01953125,2.091796875,-0.642578125,0.0,180.0,360.0
3869348,,,,,,,,7.453125,-10.15234375,-1.55078125,-1.01953125,2.091796875,-0.642578125,0.0,180.0,360.0
3869349,,,,,,,,7.453125,-10.15234375,-1.55078125,-0.884765625,2.9296875,-1.244140625,0.0,180.0,360.0
3869350,36.01262466666667,129.31950266666666,81.37478158576475,24.929217821900107,3.3000000000000003,47.0,,7.76171875,-10.15234375,-0.75,-0.884765625,2.9296875,-1.244140625,0.0,180.0,360.0
3869351,,,,,,,,7.76171875,-10.15234375,-0.75,-0.298828125,2.96484375,-1.890625,0.0,180.0,360.0
3869352,,,,,,,,4.1015625,-9.37890625,1.6640625,-0.298828125,2.96484375,-1.890625,0.0,180.0,360.0
3869353,,,,,,,,4.1015625,-9.37890625,1.6640625,-0.3984375,2.53125,-1.88671875,0.0,180.0,360.0
3869354,,,,,,,,4.1015625,-9.37890625,1.6640625,-0.3984375,2.53125,-1.88671875,0.0,180.0,360.0
3869355,,,,,,,,4.1015625,-9.37890625,1.6640625,-0.564453125,2.228515625,-1.513671875,0.0,180.0,360.0
3869356,,,,,,,,-5.78125,4.92578125,-2.45703125,-0.564453125,2.228515625,-1.513671875,0.0,180.0,360.0
3869357,,,,,,,,-5.78125,4.92578125,-2.45703125,-0.345703125,1.69140625,-1.193359375,0.0,180.0,360.0
3869358,,,,,,,,-6.02734375,8.50390625,-3.51953125,-0.345703125,1.69140625,-1.193359375,0.0,180.0,360.0
3869359,,,,,,,,-6.02734375,8.50390625,-3.51953125,-0.44921875,1.138671875,-0.744140625,0.0,180.0,360.0
3869360,36.01262616666667,129.319505,81.58512844207668,25.095658625172774,3.0,48.0,,-6.02734375,8.50390625,-3.51953125,-0.576171875,0.37109375,-0.42578125,0.0,180.0,360.0
3869361,,,,,,,,-6.65625,11.41796875,-3.2109375,-0.576171875,0.37109375,-0.42578125,0.0,180.0,360.0
3869362,,,,,,,,-6.65625,11.41796875,-3.2109375,-0.3828125,-0.501953125,-0.330078125,0.0,180.0,360.0
3869363,,,,,,,,-7.5234375,9.640625,-1.80078125,-0.3828125,-0.501953125,-0.330078125,0.0,180.0,360.0
3869364,,,,,,,,-7.5234375,9.640625,-1.80078125,-0.076171875,-1.001953125,-0.314453125,0.0,180.0,360.0
3869365,,,,,,,,-2.82421875,7.96484375,-2.43359375,-0.076171875,-1.001953125,-0.314453125,0.0,180.0,360.0
3869366,,,,,,,,-2.82421875,7.96484375,-2.43359375,0.294921875,-0.8125,-0.375,0.0,180.0,360.0
3869367,,,,,,,,-2.82421875,7.96484375,-2.43359375,0.373046875,-0.37109375,-0.404296875,0.0,180.0,360.0
3869368,,,,,,,,0.11328125,10.27734375,-2.05078125,0.373046875,-0.37109375,-0.404296875,0.0,180.0,360.0
3869369,,,,,,,,0.11328125,10.27734375,-2.05078125,0.078125,-0.484375,-0.306640625,0.0,180.0,360.0
3869370,36.01262783333333,129.3195075,81.81050000218565,25.280592778233625,3.1,48.0,,-1.12109375,10.88671875,-2.734375,0.078125,-0.484375,-0.306640625,0.0,180.0,360.0
3869371,,,,,,,,-1.12109375,10.88671875,-2.734375,-0.138671875,-1.15234375,-0.19140625,0.0,180.0,360.0
3869372,,,,,,,,-2.625,11.01953125,-2.18359375,-0.138671875,-1.15234375,-0.19140625,0.0,180.0,360.0
3869373,,,,,,,,-2.625,11.01953125,-2.18359375,-1.58984375,-1.400390625,-0.095703125,0.0,180.0,360.0
3869374,,,,,,,,-3.62109375,4.68359375,-1.41015625,-1.58984375,-1.400390625,-0.095703125,0.0,180.0,360.0
3869375,,,,,,,,-3.62109375,4.68359375,-1.41015625,-3.099609375,-1.16015625,-0.931640625,0.0,180.0,360.0
3869376,,,,,,,,-3.62109375,4.68359375,-1.41015625,-3.099609375,-1.16015625,-0.931640625,0.0,180.0,360.0
3869377,,,,,,,,-3.62109375,4.68359375,-1.41015625,3.087890625,0.12890625,0.125,0.0,180.0,360.0
3869378,,,,,,,,10.234375,-11.3515625,-2.88671875,3.087890625,0.12890625,0.125,0.0,180.0,360.0
3869379,,,,,,,,10.234375,-11.3515625,-2.88671875,2.63671875,-0.203125,0.576171875,0.0,180.0,360.0
3869380,36.01262966666666,129.31951016666665,82.05089626517557,25.48402028371555,3.1,49.0,,10.234375,-11.3515625,-2.88671875,-0.33984375,-3.376953125,0.990234375,0.0,180.0,360.0
3869381,,,,,,,,-7.78515625,-8.98046875,-1.28125,-0.33984375,-3.376953125,0.990234375,0.0,180.0,360.0
3869382,,,,,,,,-7.78515625,-8.98046875,-1.28125,-0.240234375,-2.712890625,1.50390625,0.0,180.0,360.0
3869383,,,,,,,,2.45703125,-10.84765625,-1.13671875,-0.240234375,-2.712890625,1.50390625,0.0,180.0,360.0
3869384,,,,,,,,2.45703125,-10.84765625,-1.13671875,0.525390625,-2.087890625,1.716796875,0.0,180.0,360.0
3869385,,,,,,,,0.9375,-7.15234375,-2.109375,0.525390625,-2.087890625,1.716796875,0.0,180.0,360.0
3869386,,,,,,,,0.9375,-7.15234375,-2.109375,0.458984375,-1.994140625,1.716796875,0.0,180.0,360.0
3869387,,,,,,,,0.9375,-7.15234375,-2.109375,0.169921875,-1.63671875,1.35546875,0.0,180.0,360.0
3869388,,,,,,,,2.484375,1.7578125,-3.703125,0.169921875,-1.63671875,1.35546875,0.0,180.0,360.0
3869389,,,,,,,,2.484375,1.7578125,-3.703125,-0.1953125,-1.0859375,0.689453125,0.0,180.0,360.0
3869390,36.01263266666667,129.3195151666667,82.5016396887077,25.81690221048259,2.7,50.0,,3.12890625,6.5859375,-4.71484375,-0.1953125,-1.0859375,0.689453125,0.0,180.0,360.0
3869391,,,,,,,,3.12890625,6.5859375,-4.71484375,-0.685546875,-0.853515625,0.39453125,0.0,180.0,360.0
3869392,,,,,,,,3.28125,11.0078125,-5.265625,-0.685546875,-0.853515625,0.39453125,0.0,180.0,360.0
3869393,,,,,,,,3.28125,11.0078125,-5.265625,-0.89453125,-0.537109375,0.34375,0.0,180.0,360.0
3869394,,,,,,,,1.7734375,13.828125,-4.15234375,-0.89453125,-0.537109375,0.34375,0.0,180.0,360.0
3869395,,,,,,,,1.7734375,13.828125,-4.15234375,-0.80078125,-0.419921875,0.326171875,0.0,180.0,360.0
3869396,,,,,,,,1.7734375,13.828125,-4.15234375,-0.80078125,-0.419921875,0.326171875,0.0,180.0,360.0
3869397,,,,,,,,1.7734375,13.828125,-4.15234375,0.142578125,-0.158203125,0.365234375,0.0,180.0,360.0
3869398,,,,,,,,1.4296875,4.40625,-3.00390625,0.142578125,-0.158203125,0.365234375,0.0,180.0,360.0
3869399,,,,,,,,1.4296875,4.40625,-3.00390625,1.0703125,0.28125,0.25,0.0,180.0,360.0
3869400,36.01263616666667,129.31952,82.93735766444442,26.205263634624348,2.9000000000000004,47.0,123.0,1.4296875,4.40625,-3.00390625,1.4765625,0.34375,-0.0546875,0.0,180.0,360.0
3869401,,,,,,,,1.4296875,4.40625,-3.00390625,1.4765625,0.34375,-0.0546875,0.0,180.0,360.0
3869402,,,,,,,,2.734375,11.07421875,-0.9765625,1.4765625,0.34375,-0.0546875,0.0,180.0,360.0
3869403,,,,,,,,-3.51953125,2.578125,-1.85546875,1.4765625,0.34375,-0.0546875,0.0,180.0,360.0
3869404,,,,,,,,-3.51953125,2.578125,-1.85546875,-0.470703125,1.990234375,-0.486328125,0.0,180.0,360.0
3869405,,,,,,,,-3.51953125,2.578125,-1.85546875,-0.322265625,1.6640625,-0.162109375,0.0,180.0,360.0
3869406,,,,,,,,-3.83984375,5.765625,-1.98046875,-0.322265625,1.6640625,-0.162109375,0.0,180.0,360.0
3869407,,,,,,,,-3.83984375,5.765625,-1.98046875,-0.162109375,1.384765625,0.076171875,0.0,180.0,360.0
3869408,,,,,,,,-3.97265625,11.10546875,-2.921875,-0.162109375,1.384765625,0.076171875,0.0,180.0,360.0
3869409,,,,,,,,-3.97265625,11.10546875,-2.921875,-0.169921875,0.90625,0.107421875,0.0,180.0,360.0
3869410,36.01263966666667,129.319525,83.38810048694286,26.593625224741317,2.9000000000000004,47.0,,-4.41015625,10.43359375,-3.59375,-0.169921875,0.90625,0.107421875,0.0,180.0,360.0
3869411,,,,,,,,-4.41015625,10.43359375,-3.59375,0.029296875,0.359375,-0.076171875,0.0,180.0,360.0
3869412,,,,,,,,-4.0234375,6.91796875,-2.8125,0.029296875,0.359375,-0.076171875,0.0,180.0,360.0
3869413,,,,,,,,-4.0234375,6.91796875,-2.8125,0.505859375,-0.0859375,-0.310546875,0.0,180.0,360.0
3869414,,,,,,,,-4.0234375,6.91796875,-2.8125,0.861328125,-0.26171875,-0.42578125,0.0,180.0,360.0
3869415,,,,,,,,-1.50390625,9.09765625,-2.75390625,0.861328125,-0.26171875,-0.42578125,0.0,180.0,360.0
3869416,,,,,,,,-1.50390625,9.09765625,-2.75390625,0.81640625,-0.119140625,-0.462890625,0.0,180.0,360.0
3869417,,,,,,,,-0.7109375,10.3515625,-2.6328125,0.81640625,-0.119140625,-0.462890625,0.0,180.0,360.0
3869418,,,,,,,,-0.7109375,10.3515625,-2.6328125,0.294921875,-0.263671875,-0.373046875,0.0,180.0,360.0
3869419,,,,,,,,-0.63671875,11.44140625,-1.6328125,0.294921875,-0.263671875,-0.373046875,0.0,180.0,360.0
3869420,36.01264166666667,129.31952766666666,83.62849650109118,26.815545979594095,3.1,48.0,,-0.63671875,11.44140625,-1.6328125,0.1171875,-0.73046875,-0.296875,0.0,180.0,360.0
3869421,,,,,,,,-2.578125,8.6953125,-0.22265625,0.1171875,-0.73046875,-0.296875,0.0,180.0,360.0
3869422,,,,,,,,-2.578125,8.6953125,-0.22265625,-0.158203125,-0.595703125,-0.564453125,0.0,180.0,360.0
3869423,,,,,,,,-2.578125,8.6953125,-0.22265625,-1.53515625,0.12109375,-0.568359375,0.0,180.0,360.0
3869424,,,,,,,,7.59375,-30.1171875,2.7890625,-1.53515625,0.12109375,-0.568359375,0.0,180.0,360.0
3869425,,,,,,,,7.59375,-30.1171875,2.7890625,4.541015625,1.240234375,-0.16015625,0.0,180.0,360.0
3869426,,,,,,,,16.4453125,-34.109375,20.99609375,4.541015625,1.240234375,-0.16015625,0.0,180.0,360.0
3869427,,,,,,,,16.4453125,-34.109375,20.99609375,0.69140625,-1.837890625,0.095703125,0.0,180.0,360.0
3869428,,,,,,,,0.30078125,-5.1953125,-0.0078125,0.69140625,-1.837890625,0.095703125,0.0,180.0,360.0
3869429,,,,,,,,0.30078125,-5.1953125,-0.0078125,0.271484375,-2.076171875,0.791015625,0.0,180.0,360.0
3869430,36.012643499999996,129.31953049999998,83.88391756183117,27.01897367803486,3.1,48.0,,-0.3984375,-12.94921875,1.5703125,0.271484375,-2.076171875,0.791015625,0.0,180.0,360.0
3869431,,,,,,,,-0.3984375,-12.94921875,1.5703125,-0.103515625,-1.685546875,1.486328125,0.0,180.0,360.0
3869432,,,,,,,,-0.19140625,-9.95703125,0.4609375,-0.103515625,-1.685546875,1.486328125,0.0,180.0,360.0
3869433,,,,,,,,-0.19140625,-9.95703125,0.4609375,-0.193359375,-1.583984375,1.6484375,0.0,180.0,360.0
3869434,,,,,,,,-0.19140625,-9.95703125,0.4609375,0.21875,-1.36328125,1.337890625,0.0,180.0,360.0
3869435,,,,,,,,3.11328125,-4.1953125,0.265625,0.21875,-1.36328125,1.337890625,0.0,180.0,360.0
3869436,,,,,,,,3.11328125,-4.1953125,0.265625,0.060546875,-1.576171875,0.978515625,0.0,180.0,360.0
3869437,,,,,,,,2.2734375,0.578125,-2.1875,0.060546875,-1.576171875,0.978515625,0.0,180.0,360.0
3869438,,,,,,,,2.2734375,0.578125,-2.1875,-0.142578125,-1.501953125,0.82421875,0.0,180.0,360.0
3869439,,,,,,,,0.62109375,4.44921875,-2.9921875,-0.142578125,-1.501953125,0.82421875,0.0,180.0,360.0
3869440,36.012645166666665,129.31953299999998,84.10928902441084,27.203907892153605,3.1,50.0,,0.62109375,4.44921875,-2.9921875,-0.07421875,-0.98828125,0.689453125,0.0,180.0,360.0
3869441,,,,,,,,-0.015625,10.03515625,-5.08984375,-0.07421875,-0.98828125,0.689453125,0.0,180.0,360.0
3869442,,,,,,,,-0.015625,10.03515625,-5.08984375,-0.00390625,-1.1015625,0.673828125,0.0,180.0,360.0
3869443,,,,,,,,-0.015625,10.03515625,-5.08984375,0.09375,-1.37890625,0.736328125,0.0,180.0,360.0
3869444,,,,,,,,2.90234375,11.10546875,-6.03125,0.09375,-1.37890625,0.736328125,0.0,180.0,360.0
3869445,,,,,,,,2.90234375,11.10546875,-6.03125,0.083984375,0.466796875,0.44921875,0.0,180.0,360.0
3869446,,,,,,,,6.0234375,6.86328125,-7.2890625,0.083984375,0.466796875,0.44921875,0.0,180.0,360.0
3869447,,,,,,,,6.0234375,6.86328125,-7.2890625,0.224609375,1.236328125,0.44921875,0.0,180.0,360.0
3869448,,,,,,,,3.0625,6.1640625,-6.31640625,0.224609375,1.236328125,0.44921875,0.0,180.0,360.0
3869449,,,,,,,,3.0625,6.1640625,-6.31640625,0.83984375,0.02734375,0.466796875,0.0,180.0,360.0
3869450,36.012647,129.3195355,84.33466030254856,27.40733531782416,3.2,50.0,,-3.21875,7.24609375,-0.03515625,0.83984375,0.02734375,0.466796875,0.0,180.0,360.0
3869451,,,,,,,,-3.21875,7.24609375,-0.03515625,0.990234375,-0.5234375,0.291015625,0.0,180.0,360.0
3869452,,,,,,,,3.06640625,12.3125,-0.0078125,0.990234375,-0.5234375,0.291015625,0.0,180.0,360.0
3869453,,,,,,,,3.06640625,12.3125,-0.0078125,-0.552734375,0.90234375,0.25390625,0.0,180.0,360.0
3869454,,,,,,,,3.06640625,12.3125,-0.0078125,-0.69921875,-0.701171875,0.431640625,0.0,180.0,360.0
3869455,,,,,,,,1.85546875,7.50390625,-1.078125,-0.69921875,-0.701171875,0.431640625,0.0,180.0,360.0
3869456,,,,,,,,1.85546875,7.50390625,-1.078125,0.115234375,-1.662109375,-0.248046875,0.0,180.0,360.0
3869457,,,,,,,,-7.609375,-32.55859375,17.296875,0.115234375,-1.662109375,-0.248046875,0.0,180.0,360.0
3869458,,,,,,,,-7.609375,-32.55859375,17.296875,1.353515625,1.001953125,-0.314453125,0.0,180.0,360.0
3869459,,,,,,,,-2.5546875,-13.0625,5.05859375,1.353515625,1.001953125,-0.314453125,0.0,180.0,360.0
3869460,36.012649,129.31953816666666,84.57505627063242,27.629256099394112,3.2,48.0,,-2.5546875,-13.0625,5.05859375,-0.943359375,2.7109375,-0.224609375,0.0,180.0,360.0
3869461,,,,,,,,7.2109375,-13.98046875,1.44140625,-0.943359375,2.7109375,-0.224609375,0.0,180.0,360.0
3869462,,,,,,,,7.2109375,-13.98046875,1.44140625,-0.212890625,2.904296875,-1.083984375,0.0,180.0,360.0
3869463,,,,,,,,7.2109375,-13.98046875,1.44140625,-0.212890625,2.904296875,-1.083984375,0.0,180.0,360.0
3869464,,,,,,,,7.2109375,-13.98046875,1.44140625,-0.705078125,2.828125,-1.7265625,0.0,180.0,360.0
3869465,,,,,,,,0.0859375,-7.90234375,0.42578125,-0.705078125,2.828125,-1.7265625,0.0,180.0,360.0
3869466,,,,,,,,0.0859375,-7.90234375,0.42578125,-0.384765625,2.462890625,-1.8515625,0.0,180.0,360.0
3869467,,,,,,,,0.0859375,-7.90234375,0.42578125,0.05078125,2.6171875,-1.466796875,0.0,180.0,360.0
3869468,,,,,,,,-1.9609375,-6.04296875,0.109375,0.05078125,2.6171875,-1.466796875,0.0,180.0,360.0
3869469,,,,,,,,-1.9609375,-6.04296875,0.109375,-0.138671875,2.068359375,-1.0859375,0.0,180.0,360.0
3869470,36.012650666666666,129.31954050000002,84.78540282529639,27.814190185049963,3.0,47.0,,-5.82421875,5.48046875,-3.67578125,-0.138671875,2.068359375,-1.0859375,0.0,180.0,360.0
3869471,,,,,,,,-5.82421875,5.48046875,-3.67578125,-0.474609375,1.603515625,-0.57421875,0.0,180.0,360.0
3869472,,,,,,,,-5.35546875,10.1015625,-3.56640625,-0.474609375,1.603515625,-0.57421875,0.0,180.0,360.0
3869473,,,,,,,,-5.35546875,10.1015625,-3.56640625,-0.5234375,0.90625,-0.39453125,0.0,180.0,360.0
3869474,,,,,,,,-5.35546875,10.1015625,-3.56640625,-0.59765625,0.234375,-0.357421875,0.0,180.0,360.0
3869475,,,,,,,,-5.1328125,11.3203125,-3.12890625,-0.59765625,0.234375,-0.357421875,0.0,180.0,360.0
3869476,,,,,,,,-5.1328125,11.3203125,-3.12890625,-0.6484375,-0.56640625,-0.216796875,0.0,180.0,360.0
3869477,,,,,,,,-4.1171875,7.7578125,-3.546875,-0.6484375,-0.56640625,-0.216796875,0.0,180.0,360.0
3869478,,,,,,,,-4.1171875,7.7578125,-3.546875,-0.08203125,-1.08984375,-0.294921875,0.0,180.0,360.0
3869479,,,,,,,,-3.14453125,5.67578125,-3.51171875,-0.08203125,-1.08984375,-0.294921875,0.0,180.0,360.0
3869480,36.012652333333335,129.31954266666668,84.9807244856589,27.99912413151872,3.0,47.0,,-3.14453125,5.67578125,-3.51171875,0.71875,-0.0546875,-0.646484375,0.0,180.0,360.0
3869481,,,,,,,,0.17578125,7.4140625,-3.21484375,0.71875,-0.0546875,-0.646484375,0.0,180.0,360.0
3869482,,,,,,,,0.17578125,7.4140625,-3.21484375,0.71875,-0.0546875,-0.646484375,0.0,180.0,360.0
3869483,,,,,,,,0.17578125,7.4140625,-3.21484375,1.072265625,0.669921875,-0.7421875,0.0,180.0,360.0
3869484,,,,,,,,-1.44921875,11.65625,-1.87890625,1.072265625,0.669921875,-0.7421875,0.0,180.0,360.0
3869485,,,,,,,,-1.44921875,11.65625,-1.87890625,0.041015625,-0.521484375,-0.361328125,0.0,180.0,360.0
3869486,,,,,,,,-3.10546875,11.0625,-2.41796875,0.041015625,-0.521484375,-0.361328125,0.0,180.0,360.0
3869487,,,,,,,,-3.10546875,11.0625,-2.41796875,-1.19140625,-1.478515625,-0.248046875,0.0,180.0,360.0
3869488,,,,,,,,-4.06640625,8.56640625,-0.80078125,-1.19140625,-1.478515625,-0.248046875,0.0,180.0,360.0
3869489,,,,,,,,-4.06640625,8.56640625,-0.80078125,-1.587890625,-1.02734375,-0.408203125,0.0,180.0,360.0
3869490,36.01265416666667,129.3195455,85.23614548301819,28.202551871158,3.1,48.0,,7.68359375,-31.37890625,5.6796875,-1.587890625,-1.02734375,-0.408203125,0.0,180.0,360.0
3869491,,,,,,,,7.68359375,-31.37890625,5.6796875,3.423828125,0.9921875,0.060546875,0.0,180.0,360.0
3869492,,,,,,,,21.05078125,-31.71484375,18.98046875,3.423828125,0.9921875,0.060546875,0.0,180.0,360.0
3869493,,,,,,,,21.05078125,-31.71484375,18.98046875,0.240234375,-2.693359375,0.216796875,0.0,180.0,360.0
3869494,,,,,,,,21.05078125,-31.71484375,18.98046875,0.65625,-2.3828125,1.087890625,0.0,180.0,360.0
3869495,,,,,,,,-10.77734375,-14.02734375,4.296875,0.65625,-2.3828125,1.087890625,0.0,180.0,360.0
3869496,,,,,,,,-10.77734375,-14.02734375,4.296875,0.373046875,-2.349609375,1.927734375,0.0,180.0,360.0
3869497,,,,,,,,-0.2578125,-7.78125,1.5234375,0.373046875,-2.349609375,1.927734375,0.0,180.0,360.0
3869498,,,,,,,,-0.2578125,-7.78125,1.5234375,-0.658203125,-2.33984375,2.283203125,0.0,180.0,360.0
3869499,,,,,,,,-0.0078125,-7.15234375,-1.73046875,-0.658203125,-2.33984375,2.283203125,0.0,180.0,360.0
3869500,36.01265766666667,129.31955083333332,85.71693785698012,28.59091387163158,3.0,49.0,123.0,-0.0078125,-7.15234375,-1.73046875,-0.111328125,-1.654296875,1.90234375,0.0,180.0,360.0
3869501,,,,,,,,-0.0078125,-7.15234375,-1.73046875,-0.111328125,-1.654296875,1.90234375,0.0,180.0,360.0
3869502,,,,,,,,3.74609375,0.796875,-1.734375,-0.111328125,-1.654296875,1.90234375,0.0,180.0,360.0
3869503,,,,,,,,3.74609375,0.796875,-1.734375,0.1484375,1.42578125,0.32421875,0.0,180.0,360.0
3869504,,,,,,,,1.0625,6.84765625,-3.796875,0.1484375,1.42578125,0.32421875,0.0,180.0,360.0
3869505,,,,,,,,1.0625,6.84765625,-3.796875,0.615234375,1.15625,0.205078125,0.0,180.0,360.0
3869506,,,,,,,,-1.39453125,8.75,-2.28515625,0.615234375,1.15625,0.205078125,0.0,180.0,360.0
3869507,,,,,,,,-1.39453125,8.75,-2.28515625,0.912109375,0.033203125,0.115234375,0.0,180.0,360.0
3869508,,,,,,,,-2.2265625,11.63671875,-0.16796875,0.912109375,0.033203125,0.115234375,0.0,180.0,360.0
3869509,,,,,,,,-2.2265625,11.63671875,-0.16796875,-0.591796875,0.412109375,0.15234375,0.0,180.0,360.0
3869510,36.01266116666667,129.3195558333333,86.1676804341972,28.979275606112292,3.1,49.0,,-2.2265625,11.63671875,-0.16796875,-1.123046875,-0.205078125,0.10546875,0.0,180.0,360.0
3869511,,,,,,,,-0.84765625,-6.7109375,5.97265625,-1.123046875,-0.205078125,0.10546875,0.0,180.0,360.0
3869512,,,,,,,,-0.84765625,-6.7109375,5.97265625,0.57421875,-0.380859375,-0.296875,0.0,180.0,360.0
3869513,,,,,,,,-8.05859375,-33.2734375,16.36328125,0.57421875,-0.380859375,-0.296875,0.0,180.0,360.0
3869514,,,,,,,,-8.05859375,-33.2734375,16.36328125,0.564453125,1.52734375,-0.365234375,0.0,180.0,360.0
3869515,,,,,,,,-1.1640625,-15.9375,5.9140625,0.564453125,1.52734375,-0.365234375,0.0,180.0,360.0
3869516,,,,,,,,-1.1640625,-15.9375,5.9140625,-0.775390625,2.248046875,-0.765625,0.0,180.0,360.0
3869517,,,,,,,,8.26171875,-15.984375,5.11328125,-0.775390625,2.248046875,-0.765625,0.0,180.0,360.0
3869518,,,,,,,,8.26171875,-15.984375,5.11328125,0.244140625,3.01953125,-1.666015625,0.0,180.0,360.0
3869519,,,,,,,,8.26171875,-15.984375,5.11328125,-0.912109375,2.7265625,-1.896484375,0.0,180.0,360.0
3869520,36.01266316666667,129.31955833333333,86.3930514371022,29.201196290062754,3.0,46.0,,0.53125,-7.71484375,-1.41796875,-0.912109375,2.7265625,-1.896484375,0.0,180.0,360.0
3869521,,,,,,,,0.53125,-7.71484375,-1.41796875,-0.595703125,2.666015625,-1.98828125,0.0,180.0,360.0
3869522,,,,,,,,-0.15625,-6.62109375,-0.1953125,-0.595703125,2.666015625,-1.98828125,0.0,180.0,360.0
3869523,,,,,,,,-0.15625,-6.62109375,-0.1953125,-0.5625,2.9375,-1.640625,0.0,180.0,360.0
3869524,,,,,,,,-3.06640625,-1.8671875,-2.0546875,-0.5625,2.9375,-1.640625,0.0,180.0,360.0
3869525,,,,,,,,-3.06640625,-1.8671875,-2.0546875,-0.640625,2.412109375,-1.25,0.0,180.0,360.0
3869526,,,,,,,,-5.046875,2.22265625,-3.04296875,-0.640625,2.412109375,-1.25,0.0,180.0,360.0
3869527,,,,,,,,-5.046875,2.22265625,-3.04296875,-0.490234375,2.01171875,-0.875,0.0,180.0,360.0
3869528,,,,,,,,-6.28125,9.79296875,-1.59375,-0.490234375,2.01171875,-0.875,0.0,180.0,360.0
3869529,,,,,,,,-6.28125,9.79296875,-1.59375,-0.00390625,0.546875,-0.72265625,0.0,180.0,360.0
3869530,36.01266483333333,129.31956083333336,86.61842279324917,29.386130568432055,3.0,48.0,,-6.28125,9.79296875,-1.59375,-0.455078125,-0.134765625,-0.51953125,0.0,180.0,360.0
3869531,,,,,,,,-5.33984375,14.0546875,-4.91015625,-0.455078125,-0.134765625,-0.51953125,0.0,180.0,360.0
3869532,,,,,,,,-5.33984375,14.0546875,-4.91015625,-1.095703125,-0.30078125,-0.185546875,0.0,180.0,360.0
3869533,,,,,,,,-4.796875,9.3125,-4.73046875,-1.095703125,-0.30078125,-0.185546875,0.0,180.0,360.0
3869534,,,,,,,,-4.796875,9.3125,-4.73046875,-0.73828125,-0.59375,-0.236328125,0.0,180.0,360.0
3869535,,,,,,,,-4.2109375,5.3515625,-3.6953125,-0.73828125,-0.59375,-0.236328125,0.0,180.0,360.0
3869536,,,,,,,,-4.2109375,5.3515625,-3.6953125,-0.73828125,-0.59375,-0.236328125,0.0,180.0,360.0
3869537,,,,,,,,-4.2109375,5.3515625,-3.6953125,1.05078125,0.416015625,-0.625,0.0,180.0,360.0
3869538,,,,,,,,1.296875,8.28515625,-3.37109375,1.05078125,0.416015625,-0.625,0.0,180.0,360.0
3869539,,,,,,,,1.296875,8.28515625,-3.37109375,1.05078125,0.416015625,-0.625,0.0,180.0,360.0
3869540,36.01266666666667,129.31956350000002,86.85881883210632,29.589558207555342,3.2,49.0,,1.296875,8.28515625,-3.37109375,1.033203125,0.63671875,-0.5078125,0.0,180.0,360.0
3869541,,,,,,,,-5.06640625,10.18359375,0.43359375,1.033203125,0.63671875,-0.5078125,0.0,180.0,360.0
3869542,,,,,,,,-5.06640625,10.18359375,0.43359375,0.453125,-0.654296875,-0.21875,0.0,180.0,360.0
3869543,,,,,,,,-5.06640625,10.18359375,0.43359375,-1.185546875,-1.140625,-0.560546875,0.0,180.0,360.0
3869544,,,,,,,,0.37890625,-10.6640625,-0.9140625,-1.185546875,-1.140625,-0.560546875,0.0,180.0,360.0
3869545,,,,,,,,0.37890625,-10.6640625,-0.9140625,1.234375,-0.369140625,0.416015625,0.0,180.0,360.0
3869546,,,,,,,,11.9296875,-37.5078125,19.609375,1.234375,-0.369140625,0.416015625,0.0,180.0,360.0
3869547,,,,,,,,11.9296875,-37.5078125,19.609375,1.97265625,-0.75,-0.314453125,0.0,180.0,360.0
3869548,,,,,,,,-7.4140625,-7.57421875,2.671875,1.97265625,-0.75,-0.314453125,0.0,180.0,360.0
3869549,,,,,,,,-7.4140625,-7.57421875,2.671875,0.50390625,-2.619140625,0.916015625,0.0,180.0,360.0
3869550,36.01266816666667,129.3195663333333,87.11424010213429,29.755999589493477,3.0,49.0,,-7.4140625,-7.57421875,2.671875,0.076171875,-2.302734375,1.4765625,0.0,180.0,360.0
3869551,,,,,,,,0.484375,-9.00390625,0.91015625,0.076171875,-2.302734375,1.4765625,0.0,180.0,360.0
3869552,,,,,,,,0.484375,-9.00390625,0.91015625,-0.06640625,-2.7421875,1.849609375,0.0,180.0,360.0
3869553,,,,,,,,1.640625,-8.66015625,1.15625,-0.06640625,-2.7421875,1.849609375,0.0,180.0,360.0
3869554,,,,,,,,1.640625,-8.66015625,1.15625,-0.052734375,-2.552734375,1.884765625,0.0,180.0,360.0
3869555,,,,,,,,1.30078125,-8.0,0.015625,-0.052734375,-2.552734375,1.884765625,0.0,180.0,360.0
3869556,,,,,,,,1.30078125,-8.0,0.015625,-0.234375,-2.125,1.74609375,0.0,180.0,360.0
3869557,,,,,,,,2.97265625,-0.44140625,-2.26953125,-0.234375,-2.125,1.74609375,0.0,180.0,360.0
3869558,,,,,,,,2.97265625,-0.44140625,-2.26953125,0.12890625,-1.59765625,1.4453125,0.0,180.0,360.0
3869559,,,,,,,,2.97265625,-0.44140625,-2.26953125,0.12890625,-1.59765625,1.4453125,0.0,180.0,360.0
3869560,36.01267,129.3195695,87.39971075468256,29.959427690036296,3.0,50.0,,2.97265625,-0.44140625,-2.26953125,0.40625,-1.302734375,1.119140625,0.0,180.0,360.0
3869561,,,,,,,,2.2265625,9.734375,-4.05859375,0.40625,-1.302734375,1.119140625,0.0,180.0,360.0
3869562,,,,,,,,2.2265625,9.734375,-4.05859375,0.03515625,-1.37109375,1.029296875,0.0,180.0,360.0
3869563,,,,,,,,2.2265625,9.734375,-4.05859375,-0.486328125,-0.759765625,0.833984375,0.0,180.0,360.0
3869564,,,,,,,,1.84765625,12.77734375,-5.88671875,-0.486328125,-0.759765625,0.833984375,0.0,180.0,360.0
3869565,,,,,,,,1.84765625,12.77734375,-5.88671875,-0.435546875,0.529296875,0.333984375,0.0,180.0,360.0
3869566,,,,,,,,3.90234375,8.9609375,-6.859375,-0.435546875,0.529296875,0.333984375,0.0,180.0,360.0
3869567,,,,,,,,3.90234375,8.9609375,-6.859375,0.46484375,0.8828125,0.423828125,0.0,180.0,360.0
3869568,,,,,,,,0.12890625,5.94921875,-2.375,0.46484375,0.8828125,0.423828125,0.0,180.0,360.0
3869569,,,,,,,,0.12890625,5.94921875,-2.375,1.220703125,0.162109375,0.671875,0.0,180.0,360.0
3869570,36.01267166666666,129.3195725,87.67015669780017,30.14436244317271,3.1,52.0,,0.12890625,5.94921875,-2.375,1.224609375,-0.564453125,0.51171875,0.0,180.0,360.0
3869571,,,,,,,,-3.26953125,12.140625,-0.484375,1.224609375,-0.564453125,0.51171875,0.0,180.0,360.0
3869572,,,,,,,,-3.26953125,12.140625,-0.484375,0.228515625,0.294921875,0.15234375,0.0,180.0,360.0
3869573,,,,,,,,-0.12890625,13.2578125,-3.11328125,0.228515625,0.294921875,0.15234375,0.0,180.0,360.0
3869574,,,,,,,,-0.12890625,13.2578125,-3.11328125,-0.517578125,0.697265625,-0.021484375,0.0,180.0,360.0
3869575,,,,,,,,1.0,11.140625,-1.640625,-0.517578125,0.697265625,-0.021484375,0.0,180.0,360.0
3869576,,,,,,,,1.0,11.140625,-1.640625,-0.705078125,-0.515625,0.2265625,0.0,180.0,360.0
3869577,,,,,,,,0.70703125,5.08984375,-0.4921875,-0.705078125,-0.515625,0.2265625,0.0,180.0,360.0
3869578,,,,,,,,0.70703125,5.08984375,-0.4921875,0.88671875,-0.162109375,0.087890625,0.0,180.0,360.0
3869579,,,,,,,,0.70703125,5.08984375,-0.4921875,0.88671875,-0.162109375,0.087890625,0.0,180.0,360.0
3869580,36.0126735,129.31957516666668,87.91055269419878,30.347790111922983,3.1,51.0,,0.70703125,5.08984375,-0.4921875,1.103515625,2.080078125,-0.546875,0.0,180.0,360.0
3869581,,,,,,,,5.75,-8.91015625,-2.3671875,1.103515625,2.080078125,-0.546875,0.0,180.0,360.0
3869582,,,,,,,,5.75,-8.91015625,-2.3671875,-0.796875,1.80078125,-0.7265625,0.0,180.0,360.0
3869583,,,,,,,,5.75,-8.91015625,-2.3671875,0.125,2.904296875,-1.541015625,0.0,180.0,360.0
3869584,,,,,,,,8.24609375,-14.31640625,3.73828125,0.125,2.904296875,-1.541015625,0.0,180.0,360.0
3869585,,,,,,,,8.24609375,-14.31640625,3.73828125,-0.1953125,2.833984375,-1.8046875,0.0,180.0,360.0
3869586,,,,,,,,-1.0078125,-6.8828125,-0.046875,-0.1953125,2.833984375,-1.8046875,0.0,180.0,360.0
3869587,,,,,,,,-1.0078125,-6.8828125,-0.046875,-0.548828125,2.54296875,-1.740234375,0.0,180.0,360.0
3869588,,,,,,,,-2.12890625,-1.08203125,-1.29296875,-0.548828125,2.54296875,-1.740234375,0.0,180.0,360.0
3869589,,,,,,,,-2.12890625,-1.08203125,-1.29296875,-0.552734375,2.234375,-1.453125,0.0,180.0,360.0
3869590,36.0126755,129.31957783333334,88.15094849148122,30.569710992294237,3.1,48.0,,-2.12890625,-1.08203125,-1.29296875,-0.552734375,2.234375,-1.453125,0.0,180.0,360.0
3869591,,,,,,,,-2.12890625,-1.08203125,-1.29296875,-0.345703125,2.146484375,-1.16015625,0.0,180.0,360.0
3869592,,,,,,,,-4.80078125,4.6953125,-2.38671875,-0.345703125,2.146484375,-1.16015625,0.0,180.0,360.0
3869593,,,,,,,,-4.80078125,4.6953125,-2.38671875,-0.09375,1.4765625,-0.697265625,0.0,180.0,360.0
3869594,,,,,,,,-4.80078125,4.6953125,-2.38671875,-0.15625,0.234375,-0.544921875,0.0,180.0,360.0
3869595,,,,,,,,-6.609375,11.7890625,-2.734375,-0.15625,0.234375,-0.544921875,0.0,180.0,360.0
3869596,,,,,,,,-6.609375,11.7890625,-2.734375,-0.677734375,-0.142578125,-0.185546875,0.0,180.0,360.0
3869597,,,,,,,,-5.109375,14.6875,-5.08984375,-0.677734375,-0.142578125,-0.185546875,0.0,180.0,360.0
3869598,,,,,,,,-5.109375,14.6875,-5.08984375,-0.5703125,-0.4453125,-0.0234375,0.0,180.0,360.0
3869599,,,,,,,,-5.109375,14.6875,-5.08984375,-0.5703125,-0.4453125,-0.0234375,0.0,180.0,360.0
3869600,36.012679166666665,129.31958333333333,88.64676529839443,30.976566511412155,3.2,48.0,123.0,-5.109375,14.6875,-5.08984375,-0.5703125,-0.4453125,-0.0234375,0.0,180.0,360.0
3869601,,,,,,,,-5.109375,14.6875,-5.08984375,-0.5703125,-0.4453125,-0.0234375,0.0,180.0,360.0
3869602,,,,,,,,-5.109375,14.6875,-5.08984375,0.080078125,-0.07421875,-0.2421875,0.0,180.0,360.0
3869603,,,,,,,,-0.390625,6.96484375,-1.50390625,0.080078125,-0.07421875,-0.2421875,0.0,180.0,360.0
3869604,,,,,,,,-0.390625,6.96484375,-1.50390625,-0.0390625,-2.42578125,1.966796875,0.0,180.0,360.0
3869605,,,,,,,,3.02734375,-7.51953125,-0.05078125,-0.0390625,-2.42578125,1.966796875,0.0,180.0,360.0
3869606,,,,,,,,3.02734375,-7.51953125,-0.05078125,0.0546875,-1.876953125,1.634765625,0.0,180.0,360.0
3869607,,,,,,,,3.02734375,-7.51953125,-0.05078125,0.0546875,-1.876953125,1.634765625,0.0,180.0,360.0
3869608,,,,,,,,3.02734375,-7.51953125,-0.05078125,0.0625,-1.599609375,1.3125,0.0,180.0,360.0
3869609,,,,,,,,2.44140625,3.109375,-3.04296875,0.0625,-1.599609375,1.3125,0.0,180.0,360.0
3869610,36.01268266666667,129.31958883333334,89.14258224939073,31.36492885523094,3.0,50.0,,2.44140625,3.109375,-3.04296875,0.390625,-1.228515625,0.88671875,0.0,180.0,360.0
3869611,,,,,,,,2.44140625,3.109375,-3.04296875,0.384765625,-0.82421875,0.59375,0.0,180.0,360.0
3869612,,,,,,,,2.609375,10.6015625,-5.0078125,0.384765625,-0.82421875,0.59375,0.0,180.0,360.0
3869613,,,,,,,,2.609375,10.6015625,-5.0078125,0.181640625,-0.796875,0.595703125,0.0,180.0,360.0
3869614,,,,,,,,1.4609375,12.578125,-6.265625,0.181640625,-0.796875,0.595703125,0.0,180.0,360.0
3869615,,,,,,,,1.4609375,12.578125,-6.265625,0.181640625,-0.796875,0.595703125,0.0,180.0,360.0
3869616,,,,,,,,1.4609375,12.578125,-6.265625,-0.248046875,0.193359375,0.46875,0.0,180.0,360.0
3869617,,,,,,,,3.8671875,6.84765625,-7.23046875,-0.248046875,0.193359375,0.46875,0.0,180.0,360.0
3869618,,,,,,,,3.8671875,6.84765625,-7.23046875,0.4453125,1.478515625,0.634765625,0.0,180.0,360.0
3869619,,,,,,,,0.49609375,6.49609375,-4.5625,0.4453125,1.478515625,0.634765625,0.0,180.0,360.0
3869620,36.01268616666667,129.31959483333333,89.6834737772774,31.753291684950263,3.3000000000000003,52.0,,0.49609375,6.49609375,-4.5625,1.091796875,-0.193359375,0.57421875,0.0,180.0,360.0
3869621,,,,,,,,-2.95703125,6.9921875,-1.66796875,1.091796875,-0.193359375,0.57421875,0.0,180.0,360.0
3869622,,,,,,,,-2.95703125,6.9921875,-1.66796875,0.65625,-0.87890625,0.3828125,0.0,180.0,360.0
3869623,,,,,,,,-4.578125,10.0625,0.16796875,0.65625,-0.87890625,0.3828125,0.0,180.0,360.0
3869624,,,,,,,,-4.578125,10.0625,0.16796875,-1.421875,0.658203125,0.3203125,0.0,180.0,360.0
3869625,,,,,,,,3.0,9.00390625,-1.12890625,-1.421875,0.658203125,0.3203125,0.0,180.0,360.0
3869626,,,,,,,,3.0,9.00390625,-1.12890625,-0.099609375,-1.51953125,0.236328125,0.0,180.0,360.0
3869627,,,,,,,,-6.64453125,-32.40234375,15.38671875,-0.099609375,-1.51953125,0.236328125,0.0,180.0,360.0
3869628,,,,,,,,-6.64453125,-32.40234375,15.38671875,0.88671875,0.095703125,-0.236328125,0.0,180.0,360.0
3869629,,,,,,,,-6.64453125,-32.40234375,15.38671875,-0.087890625,1.814453125,-0.2421875,0.0,180.0,360.0
3869630,36.01268816666666,129.31959716666668,89.8938197470014,31.975212306315075,3.2,47.0,,8.0625,-5.97265625,-1.2890625,-0.087890625,1.814453125,-0.2421875,0.0,180.0,360.0
3869631,,,,,,,,8.0625,-5.97265625,-1.2890625,-0.337890625,2.572265625,-0.927734375,0.0,180.0,360.0
3869632,,,,,,,,8.51953125,-15.265625,2.5625,-0.337890625,2.572265625,-0.927734375,0.0,180.0,360.0
3869633,,,,,,,,8.51953125,-15.265625,2.5625,0.126953125,2.70703125,-1.80859375,0.0,180.0,360.0
3869634,,,,,,,,3.71484375,-13.83984375,3.1953125,0.126953125,2.70703125,-1.80859375,0.0,180.0,360.0
3869635,,,,,,,,3.71484375,-13.83984375,3.1953125,-0.50390625,2.33203125,-1.970703125,0.0,180.0,360.0
3869636,,,,,,,,-0.5546875,-6.90625,-0.3828125,-0.50390625,2.33203125,-1.970703125,0.0,180.0,360.0
3869637,,,,,,,,-0.5546875,-6.90625,-0.3828125,-0.50390625,2.33203125,-1.970703125,0.0,180.0,360.0
3869638,,,,,,,,-0.5546875,-6.90625,-0.3828125,0.056640625,2.501953125,-1.611328125,0.0,180.0,360.0
3869639,,,,,,,,-3.96484375,-0.26953125,-1.74609375,0.056640625,2.501953125,-1.611328125,0.0,180.0,360.0
3869640,36.01268966666667,129.31959966666668,90.11919114308388,32.14165347006842,2.9000000000000004,48.0,,-3.96484375,-0.26953125,-1.74609375,-0.091796875,2.1796875,-1.091796875,0.0,180.0,360.0
3869641,,,,,,,,-3.96484375,-0.26953125,-1.74609375,-0.17578125,1.75,-0.72265625,0.0,180.0,360.0
3869642,,,,,,,,-4.9296875,7.4453125,-3.46875,-0.17578125,1.75,-0.72265625,0.0,180.0,360.0
3869643,,,,,,,,-4.9296875,7.4453125,-3.46875,-0.03125,1.1953125,-0.58984375,0.0,180.0,360.0
3869644,,,,,,,,-3.7109375,11.55859375,-3.76953125,-0.03125,1.1953125,-0.58984375,0.0,180.0,360.0
3869645,,,,,,,,-3.7109375,11.55859375,-3.76953125,-0.30859375,0.5703125,-0.51171875,0.0,180.0,360.0
3869646,,,,,,,,-3.3515625,11.390625,-5.0625,-0.30859375,0.5703125,-0.51171875,0.0,180.0,360.0
3869647,,,,,,,,-3.3515625,11.390625,-5.0625,-0.49609375,0.052734375,-0.396484375,0.0,180.0,360.0
3869648,,,,,,,,-3.3515625,11.390625,-5.0625,-0.09375,-0.220703125,-0.5,0.0,180.0,360.0
3869649,,,,,,,,-3.38671875,7.1484375,-4.53125,-0.09375,-0.220703125,-0.5,0.0,180.0,360.0
3869650,36.012691499999995,129.31960233333334,90.35958702623591,32.34508120422713,3.0,48.0,,-3.38671875,7.1484375,-4.53125,0.5078125,-0.25,-0.689453125,0.0,180.0,360.0
3869651,,,,,,,,-3.1953125,6.84765625,-4.36328125,0.5078125,-0.25,-0.689453125,0.0,180.0,360.0
3869652,,,,,,,,-3.1953125,6.84765625,-4.36328125,0.4375,0.064453125,-0.6640625,0.0,180.0,360.0
3869653,,,,,,,,0.31640625,10.875,-2.87109375,0.4375,0.064453125,-0.6640625,0.0,180.0,360.0
3869654,,,,,,,,0.31640625,10.875,-2.87109375,0.072265625,-0.111328125,-0.548828125,0.0,180.0,360.0
3869655,,,,,,,,-0.6171875,11.05078125,-1.8359375,0.072265625,-0.111328125,-0.548828125,0.0,180.0,360.0
3869656,,,,,,,,-0.6171875,11.05078125,-1.8359375,-0.28515625,-0.609375,-0.357421875,0.0,180.0,360.0
3869657,,,,,,,,-2.66015625,4.2109375,-2.06640625,-0.28515625,-0.609375,-0.357421875,0.0,180.0,360.0
3869658,,,,,,,,-2.66015625,4.2109375,-2.06640625,-1.34765625,-1.025390625,-0.298828125,0.0,180.0,360.0
3869659,,,,,,,,0.30859375,-17.265625,3.9609375,-1.34765625,-1.025390625,-0.298828125,0.0,180.0,360.0
3869660,36.012693,129.31960466666666,90.56993353388043,32.51152222512536,2.9000000000000004,48.0,,0.30859375,-17.265625,3.9609375,3.216796875,0.1953125,-0.1875,0.0,180.0,360.0
3869661,,,,,,,,0.453125,-7.0625,5.83203125,3.216796875,0.1953125,-0.1875,0.0,180.0,360.0
3869662,,,,,,,,0.453125,-7.0625,5.83203125,0.8515625,-2.2421875,0.271484375,0.0,180.0,360.0
3869663,,,,,,,,-9.4921875,-7.69921875,0.45703125,0.8515625,-2.2421875,0.271484375,0.0,180.0,360.0
3869664,,,,,,,,-9.4921875,-7.69921875,0.45703125,0.08203125,-2.044921875,1.267578125,0.0,180.0,360.0
3869665,,,,,,,,1.96875,-12.91015625,1.76953125,0.08203125,-2.044921875,1.267578125,0.0,180.0,360.0
3869666,,,,,,,,1.96875,-12.91015625,1.76953125,0.0078125,-2.185546875,1.8359375,0.0,180.0,360.0
3869667,,,,,,,,1.96875,-12.91015625,1.76953125,0.0078125,-2.185546875,1.8359375,0.0,180.0,360.0
3869668,,,,,,,,1.96875,-12.91015625,1.76953125,-0.53125,-2.19921875,1.982421875,0.0,180.0,360.0
3869669,,,,,,,,0.65625,-8.984375,0.33984375,-0.53125,-2.19921875,1.982421875,0.0,180.0,360.0
3869670,36.01269466666667,129.31960733333332,90.81032958723915,32.696456766951144,2.8000000000000003,48.0,,0.65625,-8.984375,0.33984375,-0.15625,-1.822265625,1.775390625,0.0,180.0,360.0
3869671,,,,,,,,0.65625,-8.984375,0.33984375,-0.15625,-1.822265625,1.775390625,0.0,180.0,360.0
3869672,,,,,,,,0.65625,-8.984375,0.33984375,0.0234375,-1.701171875,1.349609375,0.0,180.0,360.0
3869673,,,,,,,,2.546875,3.5078125,-4.109375,0.0234375,-1.701171875,1.349609375,0.0,180.0,360.0
3869674,,,,,,,,2.546875,3.5078125,-4.109375,0.076171875,-1.37109375,0.96875,0.0,180.0,360.0
3869675,,,,,,,,2.546875,3.5078125,-4.109375,0.232421875,-1.634765625,0.86328125,0.0,180.0,360.0
3869676,,,,,,,,1.703125,10.76953125,-4.9375,0.232421875,-1.634765625,0.86328125,0.0,180.0,360.0
3869677,,,,,,,,1.703125,10.76953125,-4.9375,0.06640625,-1.791015625,0.8046875,0.0,180.0,360.0
3869678,,,,,,,,1.703125,10.76953125,-4.9375,0.06640625,-1.791015625,0.8046875,0.0,180.0,360.0
3869679,,,,,,,,1.703125,10.76953125,-4.9375,-0.48828125,-1.634765625,0.955078125,0.0,180.0,360.0
3869680,36.01269666666667,129.31961033333334,91.08077499545075,32.918378039473666,3.1,49.0,,3.7109375,6.51953125,-7.453125,-0.48828125,-1.634765625,0.955078125,0.0,180.0,360.0
3869681,,,,,,,,3.7109375,6.51953125,-7.453125,-0.796875,0.1015625,0.630859375,0.0,180.0,360.0
3869682,,,,,,,,3.7109375,6.51953125,-7.453125,-0.171875,0.84375,0.3515625,0.0,180.0,360.0
3869683,,,,,,,,4.02734375,3.234375,-5.86328125,-0.171875,0.84375,0.3515625,0.0,180.0,360.0
3869684,,,,,,,,4.02734375,3.234375,-5.86328125,0.9609375,-0.310546875,0.490234375,0.0,180.0,360.0
3869685,,,,,,,,0.15234375,7.203125,-1.859375,0.9609375,-0.310546875,0.490234375,0.0,180.0,360.0
3869686,,,,,,,,0.15234375,7.203125,-1.859375,2.060546875,0.423828125,0.095703125,0.0,180.0,360.0
3869687,,,,,,,,0.0,14.8828125,0.43359375,2.060546875,0.423828125,0.095703125,0.0,180.0,360.0
3869688,,,,,,,,0.0,14.8828125,0.43359375,-0.1328125,0.869140625,0.212890625,0.0,180.0,360.0
3869689,,,,,,,,0.0,14.8828125,0.43359375,-0.28125,-0.9296875,0.423828125,0.0,180.0,360.0
3869690,36.01269833333333,129.31961366666667,91.38127051276871,33.103313219276316,3.3000000000000003,52.0,,-1.26953125,9.93359375,1.8984375,-0.28125,-0.9296875,0.423828125,0.0,180.0,360.0
3869691,,,,,,,,-1.26953125,9.93359375,1.8984375,0.1640625,-1.009765625,0.00390625,0.0,180.0,360.0
3869692,,,,,,,,-1.9453125,-34.1875,13.18359375,0.1640625,-1.009765625,0.00390625,0.0,180.0,360.0
3869693,,,,,,,,-1.9453125,-34.1875,13.18359375,1.515625,0.9921875,-0.203125,0.0,180.0,360.0
3869694,,,,,,,,0.1328125,-11.3671875,9.2890625,1.515625,0.9921875,-0.203125,0.0,180.0,360.0
3869695,,,,,,,,0.1328125,-11.3671875,9.2890625,-1.236328125,1.89453125,-0.212890625,0.0,180.0,360.0
3869696,,,,,,,,7.51171875,-16.5078125,4.0703125,-1.236328125,1.89453125,-0.212890625,0.0,180.0,360.0
3869697,,,,,,,,7.51171875,-16.5078125,4.0703125,-1.236328125,1.89453125,-0.212890625,0.0,180.0,360.0
3869698,,,,,,,,7.51171875,-16.5078125,4.0703125,-0.021484375,3.03515625,-1.6015625,0.0,180.0,360.0
3869699,,,,,,,,0.609375,-8.9140625,0.22265625,-0.021484375,3.03515625,-1.6015625,0.0,180.0,360.0
3869700,36.01270233333333,129.31961916666666,91.87708663979961,33.547155334691425,3.3000000000000003,48.0,123.0,0.609375,-8.9140625,0.22265625,-0.625,2.822265625,-1.83203125,0.0,180.0,360.0
3869701,,,,,,,,0.609375,-8.9140625,0.22265625,-0.625,2.822265625,-1.83203125,0.0,180.0,360.0
3869702,,,,,,,,-0.69921875,-3.19140625,-0.76171875,-0.625,2.822265625,-1.83203125,0.0,180.0,360.0
3869703,,,,,,,,-0.69921875,-3.19140625,-0.76171875,1.345703125,0.796875,-0.931640625,0.0,180.0,360.0
3869704,,,,,,,,-1.90625,11.56640625,0.52734375,1.345703125,0.796875,-0.931640625,0.0,180.0,360.0
3869705,,,,,,,,-1.90625,11.56640625,0.52734375,0.533203125,-0.40234375,-0.619140625,0.0,180.0,360.0
3869706,,,,,,,,-4.19921875,9.84375,-1.83984375,0.533203125,-0.40234375,-0.619140625,0.0,180.0,360.0
3869707,,,,,,,,-4.19921875,9.84375,-1.83984375,-0.6484375,-0.884765625,-0.583984375,0.0,180.0,360.0
3869708,,,,,,,,-2.52734375,-1.46484375,-3.01953125,-0.6484375,-0.884765625,-0.583984375,0.0,180.0,360.0
3869709,,,,,,,,-2.52734375,-1.46484375,-3.01953125,-2.455078125,-0.916015625,-1.142578125,0.0,180.0,360.0
3869710,36.012706,129.31962466666667,92.37290310832805,33.954011067304855,3.4000000000000004,48.0,,11.57421875,-21.23046875,15.859375,-2.455078125,-0.916015625,-1.142578125,0.0,180.0,360.0
3869711,,,,,,,,11.57421875,-21.23046875,15.859375,3.494140625,0.15625,-0.52734375,0.0,180.0,360.0
3869712,,,,,,,,11.57421875,-21.23046875,15.859375,0.478515625,-2.314453125,0.21875,0.0,180.0,360.0
3869713,,,,,,,,-5.16015625,-14.15625,3.57421875,0.478515625,-2.314453125,0.21875,0.0,180.0,360.0
3869714,,,,,,,,-5.16015625,-14.15625,3.57421875,0.37109375,-2.466796875,1.01953125,0.0,180.0,360.0
3869715,,,,,,,,0.578125,-12.1171875,2.03515625,0.37109375,-2.466796875,1.01953125,0.0,180.0,360.0
3869716,,,,,,,,0.578125,-12.1171875,2.03515625,0.119140625,-2.84765625,1.61328125,0.0,180.0,360.0
3869717,,,,,,,,0.578125,-12.1171875,2.03515625,0.119140625,-2.84765625,1.61328125,0.0,180.0,360.0
3869718,,,,,,,,0.578125,-12.1171875,2.03515625,-0.0859375,-2.810546875,1.873046875,0.0,180.0,360.0
3869719,,,,,,,,1.3828125,-6.0546875,-1.03515625,-0.0859375,-2.810546875,1.873046875,0.0,180.0,360.0
3869720,36.012707999999996,129.319627,92.58324895478358,34.175931754030294,3.1,47.0,,1.3828125,-6.0546875,-1.03515625,-0.048828125,-2.1640625,1.712890625,0.0,180.0,360.0
3869721,,,,,,,,2.3359375,-2.3828125,-1.4609375,-0.048828125,-2.1640625,1.712890625,0.0,180.0,360.0
3869722,,,,,,,,2.3359375,-2.3828125,-1.4609375,0.181640625,-1.771484375,1.349609375,0.0,180.0,360.0
3869723,,,,,,,,2.95703125,1.5078125,-2.6015625,0.181640625,-1.771484375,1.349609375,0.0,180.0,360.0
3869724,,,,,,,,2.95703125,1.5078125,-2.6015625,0.201171875,-1.376953125,0.99609375,0.0,180.0,360.0
3869725,,,,,,,,3.3671875,9.1640625,-4.203125,0.201171875,-1.376953125,0.99609375,0.0,180.0,360.0
3869726,,,,,,,,3.3671875,9.1640625,-4.203125,0.201171875,-1.376953125,0.99609375,0.0,180.0,360.0
3869727,,,,,,,,3.3671875,9.1640625,-4.203125,-0.5078125,-1.22265625,0.916015625,0.0,180.0,360.0
3869728,,,,,,,,2.40625,12.96484375,-7.9921875,-0.5078125,-1.22265625,0.916015625,0.0,180.0,360.0
3869729,,,,,,,,2.40625,12.96484375,-7.9921875,-0.9921875,-0.029296875,0.587890625,0.0,180.0,360.0
3869730,36.012709666666666,129.31963033333335,92.8837444020475,34.36086698671595,3.2,50.0,,2.40625,12.96484375,-7.9921875,-0.005859375,1.091796875,0.28515625,0.0,180.0,360.0
3869731,,,,,,,,3.50390625,5.390625,-5.16015625,-0.005859375,1.091796875,0.28515625,0.0,180.0,360.0
3869732,,,,,,,,3.50390625,5.390625,-5.16015625,1.275390625,-0.025390625,0.58984375,0.0,180.0,360.0
3869733,,,,,,,,-2.70703125,7.765625,1.15625,1.275390625,-0.025390625,0.58984375,0.0,180.0,360.0
3869734,,,,,,,,-2.70703125,7.765625,1.15625,1.134765625,-0.529296875,0.689453125,0.0,180.0,360.0
3869735,,,,,,,,-1.15234375,11.67578125,0.15625,1.134765625,-0.529296875,0.689453125,0.0,180.0,360.0
3869736,,,,,,,,-1.15234375,11.67578125,0.15625,0.69140625,0.177734375,0.4765625,0.0,180.0,360.0
3869737,,,,,,,,-0.16015625,12.234375,-2.3046875,0.69140625,0.177734375,0.4765625,0.0,180.0,360.0
3869738,,,,,,,,-0.16015625,12.234375,-2.3046875,0.099609375,0.34375,0.341796875,0.0,180.0,360.0
3869739,,,,,,,,0.46875,6.609375,0.13671875,0.099609375,0.34375,0.341796875,0.0,180.0,360.0
3869740,36.01271133333333,129.31963366666665,93.18423983012195,34.54580222923642,3.4000000000000004,53.0,,0.46875,6.609375,0.13671875,-0.83203125,-0.205078125,0.455078125,0.0,180.0,360.0
3869741,,,,,,,,-0.984375,-17.92578125,6.890625,-0.83203125,-0.205078125,0.455078125,0.0,180.0,360.0
3869742,,,,,,,,-0.984375,-17.92578125,6.890625,-0.81640625,-0.6640625,-0.123046875,0.0,180.0,360.0
3869743,,,,,,,,-0.984375,-17.92578125,6.890625,2.154296875,1.19140625,-0.244140625,0.0,180.0,360.0
3869744,,,,,,,,3.91015625,-3.5625,4.7578125,2.154296875,1.19140625,-0.244140625,0.0,180.0,360.0
3869745,,,,,,,,3.91015625,-3.5625,4.7578125,2.154296875,1.19140625,-0.244140625,0.0,180.0,360.0
3869746,,,,,,,,3.91015625,-3.5625,4.7578125,-0.88671875,2.19140625,-0.783203125,0.0,180.0,360.0
3869747,,,,,,,,9.0234375,-15.4375,3.3359375,-0.88671875,2.19140625,-0.783203125,0.0,180.0,360.0
3869748,,,,,,,,9.0234375,-15.4375,3.3359375,-0.025390625,2.923828125,-1.37890625,0.0,180.0,360.0
3869749,,,,,,,,9.0234375,-15.4375,3.3359375,-0.025390625,2.923828125,-1.37890625,0.0,180.0,360.0
3869750,36.012715166666666,129.3196385,93.61995651086887,34.971150602049796,3.0,48.0,,9.0234375,-15.4375,3.3359375,-0.6171875,2.9140625,-1.583984375,0.0,180.0,360.0
3869751,,,,,,,,-1.0390625,-4.80078125,-0.66796875,-0.6171875,2.9140625,-1.583984375,0.0,180.0,360.0
3869752,,,,,,,,-1.0390625,-4.80078125,-0.66796875,-0.591796875,2.732421875,-1.4609375,0.0,180.0,360.0
3869753,,,,,,,,-1.0390625,-4.80078125,-0.66796875,-0.5,2.599609375,-1.193359375,0.0,180.0,360.0
3869754,,,,,,,,-3.8125,1.75,-1.6875,-0.5,2.599609375,-1.193359375,0.0,180.0,360.0
3869755,,,,,,,,-3.8125,1.75,-1.6875,-0.28125,2.115234375,-0.87109375,0.0,180.0,360.0
3869756,,,,,,,,-3.8125,1.75,-1.6875,-0.28125,2.115234375,-0.87109375,0.0,180.0,360.0
3869757,,,,,,,,-3.8125,1.75,-1.6875,0.099609375,1.30859375,-0.53515625,0.0,180.0,360.0
3869758,,,,,,,,-5.22265625,12.1171875,-4.11328125,0.099609375,1.30859375,-0.53515625,0.0,180.0,360.0
3869759,,,,,,,,-5.22265625,12.1171875,-4.11328125,-0.392578125,0.69140625,-0.439453125,0.0,180.0,360.0
3869760,36.012716999999995,129.31964116666668,93.86035223746484,35.17457843349146,3.0,48.0,,-5.22265625,12.1171875,-4.11328125,-0.7578125,0.21484375,-0.1953125,0.0,180.0,360.0
3869761,,,,,,,,-5.70703125,9.578125,-4.3125,-0.7578125,0.21484375,-0.1953125,0.0,180.0,360.0
3869762,,,,,,,,-5.70703125,9.578125,-4.3125,-0.291015625,-0.5390625,-0.302734375,0.0,180.0,360.0
3869763,,,,,,,,-4.48046875,6.171875,-2.77734375,-0.291015625,-0.5390625,-0.302734375,0.0,180.0,360.0
3869764,,,,,,,,-4.48046875,6.171875,-2.77734375,0.091796875,0.416015625,-0.607421875,0.0,180.0,360.0
3869765,,,,,,,,0.7109375,6.38671875,-1.4375,0.091796875,0.416015625,-0.607421875,0.0,180.0,360.0
3869766,,,,,,,,0.7109375,6.38671875,-1.4375,0.73828125,0.435546875,-0.802734375,0.0,180.0,360.0
3869767,,,,,,,,0.7109375,6.38671875,-1.4375,1.150390625,0.349609375,-0.841796875,0.0,180.0,360.0
3869768,,,,,,,,-0.98828125,10.28125,-2.65234375,1.150390625,0.349609375,-0.841796875,0.0,180.0,360.0
3869769,,,,,,,,-0.98828125,10.28125,-2.65234375,0.853515625,0.0234375,-0.76953125,0.0,180.0,360.0
3869770,36.01271883333333,129.319644,94.11577281851822,35.3780064325213,3.2,48.0,,-2.67578125,11.125,-2.76171875,0.853515625,0.0234375,-0.76953125,0.0,180.0,360.0
3869771,,,,,,,,-2.67578125,11.125,-2.76171875,-0.025390625,-1.203125,-0.388671875,0.0,180.0,360.0
3869772,,,,,,,,-4.8828125,10.546875,-0.84765625,-0.025390625,-1.203125,-0.388671875,0.0,180.0,360.0
3869773,,,,,,,,-4.8828125,10.546875,-0.84765625,-0.025390625,-1.203125,-0.388671875,0.0,180.0,360.0
3869774,,,,,,,,-4.8828125,10.546875,-0.84765625,-2.47265625,0.208984375,-0.94140625,0.0,180.0,360.0
3869775,,,,,,,,13.1015625,-48.8203125,25.0390625,-2.47265625,0.208984375,-0.94140625,0.0,180.0,360.0
3869776,,,,,,,,13.1015625,-48.8203125,25.0390625,-2.47265625,0.208984375,-0.94140625,0.0,180.0,360.0
3869777,,,,,,,,13.1015625,-48.8203125,25.0390625,2.240234375,-1.2734375,-0.15625,0.0,180.0,360.0
3869778,,,,,,,,-8.94921875,-8.74609375,2.55078125,2.240234375,-1.2734375,-0.15625,0.0,180.0,360.0
3869779,,,,,,,,-8.94921875,-8.74609375,2.55078125,0.046875,-3.27734375,1.25,0.0,180.0,360.0
3869780,36.012721000000006,129.31964716666667,94.40124272443087,35.61842117628178,3.3000000000000003,48.0,,-8.94921875,-8.74609375,2.55078125,0.046875,-3.27734375,1.25,0.0,180.0,360.0
3869781,,,,,,,,-8.94921875,-8.74609375,2.55078125,0.830078125,-2.236328125,1.638671875,0.0,180.0,360.0
3869782,,,,,,,,0.16015625,-4.6796875,-0.29296875,0.830078125,-2.236328125,1.638671875,0.0,180.0,360.0
3869783,,,,,,,,0.16015625,-4.6796875,-0.29296875,-0.298828125,-2.396484375,2.185546875,0.0,180.0,360.0
3869784,,,,,,,,1.65234375,-6.140625,0.390625,-0.298828125,-2.396484375,2.185546875,0.0,180.0,360.0
3869785,,,,,,,,1.65234375,-6.140625,0.390625,0.193359375,-1.888671875,1.857421875,0.0,180.0,360.0
3869786,,,,,,,,1.65234375,-6.140625,0.390625,0.193359375,-1.888671875,1.857421875,0.0,180.0,360.0
3869787,,,,,,,,1.65234375,-6.140625,0.390625,-0.03125,-1.7265625,1.51171875,0.0,180.0,360.0
3869788,,,,,,,,4.4765625,5.15625,-3.98046875,-0.03125,-1.7265625,1.51171875,0.0,180.0,360.0
3869789,,,,,,,,4.4765625,5.15625,-3.98046875,-0.03125,-1.7265625,1.51171875,0.0,180.0,360.0
3869790,36.01272266666667,129.31964983333333,94.64163861187038,35.80335582341569,3.1,49.0,,4.4765625,5.15625,-3.98046875,0.138671875,-0.896484375,0.751953125,0.0,180.0,360.0
3869791,,,,,,,,3.17578125,11.27734375,-4.86328125,0.138671875,-0.896484375,0.751953125,0.0,180.0,360.0
3869792,,,,,,,,3.17578125,11.27734375,-4.86328125,0.12890625,-0.345703125,0.51953125,0.0,180.0,360.0
3869793,,,,,,,,3.17578125,11.27734375,-4.86328125,0.12890625,-0.345703125,0.51953125,0.0,180.0,360.0
3869794,,,,,,,,3.17578125,11.27734375,-4.86328125,-0.21484375,-0.009765625,0.201171875,0.0,180.0,360.0
3869795,,,,,,,,4.48828125,5.23828125,-5.62109375,-0.21484375,-0.009765625,0.201171875,0.0,180.0,360.0
3869796,,,,,,,,4.48828125,5.23828125,-5.62109375,-0.21484375,-0.009765625,0.201171875,0.0,180.0,360.0
3869797,,,,,,,,4.48828125,5.23828125,-5.62109375,0.48828125,1.0546875,0.341796875,0.0,180.0,360.0
3869798,,,,,,,,0.37109375,8.37109375,-2.6953125,0.48828125,1.0546875,0.341796875,0.0,180.0,360.0
3869799,,,,,,,,0.37109375,8.37109375,-2.6953125,1.3046875,1.216796875,0.265625,0.0,180.0,360.0
3869800,36.0127265,129.31965516666665,95.12242975593844,36.228704755992474,3.2,48.0,123.0,0.37109375,8.37109375,-2.6953125,0.857421875,0.4609375,0.123046875,0.0,180.0,360.0
3869801,,,,,,,,0.37109375,8.37109375,-2.6953125,0.857421875,0.4609375,0.123046875,0.0,180.0,360.0
3869802,,,,,,,,-1.80078125,12.8984375,-3.40234375,0.857421875,0.4609375,0.123046875,0.0,180.0,360.0
3869803,,,,,,,,-1.80078125,12.8984375,-3.40234375,-0.44140625,2.224609375,-1.01171875,0.0,180.0,360.0
3869804,,,,,,,,-1.80078125,12.8984375,-3.40234375,-0.44140625,2.224609375,-1.01171875,0.0,180.0,360.0
3869805,,,,,,,,-1.80078125,12.8984375,-3.40234375,-0.80859375,1.7734375,-0.64453125,0.0,180.0,360.0
3869806,,,,,,,,-5.09375,7.41796875,-4.12890625,-0.80859375,1.7734375,-0.64453125,0.0,180.0,360.0
3869807,,,,,,,,-5.09375,7.41796875,-4.12890625,-0.03515625,0.455078125,-0.580078125,0.0,180.0,360.0
3869808,,,,,,,,-4.734375,10.23828125,-2.78515625,-0.03515625,0.455078125,-0.580078125,0.0,180.0,360.0
3869809,,,,,,,,-4.734375,10.23828125,-2.78515625,-0.4296875,-0.33984375,-0.37890625,0.0,180.0,360.0
3869810,36.012730000000005,129.3196605,95.60322125882702,36.61706730396553,3.0,48.0,,-2.96484375,9.63671875,-4.67578125,-0.4296875,-0.33984375,-0.37890625,0.0,180.0,360.0
3869811,,,,,,,,-2.96484375,9.63671875,-4.67578125,-0.4765625,-0.5625,-0.1328125,0.0,180.0,360.0
3869812,,,,,,,,-2.46875,5.27734375,-4.4375,-0.4765625,-0.5625,-0.1328125,0.0,180.0,360.0
3869813,,,,,,,,-2.46875,5.27734375,-4.4375,0.24609375,0.03515625,-0.345703125,0.0,180.0,360.0
3869814,,,,,,,,-2.46875,5.27734375,-4.4375,0.24609375,0.03515625,-0.345703125,0.0,180.0,360.0
3869815,,,,,,,,-2.46875,5.27734375,-4.4375,0.8671875,0.05078125,-0.44921875,0.0,180.0,360.0
3869816,,,,,,,,-0.6875,8.90625,-2.75390625,0.8671875,0.05078125,-0.44921875,0.0,180.0,360.0
3869817,,,,,,,,-0.6875,8.90625,-2.75390625,0.71484375,0.013671875,-0.455078125,0.0,180.0,360.0
3869818,,,,,,,,-0.6875,8.90625,-2.75390625,0.376953125,-0.16796875,-0.46875,0.0,180.0,360.0
3869819,,,,,,,,-0.94140625,10.23046875,-3.1640625,0.376953125,-0.16796875,-0.46875,0.0,180.0,360.0
3869820,36.01273183333333,129.31966333333332,95.8586417590497,36.82049535442452,3.2,49.0,,-0.94140625,10.23046875,-3.1640625,-0.375,-0.642578125,-0.33203125,0.0,180.0,360.0
3869821,,,,,,,,-2.015625,9.4921875,-3.5625,-0.375,-0.642578125,-0.33203125,0.0,180.0,360.0
3869822,,,,,,,,-2.015625,9.4921875,-3.5625,-1.388671875,-1.416015625,-0.21875,0.0,180.0,360.0
3869823,,,,,,,,-2.3828125,-11.0546875,2.75,-1.388671875,-1.416015625,-0.21875,0.0,180.0,360.0
3869824,,,,,,,,-2.3828125,-11.0546875,2.75,0.626953125,-0.09765625,0.27734375,0.0,180.0,360.0
3869825,,,,,,,,-2.3828125,-11.0546875,2.75,2.76171875,-1.140625,-0.642578125,0.0,180.0,360.0
3869826,,,,,,,,7.82421875,-13.6171875,10.265625,2.76171875,-1.140625,-0.642578125,0.0,180.0,360.0
3869827,,,,,,,,7.82421875,-13.6171875,10.265625,0.125,-3.119140625,0.939453125,0.0,180.0,360.0
3869828,,,,,,,,-12.1171875,-5.60546875,1.375,0.125,-3.119140625,0.939453125,0.0,180.0,360.0
3869829,,,,,,,,-12.1171875,-5.60546875,1.375,0.125,-3.119140625,0.939453125,0.0,180.0,360.0
3869830,36.012734,129.3196665,96.14411157244228,37.06091015317777,3.3000000000000003,49.0,,-12.1171875,-5.60546875,1.375,0.580078125,-2.302734375,1.662109375,0.0,180.0,360.0
3869831,,,,,,,,0.703125,-8.578125,-0.50390625,0.580078125,-2.302734375,1.662109375,0.0,180.0,360.0
3869832,,,,,,,,0.703125,-8.578125,-0.50390625,-0.361328125,-2.5078125,2.134765625,0.0,180.0,360.0
3869833,,,,,,,,0.95703125,-8.78125,-0.2421875,-0.361328125,-2.5078125,2.134765625,0.0,180.0,360.0
3869834,,,,,,,,0.95703125,-8.78125,-0.2421875,0.078125,-2.02734375,1.822265625,0.0,180.0,360.0
3869835,,,,,,,,3.3515625,-2.03125,-2.1640625,0.078125,-2.02734375,1.822265625,0.0,180.0,360.0
3869836,,,,,,,,3.3515625,-2.03125,-2.1640625,0.359375,-1.869140625,1.326171875,0.0,180.0,360.0
3869837,,,,,,,,3.3515625,-2.03125,-2.1640625,0.447265625,-1.298828125,0.923828125,0.0,180.0,360.0
3869838,,,,,,,,3.45703125,2.56640625,-4.0859375,0.447265625,-1.298828125,0.923828125,0.0,180.0,360.0
