time,latitude,longitude,enu_x,enu_y,speed,course,ecg,accX,accY,accZ,gyrX,gyrY,gyrZ,eulR,eulP,eulY,validity
3441570,36.01301283333333,129.31896133333333,32.57379274737919,67.99957899726499,3.3000000000000003,231.0,,8.984375,-43.86328125,14.59375,1.005859375,-0.310546875,1.0703125,4.7265625,-46.2265625,10.9921875,1.0
3441571,,,,,,,,19.25390625,-29.16796875,19.65625,1.55078125,-0.2890625,1.59765625,14.95703125,-31.5546875,16.125,1.0
3441572,,,,,,,,10.16015625,-16.19140625,9.828125,1.68359375,0.142578125,1.703125,5.83984375,-18.61328125,6.359375,1.0
3441573,,,,,,,,-0.828125,-9.80078125,9.86328125,2.087890625,-0.0546875,0.779296875,-5.15625,-12.25,6.43359375,1.0
3441574,,,,,,,,-4.3359375,-9.796875,6.4296875,0.0625,0.08203125,-3.763671875,-8.6015625,-12.40625,3.0625,1.0
3441575,,,,,,,,-3.19921875,-13.53125,4.76171875,-0.244140625,-0.27734375,-4.005859375,-7.33984375,-16.3515625,1.41796875,1.0
3441576,,,,,,,,-0.1796875,-14.65625,6.15234375,1.9140625,-0.162109375,-1.34765625,-4.234375,-17.65625,2.87109375,1.0
3441577,,,,,,,,2.8515625,-12.015625,6.82421875,2.818359375,0.287109375,0.8828125,-1.171875,-15.203125,3.71484375,1.0
3441578,,,,,,,,4.31640625,-10.98046875,6.5390625,2.6640625,0.330078125,0.73046875,0.28515625,-14.203125,3.484375,1.0
3441579,,,,,,,,7.40234375,-10.375,6.63671875,2.55078125,0.533203125,0.296875,3.38671875,-13.7109375,3.67578125,1.0
3441580,36.01301183333333,129.31895866666667,32.333396162048466,67.88861886789938,3.0,234.0,,7.1484375,-10.9296875,6.0078125,1.005859375,-0.310546875,1.0703125,3.15625,-14.359375,3.140625,1.0
3441581,,,,,,,,7.1171875,-9.359375,5.71484375,1.796875,1.013671875,0.70703125,3.15625,-12.91015625,2.94921875,1.0
3441582,,,,,,,,7.140625,-6.4140625,4.3046875,1.671875,0.94140625,0.451171875,3.1953125,-10.03125,1.609375,1.0
3441583,,,,,,,,7.5625,-4.23828125,2.59375,1.64453125,0.732421875,0.150390625,3.65625,-7.92578125,-0.0390625,1.0
3441584,,,,,,,,7.76953125,-1.4296875,1.10546875,1.681640625,0.548828125,0.126953125,3.88671875,-5.203125,-1.45703125,1.0
3441585,,,,,,,,7.4375,1.19921875,2.0546875,1.625,0.36328125,0.498046875,3.578125,-2.63671875,-0.421875,1.0
3441586,,,,,,,,7.4453125,2.02734375,2.8203125,1.546875,0.26953125,0.751953125,3.58203125,-1.83203125,0.3828125,1.0
3441587,,,,,,,,6.7734375,4.8984375,4.83984375,1.375,0.0859375,1.1484375,2.89453125,1.0,2.48828125,1.0
3441588,,,,,,,,6.71875,6.1875,4.36328125,1.1953125,-0.111328125,1.078125,2.8125,2.265625,2.10546875,1.0
3441589,,,,,,,,7.203125,8.1171875,2.40234375,1.171875,-0.212890625,0.599609375,3.2734375,4.18359375,0.23046875,1.0
3441590,36.01301083333333,129.31895533333332,32.03290031705435,67.77765852481018,3.4000000000000004,240.0,,7.73828125,9.09375,0.62109375,1.228515625,-0.203125,0.0703125,3.80859375,5.10546875,-1.45703125,1.0
3441591,,,,,,,,9.74609375,7.921875,-0.546875,1.162109375,-0.25,-0.162109375,5.83984375,3.875,-2.53125,1.0
3441592,,,,,,,,11.18359375,5.8671875,-1.0234375,1.109375,-0.341796875,0.001953125,7.2890625,1.765625,-2.9140625,1.0
3441593,,,,,,,,11.72265625,4.6953125,-0.87890625,1.04296875,-0.3828125,0.181640625,7.828125,0.578125,-2.72265625,1.0
3441594,,,,,,,,11.8359375,1.6171875,0.03125,0.77734375,-0.4375,0.66796875,7.94921875,-2.5234375,-1.7265625,1.0
3441595,,,,,,,,10.328125,1.08203125,0.95703125,0.173828125,-0.396484375,1.083984375,6.4140625,-3.05859375,-0.73046875,1.0
3441596,,,,,,,,6.84375,2.19140625,2.8359375,-1.333984375,-0.044921875,0.98046875,2.89453125,-1.91015625,1.1875,1.0
3441597,,,,,,,,0.73046875,3.453125,8.17578125,-2.38671875,0.287109375,0.33984375,-3.23828125,-0.609375,6.47265625,1.0
3441598,,,,,,,,-0.24609375,4.328125,7.6796875,-2.77734375,0.4375,-0.046875,-4.19921875,0.2734375,5.9375,1.0
3441599,,,,,,,,1.59375,6.5703125,4.2578125,-2.955078125,0.591796875,-0.712890625,-2.3203125,2.53125,2.4140625,1.0
3441600,36.013009499999995,129.3189525,31.777479040131745,67.62971194177888,3.2,240.0,0.0,3.859375,8.2265625,2.17578125,1.228515625,-0.203125,0.0703125,0.0546875,4.140625,0.23046875,1.0
3441601,,,,,,,,5.88671875,8.734375,0.98828125,-0.28125,0.396484375,-0.849609375,2.16015625,4.6015625,-0.95703125,1.0
3441602,,,,,,,,6.609375,7.31640625,2.14453125,-0.794921875,0.17578125,-0.4453125,2.9296875,3.14453125,0.19140625,1.0
3441603,,,,,,,,5.95703125,0.26171875,5.96875,-2.0234375,-0.109375,0.55859375,2.31640625,-3.90234375,3.984375,1.0
3441604,,,,,,,,4.03125,-33.7109375,14.80859375,-2.884765625,-0.29296875,1.626953125,0.359375,-37.80859375,12.75390625,1.0
3441605,,,,,,,,-3.7109375,-72.02734375,28.15625,-3.44140625,0.021484375,2.580078125,-7.453125,-75.99609375,26.0078125,1.0
3441606,,,,,,,,-15.76171875,-49.12109375,17.37890625,-1.451171875,-0.56640625,2.421875,-19.59765625,-52.96875,15.16796875,1.0
3441607,,,,,,,,6.640625,-8.6953125,6.61328125,-2.021484375,-0.1484375,-0.77734375,2.734375,-12.5234375,4.48046875,1.0
3441608,,,,,,,,21.625,-7.1328125,0.69140625,-0.69140625,0.017578125,-4.455078125,17.94921875,-11.140625,-1.53515625,1.0
3441609,,,,,,,,13.33984375,-10.41796875,1.08203125,-1.150390625,-0.923828125,-2.94140625,9.82421875,-14.5859375,-1.11328125,1.0
3441610,36.01300783333333,129.31895,31.55210751256852,67.44477905932013,3.0,235.0,,6.234375,-17.15234375,4.82421875,-4.365234375,-1.3125,0.76171875,2.7734375,-21.33203125,2.56640625,1.0
3441611,,,,,,,,4.7734375,-17.22265625,6.6953125,-5.1171875,-1.576171875,1.552734375,1.2421875,-21.2890625,4.328125,1.0
3441612,,,,,,,,5.04296875,-15.8828125,6.49609375,-4.900390625,-1.578125,1.251953125,1.47265625,-19.875,4.05859375,1.0
3441613,,,,,,,,4.67578125,-11.6484375,5.28125,-3.775390625,-1.724609375,0.576171875,1.05078125,-15.55078125,2.7578125,1.0
3441614,,,,,,,,4.19921875,-10.64453125,4.65234375,-3.515625,-1.82421875,0.38671875,0.55078125,-14.51171875,2.10546875,1.0
3441615,,,,,,,,1.57421875,-5.9375,2.46875,-4.0234375,-2.2734375,0.0703125,-2.12890625,-9.73046875,-0.15625,1.0
3441616,,,,,,,,0.32421875,-5.27734375,1.765625,-4.166015625,-2.33203125,-0.041015625,-3.39453125,-9.03515625,-0.8828125,1.0
3441617,,,,,,,,-1.94140625,-3.35546875,-0.24609375,-4.291015625,-2.3046875,-0.25390625,-5.69140625,-7.04296875,-2.94921875,1.0
3441618,,,,,,,,-2.5,-2.19140625,-0.9140625,-4.333984375,-2.1875,-0.330078125,-6.26953125,-5.85546875,-3.640625,1.0
3441619,,,,,,,,-2.9296875,0.3359375,-1.5625,-4.296875,-2.060546875,-0.232421875,-6.7265625,-3.25,-4.3671875,1.0
3441620,36.01300716666666,129.318947,31.281661141448026,67.37080526423338,3.0,243.0,,-3.80078125,2.65625,-0.53515625,-4.365234375,-1.3125,0.76171875,2.7734375,-21.33203125,2.56640625,1.0
3441621,,,,,,,,-4.21484375,4.859375,2.54296875,-3.6171875,-1.783203125,0.751953125,-8.06640625,1.3828125,-0.34765625,1.0
3441622,,,,,,,,-3.5859375,5.5625,3.6484375,-2.802734375,-1.109375,1.611328125,-7.53515625,2.2265625,0.6875,1.0
3441623,,,,,,,,-2.44140625,5.4609375,3.34375,-2.19921875,-0.6953125,1.509765625,-6.45703125,2.2265625,0.34375,1.0
3441624,,,,,,,,-1.828125,4.01953125,1.96484375,-1.58984375,-0.58984375,1.126953125,-5.8828125,0.84765625,-1.07421875,1.0
3441625,,,,,,,,-2.5078125,1.66796875,2.48046875,-1.166015625,-0.728515625,0.712890625,-6.609375,-1.44921875,-0.57421875,1.0
3441626,,,,,,,,-3.20703125,-0.2734375,4.01953125,-0.890625,-0.62109375,0.81640625,-7.33984375,-3.3671875,0.95703125,1.0
3441627,,,,,,,,-2.9140625,-0.52734375,5.0078125,-0.29296875,-0.1953125,0.90234375,-7.0703125,-3.59765625,1.953125,1.0
3441628,,,,,,,,-1.56640625,0.1796875,5.66796875,0.41015625,0.189453125,0.658203125,-5.7265625,-2.90625,2.60546875,1.0
3441629,,,,,,,,2.984375,4.1328125,4.68359375,1.052734375,0.291015625,0.166015625,-1.171875,1.0,1.64453125,1.0
3441630,36.01300633333334,129.31894400000002,31.011214830889017,67.27833827082345,3.1,247.0,,5.03125,6.546875,3.421875,-4.365234375,-1.3125,0.76171875,2.7734375,-21.33203125,2.56640625,1.0
3441631,,,,,,,,6.53125,8.85546875,3.08203125,2.1875,-0.1171875,-0.888671875,2.4296875,5.51953125,0.15234375,1.0
3441632,,,,,,,,7.59375,10.140625,4.71875,2.279296875,-0.29296875,-0.9609375,3.5390625,6.671875,1.875,1.0
3441633,,,,,,,,6.7578125,7.453125,6.75,1.697265625,-0.328125,-0.611328125,2.734375,3.875,3.98828125,1.0
3441634,,,,,,,,6.16796875,4.16015625,6.25,1.048828125,-0.38671875,0.22265625,2.16015625,0.50390625,3.56640625,1.0
3441635,,,,,,,,6.59765625,-3.09765625,3.22265625,0.45703125,-0.572265625,1.50390625,2.54296875,-6.77734375,0.61328125,1.0
3441636,,,,,,,,6.8515625,-6.94140625,2.0859375,0.443359375,-0.65234375,1.66015625,2.7734375,-10.6015625,-0.5,1.0
3441637,,,,,,,,5.859375,-30.6484375,3.87109375,0.27734375,-0.875,1.9140625,4.26953125,-47.1484375,3.21484375,1.0
3441638,,,,,,,,16.40234375,-65.03125,17.1484375,-0.35546875,-1.36328125,2.62109375,12.16015625,-68.6015625,14.671875,1.0
3441639,,,,,,,,19.46875,-29.453125,35.328125,-0.470703125,-1.451171875,2.79296875,15.109375,-32.9375,32.90625,1.0
3441640,36.01300616666666,129.31894066666666,30.710718625110005,67.25984400791306,2.8000000000000003,252.0,,3.015625,-17.19921875,6.08203125,-4.365234375,-1.3125,0.76171875,2.7734375,-21.33203125,2.56640625,1.0
3441641,,,,,,,,-5.734375,-8.41015625,2.7734375,-2.3203125,0.294921875,-3.279296875,-10.171875,-11.83203125,0.3828125,1.0
3441642,,,,,,,,-7.70703125,-9.296875,2.0,-2.966796875,0.564453125,-5.515625,-11.93359375,-12.91015625,-0.5,1.0
3441643,,,,,,,,-6.71484375,-13.6953125,0.30859375,-0.646484375,-0.04296875,-3.7578125,-10.74609375,-17.5,-2.26171875,1.0
3441644,,,,,,,,-4.3671875,-12.5078125,2.63671875,1.564453125,-0.796875,-1.126953125,-8.296875,-16.47265625,0.11328125,1.0
3441645,,,,,,,,-0.7890625,-11.83984375,6.85546875,1.197265625,-0.072265625,1.458984375,-4.734375,-15.890625,4.48046875,1.0
3441646,,,,,,,,0.0,-11.875,6.02734375,1.115234375,0.05859375,1.49609375,-3.96875,-15.9296875,3.67578125,1.0
3441647,,,,,,,,5.34765625,-8.75,4.09765625,1.126953125,-0.0234375,0.55859375,1.35546875,-12.828125,1.80078125,1.0
3441648,,,,,,,,7.48828125,-7.578125,3.08203125,1.080078125,0.703125,0.03515625,3.50390625,-11.72265625,0.83984375,1.0
3441649,,,,,,,,11.9140625,-5.59765625,6.1875,1.322265625,0.982421875,0.3984375,7.984375,-9.8359375,3.984375,1.0
3441650,36.01300583333333,129.31893766666664,30.440272110592197,67.22285665235854,2.8000000000000003,258.0,,9.9140625,-5.3984375,7.37109375,1.232421875,0.859375,0.923828125,2.7734375,-21.33203125,2.56640625,1.0
3441651,,,,,,,,5.9296875,-5.3046875,4.62890625,0.236328125,0.525390625,0.892578125,2.0078125,-9.609375,2.48828125,1.0
3441652,,,,,,,,5.1796875,-4.33984375,3.6875,-0.556640625,0.421875,0.59765625,1.2421875,-8.6484375,1.53125,1.0
3441653,,,,,,,,4.51953125,-1.7265625,3.17578125,-0.748046875,0.271484375,0.61328125,0.58984375,-6.046875,0.99609375,1.0
3441654,,,,,,,,4.60546875,1.328125,2.73046875,-0.732421875,-0.1484375,0.734375,0.66796875,-2.984375,0.53515625,1.0
3441655,,,,,,,,4.67578125,3.0234375,2.15625,-0.658203125,-0.453125,0.71875,0.70703125,-1.296875,-0.0390625,1.0
3441656,,,,,,,,4.98828125,3.7421875,1.88671875,-0.5234375,-0.5703125,0.701171875,1.01171875,-0.5703125,-0.30859375,1.0
3441657,,,,,,,,6.31640625,6.46875,1.09765625,-0.119140625,-0.68359375,0.6875,2.31640625,2.1484375,-1.07421875,1.0
3441658,,,,,,,,6.8828125,8.69921875,0.7734375,0.302734375,-0.666015625,0.728515625,2.8515625,4.37109375,-1.34375,1.0
3441659,,,,,,,,7.6796875,9.21484375,0.56640625,0.58984375,-0.67578125,0.759765625,3.6171875,4.8671875,-1.49609375,1.0
3441660,36.01300633333334,129.31893433333335,30.13977565511098,67.27833523809214,3.1,271.0,,8.66015625,9.0,0.10546875,1.232421875,0.859375,0.923828125,4.57421875,4.64453125,-1.87890625,1.0
3441661,,,,,,,,9.7109375,7.4921875,-0.29296875,0.33203125,-0.53515625,0.423828125,5.609375,3.109375,-2.22265625,1.0
3441662,,,,,,,,11.13671875,4.2890625,0.50390625,-0.130859375,-0.46875,0.271484375,7.02734375,-0.109375,-1.37890625,1.0
3441663,,,,,,,,11.40234375,3.4609375,0.76171875,-0.337890625,-0.427734375,0.248046875,7.29296875,-0.953125,-1.11328125,1.0
3441664,,,,,,,,10.5234375,3.27734375,2.32421875,-0.787109375,-0.349609375,0.28125,6.4140625,-1.14453125,0.45703125,1.0
3441665,,,,,,,,9.05859375,4.38671875,3.84375,-1.53515625,-0.287109375,0.1875,4.953125,-0.03515625,1.953125,1.0
3441666,,,,,,,,7.7421875,6.2109375,6.44140625,-2.34765625,-0.220703125,-0.04296875,3.65625,1.8046875,4.48046875,1.0
3441667,,,,,,,,7.6015625,6.49609375,6.765625,-3.134765625,-0.099609375,-0.712890625,3.80859375,2.265625,5.203125,1.0
3441668,,,,,,,,7.85546875,6.6484375,7.31640625,-3.3125,-0.08984375,-0.94140625,4.53515625,2.07421875,5.94140625,1.0
3441669,,,,,,,,9.5546875,3.60546875,9.88671875,-3.81640625,-0.095703125,-1.01171875,4.8046875,-2.5234375,7.05078125,1.0
3441670,36.01300666666667,129.31893133333332,29.869328884729043,67.31532072773322,2.8000000000000003,272.0,,8.66015625,9.0,0.10546875,-4.21484375,-0.033203125,-0.212890625,-1.24609375,-31.02734375,11.60546875,1.0
3441671,,,,,,,,-4.1015625,-49.16796875,27.1796875,-3.6015625,0.51953125,1.404296875,-33.42578125,-75.0,31.9453125,1.0
3441672,,,,,,,,-25.23046875,-68.66796875,20.78515625,-2.623046875,0.392578125,1.560546875,-20.6328125,-62.78515625,8.6953125,1.0
3441673,,,,,,,,-0.375,-21.8359375,8.78125,1.021484375,-0.8515625,0.0703125,1.08984375,-18.26953125,0.07421875,1.0
3441674,,,,,,,,7.9765625,-6.15234375,4.3515625,-5.69140625,-0.1015625,-3.650390625,4.0390625,-10.296875,1.609375,1.0
3441675,,,,,,,,13.07421875,-0.11328125,3.203125,-4.94140625,-0.48828125,-4.3125,9.28515625,-4.28515625,0.265625,1.0
3441676,,,,,,,,13.46484375,-2.7734375,1.90625,-3.74609375,-0.859375,-3.58203125,9.78125,-6.96875,-1.1484375,1.0
3441677,,,,,,,,5.47265625,-18.46875,4.08203125,-2.8359375,-1.412109375,-0.900390625,1.93359375,-22.7109375,0.91796875,1.0
3441678,,,,,,,,0.4375,-26.19140625,11.0,-5.275390625,-1.85546875,1.46484375,-3.0859375,-30.41015625,7.7734375,1.0
3441679,,,,,,,,2.875,-24.94140625,10.8828125,-6.1015625,-1.708984375,1.685546875,-0.7890625,-28.87890625,7.4296875,1.0
3441680,36.013006499999996,129.31892866666666,29.62893193467425,67.29682670694045,2.6,269.0,,2.13671875,-14.96875,5.75390625,-5.0703125,-2.05859375,0.72265625,-1.62890625,-18.6875,2.14453125,1.0
3441681,,,,,,,,-0.57421875,-11.6796875,3.51953125,-4.265625,-2.361328125,-0.947265625,-4.42578125,-15.24609375,-0.19140625,1.0
3441682,,,,,,,,-4.0859375,-8.76171875,3.7734375,-4.3515625,-2.330078125,-1.203125,-7.953125,-12.2890625,0.0390625,1.0
3441683,,,,,,,,-7.203125,-6.01953125,4.85546875,-5.099609375,-2.095703125,-0.78125,-11.09375,-9.45703125,1.03515625,1.0
3441684,,,,,,,,-6.3984375,-5.35546875,3.65234375,-5.2265625,-1.955078125,0.1328125,-10.328125,-8.65234375,-0.26953125,1.0
3441685,,,,,,,,-5.484375,-3.34375,3.31640625,-4.05859375,-1.564453125,0.810546875,-9.5234375,-6.390625,-0.73046875,1.0
3441686,,,,,,,,-4.6875,-2.07421875,3.578125,-3.470703125,-1.560546875,0.94140625,-8.76171875,-5.05078125,-0.5,1.0
3441687,,,,,,,,-2.9921875,1.9453125,5.03515625,-2.41015625,-1.4296875,1.16796875,-7.1484375,-0.9140625,0.91796875,1.0
3441688,,,,,,,,-1.84765625,4.1796875,5.9609375,-1.78515625,-1.216796875,1.3046875,-6.0703125,1.421875,1.8359375,1.0
3441689,,,,,,,,-0.97265625,6.484375,6.4609375,-1.484375,-1.14453125,1.119140625,-5.265625,3.796875,2.3359375,1.0
3441690,36.01300833333333,129.31892583333334,29.373509428229873,67.50025112587858,2.9000000000000004,288.0,,-1.109375,7.5703125,5.81640625,-5.0703125,-2.05859375,0.72265625,-1.62890625,-18.6875,2.14453125,1.0
3441691,,,,,,,,-1.1015625,4.16015625,4.19921875,-1.234375,-0.908203125,0.376953125,-5.5,1.57421875,0.07421875,1.0
3441692,,,,,,,,-1.0390625,2.7578125,3.59375,-1.353515625,-0.767578125,0.271484375,-5.46484375,0.1953125,-0.5390625,1.0
3441693,,,,,,,,-0.5859375,1.5625,4.0234375,-1.330078125,-0.77734375,0.615234375,-5.04296875,-0.953125,-0.1171875,1.0
3441694,,,,,,,,-0.46484375,1.59375,5.375,-0.97265625,-0.6953125,1.02734375,-4.96484375,-0.875,1.2265625,1.0
3441695,,,,,,,,-0.38671875,2.203125,6.5234375,-0.36328125,-0.59375,1.212890625,-4.921875,-0.2265625,2.375,1.0
3441696,,,,,,,,0.734375,3.90625,6.84375,0.3828125,-0.513671875,1.19140625,-3.8515625,1.5,2.71875,1.0
3441697,,,,,,,,2.2265625,4.91015625,6.3515625,1.208984375,-0.4765625,0.98828125,-2.3984375,2.49609375,2.2578125,1.0
3441698,,,,,,,,4.47265625,6.609375,5.2265625,1.91015625,-0.470703125,0.689453125,-0.17578125,4.140625,1.1875,1.0
3441699,,,,,,,,6.19921875,7.546875,4.80859375,2.1171875,-0.515625,0.48046875,1.51171875,4.984375,0.83984375,1.0
3441700,36.01301016666666,129.3189235,29.163161370603852,67.70367570076955,2.9000000000000004,298.0,0.0,7.29296875,7.703125,4.77734375,-5.0703125,-2.05859375,0.72265625,2.58203125,5.0625,0.87890625,1.0
3441701,,,,,,,,7.86328125,7.19140625,5.8203125,1.0234375,-0.68359375,0.68359375,3.12109375,4.484375,1.9921875,1.0
3441702,,,,,,,,7.43359375,5.8125,6.1484375,0.29296875,-0.732421875,0.98828125,2.66015625,3.11328125,2.375,1.0
3441703,,,,,,,,7.02734375,1.84765625,4.96875,-0.1796875,-0.80859375,1.25,2.19921875,-0.83984375,1.2265625,1.0
3441704,,,,,,,,6.9375,-1.84375,4.97265625,-0.203125,-0.87890625,1.513671875,2.046875,-4.4765625,1.26171875,1.0
3441705,,,,,,,,7.84375,-12.81640625,4.13671875,-0.08203125,-1.103515625,2.119140625,2.8515625,-15.35546875,0.49609375,1.0
3441706,,,,,,,,6.78125,-31.21484375,6.3828125,0.029296875,-1.2109375,2.38671875,1.7421875,-33.703125,2.7578125,1.0
3441707,,,,,,,,16.265625,-63.875,13.8125,-0.09765625,-1.458984375,2.98046875,11.125,-66.265625,10.265625,1.0
3441708,,,,,,,,25.875,-61.05859375,38.82421875,0.306640625,-1.341796875,3.25390625,20.625,-63.31640625,35.35546875,1.0
3441709,,,,,,,,17.2421875,-32.66015625,21.26953125,1.5625,-1.1171875,3.40234375,11.890625,-34.81640625,17.88671875,1.0
3441710,36.013011666666664,129.31892183333332,29.012912693219043,67.87011406632112,2.3000000000000003,304.0,,-3.1875,-13.96875,4.9296875,-1.271484375,-0.234375,-0.97265625,-8.6015625,-16.08984375,1.609375,1.0
3441711,,,,,,,,-9.296875,-14.36328125,3.90234375,-3.37109375,0.240234375,-5.037109375,-14.6171875,-16.6171875,0.53515625,1.0
3441712,,,,,,,,-6.5546875,-18.18359375,3.25390625,-1.998046875,0.03125,-4.162109375,-11.7421875,-20.640625,-0.19140625,1.0
3441713,,,,,,,,-2.08984375,-17.7578125,4.9296875,0.0546875,-0.8515625,-1.154296875,-7.22265625,-20.37890625,1.4921875,1.0
3441714,,,,,,,,1.265625,-15.3046875,6.46875,0.748046875,-0.24609375,1.65234375,-3.890625,-17.9609375,3.1015625,1.0
3441715,,,,,,,,4.09375,-13.58984375,7.703125,0.62890625,-0.076171875,1.154296875,-1.09375,-16.23828125,4.3671875,1.0
3441716,,,,,,,,6.70703125,-12.01171875,8.23046875,0.56640625,0.25,0.865234375,1.51171875,-14.6640625,4.90234375,1.0
3441717,,,,,,,,11.1015625,-9.86328125,8.8359375,0.95703125,0.88671875,0.552734375,5.9140625,-12.5546875,5.515625,1.0
3441718,,,,,,,,10.84375,-8.8125,9.234375,1.5390625,1.306640625,0.4609375,5.6875,-11.56640625,5.8984375,1.0
3441719,,,,,,,,8.2578125,-7.82421875,6.19140625,0.90234375,1.263671875,0.26171875,3.15625,-10.640625,2.83203125,1.0
3441720,36.01301333333333,129.31892000000002,28.847639153354756,68.05504559195141,2.5,310.0,,7.37109375,-7.01171875,4.0546875,-0.576171875,1.021484375,-0.095703125,2.31640625,-9.87890625,0.6484375,1.0
3441721,,,,,,,,6.1953125,-5.5078125,4.3203125,-1.802734375,0.890625,0.42578125,1.203125,-8.38671875,0.8046875,1.0
3441722,,,,,,,,6.5234375,-5.33984375,5.26953125,-1.9609375,0.6875,0.849609375,1.546875,-8.19140625,1.72265625,1.0
3441723,,,,,,,,8.140625,-3.640625,7.29296875,-1.55078125,0.23046875,1.6484375,3.15625,-6.390625,3.67578125,1.0
3441724,,,,,,,,9.4375,2.29296875,5.43359375,-0.43359375,-0.16796875,1.79296875,4.421875,-0.37890625,1.80078125,1.0
3441725,,,,,,,,9.5703125,4.29296875,4.359375,0.443359375,-0.2578125,0.916015625,4.50390625,1.65234375,0.765625,1.0
3441726,,,,,,,,9.65234375,5.83203125,2.16015625,0.22265625,-0.16015625,0.509765625,4.57421875,3.18359375,-1.41796875,1.0
3441727,,,,,,,,9.171875,4.6328125,0.6875,-0.60546875,-0.0078125,-0.4140625,4.1171875,1.921875,-2.875,1.0
3441728,,,,,,,,8.53515625,2.78515625,1.26953125,-0.998046875,-0.123046875,-0.685546875,3.5,0.04296875,-2.30078125,1.0
3441729,,,,,,,,8.25,2.42578125,2.04296875,-1.21875,-0.1953125,-0.740234375,3.234375,-0.33984375,-1.53515625,1.0
3441730,36.013015333333335,129.31891983333335,28.83261361318999,68.27696402776404,2.5,324.0,,6.2265625,2.6015625,5.62890625,-1.75,-0.234375,-0.705078125,1.2421875,-0.1875,2.02734375,1.0
3441731,,,,,,,,4.44140625,4.6640625,7.15625,-1.94140625,-0.146484375,-0.587890625,-0.51953125,1.8828125,3.5234375,1.0
3441732,,,,,,,,5.0546875,6.35546875,5.46484375,-1.341796875,0.041015625,-0.677734375,0.1328125,3.5625,1.80078125,1.0
3441733,,,,,,,,5.78125,8.1484375,2.5,-0.890625,0.1953125,-0.927734375,0.8984375,5.33203125,-1.1875,1.0
3441734,,,,,,,,5.265625,8.6171875,2.33203125,-1.103515625,0.125,-0.947265625,0.4375,5.75,-1.37890625,1.0
3441735,,,,,,,,4.15234375,7.796875,2.5625,-1.580078125,0.052734375,-0.701171875,-0.63671875,4.91015625,-1.1875,1.0
3441736,,,,,,,,3.90234375,7.1796875,2.8828125,-1.75,0.02734375,-0.49609375,-0.86328125,4.296875,-0.8828125,1.0
3441737,,,,,,,,4.375,4.51171875,5.11328125,-1.75390625,-0.041015625,-0.001953125,-0.3671875,1.6484375,1.30078125,1.0
3441738,,,,,,,,5.82421875,0.86328125,7.10546875,-1.529296875,-0.109375,0.498046875,1.08984375,-1.94921875,3.25,1.0
3441739,,,,,,,,6.98046875,-4.75390625,8.26953125,-1.36328125,-0.2265625,1.001953125,2.23828125,-7.50390625,4.40234375,1.0
3441740,36.01301716666667,129.3189185,28.712414453070288,68.48038891081126,2.4000000000000004,329.0,,1.296875,-28.88671875,21.578125,-1.75,-0.234375,-0.705078125,1.2421875,-0.1875,2.02734375,1.0
3441741,,,,,,,,3.671875,-50.2421875,20.62890625,-1.474609375,-0.45703125,1.501953125,-1.1328125,-52.8203125,16.73828125,1.0
3441742,,,,,,,,-6.79296875,-50.46484375,12.05078125,-0.6328125,-0.361328125,1.0234375,-11.62890625,-52.96875,8.16015625,1.0
3441743,,,,,,,,9.41015625,-11.09375,-1.06640625,-4.037109375,-0.236328125,-1.267578125,4.57421875,-13.5546875,-4.98046875,1.0
3441744,,,,,,,,11.38671875,-14.671875,2.3828125,-2.7578125,0.212890625,-3.4140625,6.64453125,-17.16015625,-1.609375,1.0
3441745,,,,,,,,10.625,-18.80859375,11.60546875,-2.669921875,-1.25390625,-1.955078125,5.953125,-21.37109375,7.58203125,1.0
3441746,,,,,,,,8.15234375,-23.8984375,12.04296875,-3.62109375,-1.052734375,1.13671875,3.46484375,-26.39453125,8.00390625,1.0
3441747,,,,,,,,4.7265625,-18.09375,4.875,-4.013671875,-1.4375,1.1328125,-0.0234375,-20.41796875,0.8046875,1.0
3441748,,,,,,,,0.74609375,-13.64453125,4.69140625,-4.26171875,-1.8515625,-0.39453125,-4.08203125,-15.7734375,0.61328125,1.0
3441749,,,,,,,,0.5625,-12.3046875,6.51953125,-4.37109375,-2.189453125,-0.083984375,-4.3125,-14.3203125,2.44921875,1.0
3441750,36.013019,129.31891766666666,28.637289732392283,68.68381394302466,2.3000000000000003,333.0,,0.49609375,-11.85546875,6.86328125,-3.740234375,-2.39453125,0.310546875,1.2421875,-0.1875,2.02734375,1.0
3441751,,,,,,,,-0.109375,-10.703125,5.39453125,-3.216796875,-2.328125,0.173828125,-5.15625,-12.48828125,1.41796875,1.0
3441752,,,,,,,,-1.69921875,-7.33203125,4.5703125,-3.2421875,-2.189453125,0.015625,-6.80078125,-9.03125,0.6484375,1.0
3441753,,,,,,,,-2.3671875,-5.265625,4.82421875,-3.30078125,-1.97265625,0.2734375,-7.53515625,-6.890625,0.95703125,1.0
3441754,,,,,,,,-2.44921875,-2.76953125,5.3203125,-3.025390625,-1.716796875,0.6171875,-7.68359375,-4.28515625,1.4921875,1.0
3441755,,,,,,,,-2.32421875,-1.29296875,5.08984375,-2.66015625,-1.443359375,0.66796875,-7.60546875,-2.71484375,1.30078125,1.0
3441756,,,,,,,,-1.7578125,-0.48828125,4.65234375,-2.48828125,-1.310546875,0.591796875,-7.07421875,-1.87109375,0.87890625,1.0
3441757,,,,,,,,-0.04296875,2.50390625,5.05078125,-2.017578125,-1.07421875,0.490234375,-5.3828125,1.19140625,1.30078125,1.0
3441758,,,,,,,,2.52734375,6.6953125,4.98828125,-1.20703125,-0.82421875,0.5703125,-2.85546875,5.44921875,1.26171875,1.0
3441759,,,,,,,,3.078125,5.55078125,4.23046875,-0.708984375,-0.779296875,0.490234375,-2.3203125,4.328125,0.53515625,1.0
3441760,36.013021333333334,129.31891750000003,28.62226408030586,68.94271879208388,2.7,341.0,,2.640625,3.1015625,4.3203125,-0.541015625,-0.71484375,0.404296875,-2.78125,1.8828125,0.6484375,1.0
3441761,,,,,,,,2.3515625,0.6328125,5.02734375,-0.681640625,-0.58984375,0.47265625,-3.08984375,-0.5703125,1.37890625,1.0
3441762,,,,,,,,2.8203125,-0.1015625,5.171875,-0.666015625,-0.416015625,0.666015625,-2.625,-1.296875,1.53125,1.0
3441763,,,,,,,,4.12890625,0.06640625,5.31640625,-0.400390625,-0.3359375,0.69921875,-1.32421875,-1.10546875,1.68359375,1.0
3441764,,,,,,,,5.21875,0.984375,5.33984375,-0.0703125,-0.341796875,0.46484375,-0.25,-0.1875,1.72265625,1.0
3441765,,,,,,,,7.015625,2.953125,5.40234375,0.060546875,-0.337890625,0.357421875,1.546875,1.765625,1.80078125,1.0
3441766,,,,,,,,7.79296875,4.00390625,5.26953125,0.0546875,-0.3359375,0.349609375,2.31640625,2.80078125,1.68359375,1.0
3441767,,,,,,,,7.70703125,3.9375,4.87109375,-0.123046875,-0.298828125,0.3359375,2.23828125,2.7265625,1.30078125,1.0
3441768,,,,,,,,6.55859375,1.61328125,5.5625,-0.28125,-0.20703125,0.3984375,1.08984375,0.38671875,1.9921875,1.0
3441769,,,,,,,,6.12890625,0.3046875,5.8671875,-0.30859375,-0.14453125,0.48828125,0.66796875,-0.9140625,2.30078125,1.0
3441770,36.013023833333335,129.31891733333333,28.60723836426451,69.22011684807701,2.8000000000000003,350.0,,6.359375,-6.5703125,5.4375,-0.322265625,-0.072265625,0.712890625,0.8984375,-7.7734375,1.875,1.0
3441771,,,,,,,,6.55078125,-27.64453125,12.44921875,0.005859375,-0.138671875,1.453125,1.08984375,-28.796875,8.88671875,1.0
3441772,,,,,,,,10.84765625,-44.90625,17.46875,-0.033203125,-0.171875,1.6015625,5.37890625,-46.04296875,13.90625,1.0
3441773,,,,,,,,13.8046875,-32.83984375,23.16015625,0.703125,-0.123046875,1.23828125,8.328125,-33.93359375,19.61328125,1.0
3441774,,,,,,,,11.890625,-22.03125,15.796875,1.111328125,0.0390625,0.81640625,6.4140625,-23.1328125,12.2578125,1.0
3441775,,,,,,,,2.7109375,-14.0390625,7.62890625,0.337890625,0.052734375,-0.216796875,-2.7421875,-15.203125,4.09765625,1.0
3441776,,,,,,,,-5.06640625,-15.4296875,7.484375,-1.23046875,0.458984375,-2.81640625,-10.48046875,-16.69921875,3.9453125,1.0
3441777,,,,,,,,-5.3046875,-16.3046875,7.890625,-1.791015625,0.26171875,-3.259765625,-10.671875,-17.66015625,4.328125,1.0
3441778,,,,,,,,0.06640625,-18.8046875,9.8671875,-0.271484375,0.119140625,-1.197265625,-5.23046875,-20.3359375,6.28125,1.0
3441779,,,,,,,,1.61328125,-18.875,11.015625,0.5703125,0.1484375,-0.447265625,-3.66015625,-20.45703125,7.4296875,1.0
3441780,36.01302633333333,129.31891766666666,28.63728707990061,69.49751505113068,2.6,357.0,,5.44921875,-15.63671875,10.05078125,-0.322265625,-0.072265625,0.712890625,0.20703125,-17.3046875,6.47265625,1.0
3441781,,,,,,,,5.49609375,-14.89453125,8.92578125,0.63671875,0.787109375,-0.404296875,0.32421875,-16.4296875,5.09375,1.0
3441782,,,,,,,,5.86328125,-14.41796875,8.18359375,0.259765625,1.125,-0.029296875,1.203125,-16.0078125,4.671875,1.0
3441783,,,,,,,,6.3046875,-14.09375,8.3046875,0.21875,1.3046875,0.330078125,2.0859375,-15.0078125,5.171875,1.0
3441784,,,,,,,,7.4296875,-12.484375,8.8515625,0.17578125,1.3125,0.470703125,2.734375,-13.82421875,4.86328125,1.0
3441785,,,,,,,,7.828125,-11.1796875,8.015625,0.2734375,1.15234375,0.447265625,2.7734375,-12.52734375,3.484375,1.0
3441786,,,,,,,,7.4375,-9.546875,5.91015625,0.287109375,0.96875,0.35546875,2.3515625,-11.02734375,1.8359375,1.0
3441787,,,,,,,,7.19921875,-8.50390625,5.59765625,0.06640625,0.80078125,0.486328125,2.46875,-9.4140625,2.18359375,1.0
3441788,,,,,,,,7.328125,-7.33984375,5.98828125,-0.07421875,0.720703125,0.603515625,2.27734375,-8.8046875,2.375,1.0
3441789,,,,,,,,7.02734375,-6.14453125,6.203125,-0.248046875,0.513671875,0.783203125,1.85546875,-7.078125,2.296875,1.0
3441790,36.01302866666666,129.318919,28.757484708560135,69.75642034201768,2.8000000000000003,6.0,,5.44921875,-15.63671875,10.05078125,-0.34375,0.287109375,0.775390625,0.20703125,-17.3046875,6.47265625,1.0
3441791,,,,,,,,6.19140625,-1.2734375,6.33984375,-0.462890625,0.216796875,0.646484375,1.39453125,-3.3671875,2.48828125,1.0
3441792,,,,,,,,6.09375,0.98828125,6.68359375,-0.388671875,0.162109375,0.486328125,1.3203125,-1.10546875,2.828125,1.0
3441793,,,,,,,,7.2265625,3.953125,4.41796875,-0.052734375,0.126953125,0.1875,2.46875,1.84375,0.57421875,1.0
3441794,,,,,,,,8.23828125,4.95703125,3.18359375,0.361328125,0.04296875,-0.1875,3.50390625,2.80078125,-0.65234375,1.0
3441795,,,,,,,,9.4296875,5.80078125,2.76953125,0.400390625,-0.01953125,-0.453125,4.7265625,3.56640625,-1.03515625,1.0
3441796,,,,,,,,10.40234375,5.53515625,2.75390625,0.154296875,-0.00390625,-0.51953125,5.72265625,3.22265625,-1.03515625,1.0
3441797,,,,,,,,10.82421875,4.05859375,2.66015625,-0.18359375,0.1015625,-0.484375,6.18359375,1.69140625,-1.11328125,1.0
3441798,,,,,,,,9.67578125,3.5234375,3.3515625,-0.70703125,0.28125,-0.3046875,5.07421875,1.1171875,-0.421875,1.0
3441799,,,,,,,,7.4921875,3.75,4.80078125,-1.546875,0.47265625,0.01171875,2.9296875,1.34375,0.99609375,1.0
3441800,36.013031166666664,129.3189201666667,28.862657463767967,70.0338187919321,2.9000000000000004,12.0,0.0,5.4609375,4.01171875,6.08203125,-2.478515625,0.5546875,0.23046875,0.9375,1.65234375,2.22265625,1.0
3441801,,,,,,,,4.9296875,4.046875,6.41796875,-3.240234375,0.412109375,0.2109375,0.015625,1.921875,2.60546875,1.0
3441802,,,,,,,,4.1640625,4.359375,6.3828125,-3.18359375,0.25390625,0.07421875,-0.3671875,2.3046875,1.9140625,1.0
3441803,,,,,,,,4.0546875,4.390625,5.5234375,-2.86328125,0.056640625,-0.083984375,-0.328125,2.30859375,1.03515625,1.0
3441804,,,,,,,,4.109375,3.98828125,4.73046875,-2.490234375,-0.166015625,-0.125,-0.25,1.7265625,0.61328125,1.0
3441805,,,,,,,,4.24609375,2.27734375,5.10546875,-2.296875,-0.318359375,0.03515625,-0.13671875,0.34765625,0.95703125,1.0
3441806,,,,,,,,4.27734375,0.8984375,5.7265625,-2.2421875,-0.380859375,0.197265625,-0.25,-2.94921875,2.296875,1.0
3441807,,,,,,,,3.39453125,-3.796875,8.0,-2.189453125,-0.4453125,0.646484375,-3.35546875,-10.5625,8.46484375,1.0
3441808,,,,,,,,-4.94921875,-25.18359375,25.01953125,-2.03125,-0.453125,1.310546875,-8.02734375,-34.0859375,21.03125,1.0
3441809,,,,,,,,2.28515625,-50.98046875,9.87890625,0.19140625,-0.419921875,1.9453125,-2.12890625,-52.58984375,5.70703125,1.0
3441810,36.013033666666665,129.318921,28.937780589239928,70.3112171455794,2.8000000000000003,15.0,,-10.41015625,-24.37109375,9.1875,-0.328125,-0.423828125,-0.798828125,-14.84765625,-26.0390625,5.09375,1.0
3441811,,,,,,,,0.828125,-15.74609375,3.06640625,-5.33984375,-0.759765625,-2.748046875,-3.5859375,-17.42578125,-1.03515625,1.0
3441812,,,,,,,,6.62890625,-13.42578125,7.10546875,-3.314453125,0.02734375,-3.216796875,2.27734375,-15.08984375,2.94921875,1.0
3441813,,,,,,,,9.01953125,-15.23046875,8.9609375,-2.017578125,-0.404296875,-2.662109375,4.69140625,-16.92578125,4.7890625,1.0
3441814,,,,,,,,8.6484375,-21.015625,10.32421875,-1.724609375,-0.787109375,-0.599609375,4.34375,-22.75390625,6.16796875,1.0
3441815,,,,,,,,4.14453125,-21.67578125,10.96484375,-2.826171875,-0.927734375,0.853515625,-0.17578125,-23.359375,6.81640625,1.0
3441816,,,,,,,,2.18359375,-18.9140625,7.09765625,-4.544921875,-1.169921875,0.767578125,-2.16796875,-20.453125,2.94921875,1.0
3441817,,,,,,,,1.7734375,-15.859375,4.68359375,-4.736328125,-1.6875,0.26171875,-2.625,-17.234375,0.53515625,1.0
3441818,,,,,,,,1.6796875,-14.6328125,4.5625,-4.48046875,-1.939453125,0.0390625,-2.7421875,-15.93359375,0.421875,1.0
3441819,,,,,,,,0.37109375,-12.69140625,6.3515625,-4.001953125,-2.166015625,0.08984375,-4.12109375,-13.859375,2.2578125,1.0
3441820,36.01303600000001,129.318922,29.02792858342186,70.5701223412057,2.6,18.0,,-0.6328125,-11.57421875,5.83984375,-0.328125,-0.423828125,-0.798828125,-14.84765625,-26.0390625,5.09375,1.0
3441821,,,,,,,,-0.71484375,-10.83984375,4.7734375,-3.15234375,-1.9296875,0.537109375,-5.34765625,-11.79296875,0.8046875,1.0
3441822,,,,,,,,-1.00390625,-9.86328125,3.9140625,-3.076171875,-1.67578125,0.478515625,-5.69140625,-10.72265625,0.0,1.0
3441823,,,,,,,,-1.41796875,-6.890625,3.328125,-3.240234375,-1.388671875,0.4453125,-6.15234375,-7.65625,-0.5390625,1.0
3441824,,,,,,,,-1.4921875,-2.703125,4.44921875,-3.310546875,-1.15234375,0.51171875,-6.26953125,-3.3671875,0.61328125,1.0
3441825,,,,,,,,-0.88671875,-1.04296875,4.80078125,-3.169921875,-0.802734375,0.677734375,-5.6875,-1.56640625,0.99609375,1.0
3441826,,,,,,,,-0.58203125,0.28125,5.43359375,-3.07421875,-0.712890625,0.677734375,-5.38671875,-0.1875,1.64453125,1.0
3441827,,,,,,,,-0.14453125,3.25390625,5.80859375,-2.697265625,-0.625,0.544921875,-4.96484375,2.87890625,2.02734375,1.0
3441828,,,,,,,,-0.359375,4.5625,5.87109375,-2.021484375,-0.603515625,0.333984375,-5.1953125,4.2578125,2.10546875,1.0
3441829,,,,,,,,-0.65625,4.34765625,5.55078125,-1.369140625,-0.4921875,-0.017578125,-5.50390625,4.06640625,1.80078125,1.0
3441830,36.013038333333334,129.318924,29.20822541871246,70.82902783893621,3.0,21.0,,-2.6484375,1.6796875,5.42578125,-0.328125,-0.423828125,-0.798828125,-14.84765625,-26.0390625,5.09375,1.0
3441831,,,,,,,,-2.38671875,0.59375,4.76953125,-0.857421875,-0.392578125,-0.705078125,-7.22265625,0.234375,1.03515625,1.0
3441832,,,,,,,,0.109375,0.2109375,4.71484375,-0.357421875,-0.4140625,-0.1171875,-4.734375,-0.1875,0.99609375,1.0
3441833,,,,,,,,2.140625,0.2421875,5.12890625,0.150390625,-0.4453125,0.373046875,-2.70703125,-0.1875,1.41796875,1.0
3441834,,,,,,,,3.51953125,0.88671875,5.37109375,0.705078125,-0.4609375,0.443359375,-1.32421875,0.42578125,1.68359375,1.0
3441835,,,,,,,,5.796875,2.47265625,5.05078125,1.26953125,-0.46875,0.298828125,0.9375,1.95703125,1.37890625,1.0
3441836,,,,,,,,6.9921875,3.546875,4.48046875,1.51171875,-0.52734375,0.072265625,2.125,2.953125,0.83984375,1.0
3441837,,,,,,,,7.375,4.0625,4.21484375,1.267578125,-0.55078125,-0.15234375,2.5078125,3.375,0.61328125,1.0
3441838,,,,,,,,4.5,2.33984375,7.32421875,0.626953125,-0.56640625,-0.177734375,-0.3671875,1.57421875,3.75390625,1.0
3441839,,,,,,,,2.33203125,-0.9375,8.48046875,-0.021484375,-0.6171875,0.060546875,-2.55078125,-1.7578125,4.9375,1.0
