time,latitude,longitude,enu_x,enu_y,speed,course,ecg,accX,accY,accZ,gyrX,gyrY,gyrZ,eulR,eulP,eulY,validity
3428900,36.01301733333333,129.31895500000002,32.0028480673876,68.49889348823244,3.0,233.0,0.0,5.58984375,7.0078125,10.66796875,-1.921875,0.40625,-0.884765625,1.80078125,2.84375,9.1171875,1.0
3428901,,,,,,,,4.6015625,6.80859375,7.97265625,-2.208984375,0.1875,-1.287109375,0.8828125,2.61328125,6.36328125,1.0
3428902,,,,,,,,3.796875,3.078125,7.3046875,-2.103515625,-0.00390625,-0.751953125,0.15625,-1.140625,5.6328125,1.0
3428903,,,,,,,,2.62890625,-10.0703125,7.55078125,-1.970703125,-0.1875,0.794921875,-0.99609375,-14.28515625,5.82421875,1.0
3428904,,,,,,,,-0.1953125,-34.2421875,16.2109375,-1.416015625,-0.03515625,2.31640625,-3.8671875,-38.375,14.4453125,1.0
3428905,,,,,,,,-9.36328125,-56.9765625,19.62109375,-0.251953125,0.181640625,2.908203125,-13.13671875,-61.01953125,17.85546875,1.0
3428906,,,,,,,,-10.55859375,-33.2578125,14.82421875,0.6953125,-0.01953125,2.46875,-14.36328125,-37.265625,13.06640625,1.0
3428907,,,,,,,,2.17578125,-14.41015625,8.203125,1.427734375,-0.455078125,0.662109375,-1.68359375,-18.4140625,6.5546875,1.0
3428908,,,,,,,,6.90234375,-9.93359375,0.78515625,-2.71875,-0.595703125,-1.322265625,3.06640625,-13.96875,-0.83984375,1.0
3428909,,,,,,,,13.41015625,-10.0703125,7.11328125,-1.41796875,-0.330078125,-3.3515625,9.69140625,-14.20703125,5.44140625,1.0
3428910,36.0130155,129.31895283333333,31.807526256423472,68.29546750172477,2.9000000000000004,227.0,,9.82421875,-11.515625,10.1953125,-1.884765625,-1.072265625,-1.35546875,6.28515625,-15.81640625,8.546875,1.0
3428911,,,,,,,,6.703125,-15.8203125,6.47265625,-4.095703125,-1.26171875,0.880859375,3.1796875,-20.10546875,4.75390625,1.0
3428912,,,,,,,,5.296875,-13.3046875,3.82421875,-4.142578125,-1.32421875,0.796875,1.7265625,-17.50390625,1.99609375,1.0
3428913,,,,,,,,4.73828125,-11.9921875,3.33203125,-3.96484375,-1.43359375,0.107421875,1.15234375,-16.16015625,1.41796875,1.0
3428914,,,,,,,,3.2890625,-10.5,3.48828125,-3.7109375,-1.71875,-0.009765625,-0.3046875,-14.62890625,1.49609375,1.0
3428915,,,,,,,,1.89453125,-8.5859375,4.38671875,-3.5078125,-2.171875,0.4375,-1.72265625,-12.671875,2.33984375,1.0
3428916,,,,,,,,-0.08984375,-7.33984375,4.6171875,-3.265625,-2.30859375,0.7265625,-3.75390625,-11.37109375,2.53125,1.0
3428917,,,,,,,,-0.30078125,-5.74609375,4.10546875,-3.2109375,-2.2265625,0.587890625,-4.01953125,-9.71875,1.99609375,1.0
3428918,,,,,,,,-0.2421875,-4.8046875,3.5078125,-3.298828125,-2.111328125,0.427734375,-3.984375,-8.765625,1.3828125,1.0
3428919,,,,,,,,-0.140625,-2.97265625,2.01171875,-3.56640625,-1.916015625,0.119140625,-3.90625,-6.8828125,-0.15234375,1.0
3428920,36.01301466666666,129.31895033333333,31.58215441429096,68.20300065324822,2.8000000000000003,233.0,,-0.1484375,-0.0546875,0.6875,-1.884765625,-1.072265625,-1.35546875,6.28515625,-15.81640625,8.546875,1.0
3428921,,,,,,,,-0.4765625,2.6171875,0.78125,-3.46875,-1.744140625,0.248046875,-4.2890625,-1.21875,-1.4921875,1.0
3428922,,,,,,,,-0.98046875,3.875,1.3359375,-3.357421875,-1.462890625,0.646484375,-4.8203125,0.0859375,-0.9921875,1.0
3428923,,,,,,,,-1.37890625,6.0625,2.9609375,-2.94140625,-1.17578125,1.158203125,-5.28515625,2.3828125,0.5390625,1.0
3428924,,,,,,,,-1.01953125,7.140625,3.23828125,-2.39453125,-1.037109375,1.287109375,-4.98046875,3.53125,0.76953125,1.0
3428925,,,,,,,,-0.51171875,6.19140625,2.6171875,-1.716796875,-0.958984375,1.158203125,-4.51953125,2.65234375,0.1171875,1.0
3428926,,,,,,,,-0.52734375,5.515625,2.51171875,-1.380859375,-0.93359375,1.060546875,-4.5546875,2.0,0.00390625,1.0
3428927,,,,,,,,-1.14453125,3.53125,2.76953125,-0.970703125,-0.84375,0.90625,-5.20703125,0.046875,0.26953125,1.0
3428928,,,,,,,,-1.48828125,2.90234375,3.30859375,-0.775390625,-0.638671875,0.85546875,-5.58984375,-0.56640625,0.80859375,1.0
3428929,,,,,,,,-1.53515625,2.96484375,3.765625,-0.552734375,-0.41015625,0.84375,-5.66796875,-0.48828125,1.265625,1.0
3428930,36.01301333333333,129.3189473333333,31.311708325939954,68.05505402922181,3.0,237.0,,-0.5625,4.05859375,3.91015625,-1.884765625,-1.072265625,-1.35546875,-4.71484375,0.62109375,1.41796875,1.0
3428931,,,,,,,,1.21484375,5.1328125,3.4453125,0.025390625,-0.2109375,0.54296875,-2.9453125,1.6953125,0.9609375,1.0
3428932,,,,,,,,2.71875,5.421875,3.23046875,0.59375,-0.17578125,0.34375,-1.453125,1.96484375,0.76953125,1.0
3428933,,,,,,,,3.63671875,5.28515625,3.21484375,0.87109375,-0.1875,0.26171875,-0.53515625,1.80859375,0.76953125,1.0
3428934,,,,,,,,5.8515625,5.2109375,4.4375,1.330078125,-0.19921875,0.14453125,1.6875,1.65625,2.0703125,1.0
3428935,,,,,,,,7.03125,3.96875,7.546875,1.21484375,-0.23046875,0.2265625,2.875,0.3515625,5.25,1.0
3428936,,,,,,,,6.2265625,2.1640625,7.72265625,0.888671875,-0.2109375,0.37109375,2.0703125,-1.484375,5.4765625,1.0
3428937,,,,,,,,5.734375,-1.30078125,5.69140625,0.439453125,-0.2421875,0.580078125,1.5703125,-4.96875,3.48828125,1.0
3428938,,,,,,,,6.25,-7.734375,2.98828125,0.1015625,-0.330078125,0.8125,2.0703125,-11.41015625,0.80859375,1.0
3428939,,,,,,,,6.76953125,-46.96875,9.734375,-0.06640625,-0.482421875,1.119140625,2.56640625,-50.63671875,7.5859375,1.0
3428940,36.013012499999995,129.3189445,31.056286848894295,67.96258708755286,2.7,239.0,,14.09765625,-72.7421875,18.6015625,-1.884765625,-1.072265625,-1.35546875,9.84765625,-76.375,16.4765625,1.0
3428941,,,,,,,,11.953125,-23.3203125,18.8671875,0.873046875,-0.8046875,1.2265625,7.625,-26.92578125,16.8203125,1.0
3428942,,,,,,,,1.03515625,-2.6171875,4.4609375,0.41796875,0.00390625,-1.625,-3.29296875,-6.2734375,2.4921875,1.0
3428943,,,,,,,,-7.83984375,-4.22265625,2.921875,-1.298828125,0.533203125,-5.2578125,-11.984375,-8.07421875,0.921875,1.0
3428944,,,,,,,,-9.1015625,-13.796875,0.47265625,-1.328125,-0.41015625,-3.720703125,-13.0625,-17.84765625,-1.56640625,1.0
3428945,,,,,,,,-8.3515625,-17.609375,3.3515625,-0.53515625,-0.41015625,-0.248046875,-12.21875,-21.75,1.3046875,1.0
3428946,,,,,,,,-7.69921875,-16.8671875,3.88671875,-0.423828125,-0.197265625,0.93359375,-11.56640625,-21.0234375,1.83984375,1.0
3428947,,,,,,,,-2.94140625,-13.96875,2.38671875,0.33203125,-0.171875,1.302734375,-6.85546875,-18.11328125,0.34765625,1.0
3428948,,,,,,,,2.70703125,-11.296875,4.31640625,1.6796875,0.025390625,0.587890625,-1.22265625,-15.46875,2.33984375,1.0
3428949,,,,,,,,6.50390625,-9.09765625,5.74609375,2.5078125,0.396484375,0.58203125,2.56640625,-13.3203125,3.87109375,1.0
3428950,36.013011666666664,129.31894183333333,30.815890178243635,67.87012020625501,2.6,242.0,,8.91796875,-7.80859375,6.6796875,2.734375,0.763671875,0.6171875,4.98046875,-12.09375,4.90625,1.0
3428951,,,,,,,,8.19140625,-7.5078125,3.89453125,2.283203125,0.81640625,0.662109375,4.25390625,-11.8671875,2.22265625,1.0
3428952,,,,,,,,7.00390625,-7.4453125,1.59765625,0.986328125,0.6484375,0.580078125,3.06640625,-11.8671875,0.00390625,1.0
3428953,,,,,,,,5.6640625,-5.8125,0.9921875,0.3828125,0.50390625,0.673828125,1.7265625,-10.2578125,-0.5703125,1.0
3428954,,,,,,,,5.515625,-4.05078125,1.82421875,-0.03515625,0.279296875,1.03515625,1.5703125,-8.4921875,0.26953125,1.0
3428955,,,,,,,,6.32421875,-1.21484375,2.8125,-0.0234375,0.08203125,1.3203125,2.33984375,-5.66015625,1.265625,1.0
3428956,,,,,,,,6.59765625,3.05078125,2.0234375,0.208984375,-0.14453125,1.2421875,2.5625,-1.37109375,0.5,1.0
3428957,,,,,,,,6.953125,6.16015625,0.65234375,0.609375,-0.427734375,0.693359375,2.87890625,1.73046875,-0.80078125,1.0
3428958,,,,,,,,6.39453125,7.5625,0.16015625,0.638671875,-0.451171875,0.404296875,2.30078125,3.109375,-1.22265625,1.0
3428959,,,,,,,,6.1640625,7.90234375,0.07421875,0.2265625,-0.505859375,0.263671875,2.0703125,3.41796875,-1.26171875,1.0
3428960,36.013011666666664,129.31893883333333,30.545443556539134,67.87011926156144,2.9000000000000004,256.0,,6.36328125,7.08203125,-0.04296875,2.734375,0.763671875,0.6171875,2.26171875,2.5703125,-1.33984375,1.0
3428961,,,,,,,,7.6640625,4.4609375,-0.46484375,0.02734375,-0.564453125,0.33203125,3.56640625,-0.0703125,-1.72265625,1.0
3428962,,,,,,,,8.66796875,1.828125,-0.47265625,0.177734375,-0.59765625,0.482421875,4.5546875,-2.7109375,-1.68359375,1.0
3428963,,,,,,,,8.4921875,0.83984375,0.171875,0.119140625,-0.59765625,0.658203125,4.37109375,-3.70703125,-0.9921875,1.0
3428964,,,,,,,,7.40625,1.52734375,1.43359375,-0.2265625,-0.4765625,0.7109375,3.26171875,-3.01953125,0.30859375,1.0
3428965,,,,,,,,5.31640625,3.03125,3.2734375,-0.876953125,-0.234375,0.462890625,1.15234375,-1.5234375,2.15234375,1.0
3428966,,,,,,,,4.2734375,3.328125,4.7734375,-1.23046875,-0.087890625,0.203125,0.1171875,-1.21875,3.64453125,1.0
3428967,,,,,,,,2.5,4.40234375,7.3203125,-1.662109375,0.302734375,-0.818359375,-1.609375,-0.18359375,6.09375,1.0
3428968,,,,,,,,3.57421875,5.7578125,6.69921875,-1.109375,0.44921875,-1.572265625,-0.45703125,1.1171875,5.40234375,1.0
3428969,,,,,,,,6.8359375,8.52734375,4.28125,-0.3203125,0.435546875,-2.10546875,2.9140625,3.796875,2.953125,1.0
3428970,36.01301133333333,129.31893566666668,30.259972250904156,67.83313185967212,2.8000000000000003,258.0,,9.54296875,10.23828125,2.6875,2.734375,0.763671875,0.6171875,5.7421875,5.41015625,1.34375,1.0
3428971,,,,,,,,7.796875,7.47265625,4.90234375,-1.44140625,-0.037109375,-1.142578125,4.10546875,2.57421875,3.52734375,1.0
3428972,,,,,,,,4.38671875,1.734375,3.6015625,-2.728515625,-0.25,0.3203125,0.73046875,-3.17578125,2.1484375,1.0
3428973,,,,,,,,-2.71484375,-26.4765625,19.43359375,-3.169921875,-0.41796875,1.349609375,-6.39453125,-31.328125,17.85546875,1.0
3428974,,,,,,,,-10.9296875,-72.0234375,24.94921875,-2.763671875,-0.25,1.654296875,-14.671875,-76.796875,23.25390625,1.0
3428975,,,,,,,,-17.84375,-63.0859375,11.26953125,-0.50390625,0.27734375,1.29296875,-21.640625,-67.796875,9.50390625,1.0
3428976,,,,,,,,-17.984375,-37.3046875,20.0234375,1.642578125,0.28125,1.16015625,-21.796875,-42.01953125,18.2734375,1.0
3428977,,,,,,,,0.7265625,-9.4296875,3.68359375,-1.248046875,0.19140625,0.205078125,-3.1015625,-14.16796875,1.99609375,1.0
3428978,,,,,,,,4.9765625,-8.7421875,-1.41796875,-6.251953125,0.791015625,-2.916015625,1.2265625,-13.4765625,-3.33203125,1.0
3428979,,,,,,,,11.7890625,-9.94140625,-0.3671875,-2.548828125,-0.84765625,-3.875,8.3515625,-14.81640625,-2.5625,1.0
3428980,36.0130105,129.31893283333332,30.004550751869097,67.74066494942701,2.7,253.0,,9.6484375,-19.5859375,14.953125,-1.5234375,-1.513671875,1.0546875,6.3203125,-24.546875,12.71875,1.0
3428981,,,,,,,,4.375,-18.4453125,7.73046875,-3.66796875,-1.8671875,2.591796875,0.921875,-23.32421875,5.44140625,1.0
3428982,,,,,,,,0.66796875,-11.0546875,3.58203125,-4.306640625,-1.79296875,-0.08984375,-2.91015625,-15.7734375,1.11328125,1.0
3428983,,,,,,,,0.1015625,-9.203125,3.68359375,-4.373046875,-1.892578125,-0.541015625,-3.484375,-13.8984375,1.15234375,1.0
3428984,,,,,,,,-1.0078125,-7.9453125,4.19140625,-4.29296875,-2.005859375,-0.849609375,-4.59375,-12.59765625,1.53515625,1.0
3428985,,,,,,,,-3.4609375,-3.12109375,2.46875,-4.1328125,-2.041015625,-0.833984375,-7.046875,-7.73046875,-0.3046875,1.0
3428986,,,,,,,,-5.0234375,0.5859375,0.546875,-3.712890625,-2.08984375,-0.529296875,-8.6171875,-3.9765625,-2.3359375,1.0
3428987,,,,,,,,-6.3125,1.61328125,1.66015625,-3.4375,-1.83203125,-0.03125,-9.92578125,-2.90234375,-1.30078125,1.0
3428988,,,,,,,,-6.36328125,1.53515625,2.08984375,-3.3359375,-1.71484375,0.326171875,-9.99609375,-2.94140625,-0.91796875,1.0
3428989,,,,,,,,-5.046875,3.52734375,2.55859375,-3.166015625,-1.416015625,0.923828125,-8.734375,-0.87109375,-0.53515625,1.0
3428990,36.013011,129.31893016666666,29.764153562151378,67.79614375208922,2.7,269.0,,-2.20703125,6.44921875,2.1953125,-2.859375,-1.140625,1.087890625,-5.96875,2.15234375,-0.9921875,1.0
3428991,,,,,,,,-0.73046875,7.66796875,2.46484375,-2.43359375,-0.998046875,1.10546875,-4.5546875,3.45703125,-0.80078125,1.0
3428992,,,,,,,,0.59765625,8.1640625,3.3515625,-1.841796875,-0.9453125,1.22265625,-3.29296875,4.03125,0.0390625,1.0
3428993,,,,,,,,0.32421875,5.47265625,4.15234375,-0.794921875,-0.828125,1.3125,-3.67578125,1.42578125,0.80859375,1.0
3428994,,,,,,,,0.34765625,3.14453125,4.6796875,-0.513671875,-0.787109375,1.14453125,-3.71484375,-0.87109375,1.34375,1.0
3428995,,,,,,,,0.59375,2.26953125,4.5625,-0.490234375,-0.716796875,0.876953125,-3.52734375,-1.71484375,1.2265625,1.0
3428996,,,,,,,,0.76953125,2.22265625,4.5546875,-0.421875,-0.689453125,0.74609375,-3.37109375,-1.75390625,1.2265625,1.0
3428997,,,,,,,,1.30078125,2.8671875,5.16015625,-0.255859375,-0.634765625,0.525390625,-2.87109375,-1.1015625,1.83984375,1.0
3428998,,,,,,,,1.90625,3.90625,5.51953125,-0.13671875,-0.591796875,0.326171875,-2.296875,-0.0703125,2.22265625,1.0
3428999,,,,,,,,3.64453125,6.11328125,5.4296875,0.15234375,-0.58984375,0.146484375,-0.57421875,2.11328125,2.1484375,1.0
3429000,36.013011666666664,129.31892716666667,29.49370669039792,67.87011566763495,2.8000000000000003,278.0,0.0,5.26171875,7.83203125,5.54296875,0.61328125,-0.59375,0.029296875,1.03515625,3.80078125,2.30078125,1.0
3429001,,,,,,,,6.45703125,9.11328125,6.0234375,0.873046875,-0.572265625,-0.0234375,2.22265625,5.02734375,2.8359375,1.0
3429002,,,,,,,,6.47265625,8.69921875,6.125,0.7265625,-0.564453125,0.130859375,2.22265625,4.5625,2.9921875,1.0
3429003,,,,,,,,5.9140625,6.46875,5.921875,0.259765625,-0.572265625,0.4609375,1.6484375,2.3046875,2.83984375,1.0
3429004,,,,,,,,5.33203125,3.13671875,6.08203125,-0.203125,-0.57421875,0.767578125,1.03515625,-1.02734375,3.02734375,1.0
3429005,,,,,,,,5.9453125,-3.6640625,4.765625,-0.3984375,-0.60546875,0.92578125,1.609375,-7.8046875,1.7265625,1.0
3429006,,,,,,,,6.16796875,-7.48046875,4.34375,-0.37109375,-0.619140625,0.99609375,1.80078125,-11.59765625,1.3046875,1.0
3429007,,,,,,,,6.953125,-21.08203125,6.6171875,-0.259765625,-0.693359375,1.201171875,2.53125,-25.15625,3.6015625,1.0
3429008,,,,,,,,12.63671875,-57.16015625,17.89453125,-0.482421875,-0.853515625,1.634765625,8.16015625,-61.20703125,14.90234375,1.0
3429009,,,,,,,,17.0234375,-34.58984375,31.13671875,-0.9140625,-1.103515625,2.076171875,12.453125,-38.56640625,28.16015625,1.0
3429010,36.013012499999995,129.31892483333334,29.283359008839554,67.96258099867222,2.3000000000000003,284.0,,12.2109375,-12.20703125,13.3359375,0.61328125,-0.59375,0.029296875,7.546875,-16.078125,10.3828125,1.0
3429011,,,,,,,,-2.59765625,-6.66015625,6.6171875,-2.083984375,0.291015625,-3.2265625,-7.27734375,-10.5234375,3.640625,1.0
3429012,,,,,,,,-8.0859375,-13.40625,3.296875,-3.435546875,0.30078125,-4.900390625,-12.5625,-17.42578125,0.1953125,1.0
3429013,,,,,,,,-8.171875,-13.3359375,3.3515625,-1.189453125,-0.494140625,-2.4375,-10.53125,-18.953125,1.95703125,1.0
3429014,,,,,,,,-2.95703125,-18.0625,7.78515625,0.14453125,-0.583984375,0.974609375,-7.16015625,-22.7421875,4.63671875,1.0
3429015,,,,,,,,-2.47265625,-17.6796875,7.6015625,0.396484375,-0.291015625,1.97265625,-5.78125,-20.68359375,4.33203125,1.0
3429016,,,,,,,,-0.08984375,-15.40234375,7.6015625,0.482421875,-0.12109375,0.89453125,-3.25390625,-18.4921875,4.59765625,1.0
3429017,,,,,,,,4.22265625,-12.24609375,8.0703125,0.900390625,0.505859375,0.203125,1.2265625,-15.43359375,4.984375,1.0
3429018,,,,,,,,5.640625,-11.234375,8.0625,1.1640625,0.728515625,0.119140625,1.9921875,-14.20703125,4.8671875,1.0
3429019,,,,,,,,6.64453125,-9.01171875,7.68359375,0.966796875,1.029296875,-0.021484375,2.22265625,-12.25,4.0625,1.0
3429020,36.01301350000001,129.31892233333335,29.05798646060908,68.07353949411277,2.4000000000000004,288.0,,12.2109375,-12.20703125,13.3359375,0.61328125,-0.59375,0.029296875,2.30078125,-12.671875,3.18359375,1.0
3429021,,,,,,,,6.359375,-8.47265625,5.78515625,0.19921875,1.10546875,0.0234375,1.6484375,-12.9765625,2.37890625,1.0
3429022,,,,,,,,5.39453125,-8.15625,4.99609375,0.09375,1.0,0.3359375,1.03515625,-11.91015625,1.83984375,1.0
3429023,,,,,,,,5.09375,-6.71484375,4.921875,-0.265625,0.84375,0.736328125,0.765625,-10.56640625,1.87890625,1.0
3429024,,,,,,,,4.55078125,-4.6171875,5.37109375,-0.818359375,0.646484375,1.04296875,0.30859375,-8.2265625,2.4140625,1.0
3429025,,,,,,,,4.6015625,-2.95703125,5.57421875,-1.162109375,0.357421875,1.15625,0.57421875,-6.4609375,2.4140625,1.0
3429026,,,,,,,,5.27734375,-0.703125,5.359375,-1.060546875,0.125,1.07421875,1.3046875,-4.3984375,1.83984375,1.0
3429027,,,,,,,,5.84375,0.78125,4.82421875,-0.734375,-0.146484375,0.8359375,2.03125,-2.9765625,1.3046875,1.0
3429028,,,,,,,,6.86328125,3.2109375,4.11328125,-0.5546875,-0.32421875,0.5703125,2.5625,-1.1015625,0.80859375,1.0
3429029,,,,,,,,6.7734375,5.69140625,3.73046875,-0.5703125,-0.470703125,0.35546875,2.453125,1.38671875,0.42578125,1.0
3429030,36.0130155,129.3189205,28.892712795185275,68.29545743191821,2.8000000000000003,303.0,,12.2109375,-12.20703125,13.3359375,-0.6171875,-0.583984375,0.166015625,2.30078125,-12.671875,3.18359375,1.0
3429031,,,,,,,,7.6484375,7.78515625,2.08984375,-0.533203125,-0.62109375,0.05859375,3.296875,3.453125,-1.18359375,1.0
3429032,,,,,,,,8.19921875,7.828125,1.875,-0.357421875,-0.673828125,0.080078125,3.828125,3.4921875,-1.375,1.0
3429033,,,,,,,,9.171875,6.3984375,1.734375,-0.322265625,-0.703125,0.189453125,4.79296875,2.0390625,-1.4921875,1.0
3429034,,,,,,,,9.6875,4.90234375,2.01953125,-0.490234375,-0.646484375,0.33203125,5.2890625,0.54296875,-1.18359375,1.0
3429035,,,,,,,,9.12890625,4.3515625,3.0078125,-0.71484375,-0.548828125,0.505859375,4.71484375,0.0078125,-0.1875,1.0
3429036,,,,,,,,8.7578125,4.3046875,3.16015625,-0.880859375,-0.474609375,0.568359375,4.33203125,-0.03125,-0.03515625,1.0
3429037,,,,,,,,8.23828125,4.3828125,3.44140625,-1.435546875,-0.306640625,0.529296875,3.7890625,0.0859375,0.23046875,1.0
3429038,,,,,,,,7.3671875,4.6875,4.109375,-2.193359375,-0.142578125,0.279296875,2.91796875,0.4296875,0.84375,1.0
3429039,,,,,,,,6.70703125,4.73046875,4.671875,-3.181640625,0.083984375,-0.16796875,2.11328125,0.54296875,1.57421875,1.0
3429040,36.01301716666667,129.3189185,28.712414453070288,68.48038891081126,2.7,308.0,,12.2109375,-12.20703125,13.3359375,-3.578125,0.12109375,-0.46875,2.30078125,-12.671875,3.18359375,1.0
3429041,,,,,,,,3.46484375,4.1171875,9.83984375,-3.71875,0.01953125,-0.7421875,-0.91796875,0.0859375,6.203125,1.0
3429042,,,,,,,,3.8828125,2.703125,11.60546875,-3.376953125,-0.1875,-0.912109375,-0.421875,-1.21875,7.7734375,1.0
3429043,,,,,,,,-2.66015625,-3.10546875,13.04296875,-2.65234375,-0.412109375,-0.625,-6.93359375,-6.96484375,9.12109375,1.0
3429044,,,,,,,,-9.70703125,-38.40234375,29.8125,-2.896484375,-0.7265625,0.978515625,-13.98046875,-42.16796875,25.8203125,1.0
3429045,,,,,,,,-4.671875,-44.09765625,1.83984375,1.087890625,-0.775390625,1.95703125,-9.078125,-47.72265625,-2.14453125,1.0
3429046,,,,,,,,2.1171875,-14.30859375,3.734375,-0.853515625,-0.8359375,-0.52734375,-2.3359375,-17.95703125,-0.1875,1.0
3429047,,,,,,,,4.63671875,-15.14453125,4.5390625,-6.177734375,-0.912109375,-2.953125,0.23046875,-18.76171875,0.5390625,1.0
3429048,,,,,,,,11.69140625,-17.4453125,12.31640625,-3.91015625,-0.197265625,-3.21875,7.39453125,-21.0234375,8.16015625,1.0
3429049,,,,,,,,12.02734375,-25.07421875,13.1484375,-1.466796875,-0.8671875,-0.86328125,7.81640625,-28.68359375,8.9296875,1.0
3429050,36.013018333333335,129.31891633333333,28.51709148505443,68.60984072372591,2.2,304.0,,5.41015625,-23.7578125,8.0234375,-2.900390625,-1.314453125,1.42578125,1.15234375,-27.30859375,3.796875,1.0
3429051,,,,,,,,0.5234375,-19.05859375,5.265625,-5.2734375,-1.85546875,0.423828125,-3.828125,-22.3984375,0.9609375,1.0
3429052,,,,,,,,-1.98828125,-15.23046875,3.94140625,-5.9296875,-2.044921875,-0.91015625,-6.39453125,-18.37890625,-0.45703125,1.0
3429053,,,,,,,,-2.9375,-14.046875,5.26953125,-5.115234375,-2.4140625,-0.93359375,-7.390625,-17.04296875,0.80859375,1.0
3429054,,,,,,,,-3.04296875,-10.01171875,6.9765625,-4.166015625,-2.54296875,-0.234375,-7.58203125,-12.859375,2.4921875,1.0
3429055,,,,,,,,-2.62109375,-8.55078125,5.703125,-3.4609375,-2.2578125,0.177734375,-7.23828125,-11.2890625,1.2265625,1.0
3429056,,,,,,,,-2.3515625,-5.7265625,5.62109375,-3.328125,-1.984375,0.025390625,-7.0859375,-8.30859375,1.15234375,1.0
3429057,,,,,,,,-1.97265625,-3.8515625,5.11328125,-3.5703125,-1.783203125,0.078125,-6.77734375,-6.3125,0.65234375,1.0
3429058,,,,,,,,-1.7890625,-3.53125,4.73828125,-3.673828125,-1.623046875,0.09765625,-6.62890625,-5.9296875,0.26953125,1.0
3429059,,,,,,,,-1.6953125,-2.66015625,4.44921875,-3.666015625,-1.39453125,0.1171875,-6.5859375,-4.93359375,-0.03515625,1.0
3429060,36.0130205,129.3189148333333,28.38186740646352,68.85025197674345,2.8000000000000003,315.0,,-1.44921875,-0.41015625,5.125,-3.361328125,-1.259765625,0.3203125,-6.390625,-2.55859375,0.6171875,1.0
3429061,,,,,,,,-1.3671875,1.83984375,5.97265625,-2.921875,-1.119140625,0.564453125,-6.359375,-0.18359375,1.45703125,1.0
3429062,,,,,,,,-0.8828125,4.19921875,6.39453125,-2.66796875,-1.076171875,0.6328125,-5.8984375,2.23046875,1.87890625,1.0
3429063,,,,,,,,-0.28515625,5.66015625,5.55078125,-1.802734375,-0.884765625,0.521484375,-5.36328125,3.83984375,1.03515625,1.0
3429064,,,,,,,,-0.078125,5.4453125,5.16796875,-1.462890625,-0.83984375,0.41015625,-5.171875,3.6484375,0.65234375,1.0
3429065,,,,,,,,-0.765625,1.6796875,5.53515625,-1.025390625,-0.814453125,0.205078125,-5.90234375,-0.0703125,1.03515625,1.0
3429066,,,,,,,,0.09375,0.234375,6.68359375,-0.7890625,-0.814453125,0.275390625,-5.09375,-1.484375,2.22265625,1.0
3429067,,,,,,,,1.296875,0.453125,6.8671875,-0.50390625,-0.751953125,0.39453125,-3.90625,-1.2578125,2.4140625,1.0
3429068,,,,,,,,3.19921875,1.57421875,6.5703125,0.224609375,-0.626953125,0.4296875,-2.02734375,-0.14453125,2.15234375,1.0
3429069,,,,,,,,3.75,2.05078125,6.171875,0.564453125,-0.607421875,0.353515625,-1.4921875,0.31640625,1.765625,1.0
3429070,36.013023,129.318914,28.306742460851318,69.12764983973999,3.1,327.0,,5.296875,4.01953125,5.05859375,1.072265625,-0.55859375,0.134765625,0.0390625,2.23046875,0.69140625,1.0
3429071,,,,,,,,6.1171875,5.7890625,4.55078125,1.279296875,-0.53515625,-0.05859375,0.84375,3.9140625,0.23046875,1.0
3429072,,,,,,,,7.50390625,8.09765625,4.8125,1.08203125,-0.46875,-0.080078125,2.22265625,6.1328125,0.5390625,1.0
3429073,,,,,,,,7.93359375,8.61328125,5.078125,0.578125,-0.4140625,0.0703125,2.64453125,6.59765625,0.84375,1.0
3429074,,,,,,,,8.5546875,7.609375,5.01953125,-0.005859375,-0.466796875,0.359375,3.2578125,5.5625,0.80859375,1.0
3429075,,,,,,,,7.99609375,3.734375,5.1484375,-0.33984375,-0.55859375,0.76171875,2.68359375,1.6953125,0.9609375,1.0
3429076,,,,,,,,7.4453125,2.21484375,5.58984375,-0.38671875,-0.611328125,1.00390625,2.11328125,0.19921875,1.41796875,1.0
3429077,,,,,,,,6.51953125,-5.42578125,6.640625,-0.3828125,-0.68359375,1.515625,1.15234375,-7.38671875,2.4921875,1.0
3429078,,,,,,,,6.21875,-15.86328125,8.921875,-0.16015625,-0.80859375,2.259765625,0.765625,-17.6875,4.828125,1.0
3429079,,,,,,,,6.17578125,-40.00390625,15.578125,-0.052734375,-1.001953125,2.849609375,0.65234375,-41.70703125,11.53125,1.0
3429080,36.01302483333333,129.31891349999998,28.261667374118666,69.33107497054571,2.2,333.0,,10.5234375,-30.625,22.95703125,0.75,-0.560546875,1.306640625,4.8671875,-32.13671875,19.04296875,1.0
3429081,,,,,,,,-3.296875,-12.3359375,9.77734375,-0.216796875,-0.267578125,-1.30859375,-8.9609375,-13.90234375,5.90234375,1.0
3429082,,,,,,,,-6.2734375,-10.171875,8.60546875,-1.919921875,0.1328125,-4.931640625,-11.875,-11.90625,4.71484375,1.0
3429083,,,,,,,,-5.5859375,-11.26171875,3.2265625,-1.435546875,-0.154296875,-4.740234375,-11.0703125,-13.24609375,-0.6875,1.0
3429084,,,,,,,,-3.36328125,-11.55859375,3.640625,0.064453125,-0.095703125,-1.9296875,-8.76953125,-13.7421875,-0.265625,1.0
3429085,,,,,,,,1.66015625,-13.1953125,7.5390625,0.3984375,-0.009765625,0.294921875,-3.71484375,-15.47265625,3.640625,1.0
3429086,,,,,,,,3.57421875,-13.90625,8.453125,0.490234375,0.044921875,0.80078125,-1.80078125,-16.1953125,4.5625,1.0
3429087,,,,,,,,9.8671875,-15.875,9.41796875,1.39453125,0.171875,0.9609375,4.484375,-18.19140625,5.55859375,1.0
3429088,,,,,,,,12.30859375,-17.0,11.796875,2.201171875,0.5390625,0.994140625,6.93359375,-19.375,7.96875,1.0
3429089,,,,,,,,10.8828125,-17.0078125,11.24609375,1.990234375,0.7890625,1.17578125,5.515625,-19.4140625,7.43359375,1.0
3429090,36.013026833333335,129.31891283333334,28.20156742418942,69.55299326227839,2.2,339.0,,6.49609375,-14.30078125,7.76953125,0.6015625,1.0703125,1.240234375,4.8671875,-32.13671875,19.04296875,1.0
3429091,,,,,,,,5.58203125,-11.09375,5.890625,-0.205078125,1.1796875,0.736328125,0.26953125,-13.51953125,2.03125,1.0
3429092,,,,,,,,6.72265625,-9.4375,5.5625,-0.171875,1.037109375,0.349609375,1.45703125,-11.8671875,1.6484375,1.0
3429093,,,,,,,,7.6328125,-8.2265625,5.82421875,0.0859375,0.802734375,0.326171875,2.4140625,-10.6796875,1.87890625,1.0
3429094,,,,,,,,7.44140625,-7.3203125,5.15234375,0.208984375,0.546875,0.494140625,2.26171875,-9.796875,1.19140625,1.0
3429095,,,,,,,,6.734375,-5.0390625,4.4609375,0.220703125,0.345703125,0.64453125,1.5703125,-7.5390625,0.5,1.0
3429096,,,,,,,,6.53515625,-3.99609375,4.26953125,0.123046875,0.28125,0.70703125,1.37890625,-6.5,0.30859375,1.0
3429097,,,,,,,,6.0,-1.1328125,4.421875,-0.2109375,0.15234375,0.98828125,0.84375,-3.6328125,0.4609375,1.0
3429098,,,,,,,,6.31640625,1.48828125,6.29296875,-0.185546875,0.130859375,1.17578125,1.15234375,-0.98828125,2.3359375,1.0
3429099,,,,,,,,6.66796875,1.9921875,5.96875,0.00390625,0.0625,1.046875,1.49609375,-0.453125,2.03125,1.0
3429100,36.013028999999996,129.31891333333334,28.246641080487898,69.79340509793116,2.6,347.0,0.0,7.39453125,2.8359375,5.1484375,0.6015625,1.0703125,1.240234375,4.8671875,-32.13671875,19.04296875,1.0
3429101,,,,,,,,9.02734375,3.82421875,4.53515625,0.341796875,-0.025390625,-0.373046875,3.8671875,1.30859375,0.65234375,1.0
3429102,,,,,,,,9.546875,4.02734375,4.25390625,0.302734375,-0.03125,-0.5703125,4.40625,1.46484375,0.38671875,1.0
3429103,,,,,,,,11.0859375,3.94921875,3.76953125,0.259765625,-0.068359375,-0.806640625,5.98046875,1.30859375,-0.07421875,1.0
3429104,,,,,,,,11.53125,3.9140625,3.9140625,0.1953125,-0.087890625,-0.83984375,6.4375,1.234375,0.078125,1.0
3429105,,,,,,,,11.69921875,4.4765625,4.99609375,-0.353515625,0.080078125,-0.556640625,6.66796875,1.6953125,1.19140625,1.0
3429106,,,,,,,,9.24609375,5.234375,6.03515625,-1.1640625,0.234375,-0.173828125,4.25390625,2.421875,2.22265625,1.0
3429107,,,,,,,,8.578125,5.41015625,6.12890625,-1.689453125,0.259765625,-0.037109375,3.6015625,2.61328125,2.30078125,1.0
3429108,,,,,,,,6.86328125,6.08984375,6.34375,-2.40625,0.291015625,0.00390625,1.91796875,3.3359375,2.453125,1.0
3429109,,,,,,,,6.08203125,6.2890625,6.3359375,-2.5703125,0.298828125,-0.021484375,1.15234375,3.57421875,2.4140625,1.0
3429110,36.01303133333333,129.31891383333334,28.291714673160783,70.05231014210594,2.6,355.0,,5.4375,6.02734375,5.87109375,0.6015625,1.0703125,1.240234375,0.5390625,3.37890625,1.87890625,1.0
3429111,,,,,,,,5.48046875,3.95703125,6.66015625,-2.70703125,0.123046875,-0.021484375,0.61328125,1.38671875,2.6015625,1.0
3429112,,,,,,,,5.6171875,1.2265625,7.4375,-2.625,-0.060546875,0.24609375,0.765625,-1.2578125,3.33984375,1.0
3429113,,,,,,,,2.73828125,-9.98046875,12.578125,-2.51953125,-0.24609375,0.84375,-2.10546875,-12.36328125,8.4296875,1.0
3429114,,,,,,,,-2.48828125,-32.9140625,23.75,-2.37109375,-0.443359375,1.54296875,-7.35546875,-35.15625,19.578125,1.0
3429115,,,,,,,,-7.16796875,-57.234375,25.09765625,-2.16015625,-0.291015625,2.11328125,-12.06640625,-59.33203125,20.91796875,1.0
3429116,,,,,,,,-10.4375,-48.2578125,15.765625,1.18359375,-0.486328125,2.05078125,-15.3984375,-50.2109375,11.609375,1.0
3429117,,,,,,,,5.18359375,-17.1015625,4.5625,-2.3359375,-0.58203125,0.080078125,0.19140625,-19.03515625,0.4609375,1.0
3429118,,,,,,,,6.41796875,-12.88671875,6.44921875,-4.3203125,0.216796875,-3.248046875,1.45703125,-14.7734375,2.30078125,1.0
3429119,,,,,,,,10.62109375,-15.90234375,12.44921875,-2.703125,-0.87890625,-3.044921875,5.78515625,-17.9140625,8.23828125,1.0
3429120,36.0130335,129.31891316666668,28.23161466740784,70.29272163994054,2.3000000000000003,357.0,,6.140625,-21.14453125,8.79296875,-3.193359375,-1.19140625,1.158203125,1.3046875,-23.125,4.59765625,1.0
3429121,,,,,,,,0.76171875,-16.57421875,4.8125,-4.9375,-1.52734375,0.908203125,-4.13671875,-18.37890625,0.6171875,1.0
3429122,,,,,,,,0.47265625,-15.62890625,3.890625,-5.42578125,-1.48828125,0.05078125,-4.48046875,-17.23046875,-0.3046875,1.0
3429123,,,,,,,,-0.75390625,-11.5625,5.1875,-5.01171875,-1.865234375,-0.08984375,-5.74609375,-13.015625,1.0,1.0
3429124,,,,,,,,-0.8828125,-10.875,5.8671875,-4.248046875,-2.0703125,0.384765625,-5.9375,-12.171875,1.7265625,1.0
3429125,,,,,,,,0.34765625,-10.05859375,6.68359375,-3.4609375,-2.083984375,0.650390625,-4.78515625,-11.21484375,2.60546875,1.0
3429126,,,,,,,,0.21484375,-8.4453125,5.8125,-3.119140625,-1.806640625,0.37890625,-4.98046875,-9.4921875,1.8046875,1.0
3429127,,,,,,,,-0.06640625,-5.61328125,2.875,-3.24609375,-1.7578125,-0.033203125,-5.32421875,-6.58203125,-1.0703125,1.0
3429128,,,,,,,,-0.6328125,-3.7734375,2.5390625,-3.341796875,-1.6875,-0.1328125,-5.90234375,-4.703125,-1.375,1.0
3429129,,,,,,,,-0.9453125,-1.6015625,3.65625,-3.546875,-1.34375,0.30859375,-6.28515625,-2.40625,-0.1875,1.0
3429130,36.0130355,129.31891433333334,28.336787606499854,70.51464046458894,2.5,3.0,,-0.578125,-1.05078125,3.8984375,-3.193359375,-1.19140625,1.158203125,1.3046875,-23.125,4.59765625,1.0
3429131,,,,,,,,0.10546875,0.74609375,4.48828125,-3.298828125,-1.017578125,0.939453125,-5.28515625,0.12109375,0.69140625,1.0
3429132,,,,,,,,0.19140625,1.60546875,4.81640625,-3.05078125,-0.951171875,1.013671875,-5.203125,1.04296875,1.03515625,1.0
3429133,,,,,,,,1.5546875,3.86328125,4.7109375,-2.38671875,-0.951171875,1.08203125,-3.8671875,3.41796875,0.9609375,1.0
3429134,,,,,,,,1.82421875,3.59375,4.00390625,-1.244140625,-0.845703125,0.791015625,-3.63671875,3.265625,0.30859375,1.0
3429135,,,,,,,,0.0390625,0.58203125,5.54296875,-0.703125,-0.73828125,0.46875,-5.44140625,0.27734375,1.87890625,1.0
3429136,,,,,,,,-0.4140625,-0.18359375,5.94921875,-0.642578125,-0.689453125,0.31640625,-5.90234375,-0.48828125,2.30078125,1.0
3429137,,,,,,,,-0.4453125,-0.76171875,5.96484375,-0.66796875,-0.505859375,0.181640625,-5.9375,-1.06640625,2.33984375,1.0
3429138,,,,,,,,0.58984375,-0.74609375,5.55859375,-0.474609375,-0.296875,0.12890625,-4.90234375,-1.06640625,1.95703125,1.0
3429139,,,,,,,,1.32421875,-0.54296875,5.21484375,-0.3828125,-0.2578125,0.068359375,-4.171875,-0.87109375,1.61328125,1.0
3429140,36.0130375,129.31891583333334,28.47201016013534,70.73655938652058,2.7,14.0,,3.42578125,0.7890625,4.828125,-0.248046875,-0.25,-0.107421875,-2.06640625,0.4296875,1.2265625,1.0
3429141,,,,,,,,4.71875,1.86328125,5.00390625,0.08984375,-0.3125,-0.212890625,0.73046875,2.11328125,1.57421875,1.0
3429142,,,,,,,,6.828125,2.98828125,5.3828125,0.255859375,-0.37109375,-0.142578125,2.0703125,3.19140625,2.1484375,1.0
3429143,,,,,,,,7.5546875,3.94921875,5.7421875,0.126953125,-0.421875,-0.00390625,1.6484375,3.453125,2.0703125,1.0
3429144,,,,,,,,6.671875,3.7578125,5.41015625,-0.11328125,-0.44921875,0.1328125,0.61328125,2.73046875,1.6484375,1.0
3429145,,,,,,,,5.29296875,2.78515625,5.08203125,-0.228515625,-0.4375,0.33984375,-0.99609375,1.65625,1.6875,1.0
3429146,,,,,,,,3.1953125,0.2265625,5.1328125,-0.216796875,-0.458984375,0.576171875,-2.41015625,-1.984375,1.57421875,1.0
3429147,,,,,,,,3.1953125,-5.640625,4.61328125,0.162109375,-0.47265625,0.87109375,-2.10546875,-9.57421875,1.41796875,1.0
3429148,,,,,,,,3.47265625,-13.234375,5.96875,0.58984375,-0.46875,1.30859375,-1.64453125,-19.49609375,4.40625,1.0
3429149,,,,,,,,7.00390625,-38.38671875,13.26171875,0.603515625,-0.50390625,1.65234375,4.8671875,-51.4375,13.83203125,1.0
3429150,36.01303933333334,129.31891733333333,28.60723276407049,70.93998510308363,2.4000000000000004,25.0,,3.42578125,0.7890625,4.828125,0.63671875,-0.455078125,1.501953125,2.94921875,-57.140625,25.3984375,1.0
3429151,,,,,,,,6.10546875,-27.125,17.2890625,0.2890625,-0.357421875,1.154296875,-1.1875,-21.63671875,9.08203125,1.0
3429152,,,,,,,,1.43359375,-17.81640625,10.83203125,0.306640625,0.37109375,-1.146484375,-10.1875,-14.20703125,4.1796875,1.0
3429153,,,,,,,,-5.1484375,-12.375,4.85546875,0.044921875,0.84765625,-5.021484375,-9.5390625,-13.09765625,-0.609375,1.0
3429154,,,,,,,,-2.23828125,-13.2578125,1.9921875,1.4765625,0.50390625,-2.806640625,-5.20703125,-16.16015625,1.87890625,1.0
3429155,,,,,,,,1.53515625,-15.6484375,9.421875,1.9375,0.583984375,0.015625,-3.75390625,-17.08203125,6.0546875,1.0
3429156,,,,,,,,3.17578125,-16.22265625,10.83984375,1.888671875,0.455078125,0.701171875,-2.10546875,-17.69140625,7.47265625,1.0
3429157,,,,,,,,6.28515625,-15.76171875,9.515625,2.060546875,0.62109375,0.69921875,1.03515625,-17.30859375,6.171875,1.0
3429158,,,,,,,,6.4453125,-15.2890625,7.4453125,2.0234375,0.974609375,0.15234375,1.2265625,-16.92578125,4.1015625,1.0
3429159,,,,,,,,6.65234375,-12.875,6.76953125,1.841796875,1.30859375,-0.072265625,1.49609375,-14.62890625,3.41015625,1.0
3429160,36.013041,129.31891883333336,28.742455424889293,71.1249176147831,2.3000000000000003,30.0,,6.98046875,-12.0,6.55859375,1.6484375,1.412109375,0.095703125,1.87890625,-13.86328125,3.18359375,1.0
3429161,,,,,,,,7.1796875,-10.61328125,5.8125,1.529296875,1.361328125,0.314453125,2.1484375,-12.5546875,2.4140625,1.0
3429162,,,,,,,,6.84765625,-9.19921875,6.22265625,1.220703125,1.166015625,0.72265625,1.87890625,-11.25,2.80078125,1.0
3429163,,,,,,,,6.890625,-8.296875,6.45703125,1.0859375,1.10546875,0.810546875,1.953125,-10.375,3.02734375,1.0
3429164,,,,,,,,7.08984375,-5.61328125,5.44140625,0.859375,0.9453125,0.76953125,2.18359375,-7.73046875,1.99609375,1.0
3429165,,,,,,,,7.75,-2.42578125,4.015625,0.814453125,0.744140625,0.484375,2.875,-4.5859375,0.578125,1.0
3429166,,,,,,,,8.5546875,1.29296875,4.12109375,0.900390625,0.50390625,0.412109375,3.71875,-0.94921875,0.69140625,1.0
3429167,,,,,,,,8.72265625,5.30078125,4.21484375,0.953125,0.3671875,0.505859375,3.90625,2.99609375,0.80859375,1.0
3429168,,,,,,,,8.75,6.2421875,4.11328125,0.90625,0.302734375,0.48828125,3.94921875,3.9140625,0.73046875,1.0
3429169,,,,,,,,8.54296875,7.2109375,3.4375,0.669921875,0.2578125,0.32421875,3.75390625,4.8359375,0.078125,1.0
