time,latitude,longitude,enu_x,enu_y,speed,course,ecg,accX,accY,accZ,gyrX,gyrY,gyrZ,eulR,eulP,eulY,validity
4508750,36.01307883333333,129.32013049999998,137.97273496447784,75.32391209585806,2.6,226.0,,-5.265625,-0.1953125,-0.76171875,0.470703125,0.80078125,-0.515625,-1.234375,1.59375,0.85546875,1.0
4508751,,,,,,,,-5.28515625,1.0703125,-1.83203125,0.5078125,0.572265625,-0.556640625,-1.30859375,2.8203125,-0.17578125,1.0
4508752,,,,,,,,-5.171875,2.1953125,-2.203125,0.376953125,-0.125,-0.55078125,-1.234375,3.9296875,-0.5234375,1.0
4508753,,,,,,,,-5.34765625,2.48046875,-2.078125,0.322265625,-0.56640625,-0.533203125,-1.42578125,4.19921875,-0.40625,1.0
4508754,,,,,,,,-6.14453125,1.16015625,-1.55078125,0.248046875,-1.23828125,-0.48046875,-2.23046875,2.8515625,0.08984375,1.0
4508755,,,,,,,,-7.75390625,-1.83984375,1.03125,0.169921875,-1.576171875,-0.404296875,-3.83984375,-0.16796875,2.6171875,1.0
4508756,,,,,,,,-8.90234375,-9.76953125,3.37890625,0.12890625,-1.609375,-0.322265625,-4.98828125,-8.1328125,4.91796875,1.0
4508757,,,,,,,,-9.015625,-23.453125,5.609375,0.13671875,-1.41015625,-0.34375,-5.1015625,-21.8515625,7.1015625,1.0
4508758,,,,,,,,-3.03125,-37.71875,10.99609375,0.12890625,-1.2265625,-0.4375,0.875,-36.140625,12.46484375,1.0
4508759,,,,,,,,16.51171875,-57.61328125,25.61328125,0.09765625,-0.583984375,-0.865234375,20.41015625,-56.0546875,27.05859375,1.0
4508760,36.013076833333336,129.32012783333332,137.73234165063323,75.10198983883481,2.9000000000000004,226.0,,14.98046875,-29.48828125,8.875,0.185546875,0.263671875,-1.732421875,18.83984375,-27.9375,10.3203125,1.0
4508761,,,,,,,,3.0078125,-21.66015625,6.765625,0.529296875,1.294921875,-2.5390625,6.8125,-20.0859375,8.25,1.0
4508762,,,,,,,,-6.68359375,-16.13671875,4.54296875,0.55859375,1.453125,-2.8984375,-2.91796875,-14.53125,6.06640625,1.0
4508763,,,,,,,,-7.671875,-17.69921875,1.65234375,0.21484375,0.8125,-4.19140625,-3.9921875,-16.02734375,3.23046875,1.0
4508764,,,,,,,,0.66796875,-21.01953125,1.69140625,-0.54296875,-2.208984375,-2.201171875,4.24609375,-19.2421875,3.26953125,1.0
4508765,,,,,,,,2.7421875,-21.984375,7.875,-0.546875,-3.5,0.0,6.3515625,-20.24609375,9.359375,1.0
4508766,,,,,,,,1.2109375,-21.25390625,6.73046875,-0.638671875,-2.673828125,-0.64453125,4.859375,-19.58984375,8.13671875,1.0
4508767,,,,,,,,-1.1953125,-19.5625,2.96875,-0.75,-0.515625,-2.533203125,2.4453125,-17.90625,4.34375,1.0
4508768,,,,,,,,-1.1015625,-18.23828125,1.1953125,-1.013671875,1.07421875,-2.578125,2.484375,-16.5625,2.6171875,1.0
4508769,,,,,,,,-0.95703125,-16.93359375,0.70703125,-1.06640625,1.28515625,-2.177734375,2.59765625,-15.2578125,2.16015625,1.0
4508770,36.013075,129.32012500000002,137.4769232369179,74.8985605581796,3.0,228.0,,-1.0078125,-14.3359375,1.02734375,0.185546875,0.263671875,-1.732421875,2.484375,-12.69921875,2.58203125,1.0
4508771,,,,,,,,-0.94140625,-11.86328125,0.11328125,-1.21875,0.18359375,-2.109375,2.51953125,-10.2421875,1.69921875,1.0
4508772,,,,,,,,-0.90234375,-9.82421875,-0.77734375,-1.154296875,0.328125,-2.34375,2.51953125,-8.21484375,0.85546875,1.0
4508773,,,,,,,,-0.8984375,-6.25390625,-0.82421875,-1.095703125,0.537109375,-2.15625,2.484375,-4.65234375,0.85546875,1.0
4508774,,,,,,,,-1.015625,-3.74609375,-0.5625,-1.056640625,0.5546875,-1.884765625,2.328125,-2.16015625,1.1640625,1.0
4508775,,,,,,,,-1.17578125,-0.91796875,-1.98046875,-1.0390625,0.466796875,-1.724609375,2.1328125,0.63671875,-0.21484375,1.0
4508776,,,,,,,,-1.12109375,-0.0703125,-2.50390625,-1.01171875,0.4296875,-1.671875,2.171875,1.4765625,-0.71484375,1.0
4508777,,,,,,,,-1.75,1.45703125,-3.18359375,-0.94140625,0.322265625,-1.529296875,1.5234375,2.97265625,-1.36328125,1.0
4508778,,,,,,,,-1.6171875,1.7109375,-3.4375,-0.83203125,0.083984375,-1.376953125,1.640625,3.20703125,-1.59375,1.0
4508779,,,,,,,,-1.07421875,1.93359375,-4.11328125,-0.7265625,-0.234375,-1.1484375,2.17578125,3.390625,-2.24609375,1.0
4508780,36.013073166666665,129.320122,137.2064800048052,74.69513105077769,3.2,230.0,,1.2265625,-0.86328125,-3.8828125,0.185546875,0.263671875,-1.732421875,2.484375,-12.69921875,2.58203125,1.0
4508781,,,,,,,,2.05859375,-2.02734375,-4.06640625,-0.533203125,-0.53125,-0.76171875,5.31640625,-0.66796875,-2.20703125,1.0
4508782,,,,,,,,2.390625,-3.09765625,-3.5234375,-0.431640625,-0.458984375,-0.751953125,5.66796875,-1.77734375,-1.671875,1.0
4508783,,,,,,,,1.27734375,-3.2109375,-2.82421875,-0.412109375,-0.265625,-0.8359375,4.55078125,-1.9296875,-0.98046875,1.0
4508784,,,,,,,,-0.59765625,-2.37890625,-1.484375,-0.46484375,-0.0234375,-0.921875,2.671875,-1.12890625,0.359375,1.0
4508785,,,,,,,,-2.0546875,-1.265625,0.109375,-0.45703125,0.265625,-0.708984375,1.21875,-0.0546875,1.97265625,1.0
4508786,,,,,,,,-4.5,0.4453125,3.85546875,-0.462890625,0.396484375,-0.490234375,-1.234375,1.6328125,5.72265625,1.0
4508787,,,,,,,,-5.84765625,1.79296875,4.40625,-0.455078125,0.51171875,0.05859375,-2.57421875,2.93359375,6.296875,1.0
4508788,,,,,,,,-5.234375,2.8671875,1.01953125,-0.478515625,0.439453125,0.806640625,-1.9609375,3.9296875,2.92578125,1.0
4508789,,,,,,,,-4.59765625,3.45703125,-0.84375,-0.486328125,0.21484375,1.65234375,-1.30859375,4.421875,1.0859375,1.0
4508790,36.013071,129.32011916666667,136.95106214173288,74.45471537130385,3.3000000000000003,229.0,,-3.85546875,3.1640625,-1.9921875,0.185546875,0.263671875,-1.732421875,2.484375,-12.69921875,2.58203125,1.0
4508791,,,,,,,,-2.484375,-0.49609375,-1.5390625,-0.337890625,-1.1953125,1.35546875,0.875,0.17578125,0.359375,1.0
4508792,,,,,,,,-2.00390625,-8.67578125,0.96875,-0.015625,-1.119140625,1.056640625,1.41015625,-8.13671875,2.8125,1.0
4508793,,,,,,,,-2.7109375,-22.7734375,7.6953125,0.048828125,-0.884765625,1.10546875,0.71875,-22.2734375,9.515625,1.0
4508794,,,,,,,,-5.25390625,-44.0625,18.89453125,0.115234375,-0.158203125,1.232421875,-1.80859375,-43.6484375,20.69921875,1.0
4508795,,,,,,,,-7.66015625,-60.6328125,15.39453125,0.146484375,0.810546875,1.220703125,-4.22265625,-60.3125,17.21484375,1.0
4508796,,,,,,,,-1.84375,-21.296875,4.2734375,0.177734375,2.4609375,1.01953125,1.5625,-21.12890625,6.1796875,1.0
4508797,,,,,,,,1.55078125,-16.94921875,-2.65234375,0.470703125,3.109375,-0.51953125,4.89453125,-16.83203125,-0.63671875,1.0
4508798,,,,,,,,3.15234375,-17.59375,-4.578125,0.80859375,3.00390625,-1.73046875,6.46484375,-17.48828125,-2.515625,1.0
4508799,,,,,,,,5.69140625,-19.9296875,-0.35546875,0.66796875,1.123046875,-0.44921875,8.95703125,-19.82421875,1.77734375,1.0
4508800,36.013069,129.32011683333334,136.74071838073036,74.23279360982669,3.2,225.0,0.0,4.94921875,-21.9453125,6.125,0.185546875,0.263671875,-1.732421875,2.484375,-12.69921875,2.58203125,1.0
4508801,,,,,,,,2.9296875,-21.54296875,6.33984375,0.078125,-3.75390625,2.134765625,6.2734375,-21.65625,8.36328125,1.0
4508802,,,,,,,,2.1640625,-20.71484375,5.0234375,0.373046875,-3.041015625,2.09375,5.546875,-20.89453125,6.984375,1.0
4508803,,,,,,,,-1.71875,-16.296875,0.58203125,0.818359375,-0.388671875,2.3046875,1.6796875,-16.60546875,2.50390625,1.0
4508804,,,,,,,,-5.98046875,-11.03125,-1.01953125,1.08984375,1.384765625,2.705078125,-2.61328125,-11.47265625,0.93359375,1.0
4508805,,,,,,,,-7.9453125,-9.25,-1.01953125,1.189453125,0.546875,3.5078125,-4.640625,-9.8984375,1.01171875,1.0
4508806,,,,,,,,-8.66015625,-7.984375,-0.609375,1.3671875,0.01953125,3.80078125,-5.37109375,-8.7109375,1.4296875,1.0
4508807,,,,,,,,-9.46484375,-4.3046875,-1.12109375,1.849609375,-0.478515625,4.275390625,-6.21484375,-5.1875,0.93359375,1.0
4508808,,,,,,,,-8.97265625,-1.86328125,-1.6796875,1.98046875,-0.130859375,3.498046875,-5.7890625,-2.96484375,0.3984375,1.0
4508809,,,,,,,,-8.671875,-0.30859375,-1.65234375,1.943359375,0.078125,3.087890625,-5.52734375,-1.47265625,0.43359375,1.0
4508810,36.01306683333333,129.32011416666668,136.50032529296573,73.99237817752062,3.3000000000000003,226.0,,-8.01171875,2.55078125,-1.0234375,1.583984375,0.443359375,2.216796875,2.484375,-12.69921875,2.58203125,1.0
4508811,,,,,,,,-7.48828125,4.2109375,-0.1953125,1.333984375,0.52734375,1.884765625,-4.48828125,2.8203125,2.0078125,1.0
4508812,,,,,,,,-7.01171875,4.671875,-0.16796875,1.107421875,0.576171875,1.759765625,-4.06640625,3.203125,2.08203125,1.0
4508813,,,,,,,,-6.25390625,4.7109375,-1.5859375,0.896484375,0.666015625,1.58984375,-3.37890625,3.1640625,0.703125,1.0
4508814,,,,,,,,-5.9140625,3.31640625,-2.58984375,0.751953125,0.6328125,1.302734375,-3.109375,1.70703125,-0.25390625,1.0
4508815,,,,,,,,-6.28125,0.9296875,-2.390625,0.634765625,0.44921875,0.904296875,-3.53125,-0.7421875,-0.0234375,1.0
4508816,,,,,,,,-6.296875,0.22265625,-1.87109375,0.58984375,0.298828125,0.6953125,-3.5703125,-1.47265625,0.51171875,1.0
4508817,,,,,,,,-5.72265625,0.1953125,-1.86328125,0.54296875,0.00390625,0.326171875,-3.03125,-1.546875,0.55078125,1.0
4508818,,,,,,,,-4.73828125,0.4921875,-1.45703125,0.53125,-0.103515625,0.15234375,-2.07421875,-1.28125,0.97265625,1.0
4508819,,,,,,,,-3.40625,1.25390625,-1.3984375,0.498046875,0.076171875,-0.046875,-0.7734375,-0.55078125,1.05078125,1.0
4508820,36.01306483333334,129.32011133333333,136.2449071008118,73.77045572783365,3.3000000000000003,227.0,,-2.80859375,2.38671875,-1.54296875,1.583984375,0.443359375,2.216796875,2.484375,-12.69921875,2.58203125,1.0
4508821,,,,,,,,-2.31640625,4.05078125,-1.671875,0.287109375,0.26953125,-0.720703125,0.26171875,2.20703125,0.8203125,1.0
4508822,,,,,,,,-2.42578125,5.2890625,-1.390625,0.37890625,0.142578125,-0.884765625,0.14453125,3.4296875,1.125,1.0
4508823,,,,,,,,-2.83203125,5.25390625,-1.26171875,0.4609375,-0.08984375,-0.9453125,-0.27734375,3.390625,1.27734375,1.0
4508824,,,,,,,,-3.90234375,3.8359375,-1.046875,0.42578125,-0.42578125,-0.912109375,-1.34765625,1.9765625,1.5078125,1.0
4508825,,,,,,,,-6.4375,0.73828125,2.82421875,0.333984375,-0.5859375,-0.84375,-3.875,-1.12890625,5.375,1.0
4508826,,,,,,,,-6.9375,-0.6015625,3.828125,0.28125,-0.640625,-0.822265625,-4.375,-2.46875,6.37890625,1.0
4508827,,,,,,,,-4.1953125,-8.30078125,1.05859375,0.19140625,-0.685546875,-0.841796875,-1.6171875,-10.1640625,3.61328125,1.0
4508828,,,,,,,,-0.2578125,-17.8984375,-0.1953125,0.10546875,-0.4765625,-0.943359375,2.328125,-19.78515625,2.3515625,1.0
4508829,,,,,,,,13.45703125,-48.35546875,12.09375,0.0234375,0.0546875,-1.16015625,16.04296875,-50.234375,14.6484375,1.0
4508830,36.01306316666667,129.32010833333334,135.97446352364614,73.58551946539964,3.4000000000000004,231.0,,10.46875,-31.30078125,17.1640625,1.583984375,0.443359375,2.216796875,13.0546875,-33.19140625,19.7421875,1.0
4508831,,,,,,,,3.19140625,-17.29296875,5.1875,-0.158203125,1.0,-2.59375,5.77734375,-19.16796875,7.7890625,1.0
4508832,,,,,,,,-1.94921875,-13.1640625,2.8515625,-0.01171875,1.20703125,-2.13671875,0.64453125,-15.03125,5.4921875,1.0
4508833,,,,,,,,-2.6171875,-21.1328125,0.26953125,-0.23046875,1.548828125,-1.404296875,-0.046875,-23.0,2.96484375,1.0
4508834,,,,,,,,-1.44140625,-24.48046875,3.42578125,-0.611328125,0.32421875,-1.591796875,1.10546875,-26.37109375,6.14453125,1.0
4508835,,,,,,,,-0.49609375,-23.453125,5.6015625,-0.73046875,-3.015625,-0.822265625,2.09765625,-25.37890625,8.2890625,1.0
4508836,,,,,,,,-0.12109375,-21.69921875,5.265625,-0.5234375,-3.046875,-0.697265625,2.51953125,-23.6484375,7.90625,1.0
4508837,,,,,,,,0.57421875,-19.18359375,2.79296875,-0.357421875,-1.078125,-1.64453125,3.28515625,-21.16015625,5.37890625,1.0
4508838,,,,,,,,0.7734375,-17.26171875,0.1484375,-0.75,0.927734375,-2.544921875,3.515625,-19.24609375,2.734375,1.0
4508839,,,,,,,,0.98828125,-13.72265625,0.078125,-1.083984375,0.6953125,-2.470703125,3.74609375,-15.72265625,2.6953125,1.0
4508840,36.01306133333333,129.32010583333334,135.74909462865858,73.38209070152621,3.2,229.0,,0.7734375,-9.68359375,-1.0703125,1.583984375,0.443359375,2.216796875,13.0546875,-33.19140625,19.7421875,1.0
4508841,,,,,,,,1.04296875,-7.5546875,-2.28125,-1.40625,0.34375,-2.166015625,3.86328125,-9.59765625,0.3203125,1.0
4508842,,,,,,,,1.24609375,-4.56640625,-3.57421875,-1.546875,0.576171875,-2.01171875,4.08984375,-6.64453125,-0.98046875,1.0
4508843,,,,,,,,1.33984375,-2.2734375,-2.91015625,-1.564453125,0.568359375,-1.779296875,4.20703125,-4.38671875,-0.33203125,1.0
4508844,,,,,,,,1.24609375,0.75390625,-1.68359375,-1.462890625,0.48046875,-1.669921875,4.12890625,-1.39453125,0.89453125,1.0
4508845,,,,,,,,1.1484375,2.6015625,-2.2421875,-1.365234375,0.494140625,-1.6328125,4.05859375,0.40625,0.3203125,1.0
4508846,,,,,,,,0.984375,3.0,-2.6953125,-1.296875,0.57421875,-1.591796875,3.90234375,0.7890625,-0.140625,1.0
4508847,,,,,,,,0.01171875,3.95703125,-4.03515625,-1.1484375,0.78125,-1.412109375,2.94140625,1.70703125,-1.48046875,1.0
4508848,,,,,,,,-0.65234375,4.6640625,-4.48828125,-0.8671875,0.65625,-1.078125,2.29296875,2.36328125,-1.94140625,1.0
4508849,,,,,,,,-0.86328125,4.12890625,-4.9453125,-0.724609375,0.296875,-0.802734375,2.09765625,1.78515625,-2.3984375,1.0
4508850,36.013059500000004,129.32010266666666,135.4636265090105,73.17866101687441,3.4000000000000004,232.0,,-0.33984375,1.39453125,-5.65234375,-0.73046875,0.06640625,-0.423828125,2.63671875,-1.01171875,-3.125,1.0
4508851,,,,,,,,0.04296875,-1.1171875,-4.30078125,-0.744140625,0.20703125,-0.32421875,3.01953125,-3.578125,-1.78515625,1.0
4508852,,,,,,,,-0.84765625,-0.765625,-3.28125,-0.708984375,0.4609375,-0.095703125,1.37109375,-3.04296875,-0.17578125,1.0
4508853,,,,,,,,-1.60546875,-0.50390625,-2.66796875,-0.6875,0.552734375,0.068359375,-0.0078125,-3.0,0.6640625,1.0
4508854,,,,,,,,-3.57421875,-0.33203125,-1.3671875,-0.5390625,0.904296875,0.77734375,-1.80859375,-2.6171875,2.42578125,1.0
4508855,,,,,,,,-4.98828125,0.55078125,0.42578125,-0.525390625,0.951171875,1.04296875,-2.11328125,-1.47265625,3.15625,1.0
4508856,,,,,,,,-4.7421875,2.2734375,0.41796875,-0.609375,0.65234375,0.90234375,-1.5,0.59765625,2.54296875,1.0
4508857,,,,,,,,-3.28125,5.37890625,-1.3046875,-0.72265625,0.048828125,0.56640625,0.109375,3.47265625,0.359375,1.0
4508858,,,,,,,,-2.6953125,6.375,-2.1328125,-0.748046875,-0.328125,0.404296875,0.94921875,4.390625,-0.0234375,1.0
4508859,,,,,,,,-1.6640625,7.43359375,-2.140625,-0.689453125,-1.208984375,-0.0078125,1.33203125,4.31640625,0.6640625,1.0
4508860,36.013057499999995,129.32009983333333,135.20820826692884,72.95673859567395,3.6,229.0,,-1.07421875,6.53125,-0.8125,-0.51171875,-2.04296875,-0.330078125,1.75390625,3.51171875,1.5859375,1.0
4508861,,,,,,,,0.55859375,1.3515625,-0.12109375,-0.287109375,-2.544921875,-0.37890625,3.44140625,-1.703125,2.19921875,1.0
4508862,,,,,,,,2.21875,-6.9296875,-0.19140625,-0.130859375,-2.544921875,-0.142578125,5.1640625,-10.015625,2.04296875,1.0
4508863,,,,,,,,-5.265625,-34.9375,17.08984375,-0.056640625,-2.009765625,0.15234375,-2.265625,-38.0546875,19.24609375,1.0
4508864,,,,,,,,-14.046875,-61.37109375,16.36328125,0.0546875,-0.7578125,0.28125,-11.0,-64.5234375,18.44140625,1.0
4508865,,,,,,,,-12.171875,-29.44140625,12.30859375,0.2421875,1.015625,0.423828125,-9.125,-32.65234375,14.37890625,1.0
4508866,,,,,,,,-6.76171875,-15.94140625,8.77734375,0.337890625,1.701171875,0.798828125,-3.72265625,-19.16796875,10.85546875,1.0
4508867,,,,,,,,3.0078125,-7.98828125,-3.53515625,0.45703125,2.291015625,1.22265625,5.9296875,-11.3125,-1.36328125,1.0
4508868,,,,,,,,11.34375,-17.87109375,-1.5390625,0.505859375,1.44921875,-0.34375,14.203125,-21.234375,0.703125,1.0
4508869,,,,,,,,8.265625,-20.890625,6.58984375,0.14453125,-0.70703125,1.142578125,11.1015625,-24.3046875,8.86328125,1.0
4508870,36.0130555,129.32009716666667,134.96781481816407,72.73481641397257,3.4000000000000004,227.0,,3.09375,-20.62890625,6.65234375,-0.0546875,-3.3125,1.025390625,5.9296875,-24.109375,8.86328125,1.0
4508871,,,,,,,,-0.921875,-14.46484375,0.75390625,0.876953125,-2.375,1.0703125,1.9453125,-18.015625,2.88671875,1.0
4508872,,,,,,,,-2.18359375,-11.98046875,-2.08984375,0.83984375,0.775390625,1.955078125,0.64453125,-15.6015625,0.05078125,1.0
4508873,,,,,,,,-5.3359375,-8.68359375,-1.25390625,0.849609375,1.697265625,3.4453125,-2.7265625,-12.46484375,1.01171875,1.0
4508874,,,,,,,,-6.3515625,-6.73828125,-0.78125,1.234375,0.34765625,3.716796875,-3.9140625,-10.62890625,1.546875,1.0
4508875,,,,,,,,-6.83203125,-4.453125,-1.87890625,1.595703125,0.03125,3.85546875,-4.56640625,-8.4453125,0.51171875,1.0
4508876,,,,,,,,-6.7421875,-2.13671875,-2.0703125,1.728515625,0.328125,3.857421875,-4.640625,-6.21875,0.3984375,1.0
4508877,,,,,,,,-6.87109375,0.27734375,-1.19921875,1.64453125,0.625,3.580078125,-4.9453125,-3.88671875,1.35546875,1.0
4508878,,,,,,,,-6.66015625,4.38671875,-1.921875,1.421875,0.673828125,2.787109375,-4.984375,0.13671875,0.7421875,1.0
4508879,,,,,,,,-6.76953125,5.8828125,-2.26953125,1.240234375,0.818359375,2.345703125,-5.25,1.59375,0.47265625,1.0
4508880,36.0130535,129.32009449999998,134.7274213551882,72.51289423817919,3.4000000000000004,226.0,,-6.21875,6.76171875,-2.5234375,1.01953125,0.818359375,2.1171875,5.9296875,-24.109375,8.86328125,1.0
4508881,,,,,,,,-5.39453125,6.44921875,-3.7265625,0.81640625,0.587890625,2.009765625,-4.140625,2.08984375,-0.8671875,1.0
4508882,,,,,,,,-4.99609375,5.66796875,-4.24609375,0.712890625,0.45703125,1.970703125,-3.796875,1.28515625,-1.36328125,1.0
4508883,,,,,,,,-4.6875,3.79296875,-4.0859375,0.591796875,0.29296875,1.830078125,-3.609375,-0.62890625,-1.171875,1.0
4508884,,,,,,,,-4.69140625,1.75390625,-3.46875,0.521484375,0.2265625,1.51171875,-3.72265625,-2.69921875,-0.5234375,1.0
4508885,,,,,,,,-4.53125,1.15625,-2.92578125,0.578125,0.26171875,1.044921875,-3.65234375,-3.3125,0.05078125,1.0
4508886,,,,,,,,-4.14453125,1.01953125,-2.51953125,0.630859375,0.32421875,0.8515625,-3.30078125,-3.46484375,0.47265625,1.0
4508887,,,,,,,,-3.46875,1.92578125,-1.9765625,0.6484375,0.51171875,0.529296875,-2.69140625,-2.58203125,1.046875,1.0
4508888,,,,,,,,-2.265625,3.91796875,-1.546875,0.548828125,0.71875,0.205078125,-1.54296875,-0.58984375,1.5078125,1.0
4508889,,,,,,,,-2.234375,3.92578125,-1.5625,0.408203125,0.8125,-0.162109375,-1.04296875,0.05859375,1.46875,1.0
4508890,36.01305133333334,129.32009150000002,134.45697855861218,72.27247840301234,3.6,228.0,,-6.21875,6.76171875,-2.5234375,0.333984375,0.64453125,-0.505859375,5.9296875,-24.109375,8.86328125,1.0
4508891,,,,,,,,-1.0234375,6.78125,-1.83984375,0.326171875,0.193359375,-0.677734375,-0.3125,2.890625,1.0859375,1.0
4508892,,,,,,,,-0.92578125,9.2890625,-2.51171875,0.3515625,-0.431640625,-0.79296875,-0.27734375,4.73828125,0.62890625,1.0
4508893,,,,,,,,-1.23828125,9.640625,-3.10546875,0.458984375,-1.099609375,-0.869140625,-0.54296875,5.078125,0.05078125,1.0
4508894,,,,,,,,-1.63671875,8.26171875,-3.38671875,0.505859375,-1.615234375,-0.767578125,-0.88671875,3.69921875,-0.21484375,1.0
4508895,,,,,,,,-3.6640625,3.2734375,0.78125,0.4140625,-1.92578125,-0.71484375,-2.8046875,-1.28125,3.9609375,1.0
4508896,,,,,,,,-3.6953125,-2.28125,1.9296875,0.4375,-1.626953125,-0.771484375,-2.765625,-6.83984375,5.109375,1.0
4508897,,,,,,,,-0.984375,-14.84375,-1.6875,0.419921875,-0.841796875,-0.75390625,-0.0078125,-19.3984375,1.5078125,1.0
4508898,,,,,,,,12.58203125,-50.00390625,8.09765625,0.248046875,0.537109375,-0.767578125,13.58984375,-54.56640625,11.31640625,1.0
4508899,,,,,,,,23.41796875,-67.84765625,29.5234375,0.12890625,1.00390625,-1.30859375,24.43359375,-72.4140625,32.765625,1.0
4508900,36.01304966666667,129.32008833333333,134.1715100904081,72.08754196756095,3.5,231.0,0.0,9.48828125,-20.484375,5.0234375,0.19921875,1.11328125,-1.732421875,10.52734375,-25.07421875,8.2890625,1.0
4508901,,,,,,,,-3.390625,-11.89453125,0.28125,0.369140625,1.001953125,-1.03515625,-2.34375,-16.48828125,3.578125,1.0
4508902,,,,,,,,-4.515625,-16.97265625,-3.19140625,0.15234375,0.630859375,-1.21484375,-3.453125,-21.578125,0.12890625,1.0
4508903,,,,,,,,-3.62109375,-17.72265625,-0.44921875,-0.205078125,0.291015625,-1.55859375,-2.53515625,-22.34375,2.88671875,1.0
4508904,,,,,,,,1.2109375,-15.07421875,3.57421875,-0.84765625,-3.447265625,-1.087890625,2.40625,-19.74609375,6.87109375,1.0
4508905,,,,,,,,1.3828125,-13.34765625,3.57421875,-0.2734375,-3.84765625,-1.146484375,2.75,-18.05859375,6.79296875,1.0
4508906,,,,,,,,1.97265625,-13.02734375,1.875,-0.451171875,-2.81640625,-1.94921875,3.40234375,-17.75390625,5.0703125,1.0
4508907,,,,,,,,2.4140625,-11.78515625,-2.4453125,-0.7265625,-0.10546875,-3.423828125,4.015625,-16.52734375,0.703125,1.0
4508908,,,,,,,,2.9921875,-9.43359375,-2.22265625,-1.3203125,0.486328125,-3.22265625,4.7421875,-14.19140625,0.89453125,1.0
4508909,,,,,,,,2.515625,-7.0859375,-0.83203125,-1.34375,-0.625,-2.267578125,4.4375,-11.89453125,2.19921875,1.0
4508910,36.013047666666665,129.32008566666667,133.93111659220625,71.86561981302532,3.4000000000000004,230.0,,1.921875,-3.1484375,-0.59375,-1.697265625,-0.66796875,-2.44140625,3.9765625,-7.98828125,2.3515625,1.0
4508911,,,,,,,,2.2421875,-0.13671875,-1.94921875,-1.75,0.115234375,-2.09765625,4.4765625,-5.03515625,0.85546875,1.0
4508912,,,,,,,,2.31640625,0.9921875,-2.40625,-1.689453125,0.27734375,-1.857421875,4.58984375,-3.921875,0.359375,1.0
4508913,,,,,,,,1.77734375,6.36328125,-2.8046875,-1.5546875,0.267578125,-1.607421875,4.125,1.40234375,-0.1015625,1.0
4508914,,,,,,,,1.5546875,7.02734375,-2.6484375,-1.49609375,0.16015625,-1.6328125,3.9375,2.05078125,0.015625,1.0
4508915,,,,,,,,1.15625,8.09375,-2.578125,-1.294921875,-0.041015625,-1.880859375,3.6328125,3.0859375,0.015625,1.0
4508916,,,,,,,,0.2890625,7.99609375,-3.7421875,-1.04296875,-0.06640625,-2.123046875,2.8671875,2.97265625,-1.2109375,1.0
4508917,,,,,,,,0.078125,7.91796875,-3.91015625,-0.9375,-0.0234375,-2.12890625,2.7109375,2.890625,-1.40234375,1.0
4508918,,,,,,,,-0.21484375,7.99609375,-4.40234375,-0.8046875,0.076171875,-1.90625,2.51953125,2.96875,-1.94140625,1.0
4508919,,,,,,,,-0.15234375,8.00390625,-4.5546875,-0.775390625,-0.009765625,-1.513671875,2.67578125,2.97265625,-2.1328125,1.0
4508920,36.0130455,129.320082,133.60057452697066,71.62520308866998,3.8000000000000003,233.0,,1.62890625,6.21875,-4.8671875,-1.697265625,-0.66796875,-2.44140625,3.9765625,-7.98828125,2.3515625,1.0
4508921,,,,,,,,1.92578125,4.3203125,-4.75,-0.607421875,-0.234375,-0.576171875,4.89453125,-0.7421875,-2.4375,1.0
4508922,,,,,,,,0.34765625,3.8203125,-2.7421875,-0.4140625,0.037109375,-0.357421875,3.359375,-1.28125,-0.484375,1.0
4508923,,,,,,,,-1.69140625,3.953125,-0.765625,-0.33203125,0.32421875,-0.306640625,1.33203125,-1.1640625,1.47265625,1.0
4508924,,,,,,,,-4.5703125,4.55859375,2.18359375,-0.357421875,0.634765625,0.01953125,-1.5390625,-0.58984375,4.41796875,1.0
4508925,,,,,,,,-5.45703125,5.8984375,2.0,-0.4453125,0.75390625,0.677734375,-2.45703125,0.7109375,4.2265625,1.0
4508926,,,,,,,,-5.88671875,6.859375,0.69921875,-0.51171875,0.7109375,1.005859375,-2.91796875,1.6328125,2.92578125,1.0
4508927,,,,,,,,-5.34765625,7.49609375,-0.80859375,-0.626953125,0.490234375,1.56640625,-2.453125,2.20703125,1.39453125,1.0
4508928,,,,,,,,-4.14453125,8.0,-2.50390625,-0.78125,0.060546875,1.7265625,-1.34765625,2.62890625,-0.33203125,1.0
4508929,,,,,,,,-3.71484375,7.58203125,-3.09765625,-0.7421875,-0.513671875,1.55078125,-1.00390625,2.12890625,-0.98046875,1.0
4508930,36.013043333333336,129.3200791666667,133.3451564754822,71.38478751573898,3.7,229.0,,-3.3828125,3.984375,-0.625,-0.5078125,-0.90625,1.36328125,-0.734375,-1.546875,1.4296875,1.0
4508931,,,,,,,,-3.3671875,-0.40625,1.03125,-0.29296875,-0.982421875,1.05859375,-0.7734375,-5.99609375,3.0390625,1.0
4508932,,,,,,,,-2.53125,-13.046875,4.91015625,-0.111328125,-0.837890625,0.841796875,1.640625,-29.66796875,8.48046875,1.0
4508933,,,,,,,,-5.3203125,-56.34765625,25.16015625,0.005859375,-0.25,0.740234375,-2.8046875,-62.03125,27.09765625,1.0
4508934,,,,,,,,-4.515625,-48.265625,16.42578125,0.060546875,0.216796875,0.447265625,-2.0390625,-53.9921875,18.36328125,1.0
4508935,,,,,,,,-1.38671875,-14.984375,2.16015625,0.025390625,0.818359375,-0.255859375,1.06640625,-20.7421875,4.11328125,1.0
4508936,,,,,,,,2.390625,-10.1484375,-5.9140625,0.154296875,1.875,-1.630859375,4.859375,-15.91796875,-3.9296875,1.0
4508937,,,,,,,,4.79296875,-12.82421875,-4.8125,0.8203125,2.392578125,-2.201171875,7.34765625,-18.5546875,-2.7421875,1.0
4508938,,,,,,,,7.92578125,-13.234375,3.8203125,0.1875,-0.0625,1.77734375,10.44921875,-18.98046875,5.953125,1.0
4508939,,,,,,,,4.40625,-15.2578125,5.93359375,0.005859375,-3.6328125,2.326171875,6.8515625,-21.0859375,8.01953125,1.0
4508940,36.01304116666667,129.32007666666667,133.11978802122607,71.14437240520576,3.5,227.0,,1.05078125,-13.79296875,3.53125,0.357421875,-3.3359375,1.97265625,3.44140625,-19.703125,5.53125,1.0
4508941,,,,,,,,-0.94921875,-10.703125,0.47265625,0.6171875,-0.486328125,1.80078125,1.37109375,-16.68359375,2.46484375,1.0
4508942,,,,,,,,-3.6953125,-5.34765625,-2.30078125,0.78125,1.7109375,2.822265625,-1.5390625,-11.390625,-0.25390625,1.0
4508943,,,,,,,,-3.6015625,-5.30859375,-2.33984375,0.94140625,1.5234375,3.330078125,-3.109375,-10.1640625,0.3984375,1.0
4508944,,,,,,,,-6.5625,-3.23828125,-0.9765625,1.125,0.48828125,3.55859375,-5.25390625,-9.05859375,1.4296875,1.0
4508945,,,,,,,,-6.79296875,-2.22265625,-0.90234375,1.740234375,-0.189453125,3.953125,-5.29296875,-6.72265625,1.203125,1.0
4508946,,,,,,,,-6.50390625,0.7734375,-1.39453125,1.7734375,0.201171875,3.466796875,-5.14453125,-4.3828125,0.6640625,1.0
4508947,,,,,,,,-5.96484375,3.9375,-2.6171875,1.634765625,0.61328125,2.779296875,-4.98828125,-2.390625,-0.1015625,1.0
4508948,,,,,,,,-5.6484375,4.6640625,-3.14453125,1.51953125,0.72265625,2.5078125,-4.80078125,-1.6640625,-0.55859375,1.0
4508949,,,,,,,,-5.3203125,6.5859375,-3.5078125,1.203125,0.75,2.115234375,-4.640625,0.25,-0.828125,1.0
4508950,36.01303883333333,129.32007383333334,132.86437022292586,70.88546364007797,3.7,227.0,,-4.8828125,8.3125,-2.75,0.982421875,0.65234375,1.853515625,-4.375,1.9765625,0.015625,1.0
4508951,,,,,,,,-4.50390625,8.77734375,-2.27734375,0.73828125,0.521484375,1.74609375,-4.140625,2.43359375,0.55078125,1.0
4508952,,,,,,,,-3.8125,8.203125,-2.42578125,0.623046875,0.513671875,1.7265625,-3.53515625,1.859375,0.43359375,1.0
4508953,,,,,,,,-2.9921875,6.57421875,-3.11328125,0.4453125,0.640625,1.689453125,-2.84375,0.21484375,-0.21484375,1.0
4508954,,,,,,,,-2.60546875,3.859375,-3.046875,0.369140625,0.71875,1.525390625,-2.65234375,-2.5078125,-0.1015625,1.0
4508955,,,,,,,,-2.32421875,2.796875,-2.91796875,0.404296875,0.681640625,1.048828125,-2.49609375,-3.58203125,0.05078125,1.0
4508956,,,,,,,,-1.48828125,3.1875,-2.00390625,0.53125,0.48828125,0.345703125,-1.76953125,-3.19921875,1.01171875,1.0
4508957,,,,,,,,-1.13671875,4.6796875,-1.1953125,0.58203125,0.53125,-0.05859375,-1.46484375,-1.703125,1.85546875,1.0
4508958,,,,,,,,-0.97265625,6.0234375,-1.109375,0.4609375,0.525390625,-0.615234375,-1.30859375,-0.359375,1.96875,1.0
4508959,,,,,,,,-1.171875,7.62890625,-1.38671875,0.365234375,0.45703125,-0.85546875,-1.5,1.24609375,1.69921875,1.0
4508960,36.013037000000004,129.320071,132.60895157178615,70.68203450324395,3.6,229.0,,-1.48828125,9.015625,-1.87109375,0.982421875,0.65234375,1.853515625,-4.375,1.9765625,0.015625,1.0
4508961,,,,,,,,-1.8125,10.51953125,-2.27734375,0.359375,-0.501953125,-1.03125,-2.0390625,4.1171875,0.85546875,1.0
4508962,,,,,,,,-1.765625,10.7890625,-2.8515625,0.447265625,-1.609375,-0.4609375,-1.8828125,4.390625,0.3203125,1.0
4508963,,,,,,,,-1.5234375,9.9375,-3.2109375,0.43359375,-1.865234375,-0.31640625,-1.6171875,3.546875,-0.0234375,1.0
4508964,,,,,,,,-1.40234375,8.4140625,-3.234375,0.34375,-2.14453125,-0.162109375,-1.42578125,2.01953125,-0.0234375,1.0
4508965,,,,,,,,-2.66015625,4.3125,0.80859375,0.283203125,-2.091796875,-0.251953125,-2.61328125,-2.0859375,4.03125,1.0
4508966,,,,,,,,-3.0,-8.296875,1.4296875,0.31640625,-1.33984375,-0.689453125,-2.84375,-14.69140625,4.6875,1.0
4508967,,,,,,,,5.09765625,-33.04296875,6.4921875,0.28515625,0.021484375,-1.142578125,5.35546875,-39.43359375,9.78125,1.0
4508968,,,,,,,,25.7890625,-57.17578125,21.6953125,0.267578125,0.46484375,-1.30859375,26.078125,-63.56640625,24.9921875,1.0
4508969,,,,,,,,19.66796875,-38.16796875,16.109375,0.349609375,1.185546875,-2.048828125,20.02734375,-44.5625,19.4375,1.0
4508970,36.013034999999995,129.320068,132.3385083755085,70.46011193889579,3.6,229.0,,0.703125,-14.3515625,4.35546875,0.6171875,1.806640625,-2.271484375,1.140625,-20.74609375,7.71484375,1.0
4508971,,,,,,,,-4.31640625,-8.83203125,1.92578125,0.45703125,1.787109375,-2.107421875,-3.80078125,-15.22265625,5.33984375,1.0
4508972,,,,,,,,-3.80859375,-12.11328125,-3.37109375,-0.564453125,1.427734375,-1.09765625,-3.26171875,-18.51953125,0.05078125,1.0
4508973,,,,,,,,-1.98828125,-13.62890625,-2.39453125,-0.607421875,0.001953125,-1.1796875,-1.42578125,-20.05078125,1.01171875,1.0
4508974,,,,,,,,3.765625,-15.28515625,2.28515625,-0.4921875,-3.96875,-0.23046875,4.4375,-21.734375,5.64453125,1.0
4508975,,,,,,,,4.16796875,-12.4765625,2.30859375,-0.52734375,-4.3203125,-1.009765625,5.01171875,-18.98046875,5.60546875,1.0
4508976,,,,,,,,3.81640625,-10.59375,-0.01953125,-0.2734375,-1.666015625,-3.078125,4.89453125,-17.1015625,3.23046875,1.0
4508977,,,,,,,,2.47265625,-9.4765625,-1.6328125,-0.771484375,0.59375,-3.33203125,3.78515625,-15.99609375,1.5859375,1.0
4508978,,,,,,,,2.08984375,-9.046875,-2.26171875,-1.125,1.015625,-2.95703125,3.48046875,-15.57421875,0.93359375,1.0
4508979,,,,,,,,1.984375,-5.91015625,-1.89453125,-1.31640625,0.64453125,-2.46484375,3.515625,-12.46484375,1.23828125,1.0
4508980,36.013033,129.32006516666667,132.08308997821234,70.23818961141,3.5,229.0,,1.52734375,-2.5078125,-0.6953125,-1.599609375,-0.3203125,-2.1484375,3.36328125,-9.13671875,2.234375,1.0
4508981,,,,,,,,0.93359375,1.7890625,-0.30078125,-1.64453125,0.078125,-1.857421875,2.98046875,-4.8828125,2.46484375,1.0
4508982,,,,,,,,0.609375,3.1484375,-0.17578125,-1.59375,0.21875,-1.7421875,2.7109375,-3.54296875,2.54296875,1.0
4508983,,,,,,,,0.80859375,6.43359375,-2.34375,-1.419921875,0.330078125,-1.6171875,3.015625,-0.28515625,0.28125,1.0
4508984,,,,,,,,0.953125,6.7109375,-3.22265625,-1.322265625,0.29296875,-1.6328125,3.2109375,-0.015625,-0.63671875,1.0
4508985,,,,,,,,1.11328125,8.71875,-4.44140625,-1.203125,0.0546875,-1.751953125,3.48046875,1.9765625,-1.94140625,1.0
4508986,,,,,,,,0.7109375,9.953125,-4.16015625,-1.0625,-0.271484375,-1.76953125,3.21484375,3.203125,-1.74609375,1.0
4508987,,,,,,,,0.578125,11.75390625,-4.32421875,-0.974609375,-0.435546875,-1.73046875,3.1328125,5.00390625,-1.94140625,1.0
4508988,,,,,,,,0.7265625,11.140625,-4.19140625,-0.5625,-0.517578125,-1.166015625,3.515625,4.390625,-1.94140625,1.0
4508989,,,,,,,,2.21484375,8.83203125,-4.34375,-0.455078125,-0.41796875,-1.06640625,5.046875,2.08984375,-2.1328125,1.0
4508990,36.013031166666664,129.32006199999998,131.7976216718567,70.03476004562856,3.7,232.0,,2.78515625,6.53515625,-4.46484375,-0.25390625,-0.271484375,-1.0859375,5.69921875,-0.20703125,-2.28515625,1.0
4508991,,,,,,,,2.546875,3.53125,-4.44921875,-0.19140625,-0.140625,-1.166015625,5.55078125,-3.1953125,-2.28515625,1.0
4508992,,,,,,,,1.48046875,2.640625,-3.53515625,-0.365234375,-0.029296875,-0.943359375,4.546875,-4.078125,-1.40234375,1.0
4508993,,,,,,,,-0.2890625,2.86328125,-2.29296875,-0.48046875,0.046875,-0.814453125,2.828125,-3.84375,-0.17578125,1.0
4508994,,,,,,,,-2.54296875,4.78125,-0.37890625,-0.55859375,0.275390625,-0.34375,0.60546875,-1.9296875,1.69921875,1.0
4508995,,,,,,,,-5.0,6.97265625,3.4453125,-0.40234375,0.69140625,0.763671875,-1.8828125,0.21484375,5.4921875,1.0
4508996,,,,,,,,-5.94140625,8.52734375,2.80078125,-0.396484375,0.85546875,1.5,-2.91796875,1.70703125,4.83984375,1.0
4508997,,,,,,,,-5.5859375,9.35546875,0.6640625,-0.439453125,0.826171875,1.931640625,-2.6875,2.47265625,2.69921875,1.0
4508998,,,,,,,,-5.203125,10.046875,-0.66796875,-0.494140625,0.73046875,2.005859375,-2.3828125,3.12890625,1.35546875,1.0
4508999,,,,,,,,-4.9921875,9.8125,-0.70703125,-0.55859375,-0.189453125,1.64453125,-2.3828125,2.78125,1.27734375,1.0
4509000,36.01302866666666,129.32005916666668,131.54220408081062,69.75735811199058,3.7,228.0,0.0,-5.25,5.875,0.390625,-0.4921875,-1.19140625,1.333984375,-2.7265625,-1.203125,2.3125,1.0
4509001,,,,,,,,-4.91796875,-31.11328125,12.078125,-0.01171875,-1.64453125,1.43359375,-2.53515625,-38.28515625,13.8828125,1.0
4509002,,,,,,,,-6.3046875,-53.19140625,16.6875,0.046875,-1.46875,1.38671875,-3.953125,-60.38671875,18.4765625,1.0
4509003,,,,,,,,-1.078125,-30.26953125,15.8984375,0.166015625,-0.314453125,0.638671875,1.1796875,-37.515625,17.671875,1.0
4509004,,,,,,,,0.96875,-14.546875,5.12890625,0.2109375,0.427734375,0.134765625,3.2109375,-21.81640625,6.91015625,1.0
4509005,,,,,,,,4.140625,-8.1875,-5.1484375,0.2421875,2.42578125,-1.505859375,6.390625,-15.453125,-3.3203125,1.0
4509006,,,,,,,,5.1875,-10.5625,-4.3671875,0.7421875,3.56640625,-2.736328125,7.5390625,-17.79296875,-2.4375,1.0
4509007,,,,,,,,6.13671875,-11.0546875,-2.0625,0.744140625,3.0,-1.62109375,8.53515625,-18.25390625,-0.0625,1.0
4509008,,,,,,,,4.94921875,-14.78515625,3.3515625,0.35546875,-1.345703125,1.900390625,7.30859375,-22.0,5.4140625,1.0
4509009,,,,,,,,3.47265625,-15.375,4.01171875,0.322265625,-3.126953125,2.01953125,5.77734375,-22.6171875,6.06640625,1.0
4509010,36.01302633333333,129.32005633333335,131.28678619578193,69.49844939305027,3.7,225.0,,0.44921875,-13.3984375,3.4453125,-0.4921875,-1.19140625,1.333984375,2.67578125,-20.70703125,5.453125,1.0
4509011,,,,,,,,-1.48046875,-8.96875,-0.0546875,1.05078125,-0.515625,2.51953125,0.60546875,-16.33984375,1.96875,1.0
4509012,,,,,,,,-2.5703125,-4.62109375,-1.98046875,1.05078125,1.6484375,2.9609375,-0.6953125,-12.0390625,0.12890625,1.0
4509013,,,,,,,,-3.04296875,-3.6015625,-2.1640625,1.115234375,1.84765625,3.310546875,-1.30859375,-11.046875,0.015625,1.0
4509014,,,,,,,,-4.00390625,-2.015625,-1.69921875,1.123046875,1.19140625,3.818359375,-2.57421875,-9.51953125,0.58984375,1.0
4509015,,,,,,,,-5.69140625,-0.0546875,-1.49609375,1.521484375,0.216796875,3.830078125,-4.56640625,-7.6015625,0.89453125,1.0
4509016,,,,,,,,-5.78515625,1.953125,-1.89453125,1.873046875,-0.19140625,3.70703125,-4.94921875,-5.61328125,0.62890625,1.0
4509017,,,,,,,,-6.47265625,6.21875,-3.02734375,1.71484375,0.291015625,3.19140625,-6.171875,-1.3203125,-0.21484375,1.0
4509018,,,,,,,,-6.15625,8.703125,-2.515625,1.626953125,0.369140625,3.171875,-5.984375,1.171875,0.359375,1.0
4509019,,,,,,,,-6.08984375,10.2890625,-1.32421875,1.349609375,0.427734375,3.158203125,-6.17578125,2.78125,1.66015625,1.0
4509020,36.01302416666667,129.320053,130.98629358611652,69.25803321572307,3.9000000000000004,228.0,,-5.53125,11.55859375,-0.6953125,-0.4921875,-1.19140625,1.333984375,-5.87109375,4.08203125,2.390625,1.0
4509021,,,,,,,,-4.6171875,11.296875,-1.9609375,0.998046875,0.666015625,2.34375,-5.1796875,3.8515625,1.203125,1.0
4509022,,,,,,,,-3.77734375,10.234375,-3.13671875,0.716796875,0.87890625,1.88671875,-4.5234375,2.8203125,0.08984375,1.0
4509023,,,,,,,,-3.59765625,5.56640625,-3.421875,0.44140625,0.818359375,0.833984375,-4.56640625,-1.81640625,-0.140625,1.0
4509024,,,,,,,,-2.4453125,4.1015625,-3.4140625,0.33984375,0.19921875,-0.142578125,-3.4921875,-3.2734375,-0.1015625,1.0
4509025,,,,,,,,-1.44921875,4.0546875,-3.28515625,0.40234375,0.001953125,-0.146484375,-2.49609375,-3.3125,0.05078125,1.0
4509026,,,,,,,,0.08203125,5.08984375,-2.74609375,0.453125,0.10546875,-0.212890625,-0.96484375,-2.27734375,0.62890625,1.0
4509027,,,,,,,,1.19140625,6.125,-2.65625,0.32421875,0.306640625,-0.533203125,0.14453125,-1.24609375,0.7421875,1.0
4509028,,,,,,,,2.43359375,8.39453125,-2.87890625,0.330078125,0.2734375,-1.05078125,1.4453125,1.01953125,0.55078125,1.0
4509029,,,,,,,,2.4375,9.46484375,-2.7578125,0.5234375,0.00390625,-1.35546875,1.5234375,2.0859375,0.703125,1.0
4509030,36.013022166666666,129.32004999999998,130.71585030707655,69.03611070368873,3.7,230.0,,1.45703125,10.453125,-1.80078125,0.611328125,-0.365234375,-1.6015625,-5.87109375,4.08203125,2.390625,1.0
4509031,,,,,,,,-0.62890625,9.87890625,-1.15625,0.58984375,-0.775390625,-1.462890625,-1.30859375,2.51171875,2.390625,1.0
4509032,,,,,,,,-1.22265625,9.34375,-0.953125,0.5625,-0.943359375,-1.2578125,-1.84765625,1.9765625,2.62109375,1.0
4509033,,,,,,,,-2.9375,7.91015625,0.87890625,0.486328125,-1.25390625,-0.7265625,-3.453125,0.55859375,4.4921875,1.0
4509034,,,,,,,,-2.43359375,3.06640625,0.6171875,0.447265625,-1.439453125,-0.306640625,-2.87890625,-4.265625,4.265625,1.0
4509035,,,,,,,,5.078125,-16.24609375,1.21484375,0.337890625,-1.251953125,-0.607421875,4.7421875,-23.5703125,4.91796875,1.0
4509036,,,,,,,,9.8671875,-27.59375,4.5703125,0.33203125,-0.958984375,-0.79296875,9.5703125,-34.9140625,8.2890625,1.0
4509037,,,,,,,,17.625,-46.32421875,17.75390625,0.337890625,-0.1171875,-1.390625,17.421875,-53.640625,21.50390625,1.0
4509038,,,,,,,,3.5546875,-13.8046875,3.12109375,0.31640625,1.107421875,-2.025390625,3.515625,-21.125,6.91015625,1.0
4509039,,,,,,,,-2.08203125,-9.8203125,0.69921875,0.27734375,1.42578125,-1.68359375,-2.07421875,-17.140625,4.49609375,1.0
4509040,36.01302016666667,129.32004666666666,130.4153573939726,68.8141877539926,3.7,231.0,,-3.79296875,-12.140625,-2.03515625,0.611328125,-0.365234375,-1.6015625,-3.76171875,-19.4765625,1.77734375,1.0
4509041,,,,,,,,-0.96484375,-14.9453125,-0.90234375,-0.55078125,-0.2578125,-1.7578125,-0.88671875,-22.3125,2.88671875,1.0
4509042,,,,,,,,0.3359375,-15.88671875,-0.12109375,-0.572265625,-2.697265625,-1.2109375,0.4921875,-23.26953125,3.65234375,1.0
4509043,,,,,,,,1.515625,-11.546875,1.3515625,-0.2578125,-4.064453125,-1.701171875,2.0234375,-18.98046875,5.0703125,1.0
4509044,,,,,,,,1.8359375,-10.390625,0.37890625,-0.310546875,-2.58203125,-2.54296875,2.484375,-17.828125,4.07421875,1.0
4509045,,,,,,,,3.1328125,-9.2265625,-2.75390625,-1.0234375,0.109375,-3.423828125,4.0546875,-16.68359375,0.89453125,1.0
4509046,,,,,,,,3.04296875,-7.921875,-2.66796875,-1.46875,0.578125,-2.654296875,4.16796875,-15.41796875,0.89453125,1.0
4509047,,,,,,,,2.60546875,-5.72265625,-1.72265625,-1.451171875,0.26953125,-2.31640625,3.82421875,-13.23046875,1.77734375,1.0
4509048,,,,,,,,1.109375,-0.7421875,-2.41015625,-1.666015625,-0.453125,-2.65234375,2.7109375,-8.33203125,0.85546875,1.0
4509049,,,,,,,,1.0078125,1.49609375,-4.109375,-1.712890625,-0.2578125,-2.58984375,2.7109375,-6.10546875,-0.90625,1.0
4509050,36.013018333333335,129.32004383333333,130.15993862549655,68.61075868838384,3.6,232.0,,0.69921875,4.8125,-4.7421875,-1.7734375,0.1015625,-2.2578125,2.59765625,-2.81640625,-1.671875,1.0
4509051,,,,,,,,0.19140625,6.921875,-4.1875,-1.6875,0.142578125,-2.037109375,2.25390625,-0.7421875,-1.25,1.0
4509052,,,,,,,,0.2578125,8.15234375,-3.3046875,-1.63671875,0.083984375,-1.986328125,2.40625,0.48046875,-0.4453125,1.0
4509053,,,,,,,,0.27734375,9.05078125,-2.390625,-1.5390625,-0.03125,-1.95703125,2.5546875,1.36328125,0.359375,1.0
4509054,,,,,,,,0.54296875,8.98828125,-2.734375,-1.357421875,0.125,-1.84375,2.98046875,1.28515625,-0.1015625,1.0
4509055,,,,,,,,1.59765625,8.1015625,-2.6484375,-1.154296875,0.44140625,-1.619140625,4.1640625,0.40625,-0.1015625,1.0
4509056,,,,,,,,2.9609375,7.265625,-2.76171875,-1.052734375,0.62109375,-1.314453125,5.625,-0.4375,-0.29296875,1.0
4509057,,,,,,,,6.28125,7.15234375,-4.4921875,-0.466796875,0.173828125,-1.08203125,9.11328125,-0.55078125,-2.1328125,1.0
4509058,,,,,,,,5.390625,9.125,-6.07421875,-0.33984375,-0.091796875,-1.119140625,8.30859375,1.4375,-3.73828125,1.0
4509059,,,,,,,,4.37890625,9.5390625,-6.015625,-0.298828125,-0.169921875,-1.263671875,7.34375,1.859375,-3.703125,1.0
4509060,36.013016500000006,129.32004016666667,129.82939578831215,68.40732851996657,3.9000000000000004,235.0,,-0.14453125,9.43359375,-4.19140625,-0.19921875,-0.22265625,-1.6015625,2.9375,1.78515625,-1.90234375,1.0
4509061,,,,,,,,-5.1640625,9.0234375,-1.37109375,0.1015625,-0.146484375,-1.298828125,-1.88671875,1.4375,0.89453125,1.0
4509062,,,,,,,,-11.546875,9.1953125,5.48828125,0.09765625,0.0078125,-0.03125,-8.20703125,1.6328125,7.75390625,1.0
4509063,,,,,,,,-11.9921875,9.515625,4.60546875,0.005859375,0.05078125,0.912109375,-8.66796875,1.9375,6.87109375,1.0
4509064,,,,,,,,-8.25,11.05078125,-0.7265625,-0.435546875,-0.060546875,3.62890625,-5.18359375,3.35546875,1.5078125,1.0
4509065,,,,,,,,-5.59375,10.69140625,-2.08984375,-0.62109375,-0.29296875,4.4453125,-2.84375,2.85546875,0.08984375,1.0
4509066,,,,,,,,-1.86328125,8.3515625,-1.56640625,-0.65234375,-0.796875,2.59765625,0.6015625,0.40625,0.55078125,1.0
4509067,,,,,,,,-0.65234375,5.953125,-0.4453125,-0.646484375,-1.1640625,0.64453125,1.71484375,-2.046875,1.5859375,1.0
4509068,,,,,,,,-0.4140625,0.59765625,0.93359375,-0.5234375,-1.21875,0.134765625,1.9453125,-7.41015625,2.92578125,1.0
4509069,,,,,,,,-2.17578125,-13.796875,9.890625,-0.275390625,-1.0859375,-0.373046875,0.22265625,-21.8125,11.8125,1.0
4509070,36.013014,129.32003666666665,129.51387883723243,68.12992575650047,4.0,231.0,,-0.73828125,-48.703125,20.3125,-0.248046875,-0.73046875,-0.5703125,1.71484375,-56.7109375,22.1953125,1.0
4509071,,,,,,,,-3.328125,-24.8828125,16.20703125,-0.181640625,-0.193359375,-0.837890625,-0.8125,-32.88671875,18.05859375,1.0
4509072,,,,,,,,-0.78515625,-9.5703125,8.8125,-0.083984375,0.578125,-0.875,1.79296875,-17.56640625,10.6640625,1.0
4509073,,,,,,,,1.94921875,-0.765625,-2.6953125,-0.091796875,1.494140625,-1.119140625,4.58984375,-8.75390625,-0.828125,1.0
4509074,,,,,,,,5.85546875,-8.18359375,-3.29296875,0.310546875,2.177734375,-1.46484375,8.57421875,-16.14453125,-1.36328125,1.0
4509075,,,,,,,,8.8828125,-16.54296875,4.3046875,0.080078125,0.28515625,0.83984375,11.6015625,-24.49609375,6.296875,1.0
4509076,,,,,,,,7.6171875,-18.546875,5.4296875,-0.16015625,-2.05859375,1.224609375,10.296875,-26.52734375,7.40625,1.0
4509077,,,,,,,,4.0390625,-16.81640625,4.17578125,0.17578125,-3.947265625,1.39453125,6.6953125,-24.8359375,6.06640625,1.0
4509078,,,,,,,,-0.1015625,-10.9453125,2.03125,0.38671875,0.576171875,2.5,2.3671875,-19.0546875,3.8828125,1.0
4509079,,,,,,,,-1.64453125,-6.125,-1.05078125,0.4921875,2.62890625,2.71484375,0.56640625,-14.30859375,0.89453125,1.0
4509080,36.01301216666666,129.3200336666667,129.24343521877654,67.92649649734689,3.7,231.0,,-3.18359375,-3.45703125,-1.55859375,0.755859375,0.6875,3.322265625,-1.38671875,-11.734375,0.51171875,1.0
4509081,,,,,,,,-5.1171875,-1.7265625,-2.25,1.16796875,-0.494140625,3.5703125,-3.609375,-10.0546875,-0.1015625,1.0
4509082,,,,,,,,-5.52734375,-0.7421875,-2.578125,1.318359375,-0.552734375,3.751953125,-4.18359375,-9.09375,-0.3671875,1.0
4509083,,,,,,,,-6.515625,4.015625,-1.328125,1.490234375,0.62109375,4.115234375,-5.83203125,-4.3828125,1.125,1.0
4509084,,,,,,,,-6.3671875,4.859375,-1.3515625,1.396484375,0.798828125,3.966796875,-5.87109375,-3.5390625,1.1640625,1.0
4509085,,,,,,,,-5.3359375,8.10546875,-2.3125,1.251953125,1.03125,3.544921875,-5.1796875,-0.28515625,0.3203125,1.0
4509086,,,,,,,,-5.02734375,10.05078125,-2.703125,1.158203125,1.11328125,3.302734375,-5.0234375,1.66796875,-0.0234375,1.0
4509087,,,,,,,,-4.51953125,11.390625,-2.60546875,0.94921875,0.984375,2.5703125,-4.94921875,3.046875,0.20703125,1.0
4509088,,,,,,,,-4.2890625,12.2578125,-2.76171875,0.8671875,0.8359375,2.41796875,-4.83984375,3.9296875,0.08984375,1.0
4509089,,,,,,,,-4.078125,12.3046875,-2.8984375,0.712890625,0.548828125,2.138671875,-4.83984375,3.35546875,-0.5234375,1.0
4509090,36.01301,129.3200305,128.95796731200096,67.68608061184801,3.9000000000000004,231.0,,-3.18359375,-3.45703125,-1.55859375,0.755859375,0.6875,3.322265625,-4.984375,1.28515625,-1.25,1.0
4509091,,,,,,,,-4.59765625,5.98828125,-4.04296875,0.44921875,0.37890625,1.1484375,-5.6328125,-3.65625,-0.67578125,1.0
4509092,,,,,,,,-4.37890625,4.5625,-3.70703125,0.4140625,0.3984375,0.888671875,-5.328125,-4.15234375,-0.5234375,1.0
4509093,,,,,,,,-3.13671875,3.88671875,-3.01171875,0.326171875,0.4765625,0.556640625,-4.48828125,-4.30859375,0.05078125,1.0
4509094,,,,,,,,-1.48046875,4.04296875,-2.40625,0.30078125,0.55859375,0.5,-2.87890625,-4.1484375,0.6640625,1.0
4509095,,,,,,,,1.984375,5.20703125,-1.96875,0.232421875,0.791015625,0.388671875,0.4921875,-2.9609375,1.125,1.0
4509096,,,,,,,,4.10546875,6.76953125,-1.59375,0.22265625,0.98828125,-0.04296875,2.55859375,-1.39453125,1.5078125,1.0
4509097,,,,,,,,4.421875,7.2578125,-1.2109375,0.271484375,1.025390625,-0.33984375,2.87109375,-0.8984375,1.890625,1.0
4509098,,,,,,,,3.8828125,9.10546875,1.21875,0.45703125,0.75390625,-1.255859375,2.3671875,0.94140625,4.34765625,1.0
4509099,,,,,,,,2.7421875,10.5234375,2.0078125,0.494140625,0.521484375,-1.552734375,1.2578125,2.359375,5.15234375,1.0
4509100,36.013008166666665,129.32002766666668,128.70254847749203,67.48265158904607,3.6,231.0,0.0,0.30859375,12.40625,-0.35546875,0.755859375,0.6875,3.322265625,-4.984375,1.28515625,-1.25,1.0
4509101,,,,,,,,-1.1875,11.83203125,-3.81640625,0.509765625,-1.205078125,-1.287109375,-2.3046875,3.66015625,-0.55859375,1.0
4509102,,,,,,,,-2.6015625,9.49609375,-3.0234375,0.421875,-1.927734375,-0.60546875,-3.61328125,1.32421875,0.28125,1.0
4509103,,,,,,,,-5.0078125,6.5390625,0.77734375,0.3984375,-2.201171875,-0.32421875,-5.9453125,-1.625,4.11328125,1.0
4509104,,,,,,,,-5.70703125,3.06640625,1.93359375,0.37890625,-1.84375,0.056640625,-6.5546875,-5.07421875,5.33984375,1.0
4509105,,,,,,,,2.22265625,-17.55859375,-0.7421875,0.310546875,-0.853515625,0.083984375,1.41015625,-25.6796875,2.6953125,1.0
4509106,,,,,,,,22.11328125,-63.16015625,16.3125,0.14453125,0.720703125,-0.201171875,21.29296875,-71.265625,19.78125,1.0
4509107,,,,,,,,23.7734375,-48.40234375,22.25,0.03125,1.21484375,-1.451171875,22.9765625,-56.515625,25.71875,1.0
4509108,,,,,,,,7.0625,-13.41015625,1.6796875,0.015625,1.2109375,-2.087890625,6.3125,-21.54296875,5.1484375,1.0
4509109,,,,,,,,-0.625,-6.5,1.2578125,0.244140625,1.24609375,-2.17578125,-1.234375,-14.6484375,4.7265625,1.0
4509110,36.01300633333334,129.32002466666665,128.4321048158503,67.27922235472053,3.5,232.0,,-4.953125,-8.37109375,-1.07421875,0.357421875,1.31640625,-1.955078125,-5.4453125,-16.5234375,2.42578125,1.0
4509111,,,,,,,,-3.9921875,-10.59765625,-2.6640625,-0.556640625,-1.087890625,-1.97265625,-4.296875,-18.78125,0.8203125,1.0
4509112,,,,,,,,0.5234375,-11.9921875,-1.41796875,-0.529296875,-3.353515625,-1.517578125,0.3359375,-20.203125,2.04296875,1.0
4509113,,,,,,,,2.0,-11.08984375,0.09375,-0.09375,-4.609375,-1.21875,2.0625,-19.3203125,3.5390625,1.0
4509114,,,,,,,,5.86328125,-10.15234375,0.19921875,-0.57421875,-2.74609375,-2.375,6.19921875,-18.3984375,3.61328125,1.0
4509115,,,,,,,,7.04296875,-9.77734375,0.125,-1.32421875,0.158203125,-3.142578125,7.65234375,-18.0546875,3.4609375,1.0
4509116,,,,,,,,6.125,-7.41796875,-0.0859375,-1.541015625,0.748046875,-2.83984375,6.8515625,-15.71875,3.1953125,1.0
4509117,,,,,,,,3.78125,-4.0390625,-0.66796875,-1.25390625,0.654296875,-2.546875,4.703125,-12.39453125,2.50390625,1.0
4509118,,,,,,,,2.7890625,-1.90625,-1.40234375,-1.361328125,0.01171875,-3.009765625,3.9375,-10.28515625,1.66015625,1.0
4509119,,,,,,,,2.46484375,-0.64453125,-1.9609375,-1.41796875,-0.138671875,-3.150390625,3.74609375,-9.015625,1.046875,1.0
4509120,36.0130045,129.32002183333333,128.1766859552144,67.07579334769777,3.5,233.0,,2.09765625,4.75,-4.27734375,0.357421875,1.31640625,-1.955078125,3.7421875,-3.65625,-1.44140625,1.0
4509121,,,,,,,,1.49609375,8.015625,-2.87109375,-1.279296875,-0.44140625,-2.07421875,3.4375,-0.3984375,-0.21484375,1.0
4509122,,,,,,,,1.40234375,9.70703125,-2.2734375,-1.228515625,-0.47265625,-2.109375,3.4375,1.28515625,0.3203125,1.0
4509123,,,,,,,,1.359375,10.12109375,-3.24609375,-1.126953125,-0.33203125,-2.16796875,3.59765625,1.70703125,-0.75390625,1.0
4509124,,,,,,,,1.14453125,10.3046875,-3.609375,-1.087890625,-0.158203125,-2.119140625,3.4765625,1.8984375,-1.171875,1.0
4509125,,,,,,,,1.5078125,10.44140625,-3.75390625,-0.943359375,0.224609375,-1.84765625,4.015625,2.05078125,-1.40234375,1.0
4509126,,,,,,,,2.171875,10.08203125,-3.68359375,-0.8046875,0.251953125,-1.55859375,4.8203125,1.70703125,-1.40234375,1.0
4509127,,,,,,,,2.4609375,9.9609375,-3.73046875,-0.728515625,0.109375,-1.423828125,5.1640625,1.59375,-1.48046875,1.0
4509128,,,,,,,,3.27734375,6.89453125,-4.66796875,-0.44140625,-0.287109375,-0.884765625,6.234375,-1.43359375,-2.55078125,1.0
4509129,,,,,,,,2.125,6.97265625,-3.95703125,-0.400390625,-0.279296875,-0.8671875,5.12890625,-1.35546875,-1.86328125,1.0
4509130,36.013002666666665,129.32001866666667,127.89121745665466,66.87236391055716,3.7,233.0,,-2.359375,8.36328125,-0.79296875,-0.369140625,-0.126953125,-0.701171875,0.7578125,0.05859375,1.23828125,1.0
4509131,,,,,,,,-5.34765625,9.046875,3.9140625,-0.419921875,0.123046875,-0.08203125,-2.19140625,0.75,5.9140625,1.0
4509132,,,,,,,,-7.26953125,10.2578125,4.01953125,-0.478515625,0.36328125,1.044921875,-4.14453125,1.9375,5.98828125,1.0
4509133,,,,,,,,-6.77734375,11.73828125,1.984375,-0.50390625,0.392578125,2.3125,-3.80078125,3.35546875,3.921875,1.0
4509134,,,,,,,,-4.93359375,13.47265625,-0.8125,-0.54296875,0.140625,3.04296875,-2.19140625,5.0,1.0859375,1.0
4509135,,,,,,,,-3.359375,13.6328125,-2.51953125,-0.572265625,-0.541015625,2.349609375,-0.8515625,5.08203125,-0.67578125,1.0
4509136,,,,,,,,-3.04296875,13.12109375,-2.55859375,-0.57421875,-0.990234375,1.61328125,-0.62109375,4.5390625,-0.75390625,1.0
4509137,,,,,,,,-3.37109375,10.73828125,-0.41796875,-0.4375,-1.650390625,0.51953125,-1.00390625,2.125,1.31640625,1.0
4509138,,,,,,,,-3.0703125,5.53515625,1.95703125,-0.21875,-1.728515625,0.130859375,-0.6953125,-3.08203125,3.61328125,1.0
4509139,,,,,,,,-3.46875,-4.5390625,4.96484375,-0.1171875,-1.32421875,0.248046875,-1.078125,-13.16015625,6.56640625,1.0
4509140,36.01300033333334,129.3200163333333,127.68087382072946,66.61345595375931,3.5,227.0,,-6.12890625,-45.40625,22.234375,-0.087890625,-0.548828125,0.6171875,-3.76171875,-54.03515625,23.8046875,1.0
4509141,,,,,,,,-8.33203125,-54.26171875,12.04296875,-0.052734375,0.943359375,0.68359375,-6.05859375,-62.91796875,13.61328125,1.0
4509142,,,,,,,,-5.61328125,-30.88671875,10.734375,-0.013671875,1.3828125,0.453125,-3.37890625,-39.55078125,12.3125,1.0
4509143,,,,,,,,2.35546875,-2.32421875,3.109375,0.087890625,2.2109375,0.107421875,4.51171875,-11.01171875,4.765625,1.0
4509144,,,,,,,,1.94921875,-0.4921875,-1.63671875,0.08203125,2.189453125,-0.509765625,4.08984375,-9.17578125,0.05078125,1.0
4509145,,,,,,,,11.51953125,-10.70703125,4.1484375,0.044921875,1.416015625,-1.73828125,13.74609375,-19.359375,5.875,1.0
4509146,,,,,,,,8.5703125,-17.76171875,6.01953125,-0.146484375,-3.21484375,1.63671875,10.796875,-26.44921875,7.71484375,1.0
4509147,,,,,,,,5.3984375,-17.9765625,4.82421875,0.48828125,-4.0859375,1.708984375,7.578125,-26.68359375,6.48828125,1.0
4509148,,,,,,,,0.09765625,-10.60546875,2.48046875,0.59765625,-0.9609375,1.697265625,2.13671875,-19.36328125,4.15234375,1.0
4509149,,,,,,,,-1.66015625,-6.87109375,-0.5703125,0.55078125,1.2421875,2.037109375,0.30078125,-15.64453125,1.125,1.0
4509150,36.012999,129.320014,127.47052856593916,66.46550724275399,3.3000000000000003,228.0,,-3.26953125,-3.0546875,-2.15234375,0.861328125,2.25,2.7578125,-1.69140625,-11.89453125,-0.29296875,1.0
4509151,,,,,,,,-4.69921875,-2.01171875,-1.9609375,1.17578125,0.603515625,3.439453125,-3.41796875,-10.890625,0.015625,1.0
4509152,,,,,,,,-4.95703125,-1.421875,-1.94921875,1.353515625,-0.015625,3.662109375,-3.83984375,-10.32421875,0.08984375,1.0
4509153,,,,,,,,-5.3125,1.58203125,-0.63671875,1.736328125,0.076171875,4.078125,-4.71875,-7.328125,1.62109375,1.0
4509154,,,,,,,,-4.42578125,4.58984375,-1.5859375,1.650390625,0.76171875,3.71875,-4.18359375,-4.3046875,0.8203125,1.0
4509155,,,,,,,,-4.0234375,6.078125,-2.52734375,1.357421875,1.509765625,2.677734375,-4.26171875,-2.7734375,0.08984375,1.0
4509156,,,,,,,,-3.80859375,7.640625,-3.34765625,1.259765625,1.625,2.41015625,-4.18359375,-1.203125,-0.67578125,1.0
4509157,,,,,,,,-3.83203125,9.78515625,-2.63671875,1.0859375,1.439453125,2.09375,-4.4453125,0.98046875,0.12890625,1.0
4509158,,,,,,,,-3.9609375,12.16015625,-1.23046875,0.94140625,1.037109375,2.087890625,-4.796875,3.39453125,1.62109375,1.0
4509159,,,,,,,,-3.66015625,12.79296875,-1.57421875,0.865234375,0.88671875,2.134765625,-4.6015625,4.04296875,1.31640625,1.0
4509160,36.012997166666665,129.32001116666666,127.21510965927312,66.26207826495474,3.7,228.0,,-3.74609375,11.14453125,-3.24609375,0.703125,0.75,2.185546875,-4.90625,2.43359375,-0.29296875,1.0
4509161,,,,,,,,-4.41015625,8.5703125,-3.21484375,0.59765625,0.8125,2.091796875,-5.79296875,-0.09375,-0.21484375,1.0
4509162,,,,,,,,-4.421875,6.5,-2.59765625,0.50390625,0.736328125,1.490234375,-5.984375,-2.125,0.43359375,1.0
4509163,,,,,,,,-4.11328125,5.828125,-2.45703125,0.443359375,0.609375,1.044921875,-5.75,-2.7734375,0.58984375,1.0
4509164,,,,,,,,-1.14453125,4.921875,-2.98046875,0.287109375,0.275390625,-0.029296875,-2.87890625,-3.65625,0.12890625,1.0
4509165,,,,,,,,2.42578125,6.67578125,-2.68359375,0.11328125,0.458984375,-0.25,0.68359375,-1.890625,0.43359375,1.0
4509166,,,,,,,,4.4921875,8.5703125,-2.75,0.078125,0.6015625,-0.984375,2.7890625,-0.015625,0.359375,1.0
4509167,,,,,,,,6.359375,10.84375,-1.44921875,0.173828125,0.451171875,-1.412109375,4.74609375,2.2421875,1.66015625,1.0
4509168,,,,,,,,5.9296875,11.4296875,-0.57421875,0.23046875,0.328125,-1.5703125,4.359375,2.8203125,2.54296875,1.0
4509169,,,,,,,,3.22265625,11.6640625,-0.0234375,0.35546875,-0.0234375,-1.7109375,1.79296875,3.046875,3.12109375,1.0
4509170,36.012995333333336,129.32000833333333,126.95969074370363,66.05864929373817,3.6,230.0,,-1.171875,11.0234375,-0.921875,0.703125,0.75,2.185546875,-2.3828125,2.40234375,2.2734375,1.0
4509171,,,,,,,,-2.390625,9.89453125,-1.86328125,0.3203125,-1.328125,0.3203125,-3.4921875,1.28515625,1.39453125,1.0
4509172,,,,,,,,-4.14453125,5.7734375,0.88671875,0.21875,-1.556640625,0.806640625,-5.25,-2.8125,4.19140625,1.0
4509173,,,,,,,,-4.21484375,3.84375,0.79296875,0.185546875,-1.537109375,0.76953125,-5.328125,-4.7265625,4.11328125,1.0
4509174,,,,,,,,-2.90625,-5.21484375,-0.1953125,0.296875,-0.9453125,-0.10546875,-2.34375,-20.8515625,4.6875,1.0
4509175,,,,,,,,0.55078125,-22.58203125,3.91015625,0.328125,-0.279296875,-0.64453125,10.296875,-56.71484375,13.26953125,1.0
4509176,,,,,,,,22.9296875,-60.96484375,17.8984375,0.33984375,0.3671875,-1.2578125,28.03515625,-67.36328125,25.7578125,1.0
4509177,,,,,,,,22.61328125,-34.2578125,17.33203125,0.466796875,0.857421875,-1.708984375,9.30078125,-23.0390625,6.52734375,1.0
4509178,,,,,,,,10.18359375,-14.4921875,3.06640625,0.515625,0.96875,-1.578125,6.3515625,-20.125,5.98828125,1.0
4509179,,,,,,,,-2.90234375,-7.98046875,1.1484375,0.587890625,0.953125,-1.6484375,-6.2890625,-18.98046875,3.65234375,1.0
4509180,36.01299383333333,129.32000566666665,126.71929609539791,65.89220695995444,3.4000000000000004,230.0,,-1.171875,11.0234375,-0.921875,0.703125,0.75,2.185546875,-8.3203125,-20.55078125,2.04296875,1.0
4509181,,,,,,,,-4.02734375,-12.66796875,-1.609375,-0.392578125,-2.173828125,-1.154296875,-4.56640625,-21.23828125,1.9296875,1.0
4509182,,,,,,,,-1.28515625,-13.3515625,-1.6796875,-0.302734375,-3.7265625,-0.421875,-1.73046875,-21.93359375,1.8515625,1.0
4509183,,,,,,,,2.03515625,-10.484375,-0.375,0.00390625,-4.1953125,-0.38671875,1.75390625,-19.09375,3.15625,1.0
4509184,,,,,,,,4.60546875,-8.29296875,-1.6796875,-0.48046875,-1.419921875,-2.53515625,4.51171875,-16.90625,1.8515625,1.0
4509185,,,,,,,,5.171875,-8.12890625,-1.29296875,-1.154296875,0.703125,-3.25390625,5.46875,-16.79296875,2.16015625,1.0
4509186,,,,,,,,4.0625,-6.8046875,-0.75,-1.2890625,0.892578125,-3.015625,4.4765625,-15.4921875,2.65625,1.0
4509187,,,,,,,,2.79296875,-2.7421875,-0.9921875,-1.166015625,0.431640625,-2.751953125,3.44140625,-11.46875,2.3125,1.0
4509188,,,,,,,,2.55078125,0.30859375,-2.65625,-1.630859375,0.109375,-2.6640625,3.70703125,-8.4765625,0.3984375,1.0
4509189,,,,,,,,2.796875,3.76953125,-4.46484375,-1.65234375,0.16796875,-2.37109375,4.0546875,-5.03515625,-1.48046875,1.0
4509190,36.01299233333334,129.32000299999999,126.47890143969492,65.72576463355753,3.4000000000000004,232.0,,2.4765625,6.34375,-4.12890625,-1.603515625,0.009765625,-1.986328125,4.015625,-2.5078125,-1.36328125,1.0
4509191,,,,,,,,1.9140625,9.921875,-2.08203125,-1.4453125,-0.18359375,-2.033203125,3.6328125,1.0546875,0.55078125,1.0
4509192,,,,,,,,1.66015625,10.69140625,-1.5234375,-1.353515625,-0.208984375,-2.08984375,3.48046875,1.82421875,1.046875,1.0
4509193,,,,,,,,1.00390625,11.76171875,-0.9140625,-1.189453125,-0.0078125,-2.1796875,3.015625,2.89453125,1.546875,1.0
4509194,,,,,,,,0.546875,11.83203125,-2.23046875,-1.056640625,0.392578125,-2.060546875,2.75,2.97265625,0.12890625,1.0
4509195,,,,,,,,0.1875,11.41015625,-4.203125,-0.693359375,0.33203125,-1.44921875,2.7109375,2.58984375,-1.9765625,1.0
4509196,,,,,,,,0.70703125,10.94140625,-4.13671875,-0.630859375,0.091796875,-1.232421875,3.28125,2.12890625,-1.94140625,1.0
4509197,,,,,,,,2.7890625,7.66796875,-4.84765625,-0.5859375,-0.318359375,-0.921875,5.47265625,-1.12890625,-2.70703125,1.0
4509198,,,,,,,,3.1328125,6.47265625,-5.00390625,-0.5625,-0.36328125,-0.791015625,5.89453125,-2.31640625,-2.93359375,1.0
4509199,,,,,,,,2.8203125,5.85546875,-4.8984375,-0.537109375,-0.283203125,-0.78125,5.625,-2.92578125,-2.859375,1.0
4509200,36.01299066666666,129.3200001666667,126.22348222789192,65.54082888951572,3.5,232.0,0.0,0.59765625,5.1171875,-3.328125,-1.603515625,0.009765625,-1.986328125,3.48046875,-3.66015625,-1.328125,1.0
4509201,,,,,,,,-1.4296875,5.546875,-1.7109375,-0.25,0.38671875,-0.841796875,1.5625,-3.19921875,0.2421875,1.0
4509202,,,,,,,,-5.359375,8.05078125,3.5390625,-0.28515625,0.732421875,-0.392578125,-2.3046875,-0.66796875,5.4921875,1.0
4509203,,,,,,,,-7.7109375,10.94140625,4.8203125,-0.419921875,0.96484375,0.572265625,-4.6796875,2.20703125,6.76171875,1.0
4509204,,,,,,,,-6.76171875,12.05078125,1.9609375,-0.611328125,0.86328125,1.6640625,-3.83984375,3.27734375,3.88671875,1.0
4509205,,,,,,,,-4.11328125,13.4921875,-2.44140625,-0.654296875,0.400390625,2.408203125,-1.38671875,4.66015625,-0.55859375,1.0
4509206,,,,,,,,-3.4296875,13.1484375,-2.91015625,-0.609375,0.029296875,2.533203125,-0.8125,4.27734375,-1.05859375,1.0
4509207,,,,,,,,-1.2890625,10.25390625,-2.45703125,-0.5546875,-1.181640625,1.71484375,1.140625,1.3203125,-0.67578125,1.0
4509208,,,,,,,,-0.57421875,7.4140625,-1.91015625,-0.453125,-2.123046875,0.68359375,1.79296875,-1.546875,-0.21484375,1.0
4509209,,,,,,,,-0.95703125,-5.60546875,4.2265625,-0.177734375,-2.236328125,0.162109375,1.41015625,-14.57421875,5.8359375,1.0
4509210,36.01298833333333,129.31999733333333,125.9680640605788,65.28192032714347,3.5,228.0,,0.20703125,-28.51171875,13.125,-1.603515625,0.009765625,-1.986328125,3.48046875,-3.66015625,-1.328125,1.0
4509211,,,,,,,,-4.28125,-55.75,26.33203125,0.025390625,-0.87109375,0.185546875,-1.8828125,-64.71875,27.86328125,1.0
4509212,,,,,,,,-6.91796875,-56.4765625,17.03125,0.052734375,0.29296875,0.146484375,-4.52734375,-65.44921875,18.5546875,1.0
4509213,,,,,,,,2.3828125,-8.421875,-2.59765625,-0.017578125,3.20703125,-0.412109375,4.703125,-17.41015625,-0.98046875,1.0
4509214,,,,,,,,8.8125,-8.36328125,-5.92578125,0.369140625,2.365234375,0.03515625,11.140625,-17.33203125,-4.16015625,1.0
4509215,,,,,,,,8.00390625,-8.78125,4.8828125,0.18359375,-1.740234375,2.576171875,10.18359375,-17.79296875,6.6796875,1.0
4509216,,,,,,,,5.1328125,-9.7109375,6.5078125,0.0703125,-3.736328125,2.41015625,7.234375,-18.75,8.2890625,1.0
4509217,,,,,,,,2.68359375,-11.0859375,4.35546875,0.484375,-4.318359375,1.8515625,4.66796875,-20.1640625,6.06640625,1.0
4509218,,,,,,,,0.26953125,-8.93359375,0.984375,0.765625,-1.677734375,2.197265625,2.13671875,-18.0546875,2.6953125,1.0
4509219,,,,,,,,-0.73046875,-7.4609375,-0.2109375,0.841796875,0.0703125,2.904296875,1.02734375,-16.60546875,1.546875,1.0
4509220,36.012986500000004,129.31999499999998,125.75771953561357,65.07849203823123,3.3000000000000003,226.0,,-2.78515625,-3.31640625,-1.5859375,-1.603515625,0.009765625,-1.986328125,3.48046875,-3.66015625,-1.328125,1.0
4509221,,,,,,,,-5.3984375,1.05078125,-1.296875,0.888671875,1.341796875,3.125,-4.3359375,-8.171875,0.703125,1.0
4509222,,,,,,,,-6.22265625,1.96875,-1.2578125,0.931640625,0.787109375,3.021484375,-5.29296875,-7.26171875,0.78125,1.0
4509223,,,,,,,,-7.06640625,4.66796875,-1.3828125,1.52734375,-0.150390625,3.62109375,-6.4375,-4.57421875,0.78125,1.0
4509224,,,,,,,,-6.6015625,6.91796875,-2.3359375,1.736328125,-0.421875,3.984375,-6.328125,-2.31640625,-0.0234375,1.0
4509225,,,,,,,,-5.9375,8.91796875,-3.3828125,1.58984375,-0.1953125,3.41015625,-6.0234375,-0.28515625,-0.90625,1.0
4509226,,,,,,,,-5.56640625,9.74609375,-3.29296875,1.455078125,-0.04296875,3.068359375,-5.79296875,0.55859375,-0.75390625,1.0
4509227,,,,,,,,-3.87890625,12.9609375,-1.2890625,0.921875,0.37890625,2.40234375,-4.60546875,3.8515625,1.46875,1.0
4509228,,,,,,,,-2.67578125,12.984375,-2.15625,0.681640625,0.71484375,1.9609375,-3.72265625,3.93359375,0.703125,1.0
4509229,,,,,,,,-2.26171875,12.66015625,-2.9453125,0.560546875,0.845703125,1.8515625,-3.41796875,3.62109375,-0.0625,1.0
4509230,36.01298433333333,129.31999249999998,125.53235071401538,64.83807712433,3.4000000000000004,225.0,,-1.62109375,9.7890625,-4.203125,0.3671875,1.04296875,1.521484375,-2.95703125,0.7890625,-1.2890625,1.0
4509231,,,,,,,,-1.6640625,7.57421875,-3.875,0.30859375,0.921875,0.986328125,-3.15234375,-1.39453125,-0.9453125,1.0
4509232,,,,,,,,-1.6875,5.65625,-3.3828125,0.330078125,0.76171875,0.662109375,-3.2265625,-3.3125,-0.4453125,1.0
4509233,,,,,,,,-1.05859375,4.8671875,-3.1015625,0.435546875,0.4140625,0.177734375,-2.65234375,-4.078125,-0.140625,1.0
4509234,,,,,,,,-0.18359375,6.60546875,-1.19921875,0.541015625,0.392578125,0.091796875,-1.80859375,-2.31640625,1.81640625,1.0
4509235,,,,,,,,0.98828125,8.30859375,-0.78125,0.498046875,0.6171875,-0.197265625,-0.66015625,-0.58984375,2.27734375,1.0
4509236,,,,,,,,1.41015625,8.9140625,-1.02734375,0.404296875,0.705078125,-0.490234375,-0.23828125,0.0234375,2.04296875,1.0
4509237,,,,,,,,2.13671875,10.484375,-1.77734375,0.35546875,0.677734375,-1.181640625,0.56640625,1.59375,1.31640625,1.0
4509238,,,,,,,,1.890625,11.44921875,-1.9609375,0.419921875,0.24609375,-1.306640625,0.4140625,2.546875,1.1640625,1.0
4509239,,,,,,,,1.15234375,11.37109375,-2.3203125,0.439453125,-0.06640625,-1.279296875,-0.27734375,2.46875,0.8203125,1.0
4509240,36.01298233333333,129.31998933333335,125.24688234816468,64.61615456726359,3.5,227.0,,0.34765625,10.71484375,-2.828125,0.3671875,1.04296875,1.521484375,-2.95703125,0.7890625,-1.2890625,1.0
4509241,,,,,,,,-1.39453125,8.484375,-1.91796875,0.427734375,-1.146484375,-0.544921875,-2.609375,-0.3984375,1.31640625,1.0
4509242,,,,,,,,-2.390625,7.35546875,-0.67578125,0.396484375,-1.28125,-0.34375,-3.57421875,-1.51171875,2.58203125,1.0
4509243,,,,,,,,-4.63671875,1.2578125,0.42578125,0.30078125,-1.328125,-0.171875,-5.75390625,-7.60546875,3.73046875,1.0
4509244,,,,,,,,-4.58984375,-10.75390625,-1.99609375,0.201171875,-0.763671875,-0.17578125,-5.63671875,-19.58984375,1.35546875,1.0
4509245,,,,,,,,0.05078125,-26.77734375,-0.5625,0.2421875,-0.087890625,-0.33203125,-0.96484375,-35.6015625,2.8125,1.0
4509246,,,,,,,,9.45703125,-40.71875,6.35546875,0.255859375,0.244140625,-0.568359375,8.45703125,-49.546875,9.74609375,1.0
4509247,,,,,,,,30.11328125,-47.921875,25.375,0.30078125,0.8203125,-1.509765625,29.18359375,-56.75390625,28.78125,1.0
4509248,,,,,,,,9.234375,-15.93359375,2.16796875,0.6171875,1.341796875,-1.88671875,8.421875,-24.76171875,5.60546875,1.0
4509249,,,,,,,,-0.15625,-9.46875,2.53515625,0.681640625,0.951171875,-1.802734375,-0.8515625,-18.29296875,6.02734375,1.0
4509250,36.01298033333333,129.31998616666667,124.96141396345386,64.39423201898344,3.5,229.0,,-4.96484375,-9.875,-5.04296875,0.3671875,1.04296875,1.521484375,-2.95703125,0.7890625,-1.2890625,1.0
4509251,,,,,,,,1.60546875,-9.69140625,-2.7421875,-0.623046875,-3.380859375,-1.18359375,1.44921875,-18.55859375,0.7421875,1.0
4509252,,,,,,,,5.26171875,-8.31640625,0.875,-0.646484375,-4.095703125,-0.009765625,5.27734375,-17.21484375,4.3046875,1.0
4509253,,,,,,,,6.6484375,-8.6328125,1.7421875,-0.763671875,-3.01953125,-1.525390625,6.8515625,-17.5625,5.109375,1.0
4509254,,,,,,,,3.8828125,-8.453125,-0.36328125,-0.869140625,-0.85546875,-3.1875,4.359375,-17.40625,2.92578125,1.0
4509255,,,,,,,,2.4765625,-8.125,-2.0,-1.193359375,0.607421875,-3.13671875,3.25,-17.10546875,1.203125,1.0
4509256,,,,,,,,1.9609375,-7.3046875,-2.55859375,-1.26171875,0.83203125,-3.109375,2.8671875,-16.30078125,0.58984375,1.0
4509257,,,,,,,,2.015625,-2.68359375,-2.48828125,-1.44921875,0.666015625,-2.962890625,3.171875,-11.6953125,0.55078125,1.0
4509258,,,,,,,,1.90234375,1.40625,-1.90234375,-1.60546875,0.203125,-2.328125,3.40234375,-7.64453125,0.93359375,1.0
4509259,,,,,,,,1.3984375,3.98828125,-1.45703125,-1.619140625,0.1484375,-2.205078125,3.09375,-5.07421875,1.23828125,1.0
4509260,36.01297833333333,129.31998333333334,124.70599520075403,64.17230990670427,3.5,230.0,,0.5546875,8.52734375,-1.8046875,-1.541015625,0.27734375,-2.00390625,2.44921875,-0.55078125,0.7421875,1.0
4509261,,,,,,,,0.171875,11.24609375,-3.32421875,-1.224609375,0.4296875,-1.986328125,2.40625,2.16796875,-1.01953125,1.0
4509262,,,,,,,,0.10546875,12.2265625,-3.33984375,-1.048828125,0.212890625,-1.86328125,2.51953125,3.1640625,-1.13671875,1.0
4509263,,,,,,,,0.12109375,12.67578125,-3.91796875,-1.001953125,0.056640625,-1.751953125,2.59765625,3.62109375,-1.74609375,1.0
4509264,,,,,,,,0.53125,12.2421875,-4.73828125,-0.935546875,-0.267578125,-1.515625,3.171875,3.203125,-2.66796875,1.0
4509265,,,,,,,,2.46875,10.30078125,-5.1875,-0.79296875,-0.482421875,-1.421875,5.2421875,1.28515625,-3.203125,1.0
4509266,,,,,,,,4.265625,7.17578125,-5.109375,-0.55859375,-0.533203125,-1.599609375,7.1953125,-1.81640625,-3.203125,1.0
4509267,,,,,,,,4.046875,5.21484375,-4.42578125,-0.39453125,-0.5234375,-1.806640625,7.16015625,-3.73046875,-2.58984375,1.0
4509268,,,,,,,,3.5546875,4.73046875,-3.90625,-0.384765625,-0.455078125,-1.810546875,6.73828125,-4.19140625,-2.09375,1.0
4509269,,,,,,,,1.078125,4.5234375,-1.859375,-0.443359375,-0.14453125,-1.806640625,4.44140625,-4.34375,-0.1015625,1.0
4509270,36.012976333333334,129.31998016666665,124.42052678824876,63.95038737706142,3.5,231.0,,-2.99609375,7.75390625,1.26171875,-0.484375,0.41796875,-1.103515625,0.56640625,-1.05078125,2.96484375,1.0
4509271,,,,,,,,-6.3125,10.703125,4.984375,-0.341796875,0.583984375,1.19140625,-2.765625,1.8984375,6.640625,1.0
4509272,,,,,,,,-6.74609375,11.9609375,4.41015625,-0.34375,0.494140625,1.69140625,-3.26171875,3.125,6.0625,1.0
4509273,,,,,,,,-5.5703125,13.515625,0.71875,-0.35546875,0.142578125,2.32421875,-2.265625,4.6171875,2.3515625,1.0
4509274,,,,,,,,-4.7578125,14.1484375,-0.9140625,-0.380859375,-0.126953125,2.42578125,-1.578125,5.1953125,0.703125,1.0
4509275,,,,,,,,-4.125,13.86328125,-1.515625,-0.404296875,-1.240234375,2.078125,-1.234375,4.8046875,0.015625,1.0
4509276,,,,,,,,-3.890625,9.23046875,-1.73046875,-0.408203125,-2.111328125,1.15234375,-1.1171875,0.13671875,-0.29296875,1.0
4509277,,,,,,,,-3.9765625,5.4453125,-0.49609375,-0.349609375,-2.361328125,0.869140625,-1.234375,-3.66015625,0.89453125,1.0
4509278,,,,,,,,-3.22265625,-19.546875,8.28515625,-0.134765625,-2.35546875,0.6796875,-0.50390625,-28.67578125,9.58984375,1.0
4509279,,,,,,,,-4.93359375,-31.640625,14.0625,-0.04296875,-2.142578125,0.69140625,-2.23046875,-40.77734375,15.3359375,1.0
4509280,36.01297366666667,129.31997733333336,124.16510904885925,63.65449245366239,3.7,227.0,,-10.66796875,-48.05859375,19.43359375,0.017578125,-1.3515625,0.78515625,-8.01171875,-57.20703125,20.66015625,1.0
4509281,,,,,,,,-2.43359375,-19.54296875,12.87109375,-0.06640625,0.015625,0.845703125,0.14453125,-28.703125,14.07421875,1.0
4509282,,,,,,,,3.03125,-7.1484375,-1.578125,-0.177734375,2.28125,0.16796875,5.546875,-16.3359375,-0.3671875,1.0
4509283,,,,,,,,8.03515625,-8.2734375,-4.46875,0.296875,4.513671875,-1.583984375,10.56640625,-17.4453125,-3.1640625,1.0
4509284,,,,,,,,10.58984375,-9.42578125,-0.54296875,0.771484375,3.615234375,-1.154296875,13.20703125,-18.5546875,0.93359375,1.0
4509285,,,,,,,,4.41015625,-12.87109375,3.890625,0.29296875,-1.193359375,1.056640625,7.00390625,-22.00390625,5.453125,1.0
4509286,,,,,,,,1.4921875,-12.85546875,4.86328125,0.1953125,-3.201171875,1.087890625,4.0546875,-22.00390625,6.41015625,1.0
4509287,,,,,,,,0.92578125,-10.94921875,3.43359375,0.31640625,-3.37890625,1.3125,3.44140625,-20.12890625,4.91796875,1.0
4509288,,,,,,,,-0.87890625,-6.703125,-0.0703125,0.6171875,0.88671875,3.275390625,1.37109375,-15.95703125,1.4296875,1.0
4509289,,,,,,,,-1.0234375,-4.48046875,-0.98828125,0.888671875,1.876953125,4.03515625,0.8359375,-13.80859375,0.62890625,1.0
4509290,36.012971666666665,129.31997483333333,123.93973988479507,63.43257078877939,3.4000000000000004,226.0,,-2.9140625,-0.484375,-0.80859375,1.052734375,0.71484375,3.4921875,-1.6171875,-9.8984375,0.97265625,1.0
4509291,,,,,,,,-5.6171875,2.296875,-1.85546875,1.51171875,0.08984375,3.416015625,-4.640625,-7.14453125,0.05078125,1.0
4509292,,,,,,,,-5.9453125,3.109375,-2.46875,1.6484375,0.060546875,3.626953125,-5.140625,-6.33984375,-0.484375,1.0
4509293,,,,,,,,-6.2734375,5.24609375,-3.62890625,1.80859375,0.2890625,3.912109375,-5.828125,-4.19140625,-1.48046875,1.0
4509294,,,,,,,,-6.578125,7.4140625,-4.14453125,1.794921875,0.41015625,3.880859375,-6.33203125,-2.0078125,-1.90234375,1.0
4509295,,,,,,,,-6.7109375,11.7265625,-3.44921875,1.53125,0.42578125,3.859375,-7.01953125,2.359375,-0.98046875,1.0
4509296,,,,,,,,-5.75390625,12.7890625,-2.59375,1.2890625,0.404296875,3.86328125,-6.4375,3.46875,0.015625,1.0
4509297,,,,,,,,-5.453125,13.265625,-2.15234375,1.181640625,0.478515625,3.76953125,-6.33203125,3.96875,0.51171875,1.0
4509298,,,,,,,,-4.6796875,13.5390625,-1.6328125,1.005859375,0.80078125,3.365234375,-5.90625,4.3125,1.125,1.0
4509299,,,,,,,,-3.4453125,11.23828125,-2.66796875,0.9140625,1.001953125,3.07421875,-4.8359375,2.05078125,0.12890625,1.0
4509300,36.012969500000004,129.31997216666664,123.69934614828914,63.1921557114388,3.5,226.0,0.0,-2.62109375,5.5390625,-3.28125,0.443359375,1.421875,1.552734375,-4.5234375,-3.5390625,-0.40625,1.0
4509301,,,,,,,,-1.70703125,4.1953125,-3.03125,0.400390625,1.236328125,0.65234375,-3.76171875,-4.84375,-0.140625,1.0
4509302,,,,,,,,-0.49609375,4.21875,-3.23828125,0.41796875,0.798828125,0.021484375,-2.61328125,-4.8046875,-0.33203125,1.0
4509303,,,,,,,,0.05078125,4.59375,-3.3203125,0.458984375,0.6171875,-0.140625,-2.07421875,-4.421875,-0.40625,1.0
4509304,,,,,,,,2.5234375,6.83984375,-2.953125,0.4921875,0.384765625,-0.615234375,0.4140625,-2.15625,0.015625,1.0
4509305,,,,,,,,3.91796875,8.33203125,-2.2109375,0.328125,0.263671875,-1.05078125,1.87109375,-0.66796875,0.78125,1.0
4509306,,,,,,,,3.9609375,9.87890625,-2.16015625,0.236328125,0.02734375,-1.48046875,2.0234375,0.86328125,0.85546875,1.0
4509307,,,,,,,,3.40625,10.8828125,-2.2578125,0.306640625,-0.3125,-1.46875,1.6015625,1.86328125,0.78125,1.0
4509308,,,,,,,,2.80078125,11.3515625,-2.16796875,0.353515625,-0.5078125,-1.30859375,1.06640625,2.32421875,0.89453125,1.0
4509309,,,,,,,,-1.06640625,11.23046875,0.90234375,0.498046875,-1.201171875,-0.458984375,-2.65234375,2.20703125,4.03515625,1.0
4509310,36.012967499999995,129.31996916666668,123.42890250359147,62.97023342468821,3.5,228.0,,-4.91796875,10.25390625,2.10546875,0.509765625,-1.615234375,-0.04296875,-6.44140625,1.24609375,5.30078125,1.0
4509311,,,,,,,,-4.546875,7.54296875,2.265625,0.4375,-1.849609375,0.23046875,-6.0234375,-1.43359375,5.53125,1.0
4509312,,,,,,,,-2.8828125,3.6875,0.25,0.384765625,-1.9140625,0.462890625,-4.3359375,-5.265625,3.578125,1.0
4509313,,,,,,,,-2.31640625,0.9921875,-1.15234375,0.369140625,-1.896484375,0.36328125,-3.76171875,-7.94921875,2.19921875,1.0
4509314,,,,,,,,0.8671875,-17.00390625,2.046875,0.431640625,-1.1875,-0.876953125,-0.46875,-25.90625,5.4921875,1.0
4509315,,,,,,,,26.69921875,-37.23828125,24.890625,0.50390625,0.50390625,-1.7890625,25.62109375,-46.13671875,28.4375,1.0
4509316,,,,,,,,8.9609375,-10.72265625,2.40234375,0.529296875,0.85546875,-1.45703125,8.0,-19.625,5.98828125,1.0
4509317,,,,,,,,-3.8515625,-6.48046875,0.83203125,0.669921875,1.1953125,-1.4453125,-4.71875,-15.37890625,4.45703125,1.0
4509318,,,,,,,,-6.78125,-8.6328125,-1.87890625,0.53515625,1.404296875,-2.28125,-7.59375,-17.5234375,1.77734375,1.0
4509319,,,,,,,,-5.34375,-10.921875,-1.28125,-0.546875,-1.28515625,-2.40625,-5.828125,-19.86328125,2.3515625,1.0
4509320,36.012965666666666,129.31996633333335,123.17348340396317,62.76680456420575,3.4000000000000004,229.0,,0.79296875,-12.1640625,-1.94140625,-0.306640625,-4.197265625,-0.220703125,0.52734375,-21.125,1.66015625,1.0
4509321,,,,,,,,2.46875,-8.4296875,-1.203125,-0.248046875,-3.626953125,-0.69140625,2.3671875,-17.41015625,2.390625,1.0
4509322,,,,,,,,3.27734375,-8.078125,-1.2734375,-0.359375,-2.1328125,-1.818359375,3.28515625,-17.06640625,2.3125,1.0
4509323,,,,,,,,6.4296875,-8.20703125,-1.6015625,-0.8671875,0.607421875,-3.12109375,6.6953125,-17.2109375,1.9296875,1.0
4509324,,,,,,,,5.69140625,-6.0234375,-0.97265625,-1.26171875,0.978515625,-2.978515625,6.19921875,-15.0703125,2.46484375,1.0
4509325,,,,,,,,2.625,-1.9921875,-2.1875,-1.29296875,0.1171875,-3.6484375,3.671875,-11.08984375,1.046875,1.0
4509326,,,,,,,,2.171875,2.83984375,-4.7890625,-1.361328125,0.2421875,-3.431640625,3.5546875,-6.26171875,-1.671875,1.0
4509327,,,,,,,,2.15625,4.21875,-4.95703125,-1.39453125,0.359375,-2.876953125,3.671875,-4.88671875,-1.90234375,1.0
4509328,,,,,,,,2.12890625,7.98046875,-4.35546875,-1.376953125,0.349609375,-1.994140625,3.859375,-1.12890625,-1.44140625,1.0
4509329,,,,,,,,2.31640625,8.48046875,-3.84765625,-1.359375,0.251953125,-1.78515625,4.125,-0.62890625,-0.98046875,1.0
4509330,36.012963666666664,129.31996333333333,122.9030397253434,62.54488229402034,3.5,230.0,,2.16015625,10.640625,-2.46875,-0.306640625,-4.197265625,-0.220703125,4.12890625,1.515625,0.28125,1.0
4509331,,,,,,,,1.55859375,12.01171875,-2.05078125,-0.97265625,0.3125,-1.955078125,3.78515625,2.89453125,0.55078125,1.0
4509332,,,,,,,,1.15625,12.02734375,-2.48046875,-0.7890625,0.677734375,-1.904296875,3.55859375,2.93359375,0.05078125,1.0
4509333,,,,,,,,0.80078125,11.3046875,-3.56640625,-0.498046875,0.701171875,-1.53515625,3.40234375,2.2421875,-1.09765625,1.0
4509334,,,,,,,,1.49609375,10.5234375,-4.1640625,-0.4296875,0.513671875,-1.361328125,4.16796875,1.4765625,-1.7109375,1.0
4509335,,,,,,,,2.51171875,8.39453125,-5.43359375,-0.40234375,0.048828125,-0.943359375,5.2734375,-0.62890625,-3.01171875,1.0
4509336,,,,,,,,2.84765625,7.0078125,-5.35546875,-0.474609375,-0.244140625,-0.748046875,5.6953125,-2.0078125,-2.97265625,1.0
4509337,,,,,,,,1.890625,6.42578125,-4.66796875,-0.505859375,-0.291015625,-0.751953125,4.78515625,-2.58203125,-2.32421875,1.0
4509338,,,,,,,,-1.109375,6.5546875,-2.40625,-0.4296875,-0.208984375,-0.85546875,1.90625,-2.4296875,-0.140625,1.0
4509339,,,,,,,,-2.3359375,6.69921875,-1.15625,-0.3671875,-0.126953125,-0.748046875,0.71875,-2.2734375,1.0859375,1.0
4509340,36.012961499999996,129.31996033333334,122.63259629598,62.30446682538145,3.6,230.0,,-6.36328125,8.1796875,4.58203125,-0.306640625,-4.197265625,-0.220703125,4.12890625,1.515625,0.28125,1.0
4509341,,,,,,,,-6.92578125,9.98828125,3.95703125,-0.36328125,0.3515625,0.62890625,-3.83984375,1.01953125,6.140625,1.0
4509342,,,,,,,,-5.75,12.4765625,0.85546875,-0.5546875,0.369140625,1.453125,-2.765625,3.47265625,3.00390625,1.0
4509343,,,,,,,,-3.48046875,13.64453125,-1.4375,-0.673828125,0.078125,1.900390625,-0.66015625,4.578125,0.6640625,1.0
4509344,,,,,,,,-2.65625,13.078125,-1.98046875,-0.708984375,-0.67578125,1.234375,0.03125,3.97265625,0.05078125,1.0
4509345,,,,,,,,-2.234375,8.88671875,-1.02734375,-0.54296875,-1.83203125,-0.046875,0.4140625,-0.24609375,0.8515625,1.0
4509346,,,,,,,,-1.875,5.66796875,-0.82421875,-0.46484375,-1.986328125,-0.28125,0.796875,-3.4609375,1.01171875,1.0
4509347,,,,,,,,-2.2578125,-6.55859375,5.17578125,-0.333984375,-2.0078125,-0.38671875,0.4921875,-15.68359375,6.91015625,1.0
4509348,,,,,,,,-3.15625,-44.95703125,20.03125,-0.25390625,-1.51171875,-0.212890625,-0.3515625,-54.0625,21.6953125,1.0
4509349,,,,,,,,-7.9453125,-47.87109375,8.82421875,-0.21484375,-0.314453125,-0.24609375,-5.1015625,-56.9765625,10.43359375,1.0
4509350,36.012959,129.3199575,122.37717818675212,62.027065162927855,3.6,226.0,,-3.7109375,-16.19921875,10.6484375,-0.306640625,-4.197265625,-0.220703125,4.12890625,1.515625,0.28125,1.0
4509351,,,,,,,,5.30078125,-5.671875,-4.9296875,0.083984375,3.30859375,-0.818359375,8.15234375,-14.765625,-3.203125,1.0
4509352,,,,,,,,14.125,-9.609375,-0.09765625,0.248046875,1.978515625,-0.47265625,17.0,-18.671875,1.73828125,1.0
4509353,,,,,,,,8.08203125,-13.9921875,4.4140625,-0.36328125,-1.43359375,1.23828125,10.91015625,-23.078125,6.2578125,1.0
4509354,,,,,,,,3.41796875,-15.7890625,6.01953125,-0.048828125,-4.05078125,0.865234375,6.19921875,-24.9140625,7.75390625,1.0
4509355,,,,,,,,-0.19140625,-11.66796875,2.81640625,0.80859375,-2.41796875,1.3671875,2.55859375,-20.8125,4.49609375,1.0
4509356,,,,,,,,-2.6171875,-6.59375,-0.234375,0.6015625,1.39453125,2.80859375,-0.046875,-15.796875,1.5078125,1.0
4509357,,,,,,,,-3.75,-4.07421875,-0.65625,0.900390625,2.248046875,3.376953125,-1.5,-13.34375,1.203125,1.0
4509358,,,,,,,,-5.390625,-1.55859375,-0.57421875,0.826171875,0.712890625,3.33984375,-3.4921875,-10.89453125,1.39453125,1.0
4509359,,,,,,,,-7.0625,1.4375,-1.4140625,1.263671875,-0.6015625,3.537109375,-5.484375,-7.9453125,0.6640625,1.0
4509360,36.012957,129.31995483333333,122.1367841150847,61.80514333514024,3.5,226.0,,-7.45703125,3.30078125,-2.296875,1.529296875,-0.689453125,3.90625,-6.21484375,-6.10546875,-0.1015625,1.0
4509361,,,,,,,,-7.05859375,5.61328125,-2.015625,1.53515625,-0.201171875,3.8828125,-6.17578125,-3.80859375,0.3203125,1.0
4509362,,,,,,,,-6.4296875,7.375,-2.05078125,1.41796875,0.1640625,3.681640625,-5.91015625,-2.046875,0.43359375,1.0
4509363,,,,,,,,-5.98828125,8.25,-2.03515625,1.376953125,0.26171875,3.490234375,-5.63671875,-1.1640625,0.51171875,1.0
4509364,,,,,,,,-4.48828125,11.51953125,-1.125,1.263671875,0.47265625,2.97265625,-4.44921875,2.12890625,1.546875,1.0
4509365,,,,,,,,-3.1015625,13.7265625,-1.328125,0.953125,0.779296875,2.3125,-3.4921875,4.390625,1.5078125,1.0
4509366,,,,,,,,-2.27734375,13.12109375,-3.12109375,0.7421875,0.806640625,1.92578125,-2.87890625,3.8125,-0.21484375,1.0
4509367,,,,,,,,-1.8984375,10.26171875,-4.515625,0.626953125,0.771484375,1.591796875,-2.6875,0.98046875,-1.5546875,1.0
4509368,,,,,,,,-1.9296875,9.09765625,-4.47265625,0.6015625,0.681640625,1.3828125,-2.8046875,-0.16796875,-1.48046875,1.0
4509369,,,,,,,,-1.71875,7.37109375,-3.953125,0.55859375,0.40234375,0.9296875,-2.7265625,-1.85546875,-0.90625,1.0
4509370,36.012954666666666,129.31995233333333,121.91141536676076,61.54623530909356,3.6,225.0,,-1.6171875,6.796875,-3.59375,0.44921875,0.00390625,0.51171875,-2.7265625,-2.390625,-0.484375,1.0
4509371,,,,,,,,-0.94140625,6.54296875,-2.55859375,0.404296875,0.19140625,0.537109375,-2.11328125,-2.6171875,0.58984375,1.0
4509372,,,,,,,,-0.64453125,6.57421875,-2.19140625,0.345703125,0.388671875,0.5,-1.84765625,-2.58203125,0.97265625,1.0
4509373,,,,,,,,1.09765625,7.46875,-1.703125,0.173828125,0.802734375,0.16015625,-0.16015625,-1.66796875,1.46875,1.0
4509374,,,,,,,,2.125,9.33984375,-1.671875,0.166015625,0.96484375,-0.1796875,0.8359375,0.21484375,1.51171875,1.0
4509375,,,,,,,,2.4765625,10.36328125,-1.87109375,0.267578125,0.83203125,-0.330078125,1.1796875,1.24609375,1.31640625,1.0
4509376,,,,,,,,2.0,11.078125,-1.734375,0.390625,0.53125,-0.623046875,0.71875,1.9765625,1.46875,1.0
4509377,,,,,,,,0.5390625,11.4140625,-1.83984375,0.509765625,0.03125,-0.779296875,-0.6953125,2.3203125,1.39453125,1.0
4509378,,,,,,,,-0.91796875,10.25,-1.8203125,0.57421875,-0.525390625,-0.591796875,-2.0703125,1.171875,1.46875,1.0
4509379,,,,,,,,-1.3203125,9.57421875,-1.68359375,0.521484375,-0.978515625,-0.234375,-2.421875,0.51953125,1.66015625,1.0
4509380,36.01295266666667,129.319949,121.61092197479022,61.32431266326726,3.6,227.0,,-3.11328125,7.09375,0.67578125,0.44921875,0.00390625,0.51171875,-4.18359375,-1.9296875,4.07421875,1.0
4509381,,,,,,,,-3.17578125,3.0078125,0.8515625,0.4765625,-1.228515625,0.236328125,-4.22265625,-5.9921875,4.3046875,1.0
4509382,,,,,,,,-2.68359375,0.34765625,0.1015625,0.486328125,-1.0703125,0.224609375,-3.72265625,-8.63671875,3.578125,1.0
4509383,,,,,,,,0.44921875,-18.1328125,2.2421875,0.50390625,-0.4140625,0.095703125,-0.58203125,-27.0625,5.796875,1.0
4509384,,,,,,,,7.95703125,-43.57421875,7.8515625,0.48828125,-0.2109375,0.00390625,6.92578125,-52.4921875,11.4296875,1.0
4509385,,,,,,,,19.15625,-39.33984375,21.44921875,0.416015625,0.169921875,-0.623046875,18.1484375,-48.24609375,25.06640625,1.0
4509386,,,,,,,,4.66796875,-11.19140625,4.5703125,0.5546875,0.61328125,-1.376953125,3.78515625,-20.08984375,8.25,1.0
4509387,,,,,,,,0.5234375,-6.8984375,4.27734375,0.591796875,0.787109375,-1.24609375,-0.3125,-15.80078125,7.98046875,1.0
4509388,,,,,,,,-5.953125,-9.3125,-3.19140625,-0.07421875,1.544921875,-2.294921875,-6.6328125,-18.2109375,0.55078125,1.0
4509389,,,,,,,,-3.7578125,-11.04296875,-3.0546875,-0.552734375,-2.0234375,-1.650390625,-4.2578125,-19.96875,0.6640625,1.0
4509390,36.012951,129.3199465,121.38555217467865,61.13937747748897,3.3000000000000003,228.0,,1.40625,-11.01953125,-0.67578125,0.44921875,0.00390625,0.51171875,1.140625,-19.97265625,3.00390625,1.0
4509391,,,,,,,,4.14453125,-8.59375,-0.5390625,-0.412109375,-3.984375,-1.474609375,4.12890625,-17.5625,3.1171875,1.0
4509392,,,,,,,,7.34375,-7.94921875,-1.02734375,-0.751953125,-0.42578125,-2.88671875,7.6171875,-16.94921875,2.58203125,1.0
4509393,,,,,,,,6.41015625,-6.65234375,-1.08984375,-1.412109375,1.064453125,-2.6015625,6.92578125,-15.68359375,2.42578125,1.0
4509394,,,,,,,,3.45703125,-3.9609375,-0.94140625,-1.23046875,0.90234375,-2.619140625,4.16796875,-13.0390625,2.46484375,1.0
4509395,,,,,,,,1.75,-2.140625,-1.62890625,-1.357421875,0.357421875,-3.3125,2.7109375,-11.24609375,1.66015625,1.0
4509396,,,,,,,,1.3828125,-1.40234375,-2.25390625,-1.439453125,0.251953125,-3.37890625,2.484375,-10.5078125,0.97265625,1.0
4509397,,,,,,,,1.7734375,3.1484375,-4.359375,-1.490234375,0.298828125,-2.2578125,3.25,-5.99609375,-1.328125,1.0
4509398,,,,,,,,1.71484375,6.94921875,-4.1484375,-1.474609375,0.189453125,-1.72265625,3.36328125,-2.19921875,-1.25,1.0
4509399,,,,,,,,1.12890625,9.921875,-2.26171875,-1.37109375,0.015625,-1.697265625,2.9375,0.75,0.51171875,1.0
4509400,36.012949000000006,129.31994316666666,121.08505875707516,60.917454849259045,3.6,232.0,0.0,0.7734375,11.00390625,-1.453125,-1.224609375,0.0859375,-1.8671875,2.75,1.82421875,1.203125,1.0
4509401,,,,,,,,-0.27734375,12.3359375,-2.51171875,-0.986328125,0.396484375,-1.94140625,1.87109375,3.16796875,0.05078125,1.0
4509402,,,,,,,,-0.6640625,12.86328125,-3.3515625,-0.89453125,0.572265625,-1.880859375,1.5625,3.6953125,-0.828125,1.0
4509403,,,,,,,,-0.921875,12.75390625,-3.90234375,-0.740234375,0.7890625,-1.509765625,1.5234375,3.62109375,-1.48046875,1.0
4509404,,,,,,,,-0.109375,11.4765625,-4.734375,-0.693359375,0.46484375,-1.263671875,2.44921875,2.359375,-2.359375,1.0
4509405,,,,,,,,1.89453125,7.62890625,-4.58203125,-0.666015625,-0.125,-0.94921875,4.58984375,-1.47265625,-2.28515625,1.0
4509406,,,,,,,,3.11328125,5.1328125,-4.3046875,-0.6875,-0.212890625,-0.841796875,5.8515625,-3.9609375,-2.0546875,1.0
4509407,,,,,,,,3.37890625,3.77734375,-4.203125,-0.669921875,-0.2421875,-0.634765625,6.19921875,-5.30078125,-2.015625,1.0
4509408,,,,,,,,2.01171875,3.73828125,-3.40625,-0.53515625,0.17578125,-0.59765625,3.82421875,-4.609375,-0.5234375,1.0
4509409,,,,,,,,0.91796875,4.46484375,-2.6171875,-0.48046875,0.39453125,-0.611328125,1.02734375,-2.51171875,2.08203125,1.0
4509410,36.01294683333333,129.31994,120.79959040413381,60.677039230511916,3.6,231.0,,-4.65234375,8.39453125,5.54296875,-0.47265625,0.7734375,-0.509765625,-1.69140625,-0.66796875,7.59765625,1.0
4509411,,,,,,,,-5.58203125,12.33984375,2.16015625,-0.783203125,0.87109375,0.375,-2.61328125,3.27734375,4.1484375,1.0
4509412,,,,,,,,-4.890625,14.37890625,-1.11328125,-0.845703125,0.740234375,0.873046875,-1.9609375,5.30859375,0.85546875,1.0
4509413,,,,,,,,-4.17578125,15.93359375,-3.1796875,-0.83984375,0.12890625,1.87890625,-1.38671875,6.80078125,-1.2890625,1.0
4509414,,,,,,,,-2.640625,15.59765625,-3.55859375,-0.82421875,-1.1953125,1.744140625,-0.0078125,6.4140625,-1.74609375,1.0
4509415,,,,,,,,-1.51953125,12.91796875,-2.41015625,-0.703125,-2.662109375,0.873046875,1.48828125,1.9375,-0.21484375,1.0
4509416,,,,,,,,-1.05078125,11.1640625,-1.83984375,-0.58984375,-3.0859375,0.658203125,1.75,-0.20703125,0.20703125,1.0
4509417,,,,,,,,-1.42578125,-7.8984375,8.40625,-0.31640625,-3.193359375,0.6015625,1.10546875,-17.14453125,9.8984375,1.0
4509418,,,,,,,,-2.984375,-35.890625,21.09375,-0.095703125,-1.845703125,0.39453125,-0.46875,-45.140625,22.4609375,1.0
4509419,,,,,,,,-3.01953125,-49.68359375,23.1875,-0.033203125,-1.041015625,0.09375,-0.50390625,-58.93359375,24.53125,1.0
4509420,36.01294433333333,129.31993716666665,120.54417218771165,60.39963762048358,3.7,227.0,,-8.5546875,-29.45703125,13.3046875,-0.47265625,0.7734375,-0.509765625,-1.69140625,-0.66796875,7.59765625,1.0
4509421,,,,,,,,2.08984375,-5.23828125,-0.94140625,0.095703125,3.67578125,-0.87890625,4.66796875,-14.453125,0.51171875,1.0
4509422,,,,,,,,3.8203125,-3.15625,-5.1484375,0.08984375,4.203125,-1.435546875,6.4296875,-12.35546875,-3.625,1.0
4509423,,,,,,,,6.62890625,-7.046875,-6.63671875,0.22265625,3.1640625,-0.93359375,9.30078125,-16.22265625,-5.00390625,1.0
4509424,,,,,,,,10.00390625,-8.99609375,-0.67578125,-0.0234375,-0.40234375,2.0390625,12.59765625,-18.171875,1.01171875,1.0
4509425,,,,,,,,3.04296875,-12.9453125,5.1640625,1.02734375,-3.82421875,2.447265625,5.35546875,-22.234375,6.71875,1.0
4509426,,,,,,,,-0.46484375,-10.5859375,2.3828125,1.205078125,-2.296875,2.541015625,1.75390625,-19.90234375,3.9609375,1.0
4509427,,,,,,,,-2.26953125,-7.47265625,-0.1640625,0.96875,1.369140625,2.69140625,-0.27734375,-16.83203125,1.5078125,1.0
4509428,,,,,,,,-4.13671875,-3.14453125,-1.59765625,1.05078125,2.767578125,3.013671875,-2.45703125,-12.54296875,0.20703125,1.0
4509429,,,,,,,,-5.8125,-1.2421875,-1.5546875,0.978515625,2.314453125,3.01171875,-4.296875,-10.6640625,0.3203125,1.0
4509430,36.01294266666666,129.3199345,120.30377751791266,60.21470225683894,3.4000000000000004,227.0,,-7.35546875,0.7265625,-2.25390625,-0.47265625,0.7734375,-0.509765625,-1.69140625,-0.66796875,7.59765625,1.0
4509431,,,,,,,,-7.73046875,3.30859375,-3.63671875,1.68359375,-0.384765625,4.13671875,-6.90234375,-6.14453125,-1.48046875,1.0
4509432,,,,,,,,-6.87109375,5.4921875,-2.18359375,1.681640625,-0.37890625,4.220703125,-6.4375,-3.9609375,0.12890625,1.0
4509433,,,,,,,,-4.62890625,8.9921875,-1.4765625,1.365234375,0.41015625,3.44921875,-4.94921875,-0.3984375,1.125,1.0
4509434,,,,,,,,-3.04296875,12.3671875,-1.87109375,1.111328125,1.125,2.447265625,-3.80078125,3.046875,0.89453125,1.0
4509435,,,,,,,,-2.1015625,13.5078125,-2.64453125,0.978515625,1.244140625,1.873046875,-3.109375,4.23828125,0.20703125,1.0
4509436,,,,,,,,-1.81640625,13.03515625,-4.02734375,0.904296875,1.162109375,1.611328125,-2.91796875,3.77734375,-1.13671875,1.0
4509437,,,,,,,,-1.53125,10.53515625,-4.625,0.779296875,0.876953125,1.25,-2.80859375,1.32421875,-1.671875,1.0
4509438,,,,,,,,-1.94140625,7.77734375,-4.3046875,0.689453125,0.5234375,0.9921875,-3.3359375,-1.39453125,-1.2890625,1.0
4509439,,,,,,,,-1.9609375,5.70703125,-3.01953125,0.630859375,0.18359375,0.765625,-3.453125,-3.42578125,0.05078125,1.0
4509440,36.01294033333333,129.31993133333333,120.01830937336467,59.95579345787994,3.7,227.0,,-1.47265625,5.37109375,-2.26953125,-0.47265625,0.7734375,-0.509765625,-3.03515625,-3.7265625,0.85546875,1.0
4509441,,,,,,,,-0.6875,5.796875,-1.77734375,0.5,0.138671875,0.5703125,-2.3046875,-3.2734375,1.39453125,1.0
4509442,,,,,,,,1.21875,7.19140625,-1.16015625,0.416015625,0.529296875,0.451171875,-0.46875,-1.85546875,2.04296875,1.0
4509443,,,,,,,,2.15625,8.47265625,-1.48046875,0.265625,0.73828125,0.142578125,0.4140625,-0.55078125,1.734375,1.0
4509444,,,,,,,,2.70703125,9.99609375,-2.0625,0.251953125,0.583984375,-0.087890625,0.94921875,0.98046875,1.1640625,1.0
4509445,,,,,,,,2.5546875,12.26953125,-2.5625,0.439453125,0.0,-0.37109375,0.796875,3.27734375,0.703125,1.0
4509446,,,,,,,,1.359375,12.5625,-1.84375,0.52734375,-0.646484375,-0.525390625,-0.3515625,3.58984375,1.46875,1.0
4509447,,,,,,,,-0.90234375,11.65625,-0.71875,0.509765625,-1.22265625,-0.537109375,-2.53515625,2.70703125,2.65625,1.0
4509448,,,,,,,,-2.14453125,9.9921875,0.140625,0.396484375,-1.580078125,-0.345703125,-3.68359375,1.0546875,3.578125,1.0
4509449,,,,,,,,-2.1328125,5.18359375,-0.0703125,0.314453125,-1.681640625,-0.03515625,-3.609375,-3.7265625,3.421875,1.0
4509450,36.01293833333333,129.31992816666667,119.73284070716524,59.73387108087613,3.6,229.0,,-0.8828125,-0.80859375,-1.2578125,0.265625,-1.48828125,0.0625,-3.03515625,-3.7265625,0.85546875,1.0
4509451,,,,,,,,2.33203125,-22.125,4.44921875,0.25,-0.591796875,-0.404296875,4.66796875,-43.30859375,12.1953125,1.0
4509452,,,,,,,,6.01953125,-34.4375,8.609375,0.2265625,-0.201171875,-0.669921875,11.21484375,-57.625,20.43359375,1.0
4509453,,,,,,,,13.1171875,-26.65234375,14.71484375,0.248046875,0.55859375,-1.265625,11.828125,-35.5234375,18.32421875,1.0
4509454,,,,,,,,-0.25390625,-5.921875,3.484375,0.5234375,1.2109375,-1.07421875,-1.38671875,-14.80859375,7.140625,1.0
4509455,,,,,,,,-3.265625,-10.5234375,-1.453125,0.279296875,1.45703125,-1.482421875,-4.3359375,-19.40234375,2.234375,1.0
4509456,,,,,,,,-3.16796875,-11.16796875,-1.48828125,-0.087890625,1.32421875,-1.94140625,-4.18359375,-20.046875,2.19921875,1.0
4509457,,,,,,,,-0.11328125,-13.89453125,-0.234375,-0.595703125,-2.263671875,-1.66015625,-0.96484375,-22.8046875,3.421875,1.0
4509458,,,,,,,,2.640625,-12.29296875,0.65625,-0.109375,-4.52734375,-0.853515625,2.0234375,-21.234375,4.3046875,1.0
4509459,,,,,,,,3.65625,-11.02734375,1.0234375,-0.046875,-4.302734375,-1.13671875,3.171875,-19.97265625,4.6875,1.0
4509460,36.01293666666666,129.31992533333332,119.47742117143923,59.548935535726805,3.5,229.0,,6.0859375,-9.234375,-0.41796875,-0.470703125,-1.357421875,-2.49609375,5.890625,-18.2109375,3.23046875,1.0
4509461,,,,,,,,4.03515625,-7.3046875,-1.3046875,-1.171875,0.654296875,-2.95703125,4.20703125,-16.3359375,2.234375,1.0
4509462,,,,,,,,3.296875,-6.24609375,-1.29296875,-1.1484375,0.474609375,-2.8828125,3.59375,-15.30078125,2.19921875,1.0
4509463,,,,,,,,1.890625,-2.8359375,-1.64453125,-1.26953125,0.046875,-3.072265625,2.4453125,-11.93359375,1.73828125,1.0
4509464,,,,,,,,1.67578125,-0.59765625,-2.29296875,-1.3515625,-0.0390625,-3.072265625,2.51953125,-9.703125,0.97265625,1.0
4509465,,,,,,,,1.87890625,1.38671875,-3.30859375,-1.462890625,0.017578125,-2.69140625,2.98046875,-7.75390625,-0.17578125,1.0
4509466,,,,,,,,2.48046875,2.93359375,-4.28125,-1.49609375,0.037109375,-2.498046875,3.70703125,-6.22265625,-1.2109375,1.0
4509467,,,,,,,,2.3125,8.2890625,-2.5078125,-1.4765625,0.052734375,-2.333984375,3.9765625,-0.8984375,0.28125,1.0
4509468,,,,,,,,2.37109375,9.6015625,-1.73046875,-1.375,0.1484375,-2.345703125,4.2421875,0.40625,0.93359375,1.0
4509469,,,,,,,,2.0625,10.93359375,-2.16796875,-1.294921875,0.2578125,-2.333984375,4.0546875,1.74609375,0.43359375,1.0
4509470,36.012935,129.3199221666667,119.19195197953286,59.36399959088473,3.6,232.0,,1.0703125,12.10546875,-3.17578125,-1.1015625,0.52734375,-2.125,3.25390625,2.93359375,-0.67578125,1.0
4509471,,,,,,,,0.23828125,12.38671875,-3.7109375,-0.919921875,0.64453125,-1.833984375,2.59765625,3.23828125,-1.2890625,1.0
4509472,,,,,,,,0.4375,12.2265625,-4.1015625,-0.8515625,0.599609375,-1.6796875,2.8671875,3.08984375,-1.7109375,1.0
4509473,,,,,,,,1.51171875,11.20703125,-4.75,-0.6796875,0.2578125,-1.373046875,4.08984375,2.08984375,-2.4375,1.0
4509474,,,,,,,,2.04296875,10.5859375,-5.03125,-0.587890625,0.060546875,-1.216796875,4.6640625,1.4765625,-2.7421875,1.0
4509475,,,,,,,,3.609375,6.84765625,-5.95703125,-0.474609375,-0.25390625,-0.974609375,6.390625,-2.23828125,-3.73828125,1.0
4509476,,,,,,,,1.2890625,5.53515625,-3.8203125,-0.48828125,-0.0234375,-1.169921875,4.28125,-3.50390625,-1.7109375,1.0
4509477,,,,,,,,0.203125,5.7421875,-3.21484375,-0.431640625,0.126953125,-1.228515625,3.25,-3.27734375,-1.13671875,1.0
4509478,,,,,,,,-4.53515625,7.51953125,2.40234375,-0.384765625,0.5,-1.06640625,-1.38671875,-1.47265625,4.453125,1.0
4509479,,,,,,,,-6.25,8.4609375,5.58984375,-0.423828125,0.671875,-0.728515625,-3.0703125,-0.515625,7.63671875,1.0
4509480,36.01293283333334,129.31991916666666,118.92150834787157,59.12358423816821,3.6,230.0,,-7.75390625,10.76953125,4.6640625,-1.1015625,0.52734375,-2.125,-4.60546875,1.78515625,6.6796875,1.0
4509481,,,,,,,,-5.92578125,12.921875,0.03125,-0.67578125,0.646484375,1.908203125,-2.91796875,3.89453125,2.0078125,1.0
4509482,,,,,,,,-3.546875,14.1875,-2.86328125,-0.755859375,-0.302734375,2.44921875,-0.8515625,5.0390625,-0.98046875,1.0
4509483,,,,,,,,-2.9140625,14.01953125,-3.28515625,-0.759765625,-0.890625,1.998046875,-0.3125,4.84375,-1.44140625,1.0
4509484,,,,,,,,-1.59765625,11.5703125,-2.6796875,-0.703125,-2.0234375,0.69921875,0.91015625,2.36328125,-0.9453125,1.0
4509485,,,,,,,,-1.52734375,6.98828125,-0.76171875,-0.455078125,-2.390625,0.03125,0.98828125,-2.23828125,0.85546875,1.0
4509486,,,,,,,,-2.83203125,-8.50390625,6.57421875,-0.232421875,-2.134765625,-0.052734375,-0.27734375,-17.7109375,8.09765625,1.0
4509487,,,,,,,,-2.890625,-45.62890625,23.03125,-0.142578125,-1.451171875,0.208984375,-0.3125,-54.828125,24.4921875,1.0
4509488,,,,,,,,-5.98828125,-55.66796875,26.50390625,-0.125,-0.994140625,0.39453125,-3.41796875,-64.8671875,27.94140625,1.0
4509489,,,,,,,,-5.2734375,-16.45703125,7.671875,-0.033203125,0.810546875,0.427734375,-2.765625,-25.6796875,9.09375,1.0
4509490,36.01293016666667,129.31991633333334,118.66609028150225,58.82768947677976,3.6,225.0,,0.3828125,-7.71484375,-0.7109375,-0.123046875,3.05078125,-0.400390625,2.828125,-16.94921875,0.78125,1.0
4509491,,,,,,,,4.89453125,-9.65234375,-6.97265625,0.31640625,3.5859375,-1.599609375,7.38671875,-18.859375,-5.38671875,1.0
4509492,,,,,,,,10.6171875,-9.59765625,-1.7421875,0.337890625,1.197265625,0.81640625,13.1328125,-18.78125,-0.0625,1.0
4509493,,,,,,,,5.88671875,-11.27734375,6.44921875,0.130859375,-2.787109375,2.48828125,8.23046875,-20.5078125,8.13671875,1.0
4509494,,,,,,,,3.20703125,-12.5234375,4.94921875,0.296875,-4.048828125,1.5234375,5.43359375,-21.81640625,6.56640625,1.0
4509495,,,,,,,,-0.46875,-9.08984375,1.9375,0.65234375,-1.828125,1.416015625,1.6796875,-18.3984375,3.5390625,1.0
4509496,,,,,,,,-1.3046875,-7.6953125,0.609375,0.630859375,-0.25,2.13671875,0.7578125,-17.0234375,2.234375,1.0
4509497,,,,,,,,-2.82421875,-3.3125,-1.8203125,1.0,1.556640625,3.66796875,-1.04296875,-12.6953125,-0.1015625,1.0
4509498,,,,,,,,-3.6640625,-1.46484375,-1.32421875,0.91015625,1.140625,3.66796875,-2.265625,-10.890625,0.51171875,1.0
4509499,,,,,,,,-4.94140625,0.05078125,-0.6796875,0.98046875,0.693359375,3.572265625,-3.72265625,-9.40234375,1.203125,1.0
4509500,36.01292816666667,129.31991383333335,118.44072085637083,58.605767954468384,3.4000000000000004,226.0,0.0,-6.1328125,3.9375,-1.69140625,1.806640625,-0.388671875,3.8984375,-5.6015625,-5.53125,0.47265625,1.0
4509501,,,,,,,,-6.203125,6.9375,-2.16015625,1.80078125,-0.0859375,3.5625,-6.02734375,-2.5078125,0.16796875,1.0
4509502,,,,,,,,-5.59375,8.88671875,-3.02734375,1.720703125,0.060546875,3.28125,-5.60546875,-0.55078125,-0.59765625,1.0
4509503,,,,,,,,-4.8046875,10.4296875,-3.19140625,1.361328125,0.240234375,2.697265625,-5.21875,1.0546875,-0.55859375,1.0
4509504,,,,,,,,-4.06640625,11.7109375,-2.4609375,1.23046875,0.30859375,2.59375,-4.60546875,2.359375,0.2421875,1.0
4509505,,,,,,,,-3.69921875,12.734375,-1.56640625,1.03125,0.43359375,2.38671875,-4.48828125,3.4296875,1.23828125,1.0
4509506,,,,,,,,-2.640625,12.54296875,-1.796875,0.828125,0.572265625,2.05859375,-3.65234375,3.27734375,1.0859375,1.0
4509507,,,,,,,,-2.14453125,11.8671875,-2.44921875,0.724609375,0.68359375,1.8984375,-3.2578125,2.625,0.47265625,1.0
4509508,,,,,,,,-1.921875,7.4921875,-2.953125,0.587890625,0.865234375,1.591796875,-3.2265625,-1.703125,0.015625,1.0
4509509,,,,,,,,-1.87890625,6.765625,-2.7265625,0.552734375,0.833984375,1.150390625,-3.3359375,-2.390625,0.28125,1.0
4509510,36.012926,129.31991116666669,118.20032684000611,58.36535302897834,3.4000000000000004,226.0,,-1.80859375,5.9296875,-1.26953125,1.806640625,-0.388671875,3.8984375,-5.6015625,-5.53125,0.47265625,1.0
4509511,,,,,,,,-1.68359375,6.1953125,-0.796875,0.56640625,0.314453125,0.314453125,-3.3359375,-2.890625,2.3125,1.0
4509512,,,,,,,,-0.6875,7.66796875,-1.1796875,0.48046875,0.43359375,0.18359375,-2.3828125,-1.39453125,1.96875,1.0
4509513,,,,,,,,0.32421875,9.796875,-2.3515625,0.244140625,0.48828125,-0.125,-1.3828125,0.75,0.8203125,1.0
4509514,,,,,,,,0.5859375,11.6640625,-2.74609375,0.125,0.26171875,-0.42578125,-1.1171875,2.625,0.43359375,1.0
4509515,,,,,,,,1.00390625,12.85546875,-2.53125,0.208984375,-0.279296875,-0.5625,-0.66015625,3.81640625,0.6640625,1.0
4509516,,,,,,,,1.05859375,13.0390625,-2.390625,0.259765625,-0.609375,-0.5625,-0.58203125,4.0078125,0.8203125,1.0
4509517,,,,,,,,1.25,12.76171875,-2.69921875,0.31640625,-1.1796875,-0.498046875,-0.3125,3.734375,0.55078125,1.0
4509518,,,,,,,,0.86328125,11.13671875,-3.12890625,0.353515625,-1.48046875,-0.3984375,-0.62109375,2.125,0.16796875,1.0
4509519,,,,,,,,-0.2578125,9.16796875,-1.4609375,0.330078125,-1.50390625,-0.408203125,-1.65625,0.17578125,1.890625,1.0
4509520,36.012924,129.31990783333333,117.89983324266345,58.14343051040611,3.6,229.0,,-2.9921875,4.6328125,3.12890625,1.806640625,-0.388671875,3.8984375,-5.6015625,-5.53125,0.47265625,1.0
4509521,,,,,,,,-2.12109375,-4.68359375,-1.4765625,0.251953125,-0.744140625,-1.099609375,-3.26171875,-13.65234375,1.96875,1.0
4509522,,,,,,,,-0.1328125,-18.17578125,-0.12890625,0.28125,0.0234375,-1.09375,-1.15625,-27.13671875,3.34765625,1.0
4509523,,,,,,,,28.55859375,-59.01953125,21.65234375,0.275390625,0.8125,-1.376953125,27.61328125,-67.97265625,25.14453125,1.0
4509524,,,,,,,,18.3203125,-27.6015625,12.2109375,0.30078125,1.36328125,-2.244140625,17.5,-36.56640625,15.71875,1.0
4509525,,,,,,,,1.890625,-11.43359375,1.2265625,0.580078125,1.798828125,-2.09375,1.21875,-20.39453125,4.765625,1.0
4509526,,,,,,,,-1.83984375,-7.375,1.1640625,0.712890625,1.83203125,-1.806640625,-2.45703125,-16.3359375,4.7265625,1.0
4509527,,,,,,,,-5.8828125,-8.109375,-2.453125,0.291015625,1.3671875,-1.75390625,-6.40625,-17.06640625,1.1640625,1.0
4509528,,,,,,,,-2.703125,-8.73046875,-3.40234375,-0.55859375,-1.767578125,-0.89453125,-3.0703125,-17.71484375,0.16796875,1.0
4509529,,,,,,,,0.90234375,-9.08984375,-1.91015625,-0.515625,-4.353515625,0.197265625,0.68359375,-18.09765625,1.62109375,1.0
4509530,36.01292216666666,129.3199048333333,117.62938904348522,57.94000161173404,3.5,230.0,,3.5546875,-8.4140625,1.15625,-0.587890625,-3.9453125,-1.1875,3.515625,-17.4453125,4.6484375,1.0
4509531,,,,,,,,5.21875,-7.42578125,-0.12109375,-0.638671875,-1.42578125,-3.009765625,5.46875,-16.484375,3.30859375,1.0
4509532,,,,,,,,4.52734375,-6.98046875,-1.015625,-0.8984375,0.38671875,-2.861328125,5.05078125,-16.0625,2.3515625,1.0
4509533,,,,,,,,2.50390625,-2.62109375,-2.1328125,-1.2578125,0.53515625,-2.6015625,3.36328125,-11.734375,1.0859375,1.0
4509534,,,,,,,,2.37890625,-1.2890625,-1.81640625,-1.505859375,-0.05078125,-2.546875,3.48046875,-10.44140625,1.27734375,1.0
4509535,,,,,,,,2.203125,2.94921875,-0.83984375,-1.509765625,-0.232421875,-2.11328125,3.515625,-6.22265625,2.12109375,1.0
4509536,,,,,,,,1.7421875,5.76953125,-0.35546875,-1.46484375,-0.09375,-1.654296875,3.25,-3.421875,2.46484375,1.0
4509537,,,,,,,,1.640625,8.53515625,-1.12890625,-1.419921875,0.013671875,-1.43359375,3.21484375,-0.66796875,1.62109375,1.0
4509538,,,,,,,,1.859375,10.3984375,-2.41796875,-1.294921875,0.205078125,-1.23046875,3.5546875,1.171875,0.20703125,1.0
4509539,,,,,,,,1.69140625,11.6328125,-3.66796875,-1.1640625,0.2578125,-1.287109375,3.4375,2.3984375,-1.09765625,1.0
4509540,36.012920333333334,129.31990166666668,117.34392000693597,57.73657252022529,3.6,232.0,,1.41015625,12.17578125,-4.1171875,-0.587890625,-3.9453125,-1.1875,3.515625,-17.4453125,4.6484375,1.0
4509541,,,,,,,,0.56640625,12.55078125,-3.92578125,-0.634765625,-0.177734375,-1.62890625,2.59765625,3.3125,-1.51953125,1.0
4509542,,,,,,,,0.375,12.83984375,-4.0078125,-0.55859375,-0.34765625,-1.541015625,2.484375,3.6171875,-1.6328125,1.0
4509543,,,,,,,,0.2421875,12.90234375,-3.875,-0.404296875,-0.494140625,-1.177734375,2.484375,3.6953125,-1.5546875,1.0
4509544,,,,,,,,1.125,10.78125,-3.70703125,-0.275390625,-0.24609375,-0.767578125,3.515625,1.59375,-1.44140625,1.0
4509545,,,,,,,,2.296875,6.6796875,-3.62109375,-0.220703125,0.13671875,-0.98046875,4.82421875,-2.46875,-1.40234375,1.0
4509546,,,,,,,,1.94921875,6.17578125,-3.421875,-0.236328125,0.228515625,-1.009765625,4.5078125,-2.96484375,-1.2109375,1.0
4509547,,,,,,,,0.140625,5.8828125,-2.09765625,-0.306640625,0.341796875,-0.900390625,2.7890625,-3.234375,0.08984375,1.0
4509548,,,,,,,,-2.80078125,7.74609375,2.5625,-0.458984375,0.435546875,-0.552734375,-0.08203125,-1.35546875,4.73046875,1.0
4509549,,,,,,,,-2.80859375,7.73828125,2.578125,-0.380859375,0.54296875,0.0,-1.00390625,-0.3984375,6.44921875,1.0
4509550,36.01291833333333,129.31989866666666,117.07347602662595,57.51465043103411,3.6,231.0,,1.41015625,12.17578125,-4.1171875,-0.396484375,0.576171875,1.068359375,-1.9609375,1.78515625,4.53515625,1.0
4509551,,,,,,,,-4.1953125,11.4921875,1.109375,-0.4453125,0.44140625,1.724609375,-0.96484375,3.2734375,1.27734375,1.0
4509552,,,,,,,,-3.15625,12.6953125,-1.28125,-0.4609375,0.0,1.921875,-0.734375,3.55078125,0.6640625,1.0
4509553,,,,,,,,-3.18359375,12.46484375,-1.2265625,-0.44140625,-0.99609375,1.283203125,-1.50390625,0.98046875,1.31640625,1.0
4509554,,,,,,,,-3.87890625,7.82421875,-0.1015625,-0.310546875,-1.724609375,0.865234375,-2.45703125,-5.6875,3.61328125,1.0
4509555,,,,,,,,-6.68359375,-25.75390625,13.6328125,-0.017578125,-1.634765625,1.0234375,-4.296875,-46.2890625,18.32421875,1.0
4509556,,,,,,,,-5.31640625,-45.53515625,19.1796875,0.08984375,-0.958984375,1.068359375,-5.41015625,-59.046875,14.109375,1.0
4509557,,,,,,,,-6.88671875,-36.06640625,14.13671875,0.072265625,0.240234375,0.662109375,-0.66015625,-30.62890625,13.53515625,1.0
4509558,,,,,,,,2.5625,-7.50390625,2.70703125,-0.060546875,2.076171875,-0.57421875,4.4375,-16.83203125,4.53515625,1.0
4509559,,,,,,,,9.9375,-5.14453125,-4.49609375,0.009765625,3.884765625,-2.5078125,11.828125,-14.45703125,-2.62890625,1.0
4509560,36.01291583333333,129.31989566666667,116.8030327745904,57.237248730494905,3.6,227.0,,13.4296875,-7.8515625,0.6640625,-0.396484375,0.576171875,1.068359375,-1.9609375,1.78515625,4.53515625,1.0
4509561,,,,,,,,4.93359375,-12.48046875,3.23046875,0.109375,-2.2578125,1.365234375,6.96484375,-21.734375,5.26171875,1.0
4509562,,,,,,,,3.203125,-12.6171875,4.10546875,0.1328125,-3.716796875,1.205078125,5.203125,-21.890625,6.10546875,1.0
4509563,,,,,,,,1.75390625,-10.609375,3.0625,0.513671875,-3.3671875,1.41015625,3.70703125,-19.90234375,5.03125,1.0
4509564,,,,,,,,-1.453125,-6.96875,-0.37109375,0.62890625,-0.27734375,3.009765625,0.3359375,-16.30078125,1.62109375,1.0
4509565,,,,,,,,-2.2734375,-4.43359375,-1.13671875,0.873046875,1.9453125,3.99609375,-0.8125,-13.8046875,0.93359375,1.0
4509566,,,,,,,,-2.68359375,-3.06640625,-1.3203125,0.923828125,2.072265625,4.017578125,-1.46484375,-12.4609375,0.8203125,1.0
4509567,,,,,,,,-4.47265625,-0.046875,-1.69921875,1.16796875,0.802734375,3.51171875,-3.80078125,-9.4765625,0.58984375,1.0
4509568,,,,,,,,-6.08984375,2.08984375,-2.4140625,1.66796875,-0.119140625,3.65625,-5.75390625,-7.328125,0.015625,1.0
4509569,,,,,,,,-6.26171875,2.80078125,-2.72265625,1.748046875,-0.265625,3.8515625,-6.09765625,-6.60546875,-0.21484375,1.0
4509570,36.01291416666666,129.31989299999998,116.56263793782234,57.05231347091722,3.4000000000000004,229.0,,-6.36328125,5.4453125,-3.9296875,1.705078125,-0.103515625,3.91015625,-6.5546875,-3.921875,-1.25,1.0
4509571,,,,,,,,-5.61328125,8.375,-3.96484375,1.56640625,0.125,3.78515625,-6.171875,-0.9375,-1.13671875,1.0
4509572,,,,,,,,-4.97265625,9.9921875,-2.73046875,1.4921875,0.232421875,3.7109375,-5.7109375,0.7109375,0.16796875,1.0
4509573,,,,,,,,-3.96484375,12.3046875,-1.08203125,1.07421875,0.77734375,3.048828125,-5.3671875,3.1640625,2.04296875,1.0
4509574,,,,,,,,-2.88671875,13.0625,-1.2734375,0.978515625,0.96875,2.751953125,-4.4453125,3.96875,1.890625,1.0
4509575,,,,,,,,-1.5859375,12.01171875,-3.80078125,0.65625,1.462890625,1.9140625,-3.53515625,3.01171875,-0.55859375,1.0
4509576,,,,,,,,-1.3125,9.80859375,-4.62890625,0.56640625,1.435546875,1.294921875,-3.45703125,0.86328125,-1.36328125,1.0
4509577,,,,,,,,-1.390625,8.59765625,-4.68359375,0.5390625,1.2734375,0.9296875,-3.609375,-0.32421875,-1.40234375,1.0
4509578,,,,,,,,-1.38671875,5.234375,-4.01171875,0.47265625,0.75,0.263671875,-3.68359375,-3.65625,-0.71484375,1.0
4509579,,,,,,,,-1.15625,4.9453125,-3.8515625,0.4765625,0.23046875,-0.00390625,-3.4921875,-3.921875,-0.5234375,1.0
4509580,36.012912,129.31989033333332,116.32224382801813,56.81189859765484,3.6,227.0,,-0.34375,5.00390625,-3.015625,1.705078125,-0.103515625,3.91015625,-6.5546875,-3.921875,-1.25,1.0
4509581,,,,,,,,1.2734375,6.16015625,-2.09765625,0.49609375,0.21875,0.0703125,-1.078125,-2.65625,1.31640625,1.0
4509582,,,,,,,,3.2421875,7.6015625,-2.0078125,0.328125,0.345703125,-0.11328125,0.875,-1.203125,1.4296875,1.0
4509583,,,,,,,,4.0078125,8.78125,-2.09765625,0.1953125,0.291015625,-0.29296875,1.64453125,-0.015625,1.35546875,1.0
4509584,,,,,,,,3.90625,10.56640625,-1.38671875,0.265625,0.064453125,-0.501953125,1.5625,1.78515625,2.08203125,1.0
4509585,,,,,,,,2.765625,11.4921875,-0.6796875,0.341796875,-0.310546875,-0.826171875,0.4921875,2.703125,2.81640625,1.0
4509586,,,,,,,,2.11328125,11.64453125,-0.6953125,0.390625,-0.53125,-0.98828125,-0.12109375,2.85546875,2.8125,1.0
4509587,,,,,,,,-0.10546875,11.37890625,-1.13671875,0.45703125,-0.966796875,-1.02734375,-2.23046875,2.5859375,2.42578125,1.0
4509588,,,,,,,,-1.953125,9.80078125,-0.8515625,0.4375,-1.30859375,-0.712890625,-3.95703125,1.01953125,2.7734375,1.0
4509589,,,,,,,,-2.4296875,4.65234375,-0.72265625,0.384765625,-1.587890625,-0.25,-4.3359375,-4.11328125,2.96484375,1.0
4509590,36.012910000000005,129.319887,116.02175013478951,56.58997614494326,3.6,230.0,,-0.34375,5.00390625,-3.015625,0.375,-1.50390625,-0.005859375,-6.5546875,-3.921875,-1.25,1.0
4509591,,,,,,,,-0.484375,-14.93359375,2.03125,0.384765625,-0.873046875,-0.0234375,0.14453125,-34.109375,9.1328125,1.0
4509592,,,,,,,,6.109375,-37.21484375,8.49609375,0.32421875,-0.11328125,-0.24609375,22.48046875,-68.43359375,29.3203125,1.0
4509593,,,,,,,,24.46484375,-44.0390625,24.70703125,0.353515625,0.537109375,-0.76171875,16.234375,-32.0390625,15.4140625,1.0
4509594,,,,,,,,2.66796875,-7.53125,4.11328125,0.541015625,0.9453125,-0.904296875,-2.265625,-15.53125,6.83203125,1.0
4509595,,,,,,,,-4.359375,-8.97265625,-0.796875,-0.1015625,1.1875,-2.982421875,-5.79296875,-19.66796875,1.546875,1.0
4509596,,,,,,,,-4.40234375,-10.94140625,-2.40625,-0.380859375,-0.5078125,-2.4296875,-3.76171875,-21.6171875,2.08203125,1.0
4509597,,,,,,,,1.1640625,-13.68359375,-0.16796875,-0.380859375,-4.224609375,-0.58203125,0.109375,-22.4609375,3.76953125,1.0
4509598,,,,,,,,3.42578125,-11.58203125,0.92578125,-0.2890625,-4.087890625,-0.80078125,2.59765625,-20.390625,4.87890625,1.0
4509599,,,,,,,,5.796875,-9.67578125,0.0234375,-0.580078125,-1.072265625,-2.439453125,5.203125,-18.51953125,3.9609375,1.0
4509600,36.012908333333336,129.31988416666667,115.7663304321973,56.4050407076132,3.3000000000000003,231.0,0.0,4.390625,-8.1640625,-1.38671875,0.375,-1.50390625,-0.005859375,-6.5546875,-3.921875,-1.25,1.0
4509601,,,,,,,,2.71484375,-4.41796875,-2.2265625,-1.275390625,0.6953125,-2.796875,2.59765625,-13.38671875,1.5078125,1.0
4509602,,,,,,,,2.4609375,-3.08203125,-2.578125,-1.34375,0.439453125,-2.98828125,2.484375,-12.078125,1.0859375,1.0
4509603,,,,,,,,2.4140625,-0.4609375,-3.296875,-1.478515625,0.025390625,-3.033203125,2.7109375,-9.51953125,0.2421875,1.0
4509604,,,,,,,,2.875,2.3359375,-3.8515625,-1.63671875,-0.24609375,-2.177734375,3.515625,-6.80078125,-0.5234375,1.0
4509605,,,,,,,,2.81640625,5.69140625,-2.4375,-1.59765625,-0.095703125,-1.990234375,3.74609375,-3.50390625,0.6640625,1.0
4509606,,,,,,,,2.5625,7.6640625,-1.484375,-1.5546875,0.001953125,-2.080078125,3.59375,-1.546875,1.546875,1.0
4509607,,,,,,,,2.10546875,9.9140625,-1.6640625,-1.365234375,0.37890625,-2.259765625,3.4375,0.671875,1.1640625,1.0
4509608,,,,,,,,1.44921875,11.1484375,-3.125,-1.24609375,0.576171875,-2.091796875,2.98046875,1.8984375,-0.40625,1.0
4509609,,,,,,,,1.2109375,11.8828125,-4.05859375,-1.189453125,0.587890625,-1.896484375,2.83203125,2.625,-1.40234375,1.0
4509610,36.012906666666666,129.31988083333331,115.46583622278958,56.22010468604728,3.6,235.0,,1.7734375,11.84765625,-4.5390625,-0.927734375,0.20703125,-1.25390625,3.59765625,2.58984375,-2.015625,1.0
4509611,,,,,,,,2.96484375,10.3828125,-5.2265625,-0.74609375,-0.138671875,-0.876953125,4.89453125,1.1328125,-2.78125,1.0
4509612,,,,,,,,3.6484375,8.96484375,-5.5390625,-0.6015625,-0.279296875,-0.73046875,5.6640625,-0.28515625,-3.1640625,1.0
4509613,,,,,,,,1.52734375,7.6484375,-3.73828125,-0.462890625,0.033203125,-0.98828125,3.70703125,-1.5859375,-1.48046875,1.0
4509614,,,,,,,,0.44140625,7.5625,-2.94921875,-0.431640625,0.201171875,-1.04296875,2.67578125,-1.6640625,-0.71484375,1.0
4509615,,,,,,,,-4.08984375,7.47265625,3.01171875,-0.37890625,0.5859375,-0.869140625,-1.76953125,-1.73828125,5.21875,1.0
4509616,,,,,,,,-6.05078125,8.10546875,3.95703125,-0.330078125,0.94140625,-0.236328125,-3.68359375,-1.08984375,6.14453125,1.0
4509617,,,,,,,,-6.3515625,9.68359375,2.65234375,-0.34375,1.033203125,0.19140625,-3.9921875,0.48046875,4.83984375,1.0
4509618,,,,,,,,-4.51171875,12.265625,-1.16015625,-0.4453125,0.873046875,1.068359375,-2.23046875,3.05078125,1.01171875,1.0
4509619,,,,,,,,-3.64453125,12.85546875,-2.05859375,-0.505859375,0.6171875,1.4140625,-1.42578125,3.6171875,0.08984375,1.0
4509620,36.0129045,129.31987766666668,115.18036756488479,55.979689251994024,3.6,232.0,,-1.37109375,13.25,-2.69921875,-0.701171875,-0.796875,0.65625,0.68359375,3.97265625,-0.63671875,1.0
4509621,,,,,,,,-0.23046875,12.68359375,-2.453125,-0.662109375,-1.623046875,-0.21484375,1.83203125,3.39453125,-0.484375,1.0
4509622,,,,,,,,0.10546875,10.4453125,-0.75,-0.484375,-1.873046875,-0.59375,2.25,1.171875,1.125,1.0
4509623,,,,,,,,0.25,4.5,0.78515625,-0.369140625,-1.634765625,-0.443359375,2.484375,-4.765625,2.58203125,1.0
4509624,,,,,,,,-0.52734375,-8.5390625,8.36328125,-0.27734375,-1.177734375,-0.08203125,1.75390625,-17.79296875,10.08984375,1.0
4509625,,,,,,,,-2.10546875,-47.5,21.15625,-0.205078125,-0.57421875,0.279296875,0.18359375,-56.75390625,22.84375,1.0
4509626,,,,,,,,-4.77734375,-55.88671875,21.01953125,-0.1640625,-0.21875,0.3828125,-2.49609375,-65.13671875,22.69140625,1.0
4509627,,,,,,,,-6.80859375,-44.3515625,11.48828125,-0.060546875,0.677734375,0.3046875,-4.56640625,-53.609375,13.15234375,1.0
4509628,,,,,,,,0.65625,-6.91796875,5.8359375,-0.0078125,1.72265625,0.23046875,2.8671875,-16.18359375,7.5234375,1.0
4509629,,,,,,,,3.52734375,-4.76953125,-5.52734375,0.12890625,2.416015625,-0.431640625,5.69921875,-14.03515625,-3.77734375,1.0
4509630,36.01290216666666,129.31987466666666,114.90992395958244,55.720780817226796,3.7,229.0,,8.53125,-9.19921875,0.37109375,-0.701171875,-0.796875,0.65625,0.68359375,3.97265625,-0.63671875,1.0
4509631,,,,,,,,6.37109375,-12.80859375,4.5,-0.109375,0.26953125,0.927734375,8.61328125,-22.04296875,6.375,1.0
4509632,,,,,,,,5.54296875,-14.36328125,4.734375,-0.166015625,-2.01953125,1.763671875,7.73046875,-23.609375,6.6015625,1.0
4509633,,,,,,,,3.5078125,-11.98828125,2.453125,0.521484375,-4.091796875,1.98046875,5.5859375,-21.27734375,4.265625,1.0
4509634,,,,,,,,1.328125,-9.0,0.875,0.88671875,-1.767578125,2.595703125,3.25,-18.328125,2.6953125,1.0
4509635,,,,,,,,-0.94921875,-5.02734375,-0.78125,0.7265625,2.4453125,2.7890625,0.56640625,-14.41796875,1.1640625,1.0
4509636,,,,,,,,-2.1328125,-2.8671875,-0.98046875,0.8046875,2.337890625,2.673828125,-0.7734375,-12.27734375,1.01171875,1.0
4509637,,,,,,,,-3.57421875,-0.82421875,-1.3125,0.982421875,1.12890625,2.869140625,-2.49609375,-10.24609375,0.78125,1.0
4509638,,,,,,,,-5.7734375,3.17578125,-3.0625,1.44140625,-0.216796875,3.857421875,-5.1796875,-6.26171875,-0.7890625,1.0
4509639,,,,,,,,-5.7890625,4.08203125,-3.10546875,1.64453125,-0.048828125,4.0234375,-5.56640625,-5.33984375,-0.67578125,1.0
4509640,36.01290033333333,129.31987166666667,114.63947961841954,55.51735201088621,3.6,230.0,,-5.96875,6.8984375,-2.44921875,1.5859375,0.314453125,3.466796875,-6.29296875,-2.46875,0.20703125,1.0
4509641,,,,,,,,-5.25,9.984375,-3.40234375,1.423828125,0.51171875,3.03515625,-5.90625,0.671875,-0.59765625,1.0
4509642,,,,,,,,-5.01171875,10.26953125,-3.15234375,1.30078125,0.640625,2.859375,-5.7890625,0.98046875,-0.29296875,1.0
4509643,,,,,,,,-3.97265625,11.77734375,-2.37109375,1.0546875,0.857421875,2.4921875,-5.02734375,2.55078125,0.58984375,1.0
4509644,,,,,,,,-3.33203125,12.0234375,-1.8046875,0.94921875,0.880859375,2.283203125,-4.52734375,2.8203125,1.203125,1.0
4509645,,,,,,,,-2.65234375,11.31640625,-2.22265625,0.7578125,0.765625,1.96875,-4.06640625,2.16796875,0.85546875,1.0
4509646,,,,,,,,-1.5390625,7.68359375,-3.40234375,0.52734375,0.6640625,1.798828125,-3.2265625,-1.39453125,-0.25390625,1.0
4509647,,,,,,,,-1.40625,5.66796875,-3.3046875,0.4765625,0.619140625,1.712890625,-3.1875,-3.3828125,-0.140625,1.0
4509648,,,,,,,,-0.21484375,6.2421875,-1.91796875,0.54296875,0.224609375,0.455078125,-2.23046875,-2.73828125,1.31640625,1.0
4509649,,,,,,,,-0.03515625,6.5703125,-1.59765625,0.54296875,0.173828125,0.16015625,-2.07421875,-2.390625,1.66015625,1.0
4509650,36.01289833333333,129.3198685,114.35401067263221,55.29542981055572,3.6,231.0,,1.11328125,8.38671875,-1.26171875,1.5859375,0.314453125,3.466796875,-0.92578125,-0.55078125,2.04296875,1.0
4509651,,,,,,,,1.203125,9.6796875,-1.22265625,0.41015625,0.41015625,-0.748046875,-0.8125,0.75,2.12109375,1.0
4509652,,,,,,,,0.6796875,11.2109375,-1.33203125,0.353515625,0.119140625,-0.966796875,-1.234375,2.28125,2.04296875,1.0
4509653,,,,,,,,0.09765625,12.75390625,-1.984375,0.396484375,-0.447265625,-0.853515625,-1.73046875,3.8125,1.4296875,1.0
4509654,,,,,,,,-0.265625,13.234375,-2.375,0.423828125,-1.060546875,-0.59765625,-2.0,4.3125,1.0859375,1.0
4509655,,,,,,,,0.140625,12.0703125,-2.93359375,0.33984375,-1.6015625,-0.322265625,-1.5,3.16796875,0.58984375,1.0
4509656,,,,,,,,0.18359375,11.2890625,-2.828125,0.20703125,-1.9609375,-0.240234375,-1.38671875,2.40234375,0.7421875,1.0
4509657,,,,,,,,-0.8671875,7.48046875,0.2734375,0.15234375,-1.966796875,-0.275390625,-2.34375,-1.39453125,3.88671875,1.0
4509658,,,,,,,,-1.26953125,3.6796875,1.0390625,0.21484375,-1.53515625,-0.408203125,-2.65234375,-5.1875,4.6875,1.0
4509659,,,,,,,,1.05859375,-8.09765625,-0.37890625,0.271484375,-0.775390625,-0.669921875,-0.23828125,-16.94921875,3.30859375,1.0
4509660,36.01289633333333,129.31986516666666,114.05351687349243,55.073507424662345,3.7,232.0,,8.7109375,-27.13671875,5.11328125,0.279296875,0.1484375,-0.904296875,-0.92578125,-0.55078125,2.04296875,1.0
4509661,,,,,,,,23.734375,-57.2890625,23.29296875,0.220703125,0.953125,-1.28125,22.59375,-66.1328125,27.01953125,1.0
4509662,,,,,,,,8.09765625,-15.453125,3.59765625,0.26953125,1.5,-1.84375,7.04296875,-24.30859375,7.33203125,1.0
4509663,,,,,,,,2.8984375,-9.23828125,2.1640625,0.421875,2.078125,-1.58203125,1.9453125,-18.09765625,5.9140625,1.0
4509664,,,,,,,,-3.99609375,-12.2265625,0.27734375,0.05859375,2.765625,-0.564453125,-4.94921875,-21.0859375,4.03515625,1.0
4509665,,,,,,,,0.2109375,-14.4453125,-0.2734375,-0.748046875,-0.79296875,-1.84375,-0.6953125,-23.34765625,3.421875,1.0
4509666,,,,,,,,3.05078125,-13.50390625,0.296875,-0.85546875,-3.06640625,-1.30078125,2.25390625,-22.42578125,3.9609375,1.0
4509667,,,,,,,,4.078125,-10.59375,0.48046875,-0.41015625,-4.3125,-0.763671875,3.515625,-19.55859375,4.11328125,1.0
4509668,,,,,,,,5.59765625,-7.92578125,-1.765625,-0.3671875,-1.7109375,-2.296875,5.27734375,-16.91015625,1.8515625,1.0
4509669,,,,,,,,4.80859375,-6.71484375,-2.359375,-1.154296875,0.685546875,-3.416015625,4.93359375,-15.7578125,1.1640625,1.0
4509670,36.012894833333334,129.31986233333333,113.79809684815868,54.90706525331193,3.4000000000000004,233.0,,4.046875,-5.37109375,-1.5546875,0.279296875,0.1484375,-0.904296875,-0.92578125,-0.55078125,2.04296875,1.0
4509671,,,,,,,,2.4765625,-0.75,-1.05859375,-1.615234375,-0.4375,-2.60546875,3.2109375,-9.90234375,2.16015625,1.0
4509672,,,,,,,,1.91015625,0.55078125,-1.36328125,-1.732421875,0.01171875,-2.51171875,2.90234375,-8.63671875,1.69921875,1.0
4509673,,,,,,,,2.24609375,4.30078125,-2.43359375,-1.791015625,0.390625,-2.115234375,3.44140625,-4.9140625,0.47265625,1.0
4509674,,,,,,,,2.2578125,5.88671875,-2.5,-1.78515625,0.435546875,-1.9375,3.5546875,-3.34765625,0.3203125,1.0
4509675,,,,,,,,2.24609375,10.97265625,-3.1796875,-1.6796875,0.21484375,-1.798828125,3.70703125,1.70703125,-0.5234375,1.0
4509676,,,,,,,,2.09375,11.48046875,-3.33984375,-1.625,0.072265625,-1.80859375,3.63671875,2.20703125,-0.75390625,1.0
4509677,,,,,,,,1.71484375,11.65625,-3.49609375,-1.51953125,-0.11328125,-1.892578125,3.44140625,2.359375,-1.05859375,1.0
4509678,,,,,,,,1.0625,12.0390625,-3.43359375,-1.427734375,-0.126953125,-1.900390625,2.87109375,2.7421875,-1.05859375,1.0
4509679,,,,,,,,-0.078125,12.4140625,-3.40625,-1.02734375,-0.015625,-1.529296875,1.984375,3.12890625,-1.2109375,1.0
4509680,36.01289283333333,129.31985883333334,113.48257818935329,54.68514269148335,3.7,234.0,,-0.25,12.4375,-3.16796875,-0.8125,0.1875,-0.931640625,1.984375,3.1640625,-1.09765625,1.0
4509681,,,,,,,,0.66015625,10.62890625,-3.41015625,-0.634765625,0.330078125,-0.916015625,2.9765625,1.36328125,-1.40234375,1.0
4509682,,,,,,,,1.83203125,7.9375,-3.9765625,-0.59765625,0.310546875,-1.029296875,4.2421875,-1.3203125,-2.015625,1.0
4509683,,,,,,,,2.12890625,7.01171875,-4.17578125,-0.58984375,0.263671875,-1.060546875,4.5859375,-2.23828125,-2.24609375,1.0
4509684,,,,,,,,2.171875,5.53125,-3.890625,-0.564453125,0.193359375,-1.115234375,4.74609375,-3.6953125,-2.015625,1.0
4509685,,,,,,,,-0.34375,6.61328125,-2.1875,-0.572265625,0.1796875,-1.068359375,2.328125,-2.578125,-0.3671875,1.0
4509686,,,,,,,,-2.0390625,8.0234375,-0.91796875,-0.55859375,0.2265625,-0.716796875,0.71875,-1.1640625,0.85546875,1.0
4509687,,,,,,,,-4.4375,10.6171875,2.1953125,-0.546875,0.3828125,-0.009765625,-1.65625,1.4375,3.92578125,1.0
4509688,,,,,,,,-5.01171875,11.1875,2.671875,-0.513671875,0.44140625,0.44921875,-2.23046875,2.015625,4.3828125,1.0
4509689,,,,,,,,-5.5390625,12.05078125,1.93359375,-0.41015625,0.41796875,1.3203125,-2.84375,2.85546875,3.61328125,1.0
4509690,36.01289083333334,129.31985583333332,113.21213401955316,54.46322072354141,3.6,232.0,,-5.2578125,12.63671875,0.05859375,-0.421875,0.146484375,1.833984375,-2.7265625,3.390625,1.69921875,1.0
4509691,,,,,,,,-4.0,12.7109375,-1.47265625,-0.4609375,-0.32421875,1.875,-1.6171875,3.4296875,0.12890625,1.0
4509692,,,,,,,,-3.57421875,12.4375,-1.37109375,-0.466796875,-0.650390625,1.677734375,-1.26953125,3.12890625,0.20703125,1.0
4509693,,,,,,,,-2.77734375,9.234375,-0.3359375,-0.447265625,-1.408203125,0.97265625,-0.58203125,-0.09375,1.1640625,1.0
4509694,,,,,,,,-2.80859375,-1.24609375,3.55859375,-0.2109375,-1.841796875,0.34765625,-0.66015625,-10.58984375,4.95703125,1.0
4509695,,,,,,,,0.83203125,-42.73046875,20.88671875,-0.005859375,-1.58203125,0.2265625,2.98046875,-52.07421875,22.23046875,1.0
4509696,,,,,,,,-1.58203125,-51.85546875,23.5859375,0.076171875,-1.333984375,0.24609375,0.56640625,-61.1875,24.9140625,1.0
4509697,,,,,,,,-6.375,-25.68359375,14.5,0.12890625,0.2109375,0.162109375,-4.2578125,-35.0234375,15.8359375,1.0
4509698,,,,,,,,-0.4453125,-8.21875,1.2578125,0.013671875,1.576171875,-0.73046875,1.6796875,-17.5625,2.6171875,1.0
4509699,,,,,,,,3.3828125,-4.74609375,-4.08984375,0.166015625,2.4140625,-1.53125,5.546875,-14.07421875,-2.70703125,1.0
4509700,36.0128885,129.319853,112.95671514974198,54.20431254324676,3.6,228.0,0.0,8.3671875,-7.4296875,-4.12109375,0.673828125,2.8515625,-0.9921875,10.640625,-16.72265625,-2.62890625,1.0
4509701,,,,,,,,7.15234375,-11.78125,4.2265625,0.25,-0.251953125,2.009765625,9.33984375,-21.08984375,5.796875,1.0
