time,latitude,longitude,enu_x,enu_y,speed,course,ecg,accX,accY,accZ,gyrX,gyrY,gyrZ,eulR,eulP,eulY,validity
4423430,36.013048166666664,129.32013033333334,137.95776360538892,71.92116174651242,3.0,226.0,,-3.453125,5.96875,-1.1796875,-0.521484375,-1.0859375,-0.103515625,-4.62109375,-3.328125,1.3359375,1.0
4423431,,,,,,,,-2.5078125,8.64453125,-1.34375,0.908203125,1.111328125,1.779296875,-3.89453125,-0.60546875,1.2578125,1.0
4423432,,,,,,,,-1.8671875,11.20703125,-1.3671875,0.771484375,1.0,1.453125,-3.4296875,1.99609375,1.296875,1.0
4423433,,,,,,,,-1.6796875,12.90625,-1.8671875,0.65234375,0.57421875,1.3671875,-3.46875,3.76171875,0.875,1.0
4423434,,,,,,,,-1.69921875,13.56640625,-2.6484375,0.623046875,0.33203125,1.412109375,-3.62109375,4.44921875,0.1484375,1.0
4423435,,,,,,,,-1.828125,12.21875,-3.69140625,0.564453125,0.103515625,1.36328125,-3.890625,3.1484375,-0.84765625,1.0
4423436,,,,,,,,-1.87890625,11.2734375,-3.79296875,0.521484375,0.056640625,1.2265625,-4.0,2.2265625,-0.92578125,1.0
4423437,,,,,,,,-1.78515625,9.38671875,-3.41796875,0.4140625,0.056640625,0.8046875,-4.0,0.38671875,-0.50390625,1.0
4423438,,,,,,,,-1.1953125,7.984375,-2.94921875,0.33203125,0.208984375,0.396484375,-3.47265625,-0.9921875,-0.00390625,1.0
4423439,,,,,,,,-0.08203125,7.5859375,-2.890625,0.27734375,0.41015625,-0.009765625,-2.39453125,-1.375,0.0703125,1.0
4423440,36.013046,129.32012766666668,137.7173704879808,71.68074628286939,3.2,226.0,,0.78125,7.6953125,-3.05078125,-0.521484375,-1.0859375,-0.103515625,-1.51953125,-1.2578125,-0.08203125,1.0
4423441,,,,,,,,1.9296875,8.26953125,-3.21875,0.2890625,0.412109375,-0.865234375,-0.328125,-0.6796875,-0.234375,1.0
4423442,,,,,,,,2.359375,8.8515625,-3.08203125,0.3046875,0.271484375,-1.056640625,0.17578125,-0.109375,-0.08203125,1.0
4423443,,,,,,,,2.46484375,9.1640625,-3.01953125,0.306640625,0.212890625,-1.048828125,0.3203125,0.1953125,-0.00390625,1.0
4423444,,,,,,,,2.2734375,10.15234375,-2.66015625,0.29296875,0.0703125,-0.84375,0.2109375,1.1875,0.37890625,1.0
4423445,,,,,,,,1.359375,10.421875,-2.00390625,0.212890625,-0.140625,-0.291015625,-0.6328125,1.4609375,1.06640625,1.0
4423446,,,,,,,,-0.00390625,9.03515625,-0.29296875,0.130859375,-0.310546875,-0.01953125,-1.97265625,0.08203125,2.79296875,1.0
4423447,,,,,,,,-1.23828125,7.296875,1.14453125,0.060546875,-0.4140625,0.056640625,-3.19921875,-1.640625,4.24609375,1.0
4423448,,,,,,,,-1.09375,4.5234375,0.640625,0.03125,-0.423828125,-0.06640625,-3.046875,-4.40234375,3.75,1.0
4423449,,,,,,,,1.39453125,-4.2578125,-1.20703125,0.017578125,-0.390625,-0.474609375,-0.51953125,-13.17578125,1.91015625,1.0
4423450,36.01304433333333,129.32012500000002,137.47697648854268,71.49581044613161,3.1,228.0,,7.74609375,-24.73828125,-0.87109375,-0.03515625,-0.3125,-1.171875,5.91796875,-33.66796875,2.25390625,1.0
4423451,,,,,,,,15.1640625,-50.03515625,17.890625,0.15625,-0.068359375,-1.8359375,13.5390625,-58.98828125,21.0234375,1.0
4423452,,,,,,,,6.1484375,-21.48046875,14.16796875,0.232421875,-0.015625,-1.66796875,4.6171875,-30.4453125,17.30859375,1.0
4423453,,,,,,,,2.40625,-9.3984375,3.19921875,0.166015625,0.626953125,-0.77734375,0.9765625,-18.38671875,6.35546875,1.0
4423454,,,,,,,,0.58984375,-7.09765625,1.85546875,-0.01171875,1.109375,-0.5859375,-0.82421875,-16.078125,5.01171875,1.0
4423455,,,,,,,,-3.2578125,-10.30078125,-4.09765625,-0.541015625,-3.06640625,-0.3671875,-3.46875,-20.48828125,0.1484375,1.0
4423456,,,,,,,,-0.86328125,-12.0,-1.0625,-0.1796875,-3.818359375,-0.55078125,-0.59375,-21.98828125,3.78515625,1.0
4423457,,,,,,,,1.5859375,-13.9765625,1.87109375,-0.21484375,-2.998046875,-1.2265625,0.515625,-23.01953125,5.01171875,1.0
4423458,,,,,,,,2.91796875,-9.48046875,0.671875,-0.93359375,1.005859375,-2.55078125,2.27734375,-18.61328125,3.7109375,1.0
4423459,,,,,,,,2.81640625,-7.42578125,-0.0859375,-0.955078125,0.841796875,-2.419921875,2.27734375,-16.578125,2.90625,1.0
4423460,36.0130425,129.3201225,137.25160757212214,71.29238164468259,3.0,228.0,,2.8046875,-6.16015625,-0.69140625,-1.1015625,0.03125,-2.162109375,2.46875,-15.3515625,2.21484375,1.0
4423461,,,,,,,,3.26171875,-5.1171875,-0.92578125,-1.17578125,-0.3359375,-2.076171875,3.12109375,-14.359375,1.87109375,1.0
4423462,,,,,,,,3.53515625,-3.79296875,-1.109375,-1.208984375,-0.291015625,-2.068359375,3.50390625,-13.05859375,1.640625,1.0
4423463,,,,,,,,3.609375,-1.4921875,-2.09375,-1.298828125,-0.046875,-2.064453125,3.7734375,-10.796875,0.53125,1.0
4423464,,,,,,,,3.9140625,0.4375,-2.71484375,-1.310546875,0.064453125,-2.00390625,4.1953125,-8.88671875,-0.16015625,1.0
4423465,,,,,,,,3.90234375,2.5078125,-2.94921875,-1.24609375,0.203125,-1.8359375,4.34765625,-6.85546875,-0.50390625,1.0
4423466,,,,,,,,3.62890625,5.2578125,-2.1015625,-1.0390625,0.416015625,-1.66015625,4.30859375,-4.1328125,0.1875,1.0
4423467,,,,,,,,3.3828125,5.95703125,-1.703125,-0.935546875,0.53125,-1.62890625,4.15625,-3.44140625,0.53125,1.0
4423468,,,,,,,,1.40234375,9.640625,-1.30078125,-0.623046875,0.826171875,-1.390625,2.43359375,0.234375,0.80078125,1.0
4423469,,,,,,,,1.0390625,11.10546875,-2.08203125,-0.572265625,0.783203125,-1.32421875,2.12890625,1.69140625,-0.00390625,1.0
4423470,36.01304066666667,129.32011933333334,136.9661394195647,71.08895191167947,3.3000000000000003,231.0,,0.078125,13.51953125,-3.30078125,-1.1015625,0.03125,-2.162109375,2.46875,-15.3515625,2.21484375,1.0
4423471,,,,,,,,-0.46484375,14.7734375,-3.484375,-0.5625,0.34375,-1.431640625,0.86328125,5.3671875,-1.5,1.0
4423472,,,,,,,,-0.98828125,15.1875,-3.5,-0.572265625,0.224609375,-1.365234375,0.40234375,5.7890625,-1.5390625,1.0
4423473,,,,,,,,-0.2265625,12.765625,-3.45703125,-0.546875,0.0390625,-0.66796875,1.3203125,3.375,-1.57421875,1.0
4423474,,,,,,,,1.03125,8.74609375,-3.5703125,-0.5390625,0.0390625,-0.048828125,2.62890625,-0.64453125,-1.765625,1.0
4423475,,,,,,,,1.48046875,6.1875,-3.08984375,-0.560546875,0.150390625,0.0859375,3.08203125,-3.2109375,-1.34765625,1.0
4423476,,,,,,,,1.22265625,5.88671875,-2.56640625,-0.548828125,0.234375,0.083984375,2.81640625,-3.515625,-0.84765625,1.0
4423477,,,,,,,,0.05078125,6.26953125,-0.94921875,-0.591796875,0.384765625,0.171875,1.62890625,-3.1328125,0.72265625,1.0
4423478,,,,,,,,-1.57421875,8.4375,0.890625,-0.560546875,0.25390625,0.69140625,-0.05859375,-0.9921875,2.48828125,1.0
4423479,,,,,,,,-1.92578125,9.20703125,1.2578125,-0.5,0.0859375,0.875,-0.44140625,-0.22265625,2.83203125,1.0
4423480,36.0130385,129.32011666666668,136.72574625242444,70.84853647461371,3.3000000000000003,228.0,,-3.5625,11.2890625,3.19140625,-1.1015625,0.03125,-2.162109375,2.46875,-15.3515625,2.21484375,1.0
4423481,,,,,,,,-3.68359375,11.83984375,2.50390625,-0.232421875,-0.939453125,1.330078125,-2.39453125,2.37890625,3.98046875,1.0
4423482,,,,,,,,-3.0859375,10.625,1.5390625,-0.060546875,-1.419921875,1.220703125,-1.8984375,1.15625,2.98828125,1.0
4423483,,,,,,,,-2.8984375,2.65625,1.63671875,-0.001953125,-1.697265625,0.64453125,-1.78125,-6.8125,3.05859375,1.0
4423484,,,,,,,,-3.19921875,-10.98046875,5.63671875,0.0625,-1.40234375,0.16015625,-2.08984375,-20.44921875,7.04296875,1.0
4423485,,,,,,,,-5.57421875,-38.45703125,12.30078125,0.109375,-0.486328125,0.103515625,-4.46484375,-47.91796875,13.70703125,1.0
4423486,,,,,,,,-9.85546875,-28.19921875,12.87109375,-0.017578125,0.744140625,0.029296875,-8.75390625,-37.65234375,14.28515625,1.0
4423487,,,,,,,,-3.96484375,-11.95703125,8.07421875,0.005859375,1.775390625,-0.48828125,-2.85546875,-21.40625,9.49609375,1.0
4423488,,,,,,,,3.859375,-8.140625,-1.85546875,0.345703125,1.787109375,-0.328125,5.0,-17.578125,-0.38671875,1.0
4423489,,,,,,,,9.859375,-8.74609375,-3.07421875,0.033203125,-0.236328125,1.744140625,10.8984375,-18.1875,-1.57421875,1.0
4423490,36.01303633333334,129.32011416666668,136.50037787857016,70.60812127880867,3.2,226.0,,9.37890625,-9.11328125,4.1328125,-1.1015625,0.03125,-2.162109375,10.32421875,-18.5703125,5.625,1.0
4423491,,,,,,,,4.96484375,-11.94921875,2.71484375,0.375,-2.482421875,0.3046875,5.91796875,-21.41015625,4.20703125,1.0
4423492,,,,,,,,3.05859375,-12.24609375,2.140625,0.494140625,-1.443359375,0.970703125,4.00390625,-21.7109375,3.6328125,1.0
4423493,,,,,,,,-0.4921875,-7.5859375,0.28515625,0.642578125,0.931640625,3.10546875,0.1328125,-17.078125,1.87109375,1.0
4423494,,,,,,,,-1.58203125,-5.09765625,0.61328125,1.099609375,0.90234375,2.58984375,-1.55078125,-14.5859375,2.37109375,1.0
4423495,,,,,,,,-1.75390625,-2.9453125,0.625,1.48828125,0.5859375,2.486328125,-2.08984375,-12.40625,2.5625,1.0
4423496,,,,,,,,-2.69921875,-1.58984375,-0.48046875,1.587890625,0.53125,2.546875,-3.16015625,-11.02734375,1.52734375,1.0
4423497,,,,,,,,-3.5625,-0.2421875,-1.89453125,1.5,0.376953125,2.591796875,-4.2734375,-9.6484375,0.26171875,1.0
4423498,,,,,,,,-4.19921875,2.39453125,-2.9453125,1.435546875,0.232421875,2.484375,-5.15234375,-6.9609375,-0.65625,1.0
4423499,,,,,,,,-4.375,3.46484375,-2.9453125,1.39453125,0.23828125,2.416015625,-5.4609375,-5.85546875,-0.578125,1.0
4423500,36.0130345,129.3201116666667,136.2750089195573,70.40469250198257,3.1,226.0,0.0,-4.3984375,6.91796875,-2.03125,1.025390625,0.609375,2.240234375,-5.80859375,-2.33203125,0.4921875,1.0
4423501,,,,,,,,-3.10546875,9.98046875,-0.953125,0.71875,0.998046875,2.0078125,-4.84375,0.80859375,1.6796875,1.0
4423502,,,,,,,,-2.7734375,10.953125,-0.890625,0.642578125,1.046875,1.921875,-4.6171875,1.8046875,1.7578125,1.0
4423503,,,,,,,,-2.1171875,12.43359375,-1.4296875,0.54296875,0.978515625,1.6796875,-4.16015625,3.33984375,1.2578125,1.0
4423504,,,,,,,,-1.1875,12.8671875,-2.27734375,0.529296875,0.896484375,1.525390625,-3.3125,3.80078125,0.41796875,1.0
4423505,,,,,,,,-0.3359375,12.4296875,-3.3515625,0.60546875,0.599609375,1.2109375,-2.625,3.4140625,-0.6171875,1.0
4423506,,,,,,,,-0.33203125,10.890625,-3.921875,0.61328125,0.28125,0.396484375,-2.73828125,1.921875,-1.1171875,1.0
4423507,,,,,,,,-0.5078125,9.88671875,-4.02734375,0.587890625,0.265625,0.14453125,-2.93359375,0.92578125,-1.19140625,1.0
4423508,,,,,,,,-0.578125,6.60546875,-3.90625,0.529296875,0.33203125,-0.287109375,-3.0078125,-2.33203125,-1.0390625,1.0
4423509,,,,,,,,-0.2890625,6.33984375,-3.73828125,0.462890625,0.3828125,-0.447265625,-2.70703125,-2.59765625,-0.84765625,1.0
4423510,36.0130325,129.32010916666667,136.0496402358693,70.18277052398841,3.2,226.0,,0.078125,6.796875,-3.42578125,0.25390625,0.431640625,-0.689453125,-2.28125,-2.140625,-0.50390625,1.0
4423511,,,,,,,,1.14453125,8.13671875,-2.94140625,0.240234375,0.30078125,-0.677734375,-1.16796875,-0.80078125,-0.00390625,1.0
4423512,,,,,,,,1.9375,9.51953125,-2.72265625,0.318359375,0.072265625,-0.541015625,-0.328125,0.578125,0.22265625,1.0
4423513,,,,,,,,2.22265625,9.86328125,-2.66015625,0.349609375,-0.0546875,-0.50390625,-0.01953125,0.921875,0.30078125,1.0
4423514,,,,,,,,2.7578125,10.734375,-2.46875,0.40234375,-0.283203125,-0.494140625,0.5546875,1.80859375,0.53125,1.0
4423515,,,,,,,,2.78125,10.56640625,-2.4296875,0.390625,-0.50390625,-0.51171875,0.6328125,1.6484375,0.609375,1.0
4423516,,,,,,,,1.99609375,7.83984375,-1.23046875,0.27734375,-0.796875,-0.49609375,-0.05859375,-1.06640625,1.8671875,1.0
4423517,,,,,,,,1.91796875,-0.09765625,0.1484375,0.197265625,-0.916015625,-0.390625,-0.05859375,-8.9921875,3.2890625,1.0
4423518,,,,,,,,2.77734375,-5.15625,0.70703125,0.15625,-0.91015625,-0.330078125,0.82421875,-14.05859375,3.86328125,1.0
4423519,,,,,,,,4.67578125,-21.90234375,3.01953125,0.076171875,-0.7734375,-0.291015625,2.77734375,-30.79296875,6.19921875,1.0
4423520,36.0130305,129.32010583333334,135.74914749686135,69.96084739106243,3.4000000000000004,229.0,,12.43359375,-47.4140625,16.375,0.25390625,0.431640625,-0.689453125,10.58984375,-56.3046875,19.5703125,1.0
4423521,,,,,,,,9.24609375,-28.0625,13.96875,0.498046875,0.28125,-0.90625,7.48828125,-36.9609375,17.1953125,1.0
4423522,,,,,,,,2.703125,-11.7421875,3.296875,0.5625,1.025390625,-0.76953125,0.9765625,-20.64453125,6.546875,1.0
4423523,,,,,,,,-4.1328125,-7.0625,-2.2734375,0.25,1.17578125,-1.470703125,-5.8046875,-15.96875,0.9921875,1.0
4423524,,,,,,,,-3.98828125,-10.76171875,-4.24609375,0.0859375,-1.8125,-1.009765625,-5.53515625,-19.6796875,-0.96484375,1.0
4423525,,,,,,,,2.61328125,-13.05859375,1.38671875,-0.158203125,-3.255859375,-1.791015625,1.47265625,-22.015625,4.74609375,1.0
4423526,,,,,,,,3.05078125,-12.31640625,1.578125,-0.287109375,-1.861328125,-2.720703125,2.05078125,-21.2890625,4.9375,1.0
4423527,,,,,,,,3.38671875,-9.359375,0.7265625,-0.775390625,0.3515625,-3.615234375,2.69921875,-18.3828125,4.0546875,1.0
4423528,,,,,,,,3.51953125,-7.04296875,-0.63671875,-1.03125,0.66015625,-2.87890625,3.12109375,-16.12109375,2.59765625,1.0
4423529,,,,,,,,3.6796875,-6.17578125,-1.31640625,-1.126953125,0.365234375,-2.37890625,3.390625,-15.2734375,1.87109375,1.0
4423530,36.01302866666666,129.320103,135.49372888327437,69.75741817013876,3.3000000000000003,230.0,,5.015625,-3.82421875,-2.26953125,0.25390625,0.431640625,-0.689453125,10.58984375,-56.3046875,19.5703125,1.0
4423531,,,,,,,,4.96484375,-1.9140625,-1.609375,-1.478515625,-0.326171875,-2.3203125,5.19140625,-11.14453125,1.2578125,1.0
4423532,,,,,,,,4.578125,-0.63671875,-1.69140625,-1.486328125,-0.140625,-2.40234375,4.921875,-9.87890625,1.10546875,1.0
4423533,,,,,,,,4.13671875,0.8671875,-1.98828125,-1.416015625,0.224609375,-2.287109375,4.69140625,-8.421875,0.68359375,1.0
4423534,,,,,,,,4.09765625,1.5703125,-2.109375,-1.3515625,0.3203125,-2.138671875,4.76953125,-7.73828125,0.4921875,1.0
4423535,,,,,,,,3.6953125,4.1328125,-2.51171875,-1.1484375,0.375,-1.732421875,4.6171875,-5.203125,-0.08203125,1.0
4423536,,,,,,,,3.26953125,6.9375,-2.3125,-1.05859375,0.3828125,-1.669921875,4.26953125,-2.40625,0.0703125,1.0
4423537,,,,,,,,1.77734375,9.89453125,-2.4375,-0.501953125,0.517578125,-1.6484375,3.078125,0.54296875,-0.1953125,1.0
4423538,,,,,,,,0.87109375,11.07421875,-2.70703125,-0.328125,0.51953125,-1.6328125,2.31640625,1.73046875,-0.50390625,1.0
4423539,,,,,,,,-0.46484375,12.7421875,-3.10546875,-0.33203125,0.40234375,-1.59375,1.12890625,3.41796875,-0.92578125,1.0
4423540,36.01302666666666,129.32009966666666,135.19323611509614,69.53549505578201,3.5,231.0,,-1.1796875,13.41015625,-3.11328125,-0.380859375,0.158203125,-1.390625,0.5546875,4.10546875,-0.96484375,1.0
4423541,,,,,,,,-1.14453125,13.0859375,-3.53125,-0.427734375,-0.14453125,-0.94921875,0.70703125,3.80078125,-1.421875,1.0
4423542,,,,,,,,-0.1796875,11.46875,-3.5546875,-0.416015625,-0.41796875,-0.33984375,1.7421875,2.19140625,-1.5,1.0
4423543,,,,,,,,0.9453125,9.36328125,-3.69921875,-0.33203125,-0.580078125,0.109375,2.890625,0.08203125,-1.69140625,1.0
4423544,,,,,,,,0.79296875,8.10546875,-3.62890625,-0.236328125,-0.5390625,0.228515625,2.73828125,-1.18359375,-1.65234375,1.0
4423545,,,,,,,,-0.125,6.765625,-2.6953125,-0.232421875,-0.205078125,0.09375,1.8203125,-2.5234375,-0.7734375,1.0
4423546,,,,,,,,-2.0625,8.3046875,0.5546875,-0.302734375,0.013671875,0.28125,-0.1328125,-0.9921875,2.4453125,1.0
4423547,,,,,,,,-4.0546875,10.23046875,5.8828125,-0.423828125,0.14453125,0.748046875,-2.1640625,0.92578125,7.73828125,1.0
4423548,,,,,,,,-3.72265625,10.8671875,4.38671875,-0.46875,0.103515625,1.36328125,-1.93359375,1.5390625,6.1953125,1.0
4423549,,,,,,,,-1.96875,11.34765625,0.87109375,-0.37890625,-0.193359375,1.701171875,-0.328125,1.99609375,2.6328125,1.0
4423550,36.01302466666667,129.32009716666667,134.96786738197108,69.3135731064603,3.3000000000000003,229.0,,-0.74609375,10.484375,0.0625,-0.380859375,0.158203125,-1.390625,0.5546875,4.10546875,-0.96484375,1.0
4423551,,,,,,,,-0.02734375,3.2421875,0.0859375,-0.12109375,-1.369140625,0.19921875,1.47265625,-6.125,1.7578125,1.0
4423552,,,,,,,,-0.25390625,-9.3984375,5.08984375,-0.056640625,-1.16796875,0.251953125,1.24609375,-18.76953125,6.73828125,1.0
4423553,,,,,,,,-0.61328125,-31.77734375,11.578125,-0.107421875,-0.283203125,0.505859375,0.86328125,-41.13671875,13.2109375,1.0
4423554,,,,,,,,-7.9921875,-49.53515625,16.6484375,-0.43359375,0.916015625,0.5859375,-6.5703125,-58.91015625,18.265625,1.0
4423555,,,,,,,,-3.47265625,-10.37890625,5.2265625,0.23046875,2.083984375,-0.955078125,-2.08984375,-19.76171875,6.8125,1.0
4423556,,,,,,,,3.30078125,-7.08203125,-2.7734375,0.53125,1.76171875,-0.072265625,4.69140625,-16.4609375,-1.15625,1.0
4423557,,,,,,,,12.91796875,-9.98828125,-6.07421875,0.23828125,-0.908203125,1.556640625,14.19140625,-19.37890625,-4.41015625,1.0
4423558,,,,,,,,11.5234375,-10.46875,3.125,0.0703125,-3.396484375,0.0390625,12.7734375,-19.875,4.78125,1.0
4423559,,,,,,,,5.48046875,-12.34765625,4.17578125,0.046875,-3.36328125,0.08984375,6.76171875,-21.75390625,5.81640625,1.0
4423560,36.013023,129.32009449999998,134.72747325819049,69.12863734639949,3.1,228.0,,2.9765625,-13.02734375,3.7421875,-0.380859375,0.158203125,-1.390625,0.5546875,4.10546875,-0.96484375,1.0
4423561,,,,,,,,1.625,-9.53515625,2.12890625,0.552734375,1.107421875,4.236328125,2.5078125,-18.99609375,3.78515625,1.0
4423562,,,,,,,,0.671875,-7.15234375,0.40625,0.62890625,1.294921875,4.189453125,1.3203125,-16.6171875,2.1015625,1.0
4423563,,,,,,,,-1.04296875,-5.375,-0.390625,0.837890625,0.84375,3.294921875,-0.74609375,-14.86328125,1.375,1.0
4423564,,,,,,,,-2.92578125,-1.96484375,0.5390625,1.232421875,0.080078125,2.3984375,-2.89453125,-11.44921875,2.40625,1.0
4423565,,,,,,,,-4.3671875,-0.38671875,0.33203125,1.50390625,-0.265625,2.251953125,-4.5390625,-9.83984375,2.33203125,1.0
4423566,,,,,,,,-5.7109375,0.39453125,-0.65234375,1.53125,-0.111328125,2.666015625,-6.109375,-9.03125,1.48828125,1.0
4423567,,,,,,,,-5.6953125,3.3515625,-2.546875,1.423828125,0.099609375,2.978515625,-6.49609375,-6.0078125,-0.1953125,1.0
4423568,,,,,,,,-5.3203125,7.6015625,-3.49609375,1.037109375,0.265625,2.875,-6.53125,-1.6796875,-0.96484375,1.0
4423569,,,,,,,,-4.53515625,9.83203125,-3.41796875,0.90625,0.392578125,2.759765625,-5.87890625,0.58203125,-0.84765625,1.0
4423570,36.013020833333336,129.32009166666666,134.47205516526637,68.88822174156616,3.4000000000000004,226.0,,-2.96875,11.46875,-2.0703125,-0.380859375,0.158203125,-1.390625,-4.58203125,2.265625,0.5703125,1.0
4423571,,,,,,,,-2.06640625,12.8828125,-1.59765625,0.470703125,0.978515625,1.84375,-4.00390625,3.7578125,1.10546875,1.0
4423572,,,,,,,,-1.63671875,13.20703125,-1.61328125,0.443359375,1.015625,1.626953125,-3.66015625,4.1015625,1.10546875,1.0
4423573,,,,,,,,-0.3984375,13.00390625,-2.2890625,0.470703125,0.853515625,1.275390625,-2.5859375,3.94921875,0.453125,1.0
4423574,,,,,,,,-0.03125,12.37890625,-2.79296875,0.482421875,0.703125,1.130859375,-2.28125,3.33984375,-0.04296875,1.0
4423575,,,,,,,,-0.3125,10.0,-3.78125,0.4453125,0.4140625,0.6328125,-2.66796875,1.0,-1.0,1.0
4423576,,,,,,,,-0.75390625,7.83203125,-3.70703125,0.365234375,0.232421875,-0.009765625,-3.15625,-1.14453125,-0.88671875,1.0
4423577,,,,,,,,-1.13671875,7.13671875,-3.1484375,0.349609375,0.28125,-0.134765625,-3.5390625,-1.83203125,-0.3125,1.0
4423578,,,,,,,,-0.81640625,7.05078125,-2.62890625,0.142578125,0.525390625,-0.294921875,-3.1953125,-1.91015625,0.22265625,1.0
4423579,,,,,,,,-0.35546875,7.65625,-2.3203125,0.14453125,0.509765625,-0.2578125,-2.73828125,-1.296875,0.53125,1.0
4423580,36.013019166666666,129.320089,134.23166102177817,68.70328599492382,3.3000000000000003,227.0,,0.37109375,8.84375,-2.05859375,-0.380859375,0.158203125,-1.390625,-2.01171875,-0.109375,0.80078125,1.0
4423581,,,,,,,,1.85546875,10.29296875,-1.9140625,0.22265625,0.17578125,-0.234375,-0.51953125,1.34765625,0.953125,1.0
4423582,,,,,,,,3.13671875,10.93359375,-2.28125,0.3046875,0.025390625,-0.4375,0.78515625,1.9921875,0.609375,1.0
4423583,,,,,,,,3.375,11.05078125,-2.3671875,0.322265625,-0.0546875,-0.59375,1.0546875,2.11328125,0.53125,1.0
4423584,,,,,,,,4.0,10.54296875,-2.328125,0.357421875,-0.166015625,-0.8046875,1.7421875,1.61328125,0.609375,1.0
4423585,,,,,,,,2.703125,8.4375,-0.70703125,0.365234375,-0.21875,-0.814453125,0.515625,-0.4921875,2.25,1.0
4423586,,,,,,,,0.59375,5.6015625,2.01953125,0.26953125,-0.228515625,-0.615234375,-1.515625,-3.328125,5.0078125,1.0
4423587,,,,,,,,-0.0859375,-5.67578125,1.90625,0.21484375,-0.31640625,-0.2734375,-2.125,-14.58984375,4.9375,1.0
4423588,,,,,,,,1.8515625,-19.97265625,1.96484375,0.205078125,-0.408203125,-0.29296875,-0.171875,-28.875,5.01171875,1.0
4423589,,,,,,,,16.65234375,-48.7421875,11.671875,0.18359375,-0.654296875,-0.859375,14.69140625,-57.6484375,14.7421875,1.0
4423590,36.01301766666666,129.32008633333334,133.99126658594056,68.53684346138141,3.2,229.0,,12.609375,-31.79296875,19.03515625,0.369140625,-0.470703125,-1.611328125,10.78125,-40.7109375,22.13671875,1.0
4423591,,,,,,,,1.03125,-8.2578125,2.9296875,0.66015625,0.36328125,-1.697265625,-0.6328125,-17.19921875,6.0859375,1.0
4423592,,,,,,,,-1.19140625,-5.90625,1.56640625,0.138671875,1.150390625,-1.55859375,-2.73828125,-14.86328125,4.74609375,1.0
4423593,,,,,,,,-4.47265625,-11.59765625,-3.40625,-0.26171875,-1.767578125,-0.603515625,-5.91796875,-20.5625,-0.234375,1.0
4423594,,,,,,,,-4.18359375,-13.19140625,-2.265625,-0.45703125,-3.373046875,-0.18359375,-5.57421875,-22.171875,0.9140625,1.0
4423595,,,,,,,,1.0234375,-15.51171875,3.07421875,-0.26171875,-3.720703125,-0.5,-0.2109375,-24.5078125,6.27734375,1.0
4423596,,,,,,,,0.9453125,-15.50390625,3.06640625,0.033203125,-0.908203125,-2.3671875,0.171875,-23.0546875,5.2421875,1.0
4423597,,,,,,,,1.375,-12.484375,0.84375,-0.474609375,1.3203125,-3.373046875,1.47265625,-18.49609375,2.29296875,1.0
4423598,,,,,,,,2.12109375,-9.41015625,-0.88671875,-0.677734375,0.876953125,-2.904296875,2.2421875,-16.12109375,1.375,1.0
4423599,,,,,,,,2.984375,-5.48828125,-2.38671875,-1.080078125,-0.541015625,-2.453125,3.3515625,-13.703125,0.875,1.0
4423600,36.013016,129.32008349999998,133.73584760912672,68.35190750077531,3.2,230.0,0.0,12.609375,-31.79296875,19.03515625,-1.2265625,-0.521484375,-2.419921875,4.42578125,-11.7890625,1.3359375,1.0
4423601,,,,,,,,4.62109375,-1.86328125,-1.5625,-1.373046875,-0.01171875,-2.26171875,5.07421875,-10.3359375,0.953125,1.0
4423602,,,,,,,,4.66015625,-1.0546875,-1.78125,-1.35546875,0.1015625,-2.15234375,5.11328125,-9.49609375,0.64453125,1.0
4423603,,,,,,,,4.6484375,1.7734375,-2.9609375,-1.2265625,0.166015625,-2.001953125,5.3828125,-6.62109375,-0.84765625,1.0
4423604,,,,,,,,4.69140625,3.55859375,-3.80859375,-1.033203125,0.158203125,-1.9765625,5.8359375,-4.1328125,-1.34765625,1.0
4423605,,,,,,,,4.65625,6.33203125,-3.59765625,-0.888671875,0.25390625,-1.97265625,5.45703125,-1.87109375,-0.96484375,1.0
4423606,,,,,,,,4.1796875,8.0234375,-2.984375,-0.810546875,0.35546875,-1.90625,5.265625,-1.3359375,-0.6171875,1.0
4423607,,,,,,,,2.70703125,10.97265625,-2.140625,-0.5859375,0.666015625,-1.787109375,3.96484375,1.61328125,0.1484375,1.0
4423608,,,,,,,,0.52734375,11.76171875,-1.6953125,-0.384765625,0.890625,-1.576171875,2.01171875,2.4140625,0.53125,1.0
4423609,,,,,,,,-0.171875,11.87109375,-1.7578125,-0.3046875,0.8828125,-1.23828125,1.4375,2.53125,0.453125,1.0
4423610,36.01301433333333,129.32008050000002,133.46540381444382,68.16697131661607,3.4000000000000004,231.0,,-0.7578125,11.73828125,-2.30859375,-1.2265625,-0.521484375,-2.419921875,4.42578125,-11.7890625,1.3359375,1.0
4423611,,,,,,,,-0.55078125,10.93359375,-2.99609375,-0.384765625,0.287109375,-0.251953125,1.20703125,1.609375,-0.84765625,1.0
4423612,,,,,,,,0.54296875,9.2109375,-3.53125,-0.3203125,0.083984375,0.076171875,2.31640625,-0.109375,-1.421875,1.0
4423613,,,,,,,,0.66796875,8.68359375,-3.59375,-0.275390625,0.009765625,0.15625,2.43359375,-0.64453125,-1.5,1.0
4423614,,,,,,,,-0.046875,8.30859375,-3.21875,-0.2109375,-0.013671875,0.18359375,1.703125,-1.02734375,-1.15625,1.0
4423615,,,,,,,,-2.59765625,8.3515625,-1.15625,-0.255859375,0.03125,0.345703125,-0.86328125,-0.9921875,0.875,1.0
4423616,,,,,,,,-3.859375,8.8203125,0.984375,-0.361328125,0.048828125,0.697265625,-2.1640625,-0.53125,2.984375,1.0
4423617,,,,,,,,-4.46484375,9.91015625,2.0625,-0.537109375,-0.033203125,1.150390625,-2.85546875,0.54296875,4.015625,1.0
4423618,,,,,,,,-4.37109375,11.11328125,1.3984375,-0.591796875,-0.126953125,1.3359375,-2.81640625,1.73046875,3.33203125,1.0
4423619,,,,,,,,-3.87109375,12.015625,0.46484375,-0.6171875,-0.41796875,1.3203125,-2.43359375,2.61328125,2.33203125,1.0
4423620,36.013012333333336,129.32007783333333,133.22501018824246,67.94504918525803,3.3000000000000003,228.0,,-2.88671875,10.84375,-0.015625,-0.46875,-1.10546875,0.4296875,-1.55078125,1.421875,1.76171875,1.0
4423621,,,,,,,,-2.0546875,0.43359375,1.42578125,-0.318359375,-1.333984375,0.10546875,-0.7109375,-8.99609375,3.13671875,1.0
4423622,,,,,,,,-1.08203125,-14.24609375,5.06640625,-0.244140625,-1.154296875,-0.1171875,0.28515625,-23.66796875,6.73828125,1.0
4423623,,,,,,,,0.703125,-25.36328125,6.0078125,-0.25,-0.9296875,-0.232421875,2.0859375,-34.7734375,7.65625,1.0
4423624,,,,,,,,-9.44140625,-35.97265625,17.29296875,-0.46484375,0.279296875,-0.6171875,-7.98828125,-45.3828125,18.87890625,1.0
4423625,,,,,,,,-6.53125,-14.76171875,13.33203125,-0.466796875,1.546875,-1.224609375,-5.0,-24.16796875,14.89453125,1.0
4423626,,,,,,,,2.24609375,-6.84765625,-0.48046875,0.255859375,2.189453125,-0.529296875,3.84765625,-16.234375,1.10546875,1.0
4423627,,,,,,,,9.55859375,-10.515625,-3.84375,0.041015625,-0.595703125,1.25,11.08984375,-19.91796875,-2.2265625,1.0
4423628,,,,,,,,10.59375,-10.8125,-0.80078125,-0.125,-2.423828125,0.7265625,12.0859375,-20.22265625,0.80078125,1.0
4423629,,,,,,,,6.90625,-13.2109375,4.921875,-0.08203125,-3.48046875,0.546875,8.40625,-22.63671875,6.46875,1.0
4423630,36.0130105,129.320075,132.96959145987515,67.74162003760496,3.2,228.0,,3.7890625,-13.578125,3.91015625,-0.46875,-1.10546875,0.4296875,-1.55078125,1.421875,1.76171875,1.0
4423631,,,,,,,,1.0,-9.87109375,1.8046875,0.458984375,1.017578125,2.78125,2.2421875,-19.33984375,3.3671875,1.0
4423632,,,,,,,,0.3828125,-7.51171875,0.61328125,0.71875,1.111328125,3.044921875,1.3203125,-17.0,2.25390625,1.0
4423633,,,,,,,,-0.65625,-5.50390625,0.0703125,0.861328125,0.833984375,2.91015625,0.1328125,-15.01171875,1.7578125,1.0
4423634,,,,,,,,-2.11328125,-3.6953125,0.08984375,1.16015625,0.244140625,2.56640625,-1.58984375,-13.2109375,1.87109375,1.0
4423635,,,,,,,,-2.71875,-2.0234375,-0.640625,1.556640625,-0.04296875,2.732421875,-2.546875,-11.5234375,1.3359375,1.0
4423636,,,,,,,,-5.16015625,0.36328125,-2.12890625,1.568359375,-0.00390625,3.140625,-5.26953125,-9.11328125,-0.00390625,1.0
4423637,,,,,,,,-6.109375,2.96875,-2.36328125,1.4296875,0.083984375,3.21484375,-6.53515625,-6.46875,-0.08203125,1.0
4423638,,,,,,,,-5.9765625,2.953125,-2.41796875,1.3046875,0.291015625,2.947265625,-6.4921875,-5.3203125,0.1484375,1.0
4423639,,,,,,,,-5.671875,5.16796875,-2.05078125,1.029296875,0.59375,2.615234375,-6.26953125,-1.91015625,0.875,1.0
4423640,36.0130085,129.32007233333334,132.7291978120345,67.51969791866668,3.4000000000000004,226.0,,-2.890625,10.75,-1.7890625,0.783203125,0.8671875,2.0703125,-4.23828125,1.4609375,0.8359375,1.0
4423641,,,,,,,,-2.078125,13.29296875,-2.21875,0.642578125,0.671875,1.44140625,-3.6953125,4.06640625,0.4921875,1.0
4423642,,,,,,,,-1.3359375,14.48046875,-2.9921875,0.615234375,0.4296875,1.115234375,-3.0859375,5.29296875,-0.234375,1.0
4423643,,,,,,,,-1.2421875,14.49609375,-3.16796875,0.63671875,0.302734375,1.03515625,-3.046875,5.33203125,-0.38671875,1.0
4423644,,,,,,,,-1.33984375,13.08203125,-4.18359375,0.603515625,0.15234375,0.740234375,-3.23828125,3.94921875,-1.34765625,1.0
4423645,,,,,,,,-1.8203125,10.41796875,-4.0,0.455078125,0.177734375,0.302734375,-3.7734375,1.30859375,-1.1171875,1.0
4423646,,,,,,,,-2.1796875,7.60546875,-2.94921875,0.265625,0.32421875,-0.0234375,-4.15625,-1.48828125,-0.04296875,1.0
4423647,,,,,,,,-1.875,6.25,-2.0859375,0.109375,0.552734375,-0.03515625,-3.8515625,-2.828125,0.8359375,1.0
4423648,,,,,,,,-1.4765625,5.98046875,-1.84765625,0.076171875,0.634765625,0.005859375,-3.46875,-3.09765625,1.06640625,1.0
4423649,,,,,,,,0.37890625,6.625,-1.72265625,0.09765625,0.607421875,-0.26171875,-1.62890625,-2.4453125,1.18359375,1.0
4423650,36.013007,129.32006966666668,132.48880331556785,67.35325542758888,3.2,228.0,,2.078125,8.1953125,-2.0703125,0.140625,0.38671875,-0.759765625,0.09375,-0.875,0.8359375,1.0
4423651,,,,,,,,2.8828125,9.12109375,-2.23046875,0.2109375,0.02734375,-1.203125,0.9765625,0.04296875,0.68359375,1.0
4423652,,,,,,,,3.28125,9.97265625,-2.3515625,0.255859375,-0.166015625,-1.33984375,1.44140625,0.88671875,0.5703125,1.0
4423653,,,,,,,,2.7734375,10.86328125,-2.1171875,0.306640625,-0.521484375,-1.345703125,1.0546875,1.76953125,0.8359375,1.0
4423654,,,,,,,,1.3359375,10.86328125,-1.65625,0.33203125,-0.822265625,-0.921875,-0.25,1.765625,1.3359375,1.0
4423655,,,,,,,,-0.12890625,10.31640625,-1.05078125,0.33203125,-0.986328125,-0.263671875,-1.62890625,1.23046875,1.98828125,1.0
4423656,,,,,,,,-1.30078125,8.875,-0.32421875,0.2890625,-0.974609375,0.189453125,-2.77734375,-0.1875,2.75390625,1.0
4423657,,,,,,,,-2.65625,6.75390625,1.328125,0.1953125,-0.76171875,0.208984375,-4.1171875,-2.29296875,4.44140625,1.0
4423658,,,,,,,,-1.70703125,1.22265625,0.625,0.009765625,-0.20703125,-0.44921875,1.24609375,-16.12109375,1.296875,1.0
4423659,,,,,,,,2.68359375,-7.09765625,-1.8359375,-0.04296875,-0.02734375,-0.810546875,4.65234375,-24.46875,0.875,1.0
4423660,36.01300533333333,129.32006683333333,132.2333842696402,67.16831950881871,3.2,230.0,,2.078125,8.1953125,-2.0703125,0.140625,0.38671875,-0.759765625,20.97265625,-63.96875,16.19921875,1.0
4423661,,,,,,,,23.953125,-63.42578125,22.734375,0.025390625,0.728515625,-2.26171875,7.3359375,-37.65234375,15.6640625,1.0
4423662,,,,,,,,4.65625,-17.72265625,4.9765625,-0.376953125,2.048828125,-0.333984375,0.66796875,-18.2265625,3.671875,1.0
4423663,,,,,,,,-4.671875,-8.28515625,-1.75,-1.19921875,-3.90234375,-0.431640625,-9.17578125,-18.9921875,0.9140625,1.0
4423664,,,,,,,,-7.64453125,-10.2890625,-0.4921875,-0.673828125,-4.728515625,-0.96875,-6.6484375,-19.87890625,3.17578125,1.0
4423665,,,,,,,,-1.53515625,-10.95703125,1.9375,-0.634765625,-2.0078125,-2.5,-1.97265625,-20.1796875,4.78125,1.0
4423666,,,,,,,,-1.484375,-10.17578125,1.359375,-0.888671875,-0.3515625,-2.96875,-1.78125,-19.4140625,4.171875,1.0
4423667,,,,,,,,0.6328125,-7.63671875,-0.33203125,-1.4765625,1.07421875,-2.755859375,0.59375,-16.92578125,2.37109375,1.0
4423668,,,,,,,,2.6875,-5.64453125,-0.62890625,-1.291015625,0.646484375,-2.23046875,2.8515625,-14.97265625,1.94921875,1.0
4423669,,,,,,,,3.71875,-4.11328125,0.078125,-1.5234375,0.052734375,-2.0703125,4.078125,-13.48046875,2.5234375,1.0
4423670,36.01300383333333,129.32006416666667,131.9929897543168,67.00187703041847,3.1,231.0,,4.0625,-1.8984375,0.76953125,0.140625,0.38671875,-0.759765625,20.97265625,-63.96875,16.19921875,1.0
4423671,,,,,,,,3.8125,-0.21875,0.265625,-1.62890625,0.5,-1.6328125,4.5390625,-9.6484375,2.40625,1.0
4423672,,,,,,,,3.5703125,2.1953125,-0.87890625,-1.259765625,0.681640625,-1.099609375,4.4609375,-7.2734375,1.06640625,1.0
4423673,,,,,,,,3.48828125,4.08984375,-1.390625,-1.138671875,0.6640625,-1.0234375,4.42578125,-5.39453125,0.4921875,1.0
4423674,,,,,,,,2.85546875,8.31640625,-0.8828125,-0.771484375,0.755859375,-1.083984375,3.92578125,-1.18359375,0.875,1.0
4423675,,,,,,,,1.3046875,11.3125,-0.484375,-0.509765625,0.951171875,-1.072265625,2.47265625,1.8046875,1.21875,1.0
4423676,,,,,,,,0.5625,13.06640625,-1.41796875,-0.267578125,1.052734375,-0.974609375,1.8203125,3.56640625,0.26171875,1.0
4423677,,,,,,,,0.19140625,13.55859375,-2.60546875,-0.11328125,0.869140625,-0.767578125,1.51171875,4.06640625,-0.92578125,1.0
4423678,,,,,,,,0.3515625,13.7578125,-2.98046875,-0.1015625,0.66796875,-0.609375,1.703125,4.2578125,-1.30859375,1.0
4423679,,,,,,,,0.53515625,13.48046875,-3.23828125,-0.078125,0.029296875,-0.185546875,1.93359375,3.984375,-1.57421875,1.0
4423680,36.013002,129.32006083333332,131.69249652643566,66.79844724482965,3.4000000000000004,232.0,,1.83203125,11.09765625,-3.80859375,0.00390625,-0.1328125,0.099609375,3.234375,1.61328125,-2.15234375,1.0
4423681,,,,,,,,2.94921875,8.76171875,-4.43359375,0.14453125,-0.087890625,0.232421875,4.34375,-0.72265625,-2.76171875,1.0
4423682,,,,,,,,2.6875,7.7578125,-4.43359375,0.1875,-0.009765625,0.197265625,4.08203125,-1.71875,-2.76171875,1.0
4423683,,,,,,,,1.37109375,7.21484375,-3.80078125,0.048828125,0.298828125,0.171875,2.73828125,-2.25390625,-2.11328125,1.0
4423684,,,,,,,,-1.96875,7.4140625,-2.50390625,-0.095703125,0.486328125,0.642578125,-0.6328125,-2.06640625,-0.80859375,1.0
4423685,,,,,,,,-5.0390625,9.4609375,-0.91796875,-0.1640625,0.513671875,1.4140625,-3.8125,-0.03125,0.76171875,1.0
4423686,,,,,,,,-4.96875,9.4609375,-0.91015625,-0.208984375,0.36328125,2.140625,-4.34375,0.50390625,0.875,1.0
4423687,,,,,,,,-5.80078125,10.6640625,-0.62890625,-0.224609375,0.064453125,2.431640625,-4.88671875,1.73046875,1.44921875,1.0
4423688,,,,,,,,-5.49609375,11.484375,0.0546875,-0.0546875,-0.30078125,2.234375,-4.6171875,1.9609375,2.40625,1.0
4423689,,,,,,,,-5.2265625,11.5,0.78125,0.03515625,-0.47265625,2.046875,-4.34375,1.69140625,3.44140625,1.0
4423690,36.013000000000005,129.32005816666666,131.45210282031968,66.57652516189123,3.2,230.0,,1.83203125,11.09765625,-3.80859375,0.154296875,-0.78125,1.57421875,3.234375,1.61328125,-2.15234375,1.0
4423691,,,,,,,,-0.46875,5.19921875,0.5390625,0.27734375,-1.02734375,0.912109375,-0.2109375,-4.3203125,2.1796875,1.0
4423692,,,,,,,,1.9296875,-4.0859375,0.97265625,0.314453125,-1.2109375,-0.06640625,2.1640625,-13.59765625,2.63671875,1.0
4423693,,,,,,,,4.5859375,-36.39453125,10.98828125,0.357421875,-1.0234375,-0.75,4.8828125,-45.88671875,12.67578125,1.0
4423694,,,,,,,,-5.65234375,-56.91015625,21.40625,0.404296875,-0.16015625,-0.748046875,-5.26953125,-66.37890625,23.1328125,1.0
4423695,,,,,,,,-7.453125,-15.234375,7.140625,-0.224609375,1.439453125,-0.15625,-7.03125,-24.70703125,8.8828125,1.0
4423696,,,,,,,,-3.55859375,-9.94140625,2.390625,0.095703125,2.193359375,-0.2421875,-3.16015625,-19.41796875,4.1328125,1.0
4423697,,,,,,,,1.94921875,-5.65625,-5.73046875,0.439453125,0.9296875,1.1796875,2.31640625,-15.125,-3.94921875,1.0
4423698,,,,,,,,7.28515625,-10.0546875,-7.2421875,-0.1640625,-2.4140625,2.64453125,7.44921875,-19.53515625,-5.4453125,1.0
4423699,,,,,,,,10.5078125,-11.77734375,5.90625,0.119140625,-3.541015625,1.60546875,10.515625,-21.25,7.6953125,1.0
4423700,36.01299816666666,129.3200555,131.2117088264724,66.37309629055945,3.2,228.0,0.0,4.140625,-12.15234375,2.93359375,0.453125,-1.51953125,1.18359375,4.078125,-21.63671875,4.74609375,1.0
4423701,,,,,,,,2.69140625,-8.375,0.2109375,0.748046875,1.619140625,2.654296875,2.35546875,-17.84375,2.1015625,1.0
4423702,,,,,,,,0.8359375,-4.484375,-2.08984375,1.060546875,0.853515625,2.896484375,0.2109375,-13.9375,-0.12109375,1.0
4423703,,,,,,,,0.24609375,-3.62890625,-2.09765625,1.087890625,0.31640625,2.8125,-0.51953125,-13.05859375,-0.08203125,1.0
4423704,,,,,,,,-1.89453125,-1.8671875,0.2734375,1.23046875,-0.359375,2.537109375,-2.89453125,-11.26171875,2.40625,1.0
4423705,,,,,,,,-2.84765625,-1.15625,0.80078125,1.4453125,-0.349609375,2.53515625,-4.08203125,-10.49609375,3.05859375,1.0
4423706,,,,,,,,-3.27734375,1.35546875,-0.8359375,1.50390625,0.11328125,2.236328125,-4.84765625,-7.88671875,1.640625,1.0
4423707,,,,,,,,-3.39453125,5.31640625,-2.72265625,1.341796875,0.193359375,1.8984375,-5.1484375,-3.86328125,-0.12109375,1.0
4423708,,,,,,,,-3.15625,6.359375,-3.05078125,1.24609375,0.22265625,1.8046875,-5.00390625,-2.7890625,-0.38671875,1.0
4423709,,,,,,,,-3.0234375,9.55078125,-2.76953125,1.08203125,0.32421875,1.669921875,-5.0390625,0.46484375,-0.00390625,1.0
4423710,36.012996333333334,129.32005283333334,130.9713148210352,66.16966742717233,3.2,227.0,,-2.3984375,10.68359375,-2.3125,0.8671875,0.490234375,1.595703125,-4.58203125,1.65234375,0.53125,1.0
4423711,,,,,,,,-2.1328125,12.0234375,-2.16015625,0.580078125,0.78125,1.486328125,-4.5390625,3.0703125,0.76171875,1.0
4423712,,,,,,,,-1.94140625,12.3359375,-2.29296875,0.521484375,0.810546875,1.396484375,-4.42578125,3.4140625,0.64453125,1.0
4423713,,,,,,,,-1.6484375,12.21484375,-3.08203125,0.4765625,0.685546875,1.20703125,-4.27734375,3.33984375,-0.12109375,1.0
4423714,,,,,,,,-1.4765625,11.73828125,-3.39453125,0.474609375,0.5625,1.033203125,-4.15625,2.87890625,-0.42578125,1.0
4423715,,,,,,,,-1.16015625,7.453125,-3.84765625,0.44140625,0.298828125,0.517578125,-3.92578125,-1.375,-0.84765625,1.0
4423716,,,,,,,,-0.74609375,5.96875,-3.58984375,0.365234375,0.078125,-0.173828125,-3.54296875,-2.828125,-0.54296875,1.0
4423717,,,,,,,,0.47265625,5.76953125,-2.83984375,0.318359375,0.0703125,-0.345703125,-2.31640625,-3.01953125,0.22265625,1.0
4423718,,,,,,,,1.9609375,7.73828125,-2.33203125,0.17578125,0.044921875,-1.072265625,-0.7109375,-1.06640625,0.76171875,1.0
4423719,,,,,,,,2.22265625,8.2890625,-2.37890625,0.189453125,-0.02734375,-1.298828125,-0.40234375,-0.53125,0.71875,1.0
4423720,36.01299466666667,129.32005033333334,130.74594534393788,65.98473200106703,3.1,228.0,,2.7421875,10.19140625,-2.5078125,0.26953125,-0.291015625,-1.62890625,0.25,1.34765625,0.609375,1.0
4423721,,,,,,,,2.8125,11.6015625,-2.80859375,0.27734375,-0.587890625,-1.65625,0.4765625,2.7265625,0.33984375,1.0
4423722,,,,,,,,2.61328125,12.0,-3.125,0.20703125,-0.8203125,-1.427734375,0.44140625,3.109375,0.0703125,1.0
4423723,,,,,,,,2.38671875,12.08984375,-3.21484375,0.142578125,-0.916015625,-1.25390625,0.28515625,3.18359375,-0.00390625,1.0
4423724,,,,,,,,0.6015625,10.52734375,-2.625,-0.076171875,-1.08203125,-0.654296875,-1.3203125,1.609375,0.609375,1.0
4423725,,,,,,,,-2.046875,6.46875,0.65234375,-0.12890625,-1.056640625,-0.25,-3.890625,-2.4453125,3.8984375,1.0
4423726,,,,,,,,-2.734375,0.5703125,0.95703125,-0.1640625,-0.837890625,-0.078125,-4.5390625,-8.34765625,4.20703125,1.0
4423727,,,,,,,,-0.62109375,-13.64453125,-0.18359375,-0.166015625,-0.47265625,-0.30859375,-2.39453125,-22.55859375,3.05859375,1.0
4423728,,,,,,,,3.29296875,-20.953125,-0.25,-0.169921875,-0.2421875,-0.697265625,1.55078125,-29.875,2.984375,1.0
4423729,,,,,,,,26.08203125,-51.875,16.0,0.296875,1.203125,-2.517578125,24.53515625,-60.828125,19.2265625,1.0
4423730,36.01299316666667,129.3200475,130.49052595001345,65.81828934121592,3.1,230.0,,5.53125,-14.23046875,1.5859375,0.263671875,2.28515625,-3.01171875,4.1953125,-23.20703125,4.8203125,1.0
4423731,,,,,,,,1.3984375,-9.85546875,0.09375,-0.33203125,2.412109375,-1.736328125,0.2109375,-18.875,3.2890625,1.0
4423732,,,,,,,,-4.08203125,-10.66796875,-1.9296875,-0.458984375,-0.822265625,-0.880859375,-5.19140625,-19.71875,1.21875,1.0
4423733,,,,,,,,-0.546875,-13.74609375,1.98828125,-0.2734375,-4.650390625,0.11328125,-1.4765625,-22.82421875,5.12890625,1.0
4423734,,,,,,,,-0.38671875,-13.203125,2.1015625,-0.037109375,-3.974609375,-0.76171875,-1.24609375,-22.2890625,5.2421875,1.0
4423735,,,,,,,,0.93359375,-11.234375,1.6328125,-0.4453125,-0.884765625,-2.85546875,0.32421875,-20.3359375,4.78125,1.0
4423736,,,,,,,,3.14453125,-7.9609375,-0.5625,-0.90234375,0.58203125,-3.23046875,2.81640625,-17.12109375,2.5234375,1.0
4423737,,,,,,,,4.17578125,-6.828125,-2.125,-0.888671875,0.51171875,-2.751953125,4.00390625,-16.0078125,0.9140625,1.0
4423738,,,,,,,,4.4296875,-6.0078125,-2.3203125,-1.400390625,-0.517578125,-1.80078125,4.5390625,-15.2421875,0.5703125,1.0
4423739,,,,,,,,4.91796875,-4.7890625,-1.63671875,-1.4375,-0.63671875,-1.9609375,5.11328125,-14.05859375,1.18359375,1.0
4423740,36.0129915,129.320045,130.26515645389472,65.63335392605245,3.0,230.0,,4.8046875,-1.80078125,-1.10546875,0.263671875,2.28515625,-3.01171875,5.2265625,-11.1015625,1.56640625,1.0
4423741,,,,,,,,4.23828125,1.6328125,-1.34765625,-1.26953125,0.302734375,-1.666015625,5.03515625,-7.734375,1.06640625,1.0
4423742,,,,,,,,3.79296875,4.9921875,-2.1171875,-1.0625,0.29296875,-1.53515625,4.73046875,-4.3984375,0.1875,1.0
4423743,,,,,,,,3.484375,6.03125,-2.29296875,-0.95703125,0.27734375,-1.513671875,4.50390625,-3.3671875,-0.04296875,1.0
4423744,,,,,,,,2.2734375,9.21875,-2.21484375,-0.72265625,0.328125,-1.599609375,3.43359375,-0.1875,-0.04296875,1.0
4423745,,,,,,,,1.42578125,10.90625,-1.69921875,-0.55859375,0.490234375,-1.728515625,2.734375,1.5,0.41796875,1.0
4423746,,,,,,,,0.58203125,12.69140625,-1.35546875,-0.453125,0.681640625,-1.62890625,2.05078125,3.30078125,0.72265625,1.0
4423747,,,,,,,,-0.12109375,13.91015625,-1.4765625,-0.427734375,0.6953125,-1.337890625,1.47265625,4.5234375,0.5703125,1.0
4423748,,,,,,,,-0.18359375,14.24609375,-1.578125,-0.42578125,0.638671875,-1.181640625,1.47265625,4.87109375,0.453125,1.0
4423749,,,,,,,,-0.49609375,14.4296875,-2.65625,-0.373046875,0.431640625,-0.904296875,1.24609375,5.06640625,-0.65625,1.0
4423750,36.01298966666666,129.32004166666667,129.96466313912717,65.42992419947798,3.4000000000000004,231.0,,0.44140625,10.515625,-3.8359375,-0.3125,0.14453125,-0.5078125,2.2734375,1.15625,-1.8828125,1.0
4423751,,,,,,,,0.83984375,6.4765625,-3.55859375,-0.30859375,0.16015625,-0.2109375,2.73828125,-2.87109375,-1.65234375,1.0
4423752,,,,,,,,0.6328125,5.83203125,-3.3046875,-0.357421875,0.48828125,-0.130859375,2.546875,-3.515625,-1.421875,1.0
4423753,,,,,,,,-0.4765625,5.3359375,-1.98046875,-0.421875,0.900390625,0.0,1.4375,-4.015625,-0.12109375,1.0
4423754,,,,,,,,-2.0390625,6.21484375,-0.66015625,-0.453125,1.05078125,0.146484375,-0.1328125,-3.13671875,1.18359375,1.0
4423755,,,,,,,,-3.671875,8.30859375,0.3828125,-0.544921875,0.91015625,0.98828125,-1.859375,-1.06640625,2.18359375,1.0
4423756,,,,,,,,-4.765625,11.28125,0.83984375,-0.521484375,0.291015625,1.69921875,-3.0859375,1.8828125,2.59765625,1.0
4423757,,,,,,,,-4.79296875,11.86328125,0.71875,-0.486328125,-0.123046875,1.90234375,-3.1953125,2.45703125,2.4453125,1.0
4423758,,,,,,,,-4.515625,12.74609375,-0.10546875,-0.44921875,-0.96875,1.900390625,-3.0859375,3.30078125,1.56640625,1.0
4423759,,,,,,,,-4.13671875,12.828125,-0.6953125,-0.421875,-1.326171875,1.724609375,-2.77734375,3.37890625,0.953125,1.0
4423760,36.012987833333334,129.320039,129.72426907937742,65.22649537055908,3.2,229.0,,-2.34765625,12.23828125,-1.71484375,-0.337890625,-1.97265625,0.708984375,-1.12890625,2.7578125,-0.16015625,1.0
4423761,,,,,,,,0.1796875,8.9765625,-0.84765625,-0.271484375,-1.912109375,0.029296875,1.40234375,-0.4921875,0.64453125,1.0
4423762,,,,,,,,4.35546875,-9.3046875,2.984375,-0.13671875,-1.4140625,-0.255859375,5.61328125,-18.765625,4.4375,1.0
4423763,,,,,,,,3.44921875,-29.9765625,9.09765625,0.06640625,-0.076171875,-0.30078125,4.76953125,-39.4140625,10.52734375,1.0
4423764,,,,,,,,-13.21484375,-54.53125,19.51171875,-0.109375,1.2421875,0.390625,-11.89453125,-63.97265625,20.94921875,1.0
4423765,,,,,,,,-5.015625,-10.5390625,4.03515625,-0.271484375,2.802734375,0.595703125,-3.7734375,-19.9921875,5.47265625,1.0
4423766,,,,,,,,1.63671875,-7.625,-3.3359375,0.45703125,2.884765625,-0.20703125,2.81640625,-17.08203125,-1.84375,1.0
4423767,,,,,,,,7.6875,-10.5390625,-8.43359375,-0.015625,0.419921875,1.51171875,8.7890625,-19.99609375,-6.90234375,1.0
4423768,,,,,,,,16.140625,-9.984375,-2.28125,-0.17578125,-3.1328125,0.966796875,17.140625,-19.45703125,-0.7734375,1.0
4423769,,,,,,,,7.484375,-9.328125,5.0546875,0.48046875,-3.517578125,0.228515625,8.484375,-18.80859375,6.546875,1.0
4423770,36.012986166666664,129.32003633333335,129.48387473752996,65.0415597546317,3.1,228.0,,2.17578125,-9.6953125,3.3984375,0.716796875,0.478515625,2.962890625,3.04296875,-19.1875,4.9375,1.0
4423771,,,,,,,,-0.2578125,-6.1171875,-0.83984375,0.94921875,1.47265625,3.796875,0.25,-15.62890625,0.80078125,1.0
4423772,,,,,,,,-0.5859375,-5.07421875,-1.33984375,0.84375,1.287109375,3.50390625,-0.25,-14.5859375,0.33984375,1.0
4423773,,,,,,,,-1.88671875,-2.75390625,-0.953125,1.2578125,0.462890625,2.3046875,-1.97265625,-12.25,0.875,1.0
4423774,,,,,,,,-3.8828125,-1.04296875,-0.51171875,1.517578125,0.306640625,2.333984375,-4.1953125,-10.5234375,1.44921875,1.0
4423775,,,,,,,,-4.421875,0.37109375,-1.00390625,1.58203125,0.3984375,2.59765625,-4.9609375,-9.07421875,1.10546875,1.0
4423776,,,,,,,,-4.78125,2.2265625,-1.65625,1.544921875,0.419921875,2.6953125,-5.4609375,-7.1953125,0.53125,1.0
4423777,,,,,,,,-4.5,5.28125,-2.515625,1.30859375,0.4296875,2.85546875,-5.46484375,-4.09375,-0.1953125,1.0
4423778,,,,,,,,-4.3125,6.16796875,-2.609375,1.173828125,0.451171875,2.8671875,-5.3828125,-3.17578125,-0.234375,1.0
4423779,,,,,,,,-3.49609375,8.69140625,-2.55078125,1.00390625,0.60546875,2.66015625,-4.84765625,-0.60546875,-0.08203125,1.0
4423780,36.012983999999996,129.3200336666667,129.2434811994485,64.8011445250974,3.3000000000000003,226.0,,-3.1640625,9.5,-2.09765625,0.716796875,0.478515625,2.962890625,-4.65625,0.234375,0.41796875,1.0
4423781,,,,,,,,-2.4296875,10.89453125,-1.28125,0.82421875,1.0078125,2.138671875,-4.16015625,1.69140625,1.296875,1.0
4423782,,,,,,,,-2.1796875,11.0390625,-1.21484375,0.69140625,1.251953125,1.76953125,-4.12109375,1.8828125,1.41015625,1.0
4423783,,,,,,,,-1.78515625,11.60546875,-1.8515625,0.53515625,1.19921875,0.98046875,-4.04296875,2.53515625,0.8359375,1.0
4423784,,,,,,,,-1.8125,10.66796875,-2.546875,0.521484375,1.07421875,0.869140625,-4.12109375,1.61328125,0.1484375,1.0
4423785,,,,,,,,-2.03515625,8.25390625,-3.0703125,0.357421875,0.697265625,0.392578125,-4.46484375,-0.76171875,-0.3515625,1.0
4423786,,,,,,,,-1.7265625,7.05078125,-3.12109375,0.283203125,0.56640625,-0.021484375,-4.1953125,-1.94921875,-0.38671875,1.0
4423787,,,,,,,,-1.45703125,6.8984375,-3.09375,0.251953125,0.537109375,-0.22265625,-3.92578125,-2.1015625,-0.3515625,1.0
4423788,,,,,,,,0.15625,7.16796875,-3.20703125,0.177734375,0.48828125,-0.771484375,-2.28515625,-1.83203125,-0.46484375,1.0
4423789,,,,,,,,0.77734375,7.51953125,-3.3203125,0.16015625,0.412109375,-1.087890625,-1.625,-1.48828125,-0.578125,1.0
4423790,36.01298233333333,129.32003083333333,128.98806201170086,64.61620870227782,3.2,228.0,,2.57421875,8.5703125,-3.796875,0.716796875,0.478515625,2.962890625,-4.65625,0.234375,0.41796875,1.0
4423791,,,,,,,,3.4375,9.52734375,-4.00390625,0.232421875,-0.302734375,-1.986328125,1.3203125,0.46484375,-1.23046875,1.0
4423792,,,,,,,,4.1875,10.37890625,-4.2421875,0.28515625,-0.533203125,-1.94921875,2.16796875,1.30859375,-1.4609375,1.0
4423793,,,,,,,,4.0546875,10.78515625,-4.16796875,0.330078125,-0.953125,-1.51171875,2.20703125,1.69140625,-1.34765625,1.0
4423794,,,,,,,,3.67578125,10.75390625,-3.69140625,0.322265625,-1.09375,-1.21484375,1.89453125,1.65234375,-0.84765625,1.0
4423795,,,,,,,,1.828125,9.67578125,-2.93359375,0.259765625,-1.244140625,-0.53515625,0.171875,0.578125,-0.04296875,1.0
4423796,,,,,,,,0.2890625,8.671875,-2.27734375,0.21484375,-1.2734375,0.16796875,-1.3203125,-0.4140625,0.64453125,1.0
4423797,,,,,,,,-0.79296875,7.97265625,-1.1875,0.19140625,-1.255859375,0.431640625,-2.39453125,-1.10546875,1.7578125,1.0
4423798,,,,,,,,0.375,-11.203125,0.01953125,-0.046875,-0.845703125,0.806640625,-1.3203125,-20.21875,3.01953125,1.0
4423799,,,,,,,,3.8671875,-20.0234375,0.16796875,-0.109375,-0.744140625,0.32421875,2.1640625,-29.03125,3.17578125,1.0
4423800,36.012980666666664,129.32002783333334,128.71761800009696,64.43127266699628,3.3000000000000003,230.0,0.0,21.828125,-49.11328125,10.0859375,0.716796875,0.478515625,2.962890625,-4.65625,0.234375,0.41796875,1.0
4423801,,,,,,,,5.4921875,-17.87109375,6.80859375,0.416015625,0.9296875,-2.849609375,4.1953125,-26.92578125,9.83984375,1.0
4423802,,,,,,,,-1.31640625,-8.34765625,-0.9296875,-0.064453125,1.669921875,-1.771484375,-2.43359375,-17.421875,2.1015625,1.0
4423803,,,,,,,,-4.7109375,-11.1875,-3.00390625,-0.2265625,0.076171875,-0.591796875,-5.765625,-20.30078125,-0.00390625,1.0
4423804,,,,,,,,-4.23828125,-12.51953125,-0.9375,-0.388671875,-3.7421875,0.388671875,-5.23046875,-21.63671875,2.0625,1.0
4423805,,,,,,,,-0.79296875,-13.00390625,0.88671875,-0.0390625,-4.076171875,-0.28125,-1.66796875,-22.13671875,3.90234375,1.0
4423806,,,,,,,,2.109375,-13.1875,1.375,-0.099609375,-3.044921875,-1.140625,1.3203125,-22.328125,4.3984375,1.0
4423807,,,,,,,,4.203125,-10.53515625,0.48046875,-0.89453125,0.521484375,-2.92578125,3.7734375,-19.72265625,3.44140625,1.0
4423808,,,,,,,,3.875,-8.34375,-0.7734375,-0.94140625,0.439453125,-2.712890625,3.6953125,-17.58203125,2.1015625,1.0
4423809,,,,,,,,3.640625,-5.5859375,-1.17578125,-1.11328125,-0.34375,-2.36328125,3.6953125,-14.86328125,1.60546875,1.0
4423810,36.012979,129.32002516666668,128.477223613331,64.24633707914035,3.1,230.0,,4.06640625,-2.51171875,-0.9921875,-1.232421875,-0.68359375,-2.119140625,4.34765625,-11.828125,1.6796875,1.0
4423811,,,,,,,,3.62890625,-0.2734375,-1.9765625,-1.240234375,-0.119140625,-1.80859375,4.30859375,-9.65234375,0.453125,1.0
4423812,,,,,,,,3.95703125,2.578125,-2.91015625,-1.19140625,-0.01953125,-1.693359375,4.73046875,-6.81640625,-0.54296875,1.0
4423813,,,,,,,,3.41796875,5.359375,-2.875,-0.908203125,0.197265625,-1.65234375,4.421875,-4.0546875,-0.65625,1.0
4423814,,,,,,,,3.22265625,6.32421875,-2.453125,-0.798828125,0.298828125,-1.701171875,4.3046875,-3.09765625,-0.2734375,1.0
4423815,,,,,,,,2.60546875,7.8125,-1.69921875,-0.5625,0.58203125,-1.66015625,3.84765625,-1.6015625,0.41796875,1.0
4423816,,,,,,,,1.35546875,9.80078125,-1.27734375,-0.41015625,0.87890625,-1.548828125,2.734375,0.38671875,0.80078125,1.0
4423817,,,,,,,,0.98828125,10.4453125,-1.234375,-0.35546875,0.96484375,-1.48828125,2.43359375,1.0390625,0.8359375,1.0
4423818,,,,,,,,-0.203125,12.125,-1.36328125,-0.248046875,0.884765625,-1.349609375,1.359375,2.7265625,0.68359375,1.0
4423819,,,,,,,,-0.96484375,13.06640625,-1.82421875,-0.25390625,0.6015625,-1.123046875,0.70703125,3.6796875,0.22265625,1.0
4423820,36.012977,129.320022,128.1917552982561,64.02441442580519,3.6,230.0,,-1.28125,13.90234375,-2.90234375,-0.251953125,0.251953125,-0.787109375,0.4765625,4.52734375,-0.88671875,1.0
4423821,,,,,,,,-0.1171875,12.3984375,-3.8359375,-0.23828125,-0.09375,-0.466796875,1.703125,3.03125,-1.84375,1.0
4423822,,,,,,,,0.9765625,9.44140625,-4.76171875,-0.265625,-0.2734375,-0.283203125,2.85546875,0.08203125,-2.80078125,1.0
4423823,,,,,,,,1.16015625,8.33984375,-4.74609375,-0.26171875,-0.263671875,-0.29296875,3.0390625,-1.02734375,-2.80078125,1.0
4423824,,,,,,,,0.44921875,6.40625,-3.828125,-0.236328125,0.033203125,-0.345703125,2.39453125,-2.94921875,-1.921875,1.0
4423825,,,,,,,,-1.453125,7.13671875,-2.5703125,-0.37109375,0.33203125,-0.10546875,0.515625,-2.2109375,-0.6953125,1.0
4423826,,,,,,,,-3.19921875,8.4921875,-0.5546875,-0.607421875,0.4296875,0.873046875,-1.28515625,-0.875,1.2578125,1.0
4423827,,,,,,,,-4.296875,10.921875,3.43359375,-0.578125,-0.279296875,2.046875,-2.6640625,1.5,5.125,1.0
4423828,,,,,,,,-3.93359375,11.21484375,3.42578125,-0.548828125,-0.5546875,2.044921875,-2.39453125,1.76953125,5.0859375,1.0
4423829,,,,,,,,-2.55078125,11.20703125,2.19140625,-0.51953125,-1.13671875,1.462890625,-1.16796875,1.73046875,3.78125,1.0
4423830,36.01297516666667,129.32001916666667,127.93633633698637,63.820985427523595,3.4000000000000004,229.0,,0.69140625,8.68359375,1.14453125,-0.484375,-1.623046875,0.44921875,0.4765625,4.52734375,-0.88671875,1.0
4423831,,,,,,,,3.15625,-3.765625,3.3203125,-0.3359375,-1.74609375,-0.3515625,4.5,-13.25,4.78125,1.0
4423832,,,,,,,,2.47265625,-23.31640625,9.15234375,-0.21875,-1.078125,-0.41796875,3.88671875,-32.78125,10.56640625,1.0
4423833,,,,,,,,-14.265625,-40.1328125,12.32421875,-0.345703125,0.216796875,-0.255859375,-12.8125,-49.6015625,13.70703125,1.0
4423834,,,,,,,,-12.0625,-18.0234375,11.8203125,-0.484375,1.203125,-0.40234375,-10.59375,-27.50390625,13.171875,1.0
4423835,,,,,,,,-4.25390625,-9.1875,2.015625,0.11328125,2.033203125,-1.17578125,-2.73828125,-18.65234375,3.3671875,1.0
4423836,,,,,,,,-0.80078125,-9.234375,-1.609375,0.26171875,2.05078125,-0.734375,0.74609375,-18.69140625,-0.234375,1.0
4423837,,,,,,,,4.3125,-9.37109375,-5.5859375,-0.146484375,-0.15234375,2.294921875,5.765625,-18.83984375,-4.1796875,1.0
4423838,,,,,,,,12.92578125,-8.4609375,0.0,0.021484375,-3.345703125,1.173828125,14.23046875,-17.9609375,1.375,1.0
4423839,,,,,,,,7.34765625,-10.1015625,6.58203125,0.345703125,-3.513671875,0.28125,8.63671875,-19.609375,7.92578125,1.0
4423840,36.012973333333335,129.32001649999998,127.69594218373192,63.61755665385435,3.2,228.0,,2.16015625,-9.79296875,4.11328125,-0.484375,-1.623046875,0.44921875,0.4765625,4.52734375,-0.88671875,1.0
4423841,,,,,,,,0.1640625,-6.0625,2.10546875,0.6328125,0.62890625,2.384765625,1.359375,-15.58984375,3.51953125,1.0
4423842,,,,,,,,-0.0234375,-4.96484375,0.76171875,0.82421875,1.2734375,2.95703125,0.8984375,-14.5078125,2.25390625,1.0
4423843,,,,,,,,-0.76171875,-4.1171875,0.31640625,0.9375,1.12890625,2.7734375,-0.01953125,-13.67578125,1.87109375,1.0
4423844,,,,,,,,-1.76953125,-3.03515625,0.796875,1.1953125,0.71875,2.126953125,-1.24609375,-12.59375,2.4453125,1.0
4423845,,,,,,,,-3.3125,-1.79296875,0.44140625,1.546875,0.341796875,1.990234375,-3.0859375,-11.33203125,2.29296875,1.0
4423846,,,,,,,,-4.2578125,0.2265625,-0.81640625,1.5703125,0.251953125,2.294921875,-4.234375,-9.30859375,1.18359375,1.0
4423847,,,,,,,,-5.70703125,4.96875,-2.0625,1.3046875,0.08984375,2.4453125,-6.03515625,-4.515625,0.1484375,1.0
4423848,,,,,,,,-5.48828125,6.6328125,-1.98828125,1.220703125,0.142578125,2.375,-5.953125,-2.828125,0.30078125,1.0
4423849,,,,,,,,-5.11328125,8.421875,-1.5546875,0.896484375,0.55078125,1.9609375,-5.87890625,-0.9921875,0.875,1.0
4423850,36.01297133333333,129.320014,127.47057311129585,63.395634899193745,3.3000000000000003,226.0,,-4.390625,10.7734375,-1.5390625,0.640625,0.783203125,1.755859375,-5.34765625,1.3828125,0.953125,1.0
4423851,,,,,,,,-3.140625,12.69921875,-1.43359375,0.486328125,0.83203125,1.66015625,-4.2734375,3.33984375,1.10546875,1.0
4423852,,,,,,,,-3.015625,13.1328125,-1.48828125,0.43359375,0.7890625,1.595703125,-4.234375,3.796875,1.06640625,1.0
4423853,,,,,,,,-2.19921875,13.9453125,-1.90234375,0.396484375,0.580078125,1.380859375,-3.58203125,4.640625,0.68359375,1.0
4423854,,,,,,,,-1.82421875,13.82421875,-2.30859375,0.40234375,0.47265625,1.212890625,-3.27734375,4.5234375,0.30078125,1.0
4423855,,,,,,,,-1.4609375,11.75390625,-3.703125,0.45703125,0.1640625,0.390625,-3.046875,2.49609375,-1.0390625,1.0
4423856,,,,,,,,-1.796875,7.90625,-4.05078125,0.37890625,0.02734375,-0.357421875,-3.390625,-1.3359375,-1.34765625,1.0
4423857,,,,,,,,-1.93359375,6.98828125,-3.98046875,0.322265625,0.013671875,-0.689453125,-3.50390625,-2.25390625,-1.26953125,1.0
4423858,,,,,,,,-0.94921875,6.09765625,-3.12109375,0.20703125,0.11328125,-1.138671875,-2.43359375,-3.1328125,-0.38671875,1.0
4423859,,,,,,,,0.03515625,7.65625,-2.2109375,0.00390625,0.26171875,-1.421875,-1.28515625,-1.6015625,0.53125,1.0
4423860,36.01296966666666,129.32001116666666,127.21515384756546,63.210699126907116,3.3000000000000003,227.0,,1.40625,9.05078125,-1.67578125,0.640625,0.783203125,1.755859375,0.2109375,-0.22265625,1.06640625,1.0
4423861,,,,,,,,1.984375,9.66015625,-1.68359375,0.2265625,-0.115234375,-1.525390625,0.9375,0.38671875,1.0625,1.0
4423862,,,,,,,,2.3125,10.93359375,-2.01171875,0.23828125,-0.5859375,-1.3515625,1.3984375,1.6484375,0.76171875,1.0
4423863,,,,,,,,2.1796875,11.234375,-2.03515625,0.17578125,-1.01953125,-1.125,1.3984375,1.96484375,0.76171875,1.0
4423864,,,,,,,,0.109375,10.2734375,0.66015625,0.1015625,-1.318359375,-0.7578125,-0.5546875,1.0,3.48046875,1.0
4423865,,,,,,,,-1.9765625,8.23828125,2.60546875,-0.00390625,-1.4140625,-0.31640625,-2.85546875,-2.8671875,4.90234375,1.0
4423866,,,,,,,,-1.94140625,3.73828125,0.3828125,-0.14453125,-1.14453125,0.099609375,-2.47265625,-5.51171875,3.2109375,1.0
4423867,,,,,,,,1.32421875,-9.4765625,-0.60546875,-0.240234375,-0.66796875,-0.328125,0.82421875,-18.73046875,2.21484375,1.0
4423868,,,,,,,,12.0390625,-38.62109375,7.625,-0.19921875,0.05859375,-1.42578125,11.625,-47.87890625,10.4140625,1.0
4423869,,,,,,,,17.19921875,-50.765625,20.2265625,0.072265625,1.328125,-1.705078125,16.91015625,-60.02734375,23.015625,1.0
4423870,36.012968,129.320008,126.92968493519976,63.02576292906687,3.4000000000000004,231.0,,1.67578125,-12.11328125,4.16796875,0.640625,0.783203125,1.755859375,0.2109375,-0.22265625,1.06640625,1.0
4423871,,,,,,,,-2.60546875,-7.171875,0.484375,-0.037109375,1.728515625,-0.240234375,-2.81640625,-16.43359375,3.2890625,1.0
4423872,,,,,,,,-5.5703125,-9.1171875,-2.94140625,-0.482421875,-1.8359375,-0.7734375,-5.7265625,-18.3828125,-0.16015625,1.0
4423873,,,,,,,,-2.6328125,-10.51171875,-0.6640625,-0.388671875,-4.650390625,-0.65234375,-2.625,-19.80078125,2.0625,1.0
4423874,,,,,,,,1.26171875,-13.4453125,2.953125,-0.14453125,-3.505859375,-1.619140625,1.47265625,-22.75,5.6640625,1.0
4423875,,,,,,,,1.1875,-11.98828125,3.7421875,-0.498046875,-0.37890625,-2.982421875,1.6640625,-21.2890625,6.4296875,1.0
4423876,,,,,,,,0.97265625,-8.65625,1.97265625,-0.681640625,0.515625,-3.029296875,1.58984375,-17.96484375,4.62890625,1.0
4423877,,,,,,,,1.80078125,-5.66015625,-1.1796875,-0.99609375,0.384765625,-1.939453125,2.73828125,-14.96875,1.375,1.0
4423878,,,,,,,,2.6640625,-5.17578125,-1.1484375,-1.2578125,-0.2890625,-1.791015625,3.7734375,-14.5078125,1.296875,1.0
4423879,,,,,,,,3.3125,-3.58984375,0.0859375,-1.291015625,-0.2421875,-1.9140625,4.6171875,-12.94140625,2.40625,1.0
4423880,36.01296633333333,129.32000533333334,126.6892904722521,62.84082739051516,3.3000000000000003,231.0,,3.3984375,-1.58203125,0.25,-1.279296875,0.466796875,-1.884765625,4.9609375,-10.9453125,2.40625,1.0
4423881,,,,,,,,2.859375,1.21484375,-0.7109375,-1.142578125,0.55859375,-1.62109375,4.578125,-8.15234375,1.3359375,1.0
4423882,,,,,,,,2.60546875,2.1015625,-1.0078125,-1.07421875,0.484375,-1.494140625,4.38671875,-7.2734375,0.9921875,1.0
4423883,,,,,,,,2.125,4.8203125,-2.07421875,-0.9140625,0.275390625,-1.365234375,4.0390625,-4.5546875,-0.16015625,1.0
4423884,,,,,,,,1.91015625,5.93359375,-2.1953125,-0.833984375,0.203125,-1.3515625,3.8828125,-3.44140625,-0.3125,1.0
4423885,,,,,,,,0.8515625,10.0546875,-1.89453125,-0.6875,0.21484375,-1.3125,2.97265625,0.6953125,-0.08203125,1.0
4423886,,,,,,,,-0.578125,12.0703125,-1.51953125,-0.466796875,0.55859375,-1.40625,1.703125,2.73046875,0.22265625,1.0
4423887,,,,,,,,-1.27734375,12.54296875,-1.80859375,-0.33203125,0.712890625,-1.26171875,1.12890625,3.21875,-0.08203125,1.0
4423888,,,,,,,,-2.12109375,13.0859375,-2.66796875,-0.349609375,0.48046875,-0.6328125,0.40234375,3.80078125,-0.96484375,1.0
4423889,,,,,,,,-2.296875,13.046875,-2.8046875,-0.373046875,0.341796875,-0.443359375,0.25,3.76171875,-1.1171875,1.0
4423890,36.012964499999995,129.32000216666665,126.40382180033878,62.63739800292518,3.5,230.0,,-1.125,10.7109375,-3.38671875,-0.380859375,0.056640625,-0.06640625,1.4375,1.421875,-1.73046875,1.0
4423891,,,,,,,,-0.11328125,8.8046875,-3.5703125,-0.298828125,-0.138671875,0.43359375,2.43359375,-0.4921875,-1.9609375,1.0
4423892,,,,,,,,0.40625,7.73828125,-3.58984375,-0.259765625,-0.126953125,0.4921875,2.9296875,-1.56640625,-1.99609375,1.0
4423893,,,,,,,,-0.015625,7.5234375,-3.18359375,-0.18359375,-0.021484375,0.447265625,2.47265625,-1.796875,-1.61328125,1.0
4423894,,,,,,,,-1.890625,8.109375,-1.67578125,-0.140625,0.126953125,0.40234375,0.5546875,-1.22265625,-0.12109375,1.0
4423895,,,,,,,,-3.91015625,9.578125,1.3671875,-0.17578125,0.20703125,0.81640625,-1.55078125,0.234375,2.91015625,1.0
4423896,,,,,,,,-5.51953125,10.69921875,4.74609375,-0.22265625,0.14453125,1.033203125,-3.19921875,1.34765625,6.27734375,1.0
4423897,,,,,,,,-5.59375,11.52734375,4.1953125,-0.318359375,-0.138671875,1.484375,-3.390625,2.15234375,5.70703125,1.0
4423898,,,,,,,,-3.421875,13.08984375,1.0234375,-0.33203125,-0.6328125,1.46875,-1.359375,3.68359375,2.484375,1.0
4423899,,,,,,,,-1.60546875,13.296875,-0.02734375,-0.318359375,-0.98828125,1.01171875,0.40234375,3.875,1.41015625,1.0
4423900,36.012962333333334,129.31999933333333,126.14840328854595,62.39698264313451,3.4000000000000004,228.0,0.0,0.1875,9.3984375,0.2578125,-0.380859375,0.056640625,-0.06640625,1.4375,1.421875,-1.73046875,1.0
4423901,,,,,,,,-0.09765625,3.09765625,-0.18359375,-0.109375,-0.814453125,0.33203125,1.89453125,-6.31640625,1.14453125,1.0
4423902,,,,,,,,-1.6953125,-23.9453125,6.23828125,-0.19921875,0.419921875,0.69921875,0.25,-33.36328125,7.54296875,1.0
4423903,,,,,,,,-12.0625,-57.25,17.65234375,-0.359375,1.736328125,1.02734375,-10.2109375,-66.69140625,18.95703125,1.0
4423904,,,,,,,,-7.25390625,-19.41796875,12.71875,-0.421875,2.484375,1.07421875,-5.53515625,-28.87890625,14.015625,1.0
4423905,,,,,,,,-1.171875,-8.03125,2.49609375,0.06640625,2.646484375,-0.57421875,0.4765625,-17.5,3.82421875,1.0
4423906,,,,,,,,1.234375,-5.97265625,-0.375,0.173828125,2.244140625,-0.75,2.890625,-15.4296875,0.9921875,1.0
4423907,,,,,,,,12.69140625,-9.09765625,-2.23828125,0.107421875,-0.708984375,1.783203125,14.26953125,-18.57421875,-0.84765625,1.0
4423908,,,,,,,,7.8046875,-10.875,2.52734375,0.21875,-3.65625,0.88671875,9.2890625,-20.37890625,3.90234375,1.0
4423909,,,,,,,,1.61328125,-13.234375,4.4140625,0.037109375,-2.892578125,1.48828125,3.04296875,-22.75390625,5.7421875,1.0
4423910,36.0129605,129.31999666666667,125.90800905698256,62.19355391930337,3.3000000000000003,227.0,,-0.82421875,-10.58984375,3.67578125,-0.380859375,0.056640625,-0.06640625,1.4375,1.421875,-1.73046875,1.0
4423911,,,,,,,,-0.91015625,-7.1875,1.484375,0.86328125,1.4140625,3.693359375,-0.05859375,-16.77734375,2.90625,1.0
4423912,,,,,,,,-1.50390625,-4.64453125,-0.05859375,0.990234375,1.232421875,3.357421875,-0.82421875,-14.2421875,1.41015625,1.0
4423913,,,,,,,,-2.4140625,-2.99609375,-0.56640625,1.33203125,-0.365234375,2.005859375,-2.2421875,-12.59765625,1.14453125,1.0
4423914,,,,,,,,-3.69921875,-1.08984375,0.13671875,1.5078125,-0.4453125,2.087890625,-3.62109375,-10.68359375,1.91015625,1.0
4423915,,,,,,,,-4.48828125,0.48046875,-0.3671875,1.634765625,-0.05078125,2.470703125,-4.73046875,-9.0703125,1.640625,1.0
4423916,,,,,,,,-5.07421875,4.12109375,-2.1328125,1.462890625,0.169921875,2.58984375,-5.5703125,-5.39453125,0.03125,1.0
4423917,,,,,,,,-4.83203125,5.15234375,-2.5234375,1.25390625,0.15234375,2.64453125,-5.57421875,-4.32421875,-0.234375,1.0
4423918,,,,,,,,-4.8515625,8.5234375,-2.671875,1.001953125,0.130859375,2.595703125,-5.84765625,-0.9140625,-0.2734375,1.0
4423919,,,,,,,,-4.53515625,9.3828125,-2.71875,0.91015625,0.193359375,2.537109375,-5.6484375,-0.03125,-0.2734375,1.0
4423920,36.012958499999996,129.319994,125.66761507880297,61.97163199609287,3.4000000000000004,225.0,,-3.0625,11.76171875,-1.37890625,0.734375,0.533203125,2.2421875,-4.54296875,2.41796875,1.18359375,1.0
4423921,,,,,,,,-2.03125,12.46484375,-1.359375,0.556640625,0.671875,1.943359375,-3.734375,3.18359375,1.2578125,1.0
4423922,,,,,,,,-1.421875,12.16015625,-1.8203125,0.494140625,0.66015625,1.55078125,-3.3125,2.91796875,0.8359375,1.0
4423923,,,,,,,,-1.09765625,11.73828125,-2.38671875,0.4765625,0.451171875,0.966796875,-3.12109375,2.53515625,0.30078125,1.0
4423924,,,,,,,,-1.0,10.6796875,-3.34375,0.423828125,0.197265625,0.37109375,-3.08984375,1.5,-0.6171875,1.0
4423925,,,,,,,,-1.2421875,9.515625,-3.9140625,0.345703125,0.005859375,-0.224609375,-3.3515625,0.3515625,-1.15625,1.0
4423926,,,,,,,,-1.10546875,8.671875,-3.890625,0.30859375,-0.05859375,-0.453125,-3.1953125,-0.4921875,-1.1171875,1.0
4423927,,,,,,,,-0.74609375,8.28125,-3.078125,0.240234375,-0.15234375,-0.787109375,-2.77734375,-0.875,-0.2734375,1.0
4423928,,,,,,,,-0.55078125,8.71875,-2.34375,0.083984375,-0.2109375,-0.81640625,-2.47265625,-0.453125,0.4921875,1.0
4423929,,,,,,,,0.5234375,9.56640625,-1.59375,0.087890625,-0.23828125,-0.775390625,-1.3203125,0.38671875,1.2578125,1.0
4423930,36.01295666666667,129.31999116666665,125.41219599993607,61.76820307020106,3.4000000000000004,227.0,,1.6484375,10.44921875,-1.484375,0.734375,0.533203125,2.2421875,-0.1328125,1.26953125,1.37890625,1.0
4423931,,,,,,,,2.42578125,11.1328125,-1.80078125,0.251953125,-0.619140625,-0.755859375,0.74609375,1.9609375,1.10546875,1.0
4423932,,,,,,,,2.6484375,11.359375,-1.96875,0.251953125,-0.697265625,-0.818359375,1.015625,2.1875,0.953125,1.0
4423933,,,,,,,,2.4296875,11.125,-1.92578125,0.26171875,-0.7890625,-0.908203125,0.8984375,1.9609375,1.02734375,1.0
4423934,,,,,,,,0.69921875,10.12890625,-0.875,0.2734375,-0.80859375,-0.90234375,-0.78515625,0.96484375,2.1015625,1.0
4423935,,,,,,,,-2.390625,5.5546875,1.90625,0.2578125,-0.6171875,-0.56640625,-3.734375,-3.59375,4.9375,1.0
4423936,,,,,,,,0.9296875,-18.17578125,1.94921875,0.087890625,0.2578125,-0.724609375,-0.328125,-27.30859375,5.01171875,1.0
4423937,,,,,,,,10.4375,-38.171875,5.50390625,0.13671875,0.599609375,-1.15625,9.2109375,-47.3046875,8.57421875,1.0
4423938,,,,,,,,14.51171875,-39.08203125,17.6796875,0.443359375,1.58203125,-1.65625,13.38671875,-48.22265625,20.7578125,1.0
4423939,,,,,,,,6.3828125,-21.578125,11.03515625,0.5234375,1.9765625,-1.705078125,5.3046875,-30.72265625,14.12890625,1.0
4423940,36.01295483333333,129.31998800000002,125.12672726755838,61.564773724551415,3.4000000000000004,230.0,,1.32421875,-11.30078125,3.78125,0.103515625,2.2109375,-1.60546875,0.32421875,-20.44921875,6.890625,1.0
4423941,,,,,,,,-6.33984375,-9.21875,-2.6015625,-0.0859375,0.482421875,-1.18359375,-7.26171875,-18.3828125,0.4921875,1.0
4423942,,,,,,,,-5.81640625,-10.16796875,-2.44140625,-0.208984375,-1.916015625,-0.908203125,-6.68359375,-19.3359375,0.64453125,1.0
4423943,,,,,,,,-1.09765625,-13.66796875,0.38671875,-0.25,-4.720703125,-1.23046875,-1.66796875,-22.86328125,3.48046875,1.0
4423944,,,,,,,,2.75,-13.953125,2.33984375,-0.333984375,-2.083984375,-2.705078125,2.46875,-23.171875,5.43359375,1.0
4423945,,,,,,,,6.0,-7.4375,0.12109375,-0.8046875,1.0078125,-2.90625,6.1484375,-16.6953125,3.13671875,1.0
4423946,,,,,,,,5.25390625,-5.69140625,-2.20703125,-1.01953125,0.705078125,-2.2109375,5.61328125,-14.96875,0.72265625,1.0
4423947,,,,,,,,4.453125,-5.125,-1.72265625,-1.24609375,-0.150390625,-2.130859375,5.0,-14.44140625,1.10546875,1.0
4423948,,,,,,,,3.234375,-3.1328125,-0.31640625,-1.32421875,-0.4375,-2.337890625,4.1171875,-12.484375,2.33203125,1.0
4423949,,,,,,,,2.85546875,-2.46484375,-0.109375,-1.388671875,-0.234375,-2.1796875,3.84765625,-11.828125,2.484375,1.0
4423950,36.012953333333336,129.31998516666667,124.87130763848066,61.398331228808864,3.3000000000000003,232.0,,2.28515625,0.38671875,-1.34765625,0.103515625,2.2109375,-1.60546875,0.32421875,-20.44921875,6.890625,1.0
4423951,,,,,,,,2.21484375,2.9765625,-1.8515625,-1.1171875,0.345703125,-1.5859375,3.54296875,-6.4296875,0.4921875,1.0
4423952,,,,,,,,1.9140625,4.39453125,-2.109375,-1.048828125,0.349609375,-1.56640625,3.3125,-5.0078125,0.1875,1.0
4423953,,,,,,,,1.26953125,8.578125,-2.1875,-0.94140625,0.3359375,-1.666015625,2.81640625,-0.8359375,0.03125,1.0
4423954,,,,,,,,0.61328125,10.953125,-2.109375,-0.759765625,0.443359375,-1.806640625,2.3125,1.5390625,0.03125,1.0
4423955,,,,,,,,0.296875,12.16015625,-1.8984375,-0.556640625,0.552734375,-1.75390625,2.1640625,2.7578125,0.1875,1.0
4423956,,,,,,,,0.02734375,13.52734375,-1.84765625,-0.513671875,0.58203125,-1.634765625,1.97265625,4.140625,0.22265625,1.0
4423957,,,,,,,,-0.703125,14.69140625,-3.0390625,-0.408203125,0.330078125,-0.701171875,1.4375,5.328125,-1.0390625,1.0
4423958,,,,,,,,-0.27734375,13.9609375,-3.5,-0.287109375,0.0,-0.3125,1.93359375,4.6015625,-1.5390625,1.0
4423959,,,,,,,,0.2421875,12.0078125,-4.2890625,-0.291015625,-0.083984375,-0.28125,2.46875,2.6484375,-2.34375,1.0
4423960,36.01295133333333,129.31998216666668,124.60086396560132,61.17640890676191,3.4000000000000004,231.0,,1.26953125,8.46875,-5.3125,-0.306640625,-0.0546875,-0.375,3.5390625,-0.875,-3.4140625,1.0
4423961,,,,,,,,0.2265625,4.8671875,-4.59375,-0.361328125,0.248046875,-0.466796875,2.546875,-4.4765625,-2.7265625,1.0
4423962,,,,,,,,-1.3671875,4.78125,-3.375,-0.408203125,0.712890625,-0.208984375,0.9765625,-4.55859375,-1.5390625,1.0
4423963,,,,,,,,-3.94921875,6.27734375,-1.01953125,-0.396484375,1.10546875,0.453125,-1.62890625,-3.0546875,0.80078125,1.0
4423964,,,,,,,,-4.95703125,7.6796875,0.44140625,-0.4453125,1.20703125,1.3046875,-2.73828125,-1.6796875,2.25390625,1.0
4423965,,,,,,,,-5.390625,10.29296875,2.234375,-0.5,0.89453125,2.00390625,-3.3515625,0.88671875,4.01953125,1.0
4423966,,,,,,,,-5.625,11.03515625,3.5625,-0.484375,0.6015625,2.169921875,-3.6953125,1.61328125,5.32421875,1.0
4423967,,,,,,,,-5.0859375,11.91796875,3.5078125,-0.4375,-0.1328125,2.1015625,-3.3515625,2.45703125,5.2421875,1.0
4423968,,,,,,,,-2.890625,12.25390625,0.8046875,-0.34375,-0.95703125,1.552734375,-1.3203125,2.76171875,2.484375,1.0
4423969,,,,,,,,-0.24609375,10.28125,-1.171875,-0.302734375,-1.802734375,0.533203125,1.2421875,0.7734375,0.453125,1.0
4423970,36.01294933333334,129.31997916666666,124.33042027435252,60.95448659481716,3.4000000000000004,229.0,,1.7890625,1.65234375,-0.11328125,-0.306640625,-0.0546875,-0.375,3.3125,-7.84765625,1.44921875,1.0
4423971,,,,,,,,3.51171875,-14.53515625,5.2578125,-0.16796875,-2.052734375,-0.66796875,5.11328125,-24.01171875,6.7734375,1.0
4423972,,,,,,,,0.4765625,-35.53515625,12.62109375,-0.109375,-1.03125,-0.408203125,2.1640625,-45.0,14.08984375,1.0
4423973,,,,,,,,-9.65234375,-46.26953125,17.89453125,-0.359375,0.599609375,0.00390625,-7.94921875,-55.73046875,19.33984375,1.0
4423974,,,,,,,,-8.48828125,-19.37109375,10.96875,-0.37890625,2.28515625,-0.08984375,-6.80078125,-28.83984375,12.40625,1.0
4423975,,,,,,,,0.28515625,-8.5703125,-0.1796875,0.326171875,2.701171875,0.19140625,1.93359375,-18.0390625,1.296875,1.0
4423976,,,,,,,,11.30078125,-10.60546875,-3.68359375,-0.05859375,-1.38671875,1.6015625,12.73828125,-20.1015625,-2.15234375,1.0
4423977,,,,,,,,9.5234375,-12.15234375,3.12890625,0.048828125,-3.224609375,0.630859375,10.8984375,-21.671875,4.62890625,1.0
4423978,,,,,,,,6.51171875,-13.07421875,3.26171875,0.232421875,-2.90625,0.830078125,7.87109375,-22.59375,4.74609375,1.0
4423979,,,,,,,,0.8984375,-10.63671875,2.96875,0.515625,-0.3046875,2.7109375,2.125,-20.1796875,4.4765625,1.0
4423980,36.0129475,129.3199765,124.09002596097378,60.7510579207887,3.2,229.0,,-0.11328125,-7.5078125,-0.16796875,-0.306640625,-0.0546875,-0.375,0.78515625,-17.078125,1.41015625,1.0
4423981,,,,,,,,-1.03515625,-5.9140625,-1.45703125,1.009765625,0.90625,3.203125,-0.48046875,-15.51171875,0.22265625,1.0
4423982,,,,,,,,-1.86328125,-4.23046875,-0.796875,1.189453125,0.119140625,2.556640625,-1.58984375,-13.8203125,0.9921875,1.0
4423983,,,,,,,,-2.62109375,-1.9296875,-0.29296875,1.3671875,-0.11328125,2.509765625,-2.47265625,-11.52734375,1.56640625,1.0
4423984,,,,,,,,-3.79296875,-0.20703125,-0.7109375,1.705078125,-0.03125,3.015625,-4.04296875,-9.7578125,1.375,1.0
4423985,,,,,,,,-5.28125,3.71875,-2.46484375,1.43359375,0.154296875,2.9140625,-6.11328125,-5.7421875,-0.08203125,1.0
4423986,,,,,,,,-5.36328125,6.921875,-2.67578125,1.193359375,0.197265625,2.73828125,-6.453125,-2.484375,-0.16015625,1.0
4423987,,,,,,,,-4.828125,10.8203125,-1.55078125,1.0,0.404296875,2.48046875,-6.1875,1.4609375,1.06640625,1.0
4423988,,,,,,,,-4.44140625,11.6328125,-1.3984375,0.908203125,0.53125,2.3203125,-5.91796875,2.3046875,1.2578125,1.0
4423989,,,,,,,,-3.578125,13.26953125,-1.64453125,0.625,0.69921875,1.87109375,-5.38671875,4.02734375,1.10546875,1.0
4423990,36.01294533333333,129.31997366666667,123.83460733341596,60.51064262736876,3.5,226.0,,-2.4921875,13.515625,-2.40234375,0.53125,0.423828125,1.291015625,-4.54296875,4.3359375,0.41796875,1.0
4423991,,,,,,,,-0.95703125,9.890625,-3.30859375,0.5625,0.109375,0.748046875,-3.15625,0.7734375,-0.42578125,1.0
4423992,,,,,,,,-1.078125,8.84765625,-3.37109375,0.5390625,0.08984375,0.51171875,-3.3125,-0.26171875,-0.46484375,1.0
4423993,,,,,,,,-0.8125,6.2109375,-3.2578125,0.45703125,0.205078125,-0.015625,-3.0859375,-2.8671875,-0.3125,1.0
4423994,,,,,,,,-0.58984375,5.859375,-3.1953125,0.40625,0.30078125,-0.279296875,-2.85546875,-3.2109375,-0.234375,1.0
4423995,,,,,,,,0.0703125,5.97265625,-3.1796875,0.36328125,0.4921875,-0.74609375,-2.1640625,-3.09375,-0.1953125,1.0
4423996,,,,,,,,0.55078125,7.015625,-3.16796875,0.29296875,0.515625,-1.025390625,-1.62890625,-2.0625,-0.16015625,1.0
4423997,,,,,,,,1.46875,8.515625,-3.06640625,0.296875,0.2578125,-1.107421875,-0.63671875,-0.5703125,-0.04296875,1.0
4423998,,,,,,,,1.68359375,9.015625,-3.08203125,0.35546875,0.048828125,-1.07421875,-0.359375,-0.0703125,-0.04296875,1.0
4423999,,,,,,,,2.01171875,10.6328125,-2.96875,0.443359375,-0.369140625,-0.92578125,0.05859375,1.54296875,0.109375,1.0
4424000,36.0129435,129.31997066666665,123.56416334435887,60.30721354469203,3.4000000000000004,229.0,0.0,1.97265625,10.9765625,-2.9140625,0.53125,0.423828125,1.291015625,-4.54296875,4.3359375,0.41796875,1.0
4424001,,,,,,,,1.76171875,12.04296875,-3.078125,0.44140625,-0.74609375,-0.767578125,-0.05859375,2.95703125,0.0703125,1.0
4424002,,,,,,,,1.40625,11.53515625,-3.0546875,0.375,-0.869140625,-0.7109375,-0.328125,2.453125,0.1484375,1.0
4424003,,,,,,,,1.0859375,9.44921875,-2.7109375,0.294921875,-0.8984375,-0.662109375,-0.55859375,0.38671875,0.53125,1.0
4424004,,,,,,,,0.1953125,7.52734375,-1.515625,0.162109375,-0.78515625,-0.63671875,-1.359375,-1.52734375,1.76171875,1.0
4424005,,,,,,,,-0.83203125,2.01171875,2.4453125,0.025390625,-0.55078125,-0.640625,-2.31640625,-7.04296875,5.7421875,1.0
4424006,,,,,,,,-0.13671875,-4.43359375,2.48046875,-0.021484375,-0.41796875,-0.65625,-1.58984375,-13.4765625,5.77734375,1.0
4424007,,,,,,,,5.15625,-15.9921875,4.51171875,-0.1484375,-0.19140625,-0.716796875,3.7734375,-25.046875,7.80859375,1.0
4424008,,,,,,,,19.625,-44.5859375,15.61328125,-0.08203125,-0.01953125,-1.796875,18.40625,-53.66796875,18.87890625,1.0
4424009,,,,,,,,6.19921875,-19.890625,10.4140625,-0.083984375,0.302734375,-1.705078125,5.15234375,-28.99609375,13.671875,1.0
4424010,36.012941833333336,129.31996733333332,123.26366943252856,60.12227725642963,3.5,232.0,,-2.54296875,-8.03125,-1.75390625,-0.353515625,0.333984375,-0.484375,-3.50390625,-17.16015625,1.48828125,1.0
4424011,,,,,,,,-1.6015625,-11.921875,-3.953125,-0.43359375,-0.853515625,-0.71875,-2.5078125,-21.06640625,-0.734375,1.0
4424012,,,,,,,,-1.3515625,-12.22265625,-2.203125,-0.607421875,-2.51171875,-0.6953125,-2.203125,-21.37109375,0.9921875,1.0
4424013,,,,,,,,0.765625,-14.3359375,2.953125,-0.384765625,-3.712890625,-1.1484375,0.09375,-23.51953125,6.125,1.0
4424014,,,,,,,,-0.01171875,-12.81640625,2.0859375,-0.470703125,-1.578125,-2.7265625,-0.40234375,-22.01953125,5.2421875,1.0
4424015,,,,,,,,1.3984375,-9.32421875,0.1953125,-1.03515625,0.630859375,-2.76171875,1.3984375,-18.5703125,3.25,1.0
4424016,,,,,,,,1.82421875,-8.41796875,-0.1875,-1.0859375,0.4140625,-2.509765625,1.93359375,-17.6875,2.828125,1.0
4424017,,,,,,,,2.8671875,-6.41015625,-1.2109375,-1.2734375,-0.025390625,-2.47265625,3.3125,-15.734375,1.640625,1.0
4424018,,,,,,,,3.1171875,-3.20703125,-1.8046875,-1.3828125,0.166015625,-2.54296875,3.8125,-12.5546875,0.9140625,1.0
4424019,,,,,,,,3.1171875,-2.2578125,-2.015625,-1.462890625,0.400390625,-2.318359375,4.0390625,-11.64453125,0.5703125,1.0
4424020,36.012939833333334,129.3199645,123.00825050519654,59.900355194422744,3.4000000000000004,231.0,,4.01171875,0.46875,-2.58984375,-1.3984375,0.51171875,-2.0390625,-3.50390625,-17.16015625,1.48828125,1.0
4424021,,,,,,,,4.453125,3.13671875,-2.01171875,-1.263671875,0.599609375,-1.888671875,5.7265625,-6.2734375,0.33984375,1.0
4424022,,,,,,,,4.25390625,4.140625,-1.7265625,-1.16796875,0.666015625,-1.83203125,5.609375,-5.28125,0.5703125,1.0
4424023,,,,,,,,3.3671875,6.4375,-1.55859375,-0.939453125,0.763671875,-1.72265625,4.88671875,-2.984375,0.64453125,1.0
4424024,,,,,,,,0.88671875,9.80859375,-2.58984375,-0.599609375,0.490234375,-1.228515625,2.65625,0.38671875,-0.50390625,1.0
4424025,,,,,,,,-0.35546875,11.2890625,-3.5,-0.54296875,0.2265625,-1.06640625,1.51171875,1.8828125,-1.4609375,1.0
4424026,,,,,,,,-0.8984375,12.1328125,-3.70703125,-0.548828125,0.15234375,-1.015625,1.015625,2.7265625,-1.69140625,1.0
4424027,,,,,,,,-1.078125,12.23828125,-3.8125,-0.587890625,0.0546875,-0.861328125,0.9375,2.83984375,-1.84375,1.0
4424028,,,,,,,,-0.53515625,11.203125,-4.078125,-0.650390625,-0.0234375,-0.521484375,1.55078125,1.8046875,-2.1875,1.0
4424029,,,,,,,,0.1015625,10.515625,-4.32421875,-0.646484375,-0.068359375,-0.3125,2.203125,1.1171875,-2.453125,1.0
4424030,36.01293783333333,129.31996116666667,122.70775708736711,59.67843251161029,3.6,230.0,,1.3046875,8.30078125,-4.4140625,-1.3984375,0.51171875,-2.0390625,-3.50390625,-17.16015625,1.48828125,1.0
4424031,,,,,,,,1.15625,7.19921875,-3.34765625,-0.59375,-0.20703125,0.23046875,3.27734375,-2.21484375,-1.61328125,1.0
4424032,,,,,,,,-0.60546875,7.296875,-1.5859375,-0.412109375,-0.208984375,0.556640625,1.47265625,-2.140625,0.0703125,1.0
4424033,,,,,,,,-1.37890625,7.6484375,-0.91015625,-0.408203125,-0.228515625,0.7265625,0.66796875,-1.796875,0.72265625,1.0
4424034,,,,,,,,-5.34375,10.42578125,6.5390625,-0.41796875,-0.306640625,1.107421875,-3.390625,0.96484375,8.1171875,1.0
4424035,,,,,,,,-5.1875,11.8046875,6.1015625,-0.380859375,-0.587890625,1.384765625,-3.390625,2.3046875,7.62109375,1.0
4424036,,,,,,,,-2.40625,14.5859375,1.25390625,-0.35546875,-0.857421875,1.080078125,-0.7109375,5.0625,2.71484375,1.0
4424037,,,,,,,,-1.1875,14.01171875,0.234375,-0.30078125,-1.404296875,-0.1328125,0.4765625,4.484375,1.640625,1.0
4424038,,,,,,,,-1.1015625,12.59375,0.13671875,-0.20703125,-1.59375,-0.50390625,0.59375,3.07421875,1.52734375,1.0
4424039,,,,,,,,-1.73828125,2.3515625,0.52734375,-0.029296875,-1.533203125,-0.505859375,0.01953125,-7.16015625,1.87109375,1.0
4424040,36.012935666666664,129.31995833333335,122.4523383912204,59.43801725970522,3.6,227.0,,-8.6796875,-25.9375,14.37890625,-1.3984375,0.51171875,-2.0390625,-6.875,-35.43359375,15.69921875,1.0
4424041,,,,,,,,-9.15625,-38.00390625,6.6484375,-0.25390625,1.12109375,0.701171875,-7.4140625,-47.4921875,7.9609375,1.0
4424042,,,,,,,,-3.828125,-13.08984375,10.671875,-0.32421875,1.95703125,0.30078125,-2.1640625,-22.59765625,11.984375,1.0
4424043,,,,,,,,6.4140625,-6.890625,1.6015625,-0.396484375,1.55859375,-1.16796875,8.1015625,-16.39453125,2.90625,1.0
4424044,,,,,,,,10.6875,-8.69140625,-1.80859375,-0.240234375,-0.875,1.05859375,12.390625,-18.19140625,-0.50390625,1.0
4424045,,,,,,,,7.6328125,-13.875,5.1875,-0.072265625,-2.994140625,0.404296875,9.2890625,-23.40234375,6.4296875,1.0
4424046,,,,,,,,3.99609375,-15.69921875,4.8125,0.435546875,-1.162109375,1.4375,5.61328125,-25.234375,6.046875,1.0
4424047,,,,,,,,-1.80078125,-10.11328125,2.4296875,0.517578125,1.4921875,2.71875,-0.40234375,-19.68359375,3.7109375,1.0
4424048,,,,,,,,-1.85546875,-6.671875,1.23046875,0.755859375,1.205078125,2.828125,-0.74609375,-16.2734375,2.59765625,1.0
4424049,,,,,,,,-1.9375,-3.86328125,0.5859375,1.13671875,0.275390625,2.517578125,-1.09375,-13.4765625,2.0625,1.0
4424050,36.012933833333335,129.31995550000002,122.19691916345884,59.234588428696355,3.4000000000000004,228.0,,-2.03125,-3.15625,-0.02734375,-1.3984375,0.51171875,-2.0390625,-6.875,-35.43359375,15.69921875,1.0
4424051,,,,,,,,-2.59765625,-1.71484375,-0.546875,1.603515625,0.279296875,2.94140625,-2.39453125,-11.33203125,1.2578125,1.0
4424052,,,,,,,,-3.1015625,-0.15234375,-0.515625,1.61328125,0.431640625,2.919921875,-3.046875,-9.76171875,1.375,1.0
4424053,,,,,,,,-3.68359375,1.8671875,-0.16796875,1.451171875,0.84375,2.580078125,-4.04296875,-7.6953125,1.94921875,1.0
4424054,,,,,,,,-4.125,3.23046875,-0.34765625,1.37109375,0.9140625,2.4375,-4.6171875,-6.3125,1.83203125,1.0
4424055,,,,,,,,-4.51953125,6.02734375,-1.8515625,1.205078125,0.87109375,2.20703125,-5.26953125,-3.48046875,0.453125,1.0
4424056,,,,,,,,-4.65234375,8.35546875,-2.44921875,1.0390625,0.548828125,2.1328125,-5.609375,-1.10546875,-0.04296875,1.0
4424057,,,,,,,,-4.703125,9.60546875,-2.3828125,0.974609375,0.357421875,2.111328125,-5.765625,0.16015625,0.0703125,1.0
4424058,,,,,,,,-4.26171875,13.38671875,-1.6640625,0.8359375,0.09765625,2.091796875,-5.53515625,3.98828125,0.875,1.0
4424059,,,,,,,,-4.0,13.9375,-1.7109375,0.775390625,0.072265625,2.083984375,-5.3828125,4.5625,0.875,1.0
4424060,36.0129315,129.31995283333333,121.95652552199346,58.975680194255176,3.6,225.0,,-1.9921875,12.796875,-3.46875,0.6171875,0.150390625,0.880859375,-3.77734375,3.53125,-0.734375,1.0
4424061,,,,,,,,-1.8828125,8.61328125,-3.09375,0.521484375,0.3359375,0.03515625,-3.734375,-0.60546875,-0.2734375,1.0
4424062,,,,,,,,-1.8359375,7.8359375,-2.87890625,0.451171875,0.455078125,-0.13671875,-3.69921875,-1.375,-0.04296875,1.0
4424063,,,,,,,,-1.484375,6.796875,-2.25,0.36328125,0.716796875,-0.265625,-3.3515625,-2.40625,0.609375,1.0
4424064,,,,,,,,-1.26171875,6.7578125,-2.10546875,0.318359375,0.80859375,-0.30078125,-3.12109375,-2.4453125,0.76171875,1.0
4424065,,,,,,,,-0.3125,7.4296875,-2.23828125,0.251953125,0.791015625,-0.490234375,-2.16796875,-1.7578125,0.64453125,1.0
4424066,,,,,,,,0.53515625,8.2421875,-2.28125,0.287109375,0.564453125,-0.8828125,-1.28515625,-0.953125,0.609375,1.0
4424067,,,,,,,,1.26171875,9.125,-2.18359375,0.3125,0.392578125,-1.08984375,-0.51953125,-0.0703125,0.72265625,1.0
4424068,,,,,,,,2.08203125,10.5859375,-2.09375,0.333984375,0.001953125,-1.373046875,0.40234375,1.38671875,0.8359375,1.0
4424069,,,,,,,,2.203125,11.23828125,-1.80859375,0.34375,-0.193359375,-1.43359375,0.59375,2.03125,1.14453125,1.0
4424070,36.012929666666665,129.31994983333334,121.68608144447857,58.77225116979731,3.5,227.0,,1.34765625,11.73828125,-0.9765625,0.326171875,-0.736328125,-1.228515625,-0.05859375,2.53515625,2.0234375,1.0
4424071,,,,,,,,0.39453125,11.1640625,-0.75390625,0.291015625,-1.046875,-0.75390625,-0.90234375,1.9609375,2.2890625,1.0
4424072,,,,,,,,-1.0703125,7.27734375,-0.37109375,0.26171875,-1.20703125,-0.328125,-2.28125,-1.91015625,2.7109375,1.0
4424073,,,,,,,,-0.6328125,5.35546875,-0.84765625,0.2265625,-1.197265625,-0.220703125,-1.8203125,-3.82421875,2.25390625,1.0
4424074,,,,,,,,1.0078125,-0.5234375,-1.796875,0.123046875,-0.814453125,-0.353515625,-0.1328125,-9.6875,1.3359375,1.0
4424075,,,,,,,,9.83203125,-22.86328125,-0.578125,0.078125,-0.09765625,-0.787109375,8.75390625,-32.01953125,2.5625,1.0
4424076,,,,,,,,14.74609375,-41.85546875,10.515625,0.0625,0.62109375,-1.3984375,13.76953125,-51.015625,13.671875,1.0
4424077,,,,,,,,8.30859375,-27.328125,16.99609375,0.142578125,1.171875,-1.189453125,7.48828125,-36.5,20.14453125,1.0
4424078,,,,,,,,5.61328125,-14.83984375,8.4453125,0.20703125,1.501953125,-0.53515625,4.80859375,-24.01171875,11.6015625,1.0
4424079,,,,,,,,-1.19140625,-4.890625,0.23046875,0.259765625,1.66796875,-0.548828125,-2.01171875,-14.0546875,3.40234375,1.0
4424080,36.012928,129.31994683333332,121.41563709652442,58.58731536104899,3.4000000000000004,230.0,,-4.3515625,-10.50390625,-3.78125,0.326171875,-0.736328125,-1.228515625,-5.078125,-19.68359375,-0.6171875,1.0
4424081,,,,,,,,-0.80859375,-12.28125,0.046875,-0.046875,-4.056640625,-1.041015625,-1.24609375,-21.48828125,3.2109375,1.0
4424082,,,,,,,,2.48046875,-13.68359375,2.578125,-0.392578125,-1.345703125,-2.205078125,2.27734375,-22.8984375,5.7421875,1.0
4424083,,,,,,,,3.42578125,-11.24609375,0.984375,-0.859375,0.9296875,-2.65234375,3.46484375,-20.484375,4.09375,1.0
4424084,,,,,,,,2.6953125,-7.8828125,0.41796875,-0.97265625,0.94921875,-2.462890625,2.9296875,-17.15625,3.44140625,1.0
4424085,,,,,,,,2.4921875,-6.01171875,-0.21484375,-1.201171875,0.125,-2.1640625,2.9296875,-15.31640625,2.71484375,1.0
4424086,,,,,,,,2.25,-4.25,-0.71875,-1.275390625,-0.32421875,-2.08203125,2.890625,-13.59375,2.1015625,1.0
4424087,,,,,,,,2.7890625,-0.1953125,-2.109375,-1.287109375,-0.40234375,-2.068359375,3.734375,-9.5703125,0.53125,1.0
4424088,,,,,,,,3.58984375,3.421875,-3.171875,-1.21484375,-0.330078125,-1.955078125,4.73046875,-5.96875,-0.65625,1.0
4424089,,,,,,,,3.69921875,5.58203125,-2.44921875,-1.0703125,-0.146484375,-1.884765625,5.03515625,-3.82421875,-0.04296875,1.0
4424090,36.012926,129.31994383333333,121.14519324976939,58.365393145745045,3.6,230.0,,3.4453125,7.8046875,-1.734375,0.326171875,-0.736328125,-1.228515625,-5.078125,-19.68359375,-0.6171875,1.0
4424091,,,,,,,,2.5234375,10.859375,-1.375,-0.712890625,0.462890625,-1.650390625,4.1953125,1.4609375,0.875,1.0
4424092,,,,,,,,2.10546875,11.40234375,-1.57421875,-0.6171875,0.556640625,-1.49609375,3.84765625,1.99609375,0.64453125,1.0
4424093,,,,,,,,1.0390625,12.5390625,-2.22265625,-0.41015625,0.513671875,-1.173828125,2.890625,3.1484375,-0.04296875,1.0
4424094,,,,,,,,0.1796875,12.94921875,-2.859375,-0.345703125,0.40625,-0.978515625,2.0859375,3.56640625,-0.6953125,1.0
4424095,,,,,,,,-0.34765625,12.98046875,-3.2578125,-0.298828125,0.091796875,-0.576171875,1.62890625,3.60546875,-1.1171875,1.0
4424096,,,,,,,,0.921875,10.94921875,-3.859375,-0.318359375,-0.12890625,-0.3359375,2.97265625,1.57421875,-1.765625,1.0
4424097,,,,,,,,1.9609375,8.84375,-4.71875,-0.287109375,-0.154296875,-0.388671875,4.0390625,-0.53125,-2.6484375,1.0
4424098,,,,,,,,2.67578125,7.11328125,-5.75390625,-0.2265625,-0.125,-0.58984375,4.8046875,-2.25390625,-3.72265625,1.0
4424099,,,,,,,,2.4140625,7.10546875,-5.62890625,-0.18359375,-0.078125,-0.6875,4.58203125,-2.25390625,-3.60546875,1.0
4424100,36.01292383333334,129.31994066666667,120.85972481259773,58.124977527028555,3.7,229.0,0.0,-0.03125,7.96875,-3.73046875,0.326171875,-0.736328125,-1.228515625,2.20703125,-1.375,-1.73046875,1.0
4424101,,,,,,,,-2.73046875,9.1953125,-1.484375,-0.2734375,0.318359375,0.96875,-0.51953125,-0.1484375,0.4921875,1.0
4424102,,,,,,,,-6.87109375,10.73046875,6.31640625,-0.3359375,0.29296875,2.212890625,-4.80859375,1.34765625,8.26953125,1.0
4424103,,,,,,,,-7.2265625,12.125,4.515625,-0.44140625,0.095703125,2.994140625,-5.421875,2.6875,6.43359375,1.0
4424104,,,,,,,,-5.49609375,13.89453125,1.22265625,-0.5078125,-0.314453125,2.95703125,-3.96484375,4.40625,3.09765625,1.0
4424105,,,,,,,,-2.88671875,14.9609375,-2.69140625,-0.595703125,-1.080078125,1.140625,-1.55078125,5.44921875,-0.88671875,1.0
4424106,,,,,,,,-2.328125,14.1640625,-2.69921875,-0.328125,-1.580078125,-0.095703125,-0.59375,3.26171875,-0.578125,1.0
4424107,,,,,,,,-1.36328125,8.640625,-1.9140625,-0.111328125,-1.26171875,-0.009765625,-0.01953125,-4.24609375,0.26171875,1.0
4424108,,,,,,,,-1.15625,-0.37109375,0.453125,-0.072265625,-0.544921875,0.33203125,1.08984375,-19.1484375,4.58984375,1.0
4424109,,,,,,,,-2.8203125,-49.6328125,18.08203125,-0.078125,0.46875,0.65234375,-1.4765625,-59.140625,19.72265625,1.0
4424110,36.0129215,129.31993783333334,120.60430627383928,57.86606912178315,3.6,226.0,,-0.03125,7.96875,-3.73046875,-0.1875,1.662109375,0.75,2.20703125,-1.375,-1.73046875,1.0
4424111,,,,,,,,-5.18359375,-14.3359375,7.921875,0.185546875,3.21484375,-0.353515625,-4.00390625,-23.859375,9.5703125,1.0
4424112,,,,,,,,-0.06640625,-5.34375,1.43359375,0.775390625,3.125,0.046875,1.08984375,-14.86328125,3.13671875,1.0
4424113,,,,,,,,2.69921875,-3.59375,-1.84765625,0.28515625,1.55078125,1.703125,3.84765625,-13.09765625,-0.08203125,1.0
4424114,,,,,,,,13.4140625,-6.60546875,-6.0703125,-0.109375,-2.9609375,1.1171875,14.421875,-16.1171875,-4.2578125,1.0
4424115,,,,,,,,11.64453125,-10.84375,3.34765625,0.357421875,-4.318359375,0.375,12.58203125,-20.375,5.12890625,1.0
4424116,,,,,,,,5.79296875,-13.02734375,4.359375,0.6875,-2.1484375,1.615234375,6.76171875,-22.55859375,6.125,1.0
4424117,,,,,,,,2.43359375,-11.171875,2.04296875,0.7265625,1.314453125,3.244140625,3.12109375,-20.72265625,3.90234375,1.0
4424118,,,,,,,,0.09375,-8.75,-0.44921875,0.93359375,1.86328125,3.41796875,0.6328125,-18.3046875,1.44921875,1.0
4424119,,,,,,,,-1.01953125,-5.5390625,-0.40234375,1.0546875,1.421875,3.173828125,-0.82421875,-15.08984375,1.60546875,1.0
4424120,36.01291966666667,129.31993483333332,120.33386212911132,57.66264014003818,3.5,228.0,,-3.9296875,-0.4453125,0.05078125,1.365234375,0.158203125,2.861328125,-4.2734375,-9.95703125,2.29296875,1.0
4424121,,,,,,,,-4.46484375,2.5078125,-2.11328125,1.5078125,-0.1328125,3.333984375,-5.26953125,-6.9296875,0.33984375,1.0
4424122,,,,,,,,-4.58984375,3.4296875,-2.53515625,1.43359375,-0.1953125,3.28515625,-5.57421875,-5.97265625,-0.00390625,1.0
4424123,,,,,,,,-4.5078125,6.70703125,-3.8046875,1.171875,-0.07421875,3.130859375,-5.765625,-2.63671875,-1.15625,1.0
4424124,,,,,,,,-4.12109375,7.44140625,-3.8671875,1.017578125,0.318359375,2.8203125,-5.6484375,-1.83203125,-1.1171875,1.0
4424125,,,,,,,,-3.35546875,9.828125,-2.98828125,0.818359375,0.779296875,2.388671875,-5.1484375,0.6171875,-0.16015625,1.0
4424126,,,,,,,,-2.66796875,11.4921875,-1.42578125,0.59765625,1.1953125,2.03125,-4.6875,2.34375,1.44921875,1.0
4424127,,,,,,,,-2.29296875,11.87890625,-1.25,0.482421875,1.365234375,1.88671875,-4.42578125,2.76171875,1.640625,1.0
4424128,,,,,,,,-1.07421875,10.77734375,-2.90234375,0.314453125,1.431640625,1.388671875,-3.5,1.73046875,-0.00390625,1.0
4424129,,,,,,,,-0.7421875,9.05078125,-3.125,0.283203125,1.033203125,0.89453125,-3.3125,0.04296875,-0.234375,1.0
4424130,36.012917333333334,129.31993183333333,120.0634187295964,57.40373154582077,3.8000000000000003,226.0,,-0.6640625,7.41796875,-3.171875,0.306640625,0.560546875,0.3984375,-3.31640625,-1.56640625,-0.2734375,1.0
4424131,,,,,,,,-0.234375,6.62890625,-3.03515625,0.322265625,0.361328125,0.10546875,-2.9296875,-2.33203125,-0.12109375,1.0
4424132,,,,,,,,0.1953125,7.08203125,-2.97265625,0.27734375,0.25,-0.0546875,-2.51171875,-1.87109375,-0.04296875,1.0
4424133,,,,,,,,0.72265625,7.609375,-2.9140625,0.185546875,0.166015625,-0.3359375,-1.97265625,-1.3359375,0.03125,1.0
4424134,,,,,,,,1.5625,8.95703125,-3.08203125,0.208984375,-0.064453125,-0.625,-1.09375,0.00390625,-0.12109375,1.0
4424135,,,,,,,,1.953125,9.953125,-2.98828125,0.283203125,-0.3984375,-0.791015625,-0.6328125,1.00390625,-0.00390625,1.0
4424136,,,,,,,,2.18359375,10.8046875,-2.8515625,0.30078125,-0.564453125,-0.8515625,-0.36328125,1.84765625,0.1484375,1.0
4424137,,,,,,,,2.234375,11.53125,-2.5625,0.341796875,-0.796875,-0.85546875,-0.2109375,2.57421875,0.4921875,1.0
4424138,,,,,,,,2.0234375,11.91796875,-2.140625,0.341796875,-0.935546875,-0.70703125,-0.328125,2.953125,0.953125,1.0
4424139,,,,,,,,0.18359375,11.11328125,0.171875,0.30078125,-1.037109375,-0.51171875,-2.08984375,2.15234375,3.328125,1.0
4424140,36.0129155,129.31992866666667,119.77794972948485,57.20030237576987,3.6,229.0,,-1.87890625,9.87890625,1.703125,0.306640625,0.560546875,0.3984375,-3.31640625,-1.56640625,-0.2734375,1.0
4424141,,,,,,,,-3.40234375,7.37890625,3.38671875,0.115234375,-1.1640625,-0.314453125,-5.53515625,-1.56640625,6.6171875,1.0
4424142,,,,,,,,-0.609375,2.0078125,-0.359375,0.0546875,-1.07421875,-0.6953125,-2.6640625,-6.93359375,2.90625,1.0
4424143,,,,,,,,3.79296875,-7.0234375,-2.328125,0.05078125,-0.53515625,-1.421875,1.85546875,-15.97265625,0.953125,1.0
4424144,,,,,,,,9.34765625,-25.5390625,-1.5,0.115234375,0.427734375,-2.234375,7.56640625,-34.5078125,1.796875,1.0
4424145,,,,,,,,13.859375,-56.18359375,24.32421875,0.396484375,2.083984375,-2.17578125,12.3515625,-65.19140625,27.61328125,1.0
4424146,,,,,,,,2.8671875,-19.2421875,6.65625,0.326171875,2.740234375,-0.220703125,1.3984375,-28.265625,9.953125,1.0
4424147,,,,,,,,-3.359375,-8.41796875,-0.0625,0.126953125,2.130859375,0.705078125,-4.9609375,-17.421875,3.2109375,1.0
4424148,,,,,,,,-4.44140625,-9.08984375,-2.53515625,-0.595703125,-1.849609375,-1.63671875,-5.99609375,-18.109375,0.72265625,1.0
4424149,,,,,,,,-3.2734375,-9.88671875,-3.0625,-0.544921875,-4.255859375,-1.59375,-4.578125,-18.953125,0.1875,1.0
4424150,36.01291383333333,129.3199255,119.49248046486271,57.0153664211419,3.5,231.0,,-0.875,-10.14453125,-2.34375,-0.3984375,-3.201171875,-2.6796875,-3.31640625,-1.56640625,-0.2734375,1.0
4424151,,,,,,,,2.92578125,-9.1796875,1.36328125,-0.689453125,-0.3515625,-3.369140625,2.27734375,-18.34375,4.58984375,1.0
4424152,,,,,,,,3.6640625,-6.48046875,0.1171875,-1.126953125,1.16015625,-2.90234375,3.3125,-15.69921875,3.25,1.0
4424153,,,,,,,,3.5703125,-5.80859375,-0.9453125,-1.220703125,1.27734375,-2.560546875,3.3125,-15.046875,2.140625,1.0
4424154,,,,,,,,3.8125,-3.921875,-3.01953125,-1.171875,0.58984375,-2.234375,3.734375,-13.2109375,-0.04296875,1.0
4424155,,,,,,,,3.9140625,-1.25390625,-2.11328125,-1.369140625,-0.236328125,-2.2421875,4.15625,-10.60546875,0.68359375,1.0
4424156,,,,,,,,3.609375,1.734375,-1.3203125,-1.2890625,0.025390625,-2.013671875,4.078125,-7.66015625,1.3359375,1.0
4424157,,,,,,,,2.83984375,4.28515625,-1.265625,-1.15234375,0.443359375,-1.810546875,3.46484375,-5.125,1.296875,1.0
4424158,,,,,,,,2.40234375,7.06640625,-1.6640625,-1.08203125,0.58203125,-1.75390625,3.1171875,-2.37109375,0.8359375,1.0
4424159,,,,,,,,1.953125,9.53515625,-2.07421875,-0.77734375,0.537109375,-1.7265625,2.890625,0.08203125,0.30078125,1.0
4424160,36.012912,129.3199225,119.22203626519777,56.81193747319519,3.4000000000000004,232.0,,1.03125,12.484375,-2.625,-0.6328125,0.341796875,-1.69140625,2.125,3.03515625,-0.3125,1.0
4424161,,,,,,,,0.1015625,14.046875,-3.18359375,-0.482421875,0.166015625,-1.609375,1.359375,4.6015625,-0.92578125,1.0
4424162,,,,,,,,-0.0390625,14.27734375,-3.28125,-0.3671875,0.080078125,-1.5546875,1.28125,4.83203125,-1.0390625,1.0
4424163,,,,,,,,0.6640625,14.0234375,-3.43359375,-0.234375,-0.08984375,-1.345703125,2.203125,4.60546875,-1.23046875,1.0
4424164,,,,,,,,2.859375,10.9375,-4.8046875,-0.275390625,-0.18359375,-1.248046875,4.58203125,1.5390625,-2.6484375,1.0
4424165,,,,,,,,4.37109375,7.65625,-5.65625,-0.2421875,-0.20703125,-1.322265625,6.22265625,-1.71875,-3.53125,1.0
4424166,,,,,,,,4.1875,7.02734375,-5.80078125,-0.212890625,-0.189453125,-1.359375,6.11328125,-2.33203125,-3.68359375,1.0
4424167,,,,,,,,1.84765625,6.62109375,-5.1171875,-0.30078125,0.03515625,-1.080078125,3.8828125,-2.71484375,-3.03125,1.0
4424168,,,,,,,,-1.66015625,7.953125,-2.59765625,-0.32421875,0.341796875,-0.150390625,0.44140625,-1.37890625,-0.54296875,1.0
4424169,,,,,,,,-2.45703125,8.52734375,-1.890625,-0.302734375,0.482421875,0.42578125,-0.36328125,-0.80078125,0.1484375,1.0
4424170,36.012910000000005,129.31991950000003,118.95159231024307,56.59001532777556,3.5,231.0,,-4.2421875,10.390625,-0.45703125,-0.6328125,0.341796875,-1.69140625,-2.24609375,1.0390625,1.56640625,1.0
4424171,,,,,,,,-5.30078125,11.43359375,1.34375,-0.48828125,0.640625,2.33984375,-3.5,2.03515625,3.328125,1.0
4424172,,,,,,,,-5.48828125,11.78125,2.80078125,-0.54296875,0.39453125,2.5625,-3.92578125,2.34375,4.74609375,1.0
4424173,,,,,,,,-4.3671875,11.93359375,1.92578125,-0.4296875,-0.015625,2.41796875,-3.046875,2.45703125,3.8203125,1.0
4424174,,,,,,,,-1.48828125,11.15234375,-0.0625,-0.287109375,-0.396484375,1.72265625,-0.36328125,1.65234375,1.796875,1.0
4424175,,,,,,,,0.12890625,9.96484375,-0.4453125,-0.1953125,-0.755859375,0.390625,1.16796875,0.46484375,1.375,1.0
4424176,,,,,,,,2.7109375,3.75,-0.1171875,-0.08984375,-0.931640625,-0.466796875,3.7734375,-5.74609375,1.6796875,1.0
4424177,,,,,,,,3.51953125,-6.64453125,2.7265625,0.037109375,-0.85546875,-0.517578125,4.65234375,-16.1171875,4.515625,1.0
4424178,,,,,,,,-0.08984375,-37.65234375,10.48046875,0.02734375,-0.568359375,-0.064453125,1.08984375,-47.11328125,12.25390625,1.0
4424179,,,,,,,,-12.4375,-53.2421875,17.6796875,-0.146484375,0.099609375,0.6875,-11.28125,-62.703125,19.453125,1.0
4424180,36.01290783333333,129.31991666666667,118.69617341906533,56.34960018517661,3.5,227.0,,-14.55078125,-33.3515625,15.91015625,-0.53125,1.3359375,0.560546875,-13.46484375,-42.82421875,17.65234375,1.0
4424181,,,,,,,,-4.8125,-8.16796875,1.8984375,0.126953125,2.505859375,-0.44921875,-3.7734375,-17.6484375,3.6328125,1.0
4424182,,,,,,,,4.6640625,-8.3671875,-6.66015625,0.224609375,0.337890625,1.8203125,5.6484375,-17.84765625,-4.83203125,1.0
4424183,,,,,,,,14.8046875,-11.46484375,-3.55078125,-0.08984375,-2.951171875,1.423828125,15.6484375,-20.94921875,-1.73046875,1.0
4424184,,,,,,,,8.171875,-11.1328125,3.8671875,0.087890625,-3.33203125,0.646484375,8.984375,-20.64453125,5.6640625,1.0
4424185,,,,,,,,4.0625,-10.359375,4.06640625,0.314453125,-1.12109375,1.287109375,4.84375,-19.875,5.85546875,1.0
4424186,,,,,,,,3.5,-9.44140625,3.4375,0.337890625,0.4453125,2.484375,4.1953125,-18.953125,5.2421875,1.0
4424187,,,,,,,,1.078125,-5.671875,-1.6875,0.751953125,1.876953125,3.740234375,1.4375,-15.203125,0.1875,1.0
4424188,,,,,,,,0.5703125,-4.17578125,-2.21875,0.693359375,1.2421875,3.474609375,0.5546875,-13.70703125,-0.2734375,1.0
4424189,,,,,,,,-0.16796875,-2.8515625,-1.953125,0.98046875,0.38671875,2.693359375,-0.48046875,-12.3671875,0.0703125,1.0
4424190,36.012906,129.3199135,118.41070435374093,56.14617106008329,3.5,229.0,,-1.21875,-1.3125,-1.5234375,1.470703125,0.123046875,2.525390625,-1.78125,-10.80078125,0.609375,1.0
4424191,,,,,,,,-4.765625,3.375,-2.51953125,1.609375,0.3203125,2.5390625,-5.6875,-6.05078125,-0.16015625,1.0
4424192,,,,,,,,-6.32421875,6.26171875,-3.1953125,1.3515625,0.33984375,2.677734375,-7.484375,-3.09765625,-0.6953125,1.0
4424193,,,,,,,,-6.28515625,9.34765625,-3.12109375,0.994140625,0.279296875,3.05859375,-7.8671875,0.08203125,-0.46484375,1.0
4424194,,,,,,,,-5.4921875,11.4140625,-2.5859375,0.830078125,0.51171875,2.955078125,-7.375,2.2265625,0.1484375,1.0
4424195,,,,,,,,-3.76171875,12.33984375,-1.4453125,0.5703125,0.869140625,2.546875,-5.9140625,3.22265625,1.3359375,1.0
4424196,,,,,,,,-3.22265625,12.65234375,-1.22265625,0.427734375,1.044921875,2.29296875,-5.49609375,3.56640625,1.56640625,1.0
4424197,,,,,,,,-1.7421875,12.140625,-1.8515625,0.265625,1.17578125,1.662109375,-4.234375,3.109375,0.953125,1.0
4424198,,,,,,,,-0.86328125,10.7890625,-2.42578125,0.427734375,0.943359375,0.990234375,-3.50390625,1.8046875,0.37890625,1.0
4424199,,,,,,,,-0.703125,10.0078125,-2.78125,0.517578125,0.708984375,0.697265625,-3.39453125,1.0390625,0.03125,1.0
4424200,36.0129035,129.31991033333333,118.12523626414945,55.86876911676377,3.8000000000000003,228.0,0.0,-0.41796875,4.69140625,-4.05078125,0.49609375,0.19140625,-0.2578125,-3.16015625,-4.24609375,-1.19140625,1.0
4424201,,,,,,,,0.1015625,4.30078125,-4.0546875,0.412109375,0.060546875,-0.892578125,-2.5859375,-4.625,-1.15625,1.0
4424202,,,,,,,,1.01171875,5.9609375,-3.76953125,0.22265625,0.044921875,-1.310546875,-1.58984375,-2.98828125,-0.84765625,1.0
4424203,,,,,,,,1.25390625,6.74609375,-3.39453125,0.13671875,0.052734375,-1.43359375,-1.28515625,-2.21484375,-0.46484375,1.0
4424204,,,,,,,,1.87890625,8.19921875,-2.90625,0.119140625,-0.00390625,-1.560546875,-0.51953125,-0.80078125,0.03125,1.0
4424205,,,,,,,,2.64453125,10.37890625,-2.515625,0.447265625,-0.4140625,-1.283203125,0.44140625,1.34375,0.453125,1.0
4424206,,,,,,,,2.79296875,12.0625,-2.64453125,0.529296875,-0.837890625,-0.8984375,0.70703125,3.03515625,0.37890625,1.0
4424207,,,,,,,,1.97265625,13.13671875,-3.08984375,0.45703125,-1.23046875,-0.615234375,-0.01953125,4.1015625,-0.00390625,1.0
4424208,,,,,,,,1.42578125,13.1953125,-3.23828125,0.392578125,-1.37890625,-0.521484375,-0.51953125,4.18359375,-0.12109375,1.0
4424209,,,,,,,,0.375,12.58203125,-3.4453125,0.25390625,-1.607421875,-0.396484375,-1.4765625,3.56640625,-0.2734375,1.0
4424210,36.01290166666667,129.319907,117.8247423368608,55.66533980938746,3.7,231.0,,-2.7265625,8.62109375,0.56640625,0.49609375,0.19140625,-0.2578125,-3.16015625,-4.24609375,-1.19140625,1.0
4424211,,,,,,,,-5.05078125,-0.50390625,4.0234375,0.0703125,-1.484375,-0.14453125,-6.76171875,-9.4921875,7.2734375,1.0
4424212,,,,,,,,-4.23828125,-4.33203125,2.97265625,0.01953125,-1.291015625,-0.087890625,-5.91796875,-13.3203125,6.23828125,1.0
4424213,,,,,,,,10.453125,-26.59765625,1.80859375,-0.017578125,-0.7890625,-0.640625,8.828125,-35.578125,5.08984375,1.0
4424214,,,,,,,,25.78125,-54.578125,13.76171875,0.1171875,0.201171875,-2.529296875,24.3046875,-63.58984375,17.04296875,1.0
4424215,,,,,,,,6.34765625,-17.38671875,3.67578125,0.294921875,1.8828125,-3.552734375,5.15234375,-26.421875,6.96484375,1.0
4424216,,,,,,,,4.18359375,-11.6640625,1.73046875,0.0234375,2.662109375,-3.08203125,3.08203125,-20.72265625,5.01171875,1.0
4424217,,,,,,,,-2.59765625,-6.0859375,-0.56640625,-0.171875,2.66015625,-0.63671875,-3.62109375,-15.16796875,2.67578125,1.0
4424218,,,,,,,,-5.73828125,-8.54296875,-2.87109375,-0.51171875,-4.0546875,-0.044921875,-6.68359375,-17.65234375,0.33984375,1.0
4424219,,,,,,,,-2.07421875,-11.09375,-0.85546875,-0.08203125,-5.171875,-0.3671875,-2.85546875,-20.22265625,2.37109375,1.0
4424220,36.012899999999995,129.3199038333333,117.53927297598571,55.48040391640104,3.6,233.0,,1.94140625,-11.5625,0.75390625,0.49609375,0.19140625,-0.2578125,-3.16015625,-4.24609375,-1.19140625,1.0
4424221,,,,,,,,3.3984375,-9.484375,0.34765625,-1.1875,1.16796875,-2.98828125,3.2734375,-18.6875,3.48046875,1.0
4424222,,,,,,,,4.0546875,-8.20703125,-0.9375,-1.1640625,1.28515625,-2.7265625,4.0390625,-17.421875,2.140625,1.0
4424223,,,,,,,,3.94921875,-5.27734375,-1.2109375,-1.169921875,0.16015625,-2.12890625,4.23046875,-14.55078125,1.71875,1.0
4424224,,,,,,,,3.74609375,-1.63671875,-0.89453125,-1.267578125,-0.25390625,-2.134765625,4.23046875,-10.9453125,1.91015625,1.0
4424225,,,,,,,,3.046875,1.57421875,-1.93359375,-1.2109375,-0.171875,-1.955078125,3.734375,-7.76953125,0.76171875,1.0
4424226,,,,,,,,2.72265625,2.5,-2.53125,-1.162109375,-0.09375,-1.853515625,3.50390625,-6.85546875,0.109375,1.0
4424227,,,,,,,,2.703125,5.85546875,-3.9140625,-1.033203125,-0.056640625,-1.748046875,3.65625,-3.51953125,-1.3828125,1.0
4424228,,,,,,,,2.6875,9.05078125,-3.4296875,-0.958984375,0.001953125,-1.826171875,3.81640625,-0.33984375,-1.0,1.0
4424229,,,,,,,,1.9140625,10.8515625,-2.65625,-0.84375,0.4765625,-2.09375,3.3125,1.4609375,-0.3515625,1.0
4424230,36.012898,129.31990050000002,117.23877927081428,55.258481422466836,3.7,232.0,,0.76953125,12.03125,-1.98828125,-0.669921875,0.861328125,-1.869140625,2.35546875,2.65234375,0.26171875,1.0
4424231,,,,,,,,-0.23046875,12.4765625,-2.26953125,-0.51171875,0.9921875,-1.228515625,1.55078125,3.11328125,-0.08203125,1.0
4424232,,,,,,,,-0.35546875,12.5,-2.921875,-0.5390625,0.78125,-0.921875,1.51171875,3.15234375,-0.7734375,1.0
4424233,,,,,,,,0.76171875,10.69921875,-3.68359375,-0.55078125,0.453125,-0.86328125,2.69921875,1.34765625,-1.57421875,1.0
4424234,,,,,,,,2.29296875,8.1171875,-4.57421875,-0.509765625,0.138671875,-0.736328125,4.34765625,-1.21875,-2.53515625,1.0
4424235,,,,,,,,2.34375,7.07421875,-4.296875,-0.40234375,0.154296875,-0.65625,4.4609375,-2.25390625,-2.3046875,1.0
4424236,,,,,,,,0.3359375,6.4921875,-2.92578125,-0.357421875,0.3125,-0.36328125,2.5078125,-2.828125,-0.96484375,1.0
4424237,,,,,,,,-1.53125,6.9140625,-1.58984375,-0.33984375,0.4609375,0.302734375,0.6328125,-2.40625,0.33984375,1.0
4424238,,,,,,,,-4.08203125,8.3828125,0.203125,-0.421875,0.33203125,1.111328125,-1.97265625,-0.953125,2.1015625,1.0
4424239,,,,,,,,-5.8125,9.83203125,2.6640625,-0.5703125,-0.05859375,1.734375,-3.8515625,0.46484375,4.51953125,1.0
4424240,36.01289583333333,129.3198975,116.96833546001798,55.018066130740074,3.7,230.0,,-6.0390625,11.7109375,2.16015625,-0.666015625,-0.5078125,1.97265625,2.35546875,2.65234375,0.26171875,1.0
4424241,,,,,,,,-3.15625,13.16796875,-0.64453125,-0.57421875,-1.0,1.494140625,-1.515625,3.71875,1.06640625,1.0
4424242,,,,,,,,-1.328125,12.453125,-1.41015625,-0.40625,-1.4921875,0.37890625,0.25,2.99609375,0.22265625,1.0
4424243,,,,,,,,-0.49609375,11.56640625,-1.26953125,-0.333984375,-1.638671875,-0.048828125,1.08984375,2.11328125,0.33984375,1.0
4424244,,,,,,,,1.2109375,7.15234375,-1.0625,-0.16796875,-1.638671875,-0.474609375,2.85546875,-2.29296875,0.4921875,1.0
4424245,,,,,,,,1.02734375,-1.60546875,1.27734375,-0.052734375,-1.216796875,-0.4453125,2.73828125,-11.02734375,2.79296875,1.0
4424246,,,,,,,,-2.24609375,-37.4296875,12.4453125,0.005859375,-0.43359375,-0.20703125,-0.48046875,-46.84375,13.9375,1.0
4424247,,,,,,,,-13.20703125,-56.8984375,14.9296875,-0.216796875,1.533203125,0.453125,-11.47265625,-66.3046875,16.4296875,1.0
4424248,,,,,,,,-9.5,-19.38671875,12.515625,-0.30078125,2.12890625,0.341796875,-7.796875,-28.796875,14.015625,1.0
4424249,,,,,,,,1.625,-4.9453125,0.15625,-0.158203125,2.580078125,-0.923828125,3.3125,-14.36328125,1.6796875,1.0
4424250,36.01289366666666,129.3198945,116.69789163370334,54.7776508483593,3.6,228.0,,-6.0390625,11.7109375,2.16015625,-0.333984375,-0.673828125,1.8359375,12.16015625,-16.8828125,-6.5546875,1.0
4424251,,,,,,,,13.21875,-8.0234375,-5.3125,-0.09765625,-3.869140625,1.365234375,15.6484375,-18.421875,0.37890625,1.0
4424252,,,,,,,,14.109375,-8.96875,-1.10546875,0.38671875,-4.173828125,1.150390625,13.04296875,-20.21875,3.40234375,1.0
4424253,,,,,,,,3.55078125,-14.69140625,4.5234375,0.73046875,-1.94921875,2.0078125,5.03515625,-24.1640625,5.96875,1.0
4424254,,,,,,,,2.56640625,-13.5625,3.828125,0.654296875,1.66015625,3.2734375,1.93359375,-19.5703125,3.40234375,1.0
4424255,,,,,,,,-1.1640625,-6.046875,-0.20703125,0.859375,1.990234375,3.1875,-0.328125,-15.58984375,1.41015625,1.0
4424256,,,,,,,,-2.58984375,-3.39453125,-0.4140625,0.90234375,0.8828125,2.501953125,-2.05078125,-12.9375,1.296875,1.0
4424257,,,,,,,,-3.72265625,-0.484375,-0.96875,1.419921875,-0.296875,2.8984375,-3.54296875,-10.03125,0.9140625,1.0
4424258,,,,,,,,-5.64453125,2.3046875,-2.96484375,1.564453125,-0.34375,3.4296875,-5.95703125,-7.1953125,-0.84765625,1.0
4424259,,,,,,,,-6.4453125,3.29296875,-3.44921875,1.49609375,-0.267578125,3.384765625,-6.87890625,-6.19921875,-1.26953125,1.0
4424260,36.01289166666666,129.31989166666665,116.44247238349814,54.555728979329345,3.4000000000000004,228.0,,-6.25,4.125,-2.85546875,1.3984375,-0.03125,3.080078125,-6.9921875,-5.3203125,-0.54296875,1.0
4424261,,,,,,,,-5.609375,8.5546875,-1.30078125,1.2421875,0.4140625,2.681640625,-6.65234375,-0.8359375,1.14453125,1.0
4424262,,,,,,,,-5.2578125,9.80859375,-0.93359375,0.966796875,0.90625,2.392578125,-6.53125,0.46484375,1.60546875,1.0
4424263,,,,,,,,-2.76953125,12.91015625,-1.3359375,0.72265625,1.072265625,1.951171875,-4.38671875,3.64453125,1.296875,1.0
4424264,,,,,,,,-2.12109375,13.515625,-2.37890625,0.6484375,0.75,1.552734375,-3.92578125,4.30078125,0.30078125,1.0
4424265,,,,,,,,-1.1015625,13.0078125,-3.95703125,0.572265625,0.259765625,1.0078125,-3.046875,3.8359375,-1.23046875,1.0
4424266,,,,,,,,-1.0703125,9.30859375,-4.3125,0.669921875,-0.09375,0.513671875,-3.0859375,0.16015625,-1.5390625,1.0
4424267,,,,,,,,-1.58984375,6.87890625,-4.1875,0.650390625,-0.181640625,0.3046875,-3.62109375,-2.25390625,-1.3828125,1.0
4424268,,,,,,,,-1.8046875,5.78125,-3.66796875,0.484375,-0.134765625,-0.0703125,-3.85546875,-3.328125,-0.80859375,1.0
4424269,,,,,,,,-1.8125,5.66015625,-3.2265625,0.416015625,-0.009765625,-0.20703125,-3.85546875,-3.44140625,-0.3515625,1.0
4424270,36.012889333333334,129.31988850000002,116.15700394247878,54.29682030844203,3.7,227.0,,-2.1328125,6.87890625,-1.2265625,1.3984375,-0.03125,3.080078125,-4.16015625,-2.21484375,1.6796875,1.0
4424271,,,,,,,,-1.49609375,7.94921875,-0.62109375,0.185546875,0.44921875,-0.263671875,-3.5,-1.14453125,2.29296875,1.0
4424272,,,,,,,,-0.46484375,8.9765625,-0.98046875,0.21484375,0.423828125,-0.189453125,-2.46875,-0.109375,1.94921875,1.0
4424273,,,,,,,,1.62109375,10.76171875,-2.390625,0.416015625,-0.16796875,-0.55078125,-0.36328125,1.6875,0.5703125,1.0
4424274,,,,,,,,2.4453125,11.8046875,-3.08984375,0.48046875,-0.69140625,-1.193359375,0.5546875,2.7265625,-0.08203125,1.0
4424275,,,,,,,,2.90234375,12.41796875,-3.61328125,0.521484375,-1.072265625,-1.564453125,1.16796875,3.3359375,-0.54296875,1.0
4424276,,,,,,,,2.35546875,12.03515625,-3.59765625,0.56640625,-1.23828125,-1.462890625,0.78515625,2.953125,-0.46484375,1.0
4424277,,,,,,,,0.4765625,9.7578125,-2.203125,0.5234375,-1.181640625,-1.068359375,-0.9375,0.6953125,0.9921875,1.0
4424278,,,,,,,,-2.23828125,6.45703125,1.53125,0.40234375,-0.900390625,-0.591796875,-3.54296875,-2.59765625,4.78515625,1.0
4424279,,,,,,,,-2.1015625,2.45703125,2.10546875,0.259765625,-0.419921875,-0.375,-3.3515625,-6.578125,5.39453125,1.0
4424280,36.012887500000005,129.31988533333333,115.87153474685228,54.09339126584064,3.7,230.0,,6.9296875,-15.86328125,-0.13671875,0.083984375,0.2109375,-1.02734375,5.765625,-24.89453125,3.17578125,1.0
4424281,,,,,,,,18.04296875,-46.34765625,8.41015625,0.01171875,0.431640625,-1.857421875,16.98828125,-55.3828125,11.71484375,1.0
4424282,,,,,,,,7.3828125,-26.18359375,18.5234375,0.0703125,0.44921875,-1.67578125,6.4921875,-35.23828125,21.828125,1.0
4424283,,,,,,,,5.765625,-15.71484375,8.14453125,-0.05078125,0.3671875,-0.822265625,4.921875,-24.7734375,11.44921875,1.0
4424284,,,,,,,,1.796875,-7.55859375,0.95703125,-0.10546875,0.662109375,0.720703125,0.9375,-16.62109375,4.24609375,1.0
4424285,,,,,,,,-3.04296875,-9.92578125,-2.55078125,-0.32421875,-0.357421875,-0.765625,-3.92578125,-18.9921875,0.72265625,1.0
4424286,,,,,,,,-3.03125,-10.734375,-1.0703125,-0.36328125,-4.02734375,-1.28515625,-3.734375,-19.8359375,2.1796875,1.0
4424287,,,,,,,,0.578125,-12.62890625,0.74609375,-0.65234375,-2.7265625,-1.88671875,0.25,-21.75,3.98046875,1.0
4424288,,,,,,,,1.90625,-11.9921875,1.04296875,-1.005859375,-1.3515625,-2.275390625,1.703125,-21.140625,4.24609375,1.0
4424289,,,,,,,,5.06640625,-9.0703125,1.53515625,-1.3359375,0.26953125,-2.396484375,5.11328125,-18.265625,4.62890625,1.0
4424290,36.012885833333335,129.31988216666664,115.58606529624645,53.908455439654055,3.5,232.0,,4.80078125,-7.72265625,0.89453125,0.083984375,0.2109375,-1.02734375,5.03515625,-16.96484375,3.86328125,1.0
4424291,,,,,,,,3.671875,-4.55078125,-0.19140625,-1.306640625,0.05078125,-2.2890625,4.1171875,-13.82421875,2.67578125,1.0
4424292,,,,,,,,3.2109375,-3.37890625,-0.53515625,-1.34375,-0.076171875,-2.25,3.7734375,-12.67578125,2.25390625,1.0
4424293,,,,,,,,3.0859375,2.00390625,-2.54296875,-1.416015625,-0.1015625,-1.921875,4.0390625,-7.34765625,-0.00390625,1.0
4424294,,,,,,,,3.01171875,4.29296875,-1.8984375,-1.287109375,0.142578125,-1.771484375,4.23046875,-5.08984375,0.453125,1.0
4424295,,,,,,,,2.6953125,5.87890625,-1.47265625,-1.103515625,0.357421875,-1.71484375,4.078125,-3.51953125,0.76171875,1.0
4424296,,,,,,,,2.65625,7.40234375,-1.3515625,-1.005859375,0.466796875,-1.662109375,4.1171875,-1.98828125,0.8359375,1.0
4424297,,,,,,,,2.01953125,8.71484375,-1.65625,-0.85546875,0.5703125,-1.453125,3.6171875,-0.68359375,0.453125,1.0
4424298,,,,,,,,0.98828125,11.54296875,-2.7734375,-0.763671875,0.453125,-1.244140625,2.69921875,2.15234375,-0.734375,1.0
4424299,,,,,,,,0.46875,12.4609375,-3.046875,-0.697265625,0.361328125,-1.1328125,2.2421875,3.07421875,-1.0390625,1.0
4424300,36.01288383333333,129.31987883333335,115.28557148539369,53.6865330116285,3.7,232.0,0.0,-0.77734375,15.37109375,-3.484375,-0.595703125,0.216796875,-0.9609375,1.08984375,5.9765625,-1.5390625,1.0
4424301,,,,,,,,-0.35546875,14.55859375,-4.0625,-0.580078125,0.185546875,-0.70703125,1.62890625,5.17578125,-2.1875,1.0
4424302,,,,,,,,0.1484375,13.41015625,-4.30859375,-0.5703125,0.154296875,-0.623046875,2.1640625,4.02734375,-2.45703125,1.0
4424303,,,,,,,,1.1796875,9.00390625,-4.875,-0.515625,0.00390625,-0.435546875,3.27734375,-0.37890625,-3.109375,1.0
4424304,,,,,,,,1.00390625,7.2734375,-4.58203125,-0.47265625,0.00390625,-0.443359375,3.12109375,-2.1015625,-2.83984375,1.0
4424305,,,,,,,,-0.7890625,6.73046875,-2.78125,-0.3984375,0.13671875,-0.322265625,1.359375,-2.63671875,-1.078125,1.0
4424306,,,,,,,,-4.25390625,7.42578125,2.66015625,-0.44921875,0.349609375,0.279296875,-2.08984375,-1.94921875,4.3203125,1.0
4424307,,,,,,,,-5.37890625,7.6953125,5.01953125,-0.47265625,0.41015625,0.716796875,-3.23828125,-1.6796875,6.66015625,1.0
4424308,,,,,,,,-6.109375,9.07421875,4.96875,-0.544921875,0.302734375,1.794921875,-4.15625,-0.33984375,6.546875,1.0
4424309,,,,,,,,-5.44140625,9.98046875,3.45703125,-0.568359375,0.1796875,1.859375,-3.58203125,0.54296875,5.01171875,1.0
4424310,36.012881500000006,129.31987566666666,115.00010297807397,53.42762437730661,3.7,230.0,,-2.3984375,13.06640625,-1.19921875,-0.595703125,0.216796875,-0.9609375,1.08984375,5.9765625,-1.5390625,1.0
4424311,,,,,,,,-1.46875,13.53515625,-2.5,-0.45703125,-1.3125,-0.25390625,0.25,4.06640625,-1.1171875,1.0
4424312,,,,,,,,-1.01953125,11.7265625,-1.8984375,-0.291015625,-1.361328125,-0.25390625,0.74609375,2.26953125,-0.578125,1.0
4424313,,,,,,,,-1.28125,6.69921875,-0.47265625,-0.232421875,-1.001953125,0.06640625,0.515625,-2.75,0.80078125,1.0
4424314,,,,,,,,-1.02734375,-2.234375,2.5078125,-0.203125,-0.345703125,0.484375,0.74609375,-11.68359375,3.75,1.0
4424315,,,,,,,,-2.24609375,-36.625,13.5234375,-0.177734375,0.521484375,0.595703125,-0.51953125,-46.078125,14.7421875,1.0
4424316,,,,,,,,-8.41796875,-57.00390625,18.6484375,-0.193359375,1.00390625,0.568359375,-6.72265625,-66.453125,19.875,1.0
4424317,,,,,,,,-8.39453125,-19.33984375,12.796875,-0.361328125,2.158203125,-0.455078125,-6.76171875,-28.796875,14.015625,1.0
4424318,,,,,,,,0.60546875,-6.33203125,1.11328125,0.322265625,2.412109375,-1.548828125,2.31640625,-15.7734375,2.37109375,1.0
4424319,,,,,,,,8.28125,-7.01953125,-4.0390625,0.1484375,0.1796875,1.560546875,9.9765625,-16.4609375,-2.7265625,1.0
4424320,36.01287966666666,129.31987283333333,114.74468340593712,53.22419576435649,3.5,229.0,,12.5390625,-9.1796875,3.37109375,0.103515625,-3.4296875,0.92578125,14.1171875,-18.65234375,4.66796875,1.0
4424321,,,,,,,,4.9140625,-12.890625,5.65625,0.68359375,-3.6484375,0.5078125,6.4921875,-22.3671875,6.9296875,1.0
4424322,,,,,,,,0.75,-12.4140625,3.171875,0.541015625,-0.306640625,2.1171875,2.2421875,-21.90625,4.4765625,1.0
4424323,,,,,,,,-0.27734375,-9.83203125,0.58203125,0.615234375,1.19140625,2.826171875,1.08984375,-19.33984375,1.91015625,1.0
4424324,,,,,,,,-1.640625,-6.34375,-0.23828125,0.83984375,1.53515625,2.875,-0.5546875,-15.89453125,1.18359375,1.0
4424325,,,,,,,,-2.25,-4.4921875,0.41796875,1.015625,0.65234375,2.330078125,-1.4375,-14.0546875,1.94921875,1.0
4424326,,,,,,,,-2.90234375,-2.875,0.8359375,1.4296875,0.033203125,2.4296875,-2.31640625,-12.4453125,2.484375,1.0
4424327,,,,,,,,-3.62109375,-0.890625,0.19140625,1.57421875,0.025390625,2.685546875,-3.27734375,-10.453125,1.98828125,1.0
4424328,,,,,,,,-4.94921875,1.77734375,-1.421875,1.5625,0.11328125,2.73828125,-4.73046875,-7.76953125,0.453125,1.0
4424329,,,,,,,,-5.33984375,5.0,-2.8203125,1.353515625,0.11328125,2.8359375,-5.53125,-4.515625,-0.734375,1.0
4424330,36.01287766666667,129.31986966666668,114.4592143878387,53.00227356222011,3.6,229.0,,-5.02734375,7.421875,-3.3671875,0.103515625,-3.4296875,0.92578125,-5.4921875,-2.0625,-1.15625,1.0
4424331,,,,,,,,-4.42578125,9.4140625,-3.09375,1.021484375,0.416015625,2.537109375,-5.1484375,-0.03125,-0.7734375,1.0
4424332,,,,,,,,-4.1171875,11.10546875,-2.13671875,0.814453125,0.765625,2.234375,-5.08203125,1.69140625,0.26171875,1.0
4424333,,,,,,,,-2.6015625,13.578125,-1.03515625,0.59765625,1.19140625,1.904296875,-3.890625,4.22265625,1.44921875,1.0
4424334,,,,,,,,-1.890625,13.8828125,-1.49609375,0.54296875,1.197265625,1.6640625,-3.390625,4.5625,1.02734375,1.0
4424335,,,,,,,,-1.11328125,12.84765625,-2.90625,0.48828125,0.904296875,1.2421875,-2.77734375,3.56640625,-0.3515625,1.0
4424336,,,,,,,,-1.28125,10.6875,-3.953125,0.501953125,0.689453125,0.970703125,-3.0078125,1.421875,-1.3828125,1.0
4424337,,,,,,,,-1.984375,6.7421875,-4.078125,0.404296875,0.2734375,0.11328125,-3.81640625,-2.484375,-1.4609375,1.0
4424338,,,,,,,,-1.984375,5.30859375,-3.7265625,0.294921875,0.25,-0.22265625,-3.8125,-3.8984375,-1.078125,1.0
4424339,,,,,,,,-1.34765625,4.96484375,-2.5625,0.17578125,0.390625,-0.201171875,-3.16015625,-4.24609375,0.109375,1.0
4424340,36.0128755,129.31986633333332,114.158720753653,52.761857966739925,3.7,229.0,,-0.0390625,6.83203125,-1.91015625,0.103515625,0.470703125,-0.146484375,-1.859375,-2.37109375,0.76171875,1.0
4424341,,,,,,,,2.0234375,9.3828125,-1.64453125,0.498046875,-0.01953125,-0.642578125,0.25,0.1953125,1.0625,1.0
4424342,,,,,,,,2.640625,10.6796875,-1.20703125,0.568359375,-0.244140625,-0.771484375,0.8984375,1.5,1.52734375,1.0
4424343,,,,,,,,1.98046875,12.203125,-0.6953125,0.6171875,-1.001953125,-0.732421875,0.36328125,3.03515625,2.140625,1.0
4424344,,,,,,,,1.4375,12.12109375,-0.7734375,0.59765625,-1.25390625,-0.576171875,-0.1328125,2.953125,2.1015625,1.0
4424345,,,,,,,,-1.0625,10.140625,-0.23828125,0.5,-1.724609375,-0.236328125,-2.546875,1.0,2.7109375,1.0
4424346,,,,,,,,-1.6328125,7.40625,0.39453125,0.341796875,-1.947265625,-0.185546875,-3.046875,-1.71875,3.3984375,1.0
4424347,,,,,,,,-1.08203125,5.3671875,-0.31640625,0.2578125,-1.859375,-0.2890625,-2.47265625,-3.75390625,2.71484375,1.0
4424348,,,,,,,,2.46484375,-6.98046875,-0.79296875,0.10546875,-0.642578125,-0.685546875,1.20703125,-16.078125,2.29296875,1.0
4424349,,,,,,,,5.96484375,-22.3828125,1.3515625,0.08984375,-0.080078125,-0.94921875,4.73046875,-31.48828125,4.4375,1.0
4424350,36.012874000000004,129.3198631666667,113.87325098848858,52.59541540293391,3.6,232.0,,14.12890625,-42.79296875,13.40234375,0.158203125,0.998046875,-1.466796875,13.00390625,-51.90234375,16.50390625,1.0
4424351,,,,,,,,5.39453125,-25.0078125,16.1328125,0.15625,1.6875,-1.146484375,4.34765625,-34.125,19.2265625,1.0
4424352,,,,,,,,2.734375,-15.77734375,7.8203125,0.083984375,1.986328125,-0.67578125,1.703125,-24.89453125,10.9140625,1.0
4424353,,,,,,,,-3.140625,-6.23046875,-0.46484375,-0.173828125,1.96875,-0.4453125,-4.1953125,-15.3515625,2.59765625,1.0
4424354,,,,,,,,-4.46875,-10.3046875,-4.5,-0.3515625,-1.166015625,-1.3125,-5.4609375,-19.453125,-1.4609375,1.0
4424355,,,,,,,,-1.98828125,-12.92578125,-1.08203125,-0.3125,-3.951171875,-1.302734375,-2.77734375,-22.09375,1.94921875,1.0
4424356,,,,,,,,1.1640625,-14.94921875,0.75390625,-0.24609375,-3.876953125,-1.5,0.515625,-24.125,3.78515625,1.0
4424357,,,,,,,,3.65625,-13.7890625,1.67578125,-0.720703125,0.08984375,-2.94140625,3.390625,-23.015625,4.66796875,1.0
4424358,,,,,,,,5.55078125,-8.42578125,0.421875,-1.154296875,1.091796875,-2.75,5.53515625,-17.69140625,3.328125,1.0
4424359,,,,,,,,5.5546875,-7.17578125,-0.359375,-1.234375,0.890625,-2.546875,5.6484375,-16.4609375,2.484375,1.0
4424360,36.01287216666666,129.31986,113.58778168443588,52.391986435017714,3.5,232.0,,4.3125,-4.12109375,-1.6484375,-1.427734375,-0.234375,-2.404296875,4.84375,-13.4765625,0.953125,1.0
4424361,,,,,,,,3.7890625,-1.453125,-0.59765625,-1.5,0.107421875,-2.322265625,4.5390625,-10.83984375,1.87109375,1.0
4424362,,,,,,,,3.30859375,1.90234375,-0.9921875,-1.439453125,0.521484375,-1.986328125,4.26953125,-7.50390625,1.3359375,1.0
4424363,,,,,,,,3.15625,2.875,-1.08984375,-1.37109375,0.61328125,-1.76953125,4.1953125,-6.546875,1.18359375,1.0
4424364,,,,,,,,2.921875,4.6171875,-1.33984375,-1.220703125,0.595703125,-1.421875,4.1171875,-4.82421875,0.80078125,1.0
4424365,,,,,,,,1.640625,7.7734375,-2.0234375,-1.068359375,0.494140625,-1.224609375,2.93359375,-1.6796875,0.03125,1.0
4424366,,,,,,,,0.34375,10.234375,-2.546875,-0.841796875,0.447265625,-1.119140625,1.74609375,0.7734375,-0.578125,1.0
4424367,,,,,,,,-0.140625,11.6484375,-2.984375,-0.634765625,0.46875,-1.037109375,1.359375,2.19140625,-1.078125,1.0
4424368,,,,,,,,-0.53125,12.109375,-3.19140625,-0.5390625,0.462890625,-1.072265625,1.015625,2.6484375,-1.30859375,1.0
4424369,,,,,,,,-0.3671875,12.4453125,-3.56640625,-0.529296875,0.416015625,-1.34375,1.28125,2.99609375,-1.73046875,1.0
4424370,36.01287,129.31985666666665,113.28728800749658,52.151570869706035,3.7,231.0,,0.2734375,10.38671875,-4.57421875,-0.587890625,0.078125,-1.431640625,2.203125,0.96484375,-2.83984375,1.0
4424371,,,,,,,,1.41015625,8.1875,-4.3828125,-0.462890625,-0.1171875,-0.74609375,3.50390625,-1.21875,-2.7265625,1.0
4424372,,,,,,,,0.7421875,7.796875,-3.109375,-0.359375,-0.0390625,-0.232421875,2.89453125,-1.6015625,-1.5,1.0
4424373,,,,,,,,0.24609375,7.7578125,-2.75,-0.291015625,0.052734375,0.033203125,2.390625,-1.640625,-1.15625,1.0
4424374,,,,,,,,-1.72265625,7.99609375,-1.5390625,-0.19921875,0.240234375,0.578125,0.40234375,-1.41015625,0.03125,1.0
4424375,,,,,,,,-2.83984375,8.5390625,-0.91015625,-0.220703125,0.28515625,0.908203125,-0.78515625,-0.875,0.64453125,1.0
4424376,,,,,,,,-3.390625,9.48046875,-0.203125,-0.30859375,0.189453125,0.986328125,-1.4375,0.04296875,1.3359375,1.0
4424377,,,,,,,,-4.953125,10.9140625,2.44140625,-0.423828125,-0.02734375,1.0390625,-3.0859375,1.4609375,3.94140625,1.0
4424378,,,,,,,,-5.5078125,11.19921875,4.44921875,-0.462890625,-0.177734375,1.107421875,-3.6953125,1.73046875,5.9296875,1.0
4424379,,,,,,,,-4.6875,11.05859375,3.66015625,-0.392578125,-0.54296875,1.16015625,-2.96875,1.57421875,5.08984375,1.0
4424380,36.01286783333333,129.3198536666667,113.01684399503019,51.911155701852884,3.6,230.0,,-2.9453125,10.76953125,2.2421875,-0.587890625,0.078125,-1.431640625,2.203125,0.96484375,-2.83984375,1.0
4424381,,,,,,,,-0.45703125,8.31640625,1.28515625,-0.10546875,-1.55078125,0.12109375,1.12890625,-1.18359375,2.63671875,1.0
4424382,,,,,,,,1.14453125,4.05859375,0.66796875,0.005859375,-1.76171875,-0.51953125,2.77734375,-5.4296875,1.98828125,1.0
4424383,,,,,,,,2.51953125,-14.69921875,6.703125,0.103515625,-1.41796875,-0.65234375,4.23046875,-24.16796875,8.0,1.0
4424384,,,,,,,,0.0,-34.05859375,12.92578125,-0.00390625,-0.400390625,-0.30859375,1.78125,-43.51171875,14.20703125,1.0
