time,latitude,longitude,enu_x,enu_y,speed,course,ecg,accX,accY,accZ,gyrX,gyrY,gyrZ,eulR,eulP,eulY,validity
4465230,36.0130635,129.320129,137.83753846642264,73.622534914935,3.0,225.0,,-4.33203125,2.60546875,-3.45703125,1.767578125,-0.236328125,2.689453125,-3.3046875,-10.203125,2.5546875,1.0
4465231,,,,,,,,-4.875,0.375,-3.53515625,0.578125,0.310546875,1.603515625,-2.84375,-0.671875,-1.23828125,1.0
4465232,,,,,,,,-5.25,-0.75,-3.4453125,0.4765625,0.126953125,1.2265625,-3.26953125,-1.859375,-1.125,1.0
4465233,,,,,,,,-5.640625,-1.7734375,-2.6171875,0.482421875,0.07421875,0.919921875,-3.69140625,-2.9296875,-0.28125,1.0
4465234,,,,,,,,-5.70703125,-1.796875,-1.8359375,0.515625,0.3203125,0.73828125,-3.80078125,-3.0078125,0.5234375,1.0
4465235,,,,,,,,-4.49609375,-0.1171875,-1.41796875,0.39453125,0.806640625,0.48828125,-2.65234375,-1.3984375,0.98046875,1.0
4465236,,,,,,,,-2.83203125,1.67578125,-1.6484375,0.33203125,1.03515625,0.232421875,-1.0390625,0.36328125,0.7890625,1.0
4465237,,,,,,,,-1.7890625,2.8203125,-2.17578125,0.35546875,0.984375,-0.126953125,-0.046875,1.48046875,0.29296875,1.0
4465238,,,,,,,,-0.82421875,3.578125,-2.8515625,0.431640625,0.6328125,-0.591796875,0.87109375,2.20703125,-0.359375,1.0
4465239,,,,,,,,-0.30078125,4.08984375,-2.99609375,0.470703125,0.095703125,-0.91015625,1.37109375,2.6953125,-0.47265625,1.0
4465240,36.013061500000006,129.3201265,137.61216990250344,73.40061289627747,3.1,226.0,,-0.30078125,3.79296875,-2.69140625,0.4296875,-0.41796875,-1.111328125,1.37109375,2.39453125,-0.16796875,1.0
4465241,,,,,,,,-1.07421875,2.61328125,-1.96875,0.349609375,-0.830078125,-1.15625,0.60546875,1.203125,0.5625,1.0
4465242,,,,,,,,-3.16015625,-2.4296875,1.70703125,0.2578125,-1.076171875,-0.919921875,-1.46484375,-3.8515625,4.234375,1.0
4465243,,,,,,,,-6.1640625,-9.97265625,5.5078125,0.224609375,-1.14453125,-0.75390625,-4.453125,-11.390625,8.03125,1.0
4465244,,,,,,,,-5.640625,-20.75390625,10.41015625,0.201171875,-1.150390625,-0.291015625,1.33203125,-30.40234375,16.15234375,1.0
4465245,,,,,,,,15.37890625,-43.171875,18.2734375,0.130859375,-0.900390625,-0.16015625,20.640625,-48.359375,17.8359375,1.0
4465246,,,,,,,,8.515625,-29.08203125,10.1875,0.15625,-0.259765625,-0.544921875,5.0859375,-22.39453125,10.3671875,1.0
4465247,,,,,,,,-3.08984375,-14.1875,6.42578125,0.375,1.30078125,-2.16796875,-4.03125,-15.0703125,7.76171875,1.0
4465248,,,,,,,,-5.765625,-13.53515625,5.21484375,0.115234375,1.97265625,-2.84765625,-5.37109375,-16.140625,5.92578125,1.0
4465249,,,,,,,,-6.01171875,-16.28515625,1.95703125,-0.96484375,1.46484375,-2.24609375,0.10546875,-21.16796875,3.77734375,1.0
4465250,36.01305983333334,129.3201236666667,137.3567511483982,73.21567682707709,3.3000000000000003,230.0,,-0.30078125,3.79296875,-2.69140625,0.4296875,-0.41796875,-1.111328125,2.40625,-24.109375,5.50390625,1.0
4465251,,,,,,,,0.74609375,-23.453125,4.1328125,-0.4375,-3.65625,-0.107421875,2.48046875,-24.6484375,7.49609375,1.0
4465252,,,,,,,,0.75390625,-21.57421875,4.3203125,-0.35546875,-1.177734375,-2.87890625,2.94140625,-21.46875,5.84765625,1.0
4465253,,,,,,,,1.6015625,-16.97265625,1.453125,-0.693359375,0.513671875,-3.306640625,3.8984375,-17.79296875,3.2421875,1.0
4465254,,,,,,,,2.4140625,-14.85546875,-0.23828125,-0.94140625,0.703125,-2.525390625,4.359375,-16.56640625,2.28515625,1.0
4465255,,,,,,,,2.03125,-13.0859375,-0.19921875,-1.224609375,0.216796875,-2.369140625,4.015625,-14.84765625,2.32421875,1.0
4465256,,,,,,,,1.8203125,-11.5,0.06640625,-1.330078125,0.01171875,-2.5,3.8203125,-13.27734375,2.58984375,1.0
4465257,,,,,,,,1.4765625,-9.546875,-0.109375,-1.46484375,-0.125,-2.59375,3.515625,-11.359375,2.3984375,1.0
4465258,,,,,,,,1.66015625,-7.70703125,-0.62890625,-1.541015625,0.060546875,-2.51171875,3.74609375,-9.5546875,1.86328125,1.0
4465259,,,,,,,,2.1484375,-4.52734375,-1.9140625,-1.580078125,0.349609375,-2.16796875,4.28125,-6.41796875,0.5625,1.0
4465260,36.013058,129.32012116666667,137.13138227333803,73.0122480285384,3.2,230.0,,1.97265625,-1.26171875,-2.51171875,0.4296875,-0.41796875,-1.111328125,4.125,-3.19921875,-0.05078125,1.0
4465261,,,,,,,,1.91015625,1.55078125,-2.45703125,-1.365234375,0.388671875,-1.767578125,4.0859375,-0.44140625,-0.01171875,1.0
4465262,,,,,,,,1.57421875,3.0859375,-2.09765625,-1.17578125,0.2578125,-1.796875,3.78515625,1.0546875,0.33203125,1.0
4465263,,,,,,,,1.3671875,3.9140625,-1.9453125,-1.068359375,0.22265625,-1.755859375,3.59765625,1.859375,0.484375,1.0
4465264,,,,,,,,0.5703125,5.63671875,-2.3203125,-0.89453125,0.244140625,-1.541015625,2.828125,3.54296875,0.1015625,1.0
4465265,,,,,,,,0.5,5.62890625,-2.7265625,-0.875,0.3359375,-1.322265625,2.7890625,3.5,-0.3203125,1.0
4465266,,,,,,,,0.66015625,4.6875,-3.4765625,-0.775390625,0.3515625,-1.060546875,2.9765625,2.5078125,-1.0859375,1.0
4465267,,,,,,,,0.98046875,3.73046875,-3.859375,-0.669921875,0.16015625,-1.021484375,3.32421875,1.51171875,-1.46875,1.0
4465268,,,,,,,,1.4609375,2.4140625,-4.04296875,-0.64453125,0.044921875,-0.98828125,3.8203125,0.171875,-1.66015625,1.0
4465269,,,,,,,,1.9765625,0.53125,-4.2890625,-0.6171875,-0.15625,-0.875,4.359375,-1.7421875,-1.9296875,1.0
4465270,36.013056166666665,129.32011833333334,136.87596378050785,72.80881876568908,3.3000000000000003,231.0,,1.0625,-0.92578125,-3.74609375,0.4296875,-0.41796875,-1.111328125,4.125,-3.19921875,-0.05078125,1.0
4465271,,,,,,,,-0.1484375,-0.9609375,-2.92578125,-0.5390625,-0.115234375,-0.46875,2.2890625,-3.31640625,-0.58984375,1.0
4465272,,,,,,,,-1.80859375,0.42578125,-1.375,-0.513671875,0.1953125,-0.107421875,0.64453125,-1.97265625,0.9453125,1.0
4465273,,,,,,,,-2.84375,2.12890625,-0.71875,-0.537109375,0.587890625,0.26171875,-0.390625,-0.32421875,1.59765625,1.0
4465274,,,,,,,,-3.9609375,4.7109375,-0.06640625,-0.576171875,0.9296875,0.728515625,-1.5390625,2.203125,2.2421875,1.0
4465275,,,,,,,,-3.82421875,6.4453125,0.72265625,-0.69921875,0.978515625,1.435546875,-1.46484375,3.81640625,3.05078125,1.0
4465276,,,,,,,,-3.8359375,5.91796875,1.18359375,-0.658203125,0.615234375,1.623046875,-1.5390625,3.19921875,3.51171875,1.0
4465277,,,,,,,,-3.9453125,3.66015625,1.50390625,-0.49609375,0.015625,1.630859375,-1.6953125,0.86328125,3.8125,1.0
4465278,,,,,,,,-5.58984375,-10.7890625,7.98046875,-0.376953125,-0.943359375,1.201171875,-3.37890625,-13.6953125,10.25390625,1.0
4465279,,,,,,,,0.15625,-39.1171875,13.359375,-0.2734375,-1.703125,0.619140625,2.3671875,-42.12109375,15.578125,1.0
4465280,36.013054000000004,129.32011566666668,136.63557065770607,72.56840333101223,3.4000000000000004,229.0,,0.0078125,-48.6796875,12.37890625,0.4296875,-0.41796875,-1.111328125,4.125,-3.19921875,-0.05078125,1.0
4465281,,,,,,,,-1.859375,-18.29296875,5.171875,-0.216796875,-0.7734375,-0.466796875,0.4140625,-21.39453125,7.3046875,1.0
4465282,,,,,,,,4.59765625,-11.45703125,-2.66796875,-0.171875,2.326171875,-2.640625,6.92578125,-14.57421875,-0.51171875,1.0
4465283,,,,,,,,7.9765625,-16.7734375,2.87109375,0.33984375,1.94140625,0.115234375,10.296875,-19.8984375,5.08203125,1.0
4465284,,,,,,,,4.5,-21.42578125,4.6484375,0.24609375,-1.634765625,1.818359375,6.7734375,-24.61328125,6.8828125,1.0
4465285,,,,,,,,3.48828125,-20.04296875,3.5234375,0.0,-3.56640625,1.58203125,5.77734375,-23.3046875,5.6953125,1.0
4465286,,,,,,,,2.94140625,-18.2734375,2.48046875,0.1953125,-2.865234375,1.96484375,5.23828125,-21.5859375,4.62109375,1.0
4465287,,,,,,,,0.046875,-13.16015625,0.12109375,0.490234375,0.373046875,3.14453125,2.2890625,-16.5625,2.24609375,1.0
4465288,,,,,,,,-2.8984375,-10.78515625,-0.8125,0.736328125,1.728515625,3.4296875,-0.8125,-14.30859375,1.3671875,1.0
4465289,,,,,,,,-3.2578125,-9.625,-0.9453125,1.130859375,0.861328125,3.212890625,-1.3125,-13.234375,1.2890625,1.0
4465290,36.01305216666666,129.32011283333335,136.38015214297585,72.36497408400724,3.3000000000000003,229.0,,-4.08984375,-8.12890625,-1.046875,1.412109375,-0.0703125,3.044921875,-2.26953125,-11.8125,1.25,1.0
4465291,,,,,,,,-5.2109375,-5.59375,-2.3671875,1.75390625,0.111328125,3.265625,-3.5703125,-9.37109375,0.0234375,1.0
4465292,,,,,,,,-6.14453125,-2.1953125,-2.78125,1.857421875,0.576171875,3.263671875,-4.64453125,-6.03125,-0.3203125,1.0
4465293,,,,,,,,-6.1796875,-1.140625,-2.828125,1.859375,0.732421875,3.20703125,-4.7578125,-5.00390625,-0.3203125,1.0
4465294,,,,,,,,-6.22265625,1.4296875,-2.84375,1.732421875,0.77734375,3.12890625,-4.94921875,-2.46875,-0.2421875,1.0
4465295,,,,,,,,-6.44921875,4.21875,-1.4609375,1.517578125,0.755859375,3.07421875,-5.328125,0.2890625,1.2109375,1.0
4465296,,,,,,,,-5.56640625,6.5234375,-0.7265625,1.203125,0.83203125,2.876953125,-4.68359375,2.546875,2.0546875,1.0
4465297,,,,,,,,-5.109375,7.62890625,-2.07421875,1.00390625,0.845703125,2.68359375,-4.37890625,3.62109375,0.75390625,1.0
4465298,,,,,,,,-4.6953125,7.56640625,-2.48046875,0.91796875,0.857421875,2.611328125,-4.03515625,3.54296875,0.37109375,1.0
4465299,,,,,,,,-4.09375,6.90234375,-3.33984375,0.763671875,0.759765625,2.306640625,-3.57421875,2.85546875,-0.43359375,1.0
4465300,36.01305,129.32011066666666,136.1848334084381,72.12455936119798,3.1,226.0,0.0,-4.0078125,4.77734375,-4.13671875,0.6171875,0.5234375,1.666015625,-3.61328125,0.70703125,-1.19921875,1.0
4465301,,,,,,,,-3.8515625,3.26953125,-4.09375,0.607421875,0.22265625,1.107421875,-3.53515625,-0.82421875,-1.125,1.0
4465302,,,,,,,,-3.32421875,1.140625,-3.625,0.59375,0.125,0.64453125,-3.0703125,-2.96875,-0.625,1.0
4465303,,,,,,,,-2.59375,0.61328125,-3.4296875,0.55078125,0.2421875,0.30859375,-2.3828125,-3.50390625,-0.3984375,1.0
4465304,,,,,,,,-1.0625,1.203125,-3.06640625,0.40234375,0.521484375,0.109375,-0.890625,-2.9296875,-0.01171875,1.0
4465305,,,,,,,,0.171875,2.328125,-2.77734375,0.296875,0.763671875,-0.025390625,0.296875,-1.82421875,0.29296875,1.0
4465306,,,,,,,,0.80078125,3.07421875,-2.6328125,0.27734375,0.814453125,-0.08203125,0.91015625,-1.08984375,0.4453125,1.0
4465307,,,,,,,,1.4140625,5.1875,-1.69140625,0.30859375,0.7421875,-0.25,1.48828125,1.015625,1.40234375,1.0
4465308,,,,,,,,1.125,5.77734375,-0.51953125,0.40625,0.482421875,-0.470703125,1.1796875,1.58984375,2.58984375,1.0
4465309,,,,,,,,-2.046875,5.8984375,2.29296875,0.505859375,0.04296875,-0.583984375,-2.0,1.703125,5.421875,1.0
4465310,36.013048166666664,129.32010733333334,135.8843404533855,71.92112943009116,3.5,230.0,,-3.7109375,5.6875,1.41796875,0.6171875,0.5234375,1.666015625,-3.6484375,1.4765625,4.58203125,1.0
4465311,,,,,,,,-3.03515625,3.38671875,-0.7109375,0.587890625,-1.119140625,-0.08203125,-2.953125,-0.82421875,2.4765625,1.0
4465312,,,,,,,,-1.10546875,-1.32421875,-2.3046875,0.53515625,-1.5625,0.34765625,-1.00390625,-5.53125,0.90625,1.0
4465313,,,,,,,,4.30859375,-20.1171875,3.1328125,0.4921875,-1.568359375,0.26171875,4.43359375,-24.34765625,6.3828125,1.0
4465314,,,,,,,,8.1875,-50.02734375,18.35546875,0.494140625,-0.77734375,-0.494140625,8.34375,-54.26171875,21.62890625,1.0
4465315,,,,,,,,3.98046875,-25.42578125,13.890625,0.443359375,0.123046875,-1.01953125,4.16796875,-29.6640625,17.1875,1.0
4465316,,,,,,,,-1.4765625,-12.15625,3.21484375,0.408203125,0.59375,-1.072265625,-1.2734375,-16.4140625,6.53515625,1.0
4465317,,,,,,,,-2.50390625,-14.01171875,1.19140625,0.177734375,0.916015625,-0.53125,-2.30859375,-18.2890625,4.54296875,1.0
4465318,,,,,,,,-1.4453125,-16.1328125,-0.1640625,0.080078125,0.869140625,-0.564453125,-1.2734375,-20.4375,3.203125,1.0
4465319,,,,,,,,0.0859375,-19.15625,1.828125,-0.39453125,-1.51953125,-1.361328125,0.296875,-23.5,5.1953125,1.0
4465320,36.01304616666666,129.320104,135.5838477689745,71.69920630195487,3.6,232.0,,2.08984375,-18.4296875,2.95703125,-0.1953125,-3.619140625,-1.595703125,2.44140625,-22.81640625,6.30859375,1.0
4465321,,,,,,,,3.63671875,-16.12890625,1.8984375,-0.4140625,-2.17578125,-2.275390625,4.16796875,-20.55078125,5.234375,1.0
4465322,,,,,,,,4.26171875,-13.5234375,0.46484375,-0.9140625,-0.3203125,-2.685546875,4.93359375,-17.98828125,3.77734375,1.0
4465323,,,,,,,,3.34765625,-11.69921875,-0.21484375,-1.1015625,0.232421875,-2.505859375,4.12890625,-16.22265625,3.05078125,1.0
4465324,,,,,,,,2.671875,-9.76953125,-0.7578125,-1.19140625,-0.04296875,-2.578125,3.5546875,-14.34375,2.4765625,1.0
4465325,,,,,,,,2.515625,-6.49609375,-1.8515625,-1.2578125,-0.169921875,-2.81640625,3.515625,-11.12890625,1.328125,1.0
4465326,,,,,,,,2.6796875,-4.6484375,-2.21875,-1.357421875,-0.125,-2.853515625,3.8203125,-9.33203125,0.90625,1.0
4465327,,,,,,,,2.89453125,-2.1484375,-2.46484375,-1.408203125,0.0078125,-2.765625,4.16796875,-6.875,0.59765625,1.0
4465328,,,,,,,,2.9921875,-0.4921875,-2.5078125,-1.4140625,0.166015625,-2.728515625,4.3984375,-5.265625,0.484375,1.0
4465329,,,,,,,,3.4921875,2.75390625,-3.03515625,-1.353515625,0.3203125,-2.671875,5.0078125,-2.05078125,-0.08984375,1.0
4465330,36.013044,129.320101,135.31340496599995,71.45879044026982,3.4000000000000004,232.0,,3.4453125,4.51171875,-3.05078125,-1.25390625,0.384765625,-2.494140625,5.0859375,-0.32421875,-0.16796875,1.0
4465331,,,,,,,,2.5390625,7.1484375,-3.77734375,-1.123046875,0.357421875,-2.271484375,4.28515625,2.28125,-0.93359375,1.0
4465332,,,,,,,,1.05078125,8.625,-4.2578125,-0.982421875,0.2734375,-2.017578125,2.90234375,3.73828125,-1.46875,1.0
4465333,,,,,,,,0.8203125,8.48828125,-4.39453125,-0.90234375,0.23046875,-1.86328125,2.7109375,3.58203125,-1.62109375,1.0
4465334,,,,,,,,1.04296875,7.70703125,-4.703125,-0.771484375,0.1953125,-1.4765625,3.01953125,2.77734375,-1.96875,1.0
4465335,,,,,,,,2.86328125,4.67578125,-4.73046875,-0.7109375,0.248046875,-1.23046875,4.93359375,-0.28515625,-2.04296875,1.0
4465336,,,,,,,,4.37109375,2.54296875,-5.50390625,-0.7265625,0.3515625,-1.3828125,6.5,-2.43359375,-2.84765625,1.0
4465337,,,,,,,,4.1484375,2.14453125,-5.20703125,-0.72265625,0.4140625,-1.455078125,6.3515625,-2.85546875,-2.58203125,1.0
4465338,,,,,,,,2.73046875,1.91796875,-4.0390625,-0.697265625,0.447265625,-1.435546875,4.96875,-3.08203125,-1.4296875,1.0
4465339,,,,,,,,0.90625,1.77734375,-2.58984375,-0.6328125,0.541015625,-1.322265625,3.2109375,-3.234375,-0.01171875,1.0
4465340,36.01304183333333,129.320098,135.04296215120903,71.21837458718696,3.4000000000000004,231.0,,-4.4765625,2.28515625,3.66796875,-0.62890625,0.705078125,-1.01171875,-2.1171875,-2.73828125,6.23046875,1.0
4465341,,,,,,,,-5.44140625,4.1015625,3.26953125,-0.697265625,0.87109375,0.328125,-3.07421875,-0.9765625,5.8046875,1.0
4465342,,,,,,,,-4.07421875,8.41015625,-1.36328125,-0.81640625,0.51171875,1.623046875,-1.80859375,3.23828125,1.13671875,1.0
4465343,,,,,,,,-2.3125,10.44140625,-3.625,-0.869140625,-0.22265625,1.505859375,-0.125,5.1875,-1.1640625,1.0
4465344,,,,,,,,-2.1953125,10.38671875,-3.62890625,-0.841796875,-1.306640625,0.619140625,-0.046875,5.07421875,-1.23828125,1.0
4465345,,,,,,,,-1.99609375,8.59765625,-2.51953125,-0.634765625,-2.11328125,0.005859375,0.18359375,3.23828125,-0.20703125,1.0
4465346,,,,,,,,-2.14453125,5.9296875,-0.05859375,-0.52734375,-2.2734375,-0.140625,0.06640625,0.5546875,2.203125,1.0
4465347,,,,,,,,-1.74609375,-3.203125,3.390625,-0.41015625,-2.224609375,-0.158203125,0.52734375,-8.60546875,5.578125,1.0
4465348,,,,,,,,-2.23046875,-11.0859375,8.41015625,-0.3828125,-2.072265625,-0.009765625,0.06640625,-16.49609375,10.55859375,1.0
4465349,,,,,,,,-0.99609375,-35.953125,19.96484375,-0.353515625,-1.53125,0.37890625,1.33203125,-41.39453125,22.05078125,1.0
4465350,36.01303933333334,129.320095,134.77251988817613,70.94097232823128,3.6,227.0,,-2.0703125,-58.4296875,19.78125,-0.279296875,-0.654296875,0.568359375,0.2578125,-63.9140625,21.8203125,1.0
4465351,,,,,,,,-4.54296875,-15.2265625,10.06640625,-0.15625,0.490234375,0.1484375,-2.23046875,-20.7421875,12.08984375,1.0
4465352,,,,,,,,-1.38671875,-4.43359375,2.23828125,-0.23828125,1.76171875,-0.134765625,0.91015625,-9.98046875,4.27734375,1.0
4465353,,,,,,,,3.921875,-8.62109375,-5.4921875,-0.400390625,2.185546875,-0.912109375,6.1953125,-14.19140625,-3.421875,1.0
4465354,,,,,,,,9.9609375,-17.21875,3.37109375,0.083984375,0.71484375,-0.052734375,12.25,-22.8125,5.46484375,1.0
4465355,,,,,,,,4.73046875,-19.99609375,6.09765625,-0.3125,-1.955078125,2.076171875,6.96484375,-25.64453125,8.18359375,1.0
4465356,,,,,,,,3.18359375,-15.828125,2.96484375,0.078125,-4.046875,1.142578125,5.39453125,-21.55078125,4.96484375,1.0
4465357,,,,,,,,1.2734375,-11.18359375,1.43359375,0.47265625,-1.181640625,1.556640625,3.4765625,-16.94921875,3.39453125,1.0
4465358,,,,,,,,-0.6640625,-8.625,0.35546875,0.4375,0.9375,2.39453125,1.484375,-14.42578125,2.32421875,1.0
4465359,,,,,,,,-2.03125,-7.7421875,-1.2578125,0.955078125,2.158203125,3.11328125,-0.0859375,-13.6171875,0.7890625,1.0
4465360,36.01303733333334,129.32009233333335,134.53212637336503,70.71905015832813,3.4000000000000004,228.0,,-3.36328125,-6.15625,-1.58203125,1.228515625,0.181640625,3.021484375,-1.73046875,-12.125,0.59765625,1.0
4465361,,,,,,,,-6.31640625,-0.74609375,-2.07421875,1.755859375,0.24609375,3.322265625,-5.06640625,-6.80078125,0.29296875,1.0
4465362,,,,,,,,-6.55859375,0.23828125,-2.015625,1.8125,0.486328125,3.345703125,-5.41015625,-5.8359375,0.40625,1.0
4465363,,,,,,,,-6.66796875,3.31640625,-2.28515625,1.75,0.83203125,3.341796875,-5.75,-2.77734375,0.25390625,1.0
4465364,,,,,,,,-6.63671875,4.16796875,-2.5703125,1.66796875,0.892578125,3.279296875,-5.83203125,-1.93359375,0.0234375,1.0
4465365,,,,,,,,-6.1484375,5.82421875,-2.6796875,1.53125,0.916015625,3.0,-5.56640625,-0.28515625,0.0234375,1.0
4465366,,,,,,,,-6.0390625,6.6640625,-2.49609375,1.462890625,0.90234375,2.865234375,-5.56640625,0.5546875,0.25390625,1.0
4465367,,,,,,,,-5.76171875,7.890625,-1.77734375,1.29296875,0.8671875,2.56640625,-5.48828125,1.78125,1.05859375,1.0
4465368,,,,,,,,-5.24609375,8.80078125,-1.78515625,1.205078125,0.79296875,2.45703125,-5.0625,2.69921875,1.09765625,1.0
4465369,,,,,,,,-2.83984375,6.10546875,-4.1015625,0.888671875,0.62109375,2.14453125,-2.9921875,0.01953125,-1.0859375,1.0
4465370,36.01303516666667,129.32009000000002,134.3217827444095,70.47863524763414,3.3000000000000003,226.0,,-2.5390625,5.4921875,-4.1171875,0.771484375,0.630859375,1.73046875,-2.84375,-0.59375,-1.046875,1.0
4465371,,,,,,,,-2.34375,4.43359375,-3.54296875,0.658203125,0.478515625,1.068359375,-2.765625,-1.62890625,-0.43359375,1.0
4465372,,,,,,,,-2.16015625,4.01953125,-2.77734375,0.615234375,0.345703125,0.349609375,-2.65234375,-2.05078125,0.37109375,1.0
4465373,,,,,,,,-1.66796875,3.859375,-2.08984375,0.53125,0.392578125,0.0546875,-2.19140625,-2.20703125,1.09765625,1.0
4465374,,,,,,,,-0.3359375,4.59375,-1.15625,0.375,0.55078125,-0.0859375,-0.890625,-1.4765625,2.05859375,1.0
4465375,,,,,,,,0.79296875,5.59765625,-1.1328125,0.232421875,0.583984375,-0.208984375,0.22265625,-0.48046875,2.09765625,1.0
4465376,,,,,,,,2.03125,7.0234375,-1.109375,0.2109375,0.44140625,-0.265625,1.4453125,0.9375,2.13671875,1.0
4465377,,,,,,,,2.00390625,8.91796875,-1.1953125,0.28125,0.150390625,-0.345703125,1.41015625,2.81640625,2.0546875,1.0
4465378,,,,,,,,-0.00390625,9.17578125,-2.29296875,0.373046875,-0.248046875,-0.50390625,-0.58203125,3.078125,0.98046875,1.0
4465379,,,,,,,,-1.421875,8.6875,-2.70703125,0.4453125,-0.6875,-0.529296875,-1.9609375,2.5859375,0.59765625,1.0
4465380,36.013033,129.32008683333333,134.03631506142384,70.23821919589716,3.5,228.0,,-2.42578125,7.65234375,-2.15234375,0.458984375,-1.00390625,-0.150390625,-2.9140625,1.55078125,1.17578125,1.0
4465381,,,,,,,,-4.25,4.34375,1.4765625,0.416015625,-1.11328125,0.30078125,-4.71875,-1.7421875,4.85546875,1.0
4465382,,,,,,,,-3.72265625,0.7890625,1.33984375,0.375,-1.060546875,0.255859375,-4.18359375,-5.30859375,4.73828125,1.0
4465383,,,,,,,,1.09765625,-10.13671875,-1.63671875,0.365234375,-0.78515625,-0.060546875,0.64453125,-16.22265625,1.78515625,1.0
4465384,,,,,,,,10.94140625,-41.5859375,7.91796875,0.326171875,-0.33984375,-0.50390625,10.52734375,-47.671875,11.36328125,1.0
4465385,,,,,,,,10.72265625,-47.6640625,19.9921875,0.1875,0.087890625,-1.349609375,10.37109375,-53.76953125,23.46875,1.0
4465386,,,,,,,,8.00390625,-28.04296875,13.5546875,0.154296875,0.11328125,-1.681640625,7.69140625,-34.15234375,17.03125,1.0
4465387,,,,,,,,4.33984375,-10.703125,1.3125,0.21875,0.310546875,-1.873046875,4.12890625,-16.83984375,4.8125,1.0
4465388,,,,,,,,-2.80078125,-11.0703125,-0.07421875,0.11328125,0.783203125,-0.62890625,-2.95703125,-17.22265625,3.43359375,1.0
4465389,,,,,,,,-4.2890625,-12.90234375,-0.12109375,-0.001953125,1.03125,-0.26953125,-4.453125,-19.0546875,3.39453125,1.0
4465390,36.013031166666664,129.32008366666665,133.7508467972457,70.0347895666288,3.5,230.0,,-0.65234375,-16.9921875,0.66015625,-0.64453125,-2.5078125,-1.41015625,-0.73828125,-23.1953125,4.16015625,1.0
4465391,,,,,,,,3.3515625,-13.07421875,1.03125,-0.09375,-4.3984375,-1.115234375,3.4765625,-19.3203125,4.5078125,1.0
4465392,,,,,,,,3.0625,-11.19140625,1.078125,-0.880859375,-0.904296875,-2.38671875,3.4765625,-17.484375,4.5078125,1.0
4465393,,,,,,,,2.9296875,-11.01171875,0.3359375,-1.212890625,-0.05078125,-2.671875,3.4375,-17.328125,3.7421875,1.0
4465394,,,,,,,,2.3515625,-8.16796875,-0.96484375,-1.205078125,0.05859375,-2.44140625,3.09375,-14.5703125,2.32421875,1.0
4465395,,,,,,,,1.921875,-5.9921875,-1.45703125,-1.26171875,-0.078125,-2.45703125,2.75,-12.43359375,1.78515625,1.0
4465396,,,,,,,,1.8828125,-4.75,-1.80078125,-1.330078125,-0.16796875,-2.525390625,2.7890625,-11.203125,1.40234375,1.0
4465397,,,,,,,,2.27734375,-1.83203125,-2.6328125,-1.4375,-0.189453125,-2.533203125,3.36328125,-8.33203125,0.484375,1.0
4465398,,,,,,,,2.12890625,-0.8359375,-2.69140625,-1.517578125,-0.10546875,-2.380859375,3.36328125,-7.375,0.33203125,1.0
4465399,,,,,,,,2.66796875,3.6328125,-1.69921875,-1.48828125,0.041015625,-2.24609375,4.125,-2.96875,1.17578125,1.0
4465400,36.01302933333333,129.320081,133.51045295119488,69.83136063295137,3.2,231.0,0.0,2.671875,4.546875,-1.68359375,-1.40234375,0.158203125,-2.162109375,4.28515625,-2.0859375,1.09765625,1.0
4465401,,,,,,,,2.9140625,7.10546875,-2.36328125,-1.244140625,0.255859375,-2.041015625,4.66796875,0.44140625,0.33203125,1.0
4465402,,,,,,,,2.73828125,8.26171875,-2.74609375,-1.1796875,0.26953125,-1.9453125,4.546875,1.58984375,-0.08984375,1.0
4465403,,,,,,,,2.23046875,9.65625,-3.3671875,-1.03515625,0.203125,-1.71484375,4.16796875,2.96875,-0.78125,1.0
4465404,,,,,,,,1.58984375,9.93359375,-3.91796875,-0.84375,-0.0078125,-1.482421875,3.62890625,3.23828125,-1.39453125,1.0
4465405,,,,,,,,1.4140625,9.44921875,-3.8984375,-0.671875,-0.154296875,-1.296875,3.5546875,2.73828125,-1.4296875,1.0
4465406,,,,,,,,2.19921875,8.1171875,-3.96875,-0.5546875,-0.23046875,-1.09765625,4.43359375,1.3984375,-1.546875,1.0
4465407,,,,,,,,3.265625,5.86328125,-4.234375,-0.484375,-0.23046875,-1.09375,5.5859375,-0.86328125,-1.8515625,1.0
4465408,,,,,,,,3.1484375,5.328125,-3.921875,-0.416015625,-0.208984375,-0.95703125,5.546875,-1.3984375,-1.5859375,1.0
4465409,,,,,,,,1.890625,5.75,-2.9296875,-0.353515625,-0.205078125,-0.763671875,4.359375,-0.9765625,-0.625,1.0
4465410,36.01302733333333,129.32007783333333,133.22498494666198,69.60943781514648,3.4000000000000004,232.0,,-3.4375,6.640625,3.734375,-0.220703125,0.056640625,-0.435546875,-0.890625,-0.09375,6.0,1.0
4465411,,,,,,,,-4.8984375,7.56640625,3.3671875,-0.236328125,0.271484375,0.134765625,-2.34375,0.82421875,5.62109375,1.0
4465412,,,,,,,,-4.75390625,9.90234375,-0.1015625,-0.353515625,0.28125,0.974609375,-2.23046875,3.12109375,2.1328125,1.0
4465413,,,,,,,,-3.59375,11.22265625,-2.0703125,-0.474609375,-0.087890625,1.630859375,-1.15625,4.3828125,0.140625,1.0
4465414,,,,,,,,-3.46484375,11.34765625,-2.29296875,-0.572265625,-0.859375,1.29296875,-1.12109375,4.46484375,-0.12890625,1.0
4465415,,,,,,,,-3.65234375,9.8203125,-1.5234375,-0.537109375,-1.44921875,0.740234375,-1.34765625,2.890625,0.5625,1.0
4465416,,,,,,,,-3.68359375,6.18359375,1.13671875,-0.294921875,-1.306640625,0.3515625,-1.38671875,-0.78515625,3.125,1.0
4465417,,,,,,,,-4.10546875,-10.33984375,7.203125,-0.154296875,-0.912109375,0.509765625,-1.80859375,-17.328125,9.140625,1.0
4465418,,,,,,,,-2.54296875,-50.15625,23.046875,-0.0546875,-0.431640625,0.72265625,-0.27734375,-57.17578125,24.9609375,1.0
4465419,,,,,,,,-5.484375,-58.71484375,24.97265625,0.021484375,0.48046875,0.466796875,-7.171875,-64.68359375,22.16796875,1.0
4465420,36.013025,129.320075,132.9695671069053,69.35052904661859,3.4000000000000004,228.0,,-6.1328125,-11.18359375,10.1328125,0.001953125,1.154296875,0.046875,-3.953125,-18.25,12.0546875,1.0
4465421,,,,,,,,-1.015625,-3.3046875,2.19921875,-0.193359375,1.541015625,-0.734375,1.140625,-10.40234375,4.16015625,1.0
4465422,,,,,,,,12.08984375,-10.1796875,0.71484375,0.08984375,1.181640625,-1.9296875,14.31640625,-17.26171875,2.70703125,1.0
4465423,,,,,,,,7.41015625,-17.234375,8.84375,0.265625,-0.083984375,0.837890625,9.68359375,-24.3046875,10.8671875,1.0
4465424,,,,,,,,6.0859375,-18.03125,8.3671875,0.294921875,-3.998046875,0.357421875,7.3828125,-24.65234375,8.875,1.0
4465425,,,,,,,,3.2109375,-13.6328125,3.71875,0.185546875,-1.63671875,0.89453125,4.81640625,-18.7109375,4.0859375,1.0
4465426,,,,,,,,2.55078125,-11.546875,2.1640625,0.0703125,0.609375,1.912109375,3.9375,-16.8359375,2.74609375,1.0
4465427,,,,,,,,0.6015625,-8.19140625,0.0703125,0.623046875,2.296875,2.888671875,0.06640625,-13.69921875,1.94140625,1.0
4465428,,,,,,,,-2.7421875,-5.87109375,0.21484375,0.833984375,0.912109375,2.796875,-1.46484375,-12.77734375,2.515625,1.0
4465429,,,,,,,,-3.83984375,-3.6328125,0.703125,1.220703125,-0.431640625,2.51953125,-2.19140625,-10.9765625,2.8203125,1.0
4465430,36.013023,129.32007233333334,132.72917350291252,69.12860692724664,3.3000000000000003,227.0,,-4.05859375,-2.86328125,0.3515625,1.60546875,-0.37109375,2.490234375,-3.72265625,-8.5625,1.2890625,1.0
4465431,,,,,,,,-5.5390625,0.9140625,-1.890625,1.693359375,0.287109375,2.708984375,-4.3359375,-6.4921875,0.484375,1.0
4465432,,,,,,,,-6.43359375,4.67578125,-2.453125,1.595703125,0.59375,2.734375,-5.44921875,-2.73828125,0.0625,1.0
4465433,,,,,,,,-5.8046875,6.4453125,-3.015625,1.439453125,0.486328125,2.6875,-5.140625,-0.9765625,-0.3203125,1.0
4465434,,,,,,,,-5.7734375,7.01953125,-2.91796875,1.32421875,0.486328125,2.66015625,-5.22265625,-0.40234375,-0.16796875,1.0
4465435,,,,,,,,-4.41015625,8.84375,-1.90234375,0.900390625,0.736328125,2.40234375,-4.18359375,1.4375,0.98046875,1.0
4465436,,,,,,,,-4.00390625,9.109375,-2.046875,0.740234375,0.78515625,2.28125,-3.875,1.703125,0.8671875,1.0
4465437,,,,,,,,-3.05078125,9.30078125,-2.9375,0.46484375,0.80078125,2.076171875,-3.109375,1.89453125,0.0234375,1.0
4465438,,,,,,,,-2.48828125,8.8828125,-3.640625,0.416015625,0.818359375,1.984375,-2.6484375,1.4765625,-0.6640625,1.0
4465439,,,,,,,,-2.22265625,6.15234375,-3.96484375,0.36328125,0.666015625,1.296875,-2.69140625,-1.24609375,-0.93359375,1.0
4465440,36.013020833333336,129.32007016666665,132.53385459438954,68.88819228683877,3.2,225.0,,-2.3203125,4.62109375,-3.40625,0.416015625,0.541015625,1.01953125,-2.84375,-2.77734375,-0.359375,1.0
4465441,,,,,,,,-1.91015625,4.0390625,-2.578125,0.5078125,0.25,0.359375,-2.53515625,-3.35546875,0.5234375,1.0
4465442,,,,,,,,-1.6953125,4.21484375,-2.37109375,0.533203125,0.232421875,0.25,-2.34375,-3.16015625,0.75390625,1.0
4465443,,,,,,,,-0.5625,6.16796875,-2.13671875,0.48828125,0.33203125,0.03515625,-1.234375,-1.20703125,1.01953125,1.0
4465444,,,,,,,,-0.203125,6.8515625,-2.28125,0.375,0.486328125,-0.265625,-0.890625,-0.515625,0.91015625,1.0
4465445,,,,,,,,0.36328125,8.765625,-2.45703125,0.328125,0.48046875,-0.5703125,-0.31640625,1.3984375,0.75390625,1.0
4465446,,,,,,,,0.6796875,10.03125,-2.55859375,0.390625,0.2265625,-0.80078125,0.03125,2.6640625,0.67578125,1.0
4465447,,,,,,,,0.65625,10.44921875,-2.57421875,0.44921875,0.021484375,-0.896484375,0.03125,3.08203125,0.67578125,1.0
4465448,,,,,,,,0.27734375,11.4296875,-1.6796875,0.572265625,-0.677734375,-0.849609375,-0.23828125,4.08203125,1.6328125,1.0
4465449,,,,,,,,-0.26171875,10.734375,-0.859375,0.5625,-0.8828125,-0.75390625,-0.73828125,3.39453125,2.4765625,1.0
4465450,36.013019,129.32006666666666,132.2183366330242,68.68476225605127,3.6,229.0,,-1.32421875,8.23828125,0.16796875,0.458984375,-1.21875,-0.5234375,-1.73046875,0.90234375,3.55078125,1.0
4465451,,,,,,,,-2.890625,6.19140625,3.046875,0.326171875,-1.43359375,-0.3125,-3.2265625,-1.12890625,6.4609375,1.0
4465452,,,,,,,,-2.38671875,-0.0625,1.55078125,0.296875,-1.376953125,-0.5625,-2.61328125,-7.375,5.00390625,1.0
4465453,,,,,,,,3.7421875,-15.5,2.29296875,0.24609375,-0.982421875,-0.884765625,3.59375,-22.8125,5.76953125,1.0
4465454,,,,,,,,15.4765625,-49.5625,15.3046875,0.26171875,-0.107421875,-1.1796875,15.4296875,-56.87109375,18.796875,1.0
4465455,,,,,,,,16.5859375,-52.58984375,18.71875,0.203125,0.875,-1.900390625,16.6171875,-59.890625,22.2421875,1.0
4465456,,,,,,,,11.015625,-32.24609375,16.4140625,0.208984375,1.294921875,-2.232421875,11.1015625,-39.55078125,19.9453125,1.0
4465457,,,,,,,,-0.34765625,-8.94921875,2.21484375,0.14453125,1.78125,-1.7421875,-0.16015625,-16.26171875,5.76953125,1.0
4465458,,,,,,,,-4.5703125,-10.7421875,0.53125,-0.220703125,1.3984375,-0.0703125,-4.375,-18.0625,4.0859375,1.0
4465459,,,,,,,,-3.390625,-13.66015625,-0.13671875,-0.443359375,0.345703125,0.4765625,-3.265625,-21.0078125,3.39453125,1.0
4465460,36.013017,129.3200633333333,131.9178437459275,68.46283925418378,3.7,232.0,,0.1171875,-13.78125,1.6484375,-0.470703125,-2.330078125,-1.166015625,0.296875,-21.1640625,5.15625,1.0
4465461,,,,,,,,0.98828125,-11.421875,2.30078125,-0.25,-3.716796875,-1.291015625,1.37109375,-18.828125,5.76953125,1.0
4465462,,,,,,,,2.125,-8.07421875,-0.05078125,-0.375,-1.65625,-2.681640625,2.75,-15.49609375,3.39453125,1.0
4465463,,,,,,,,2.62109375,-7.22265625,-1.09765625,-0.548828125,-0.349609375,-3.248046875,3.36328125,-14.65234375,2.32421875,1.0
4465464,,,,,,,,3.3125,-6.671875,-2.421875,-1.044921875,0.751953125,-2.98046875,4.28125,-14.12109375,0.9453125,1.0
4465465,,,,,,,,3.44140625,-6.02734375,-2.21484375,-1.0625,0.150390625,-2.28125,4.58984375,-12.81640625,1.44140625,1.0
4465466,,,,,,,,3.13671875,-3.66796875,-0.97265625,-1.30859375,-0.6171875,-2.3515625,4.47265625,-11.1640625,2.24609375,1.0
4465467,,,,,,,,2.53515625,-0.984375,-1.0859375,-1.55078125,-0.5234375,-2.474609375,4.05078125,-8.52734375,2.015625,1.0
4465468,,,,,,,,2.3515625,1.25390625,-1.56640625,-1.634765625,-0.212890625,-2.46484375,3.9765625,-6.30078125,1.48046875,1.0
4465469,,,,,,,,2.046875,5.16796875,-1.9453125,-1.533203125,0.697265625,-1.728515625,3.98046875,-2.43359375,0.8671875,1.0
4465470,36.01301516666667,129.32006066666665,131.67744981331285,68.25941037031293,3.4000000000000004,231.0,,1.61328125,9.26171875,-2.9140625,-1.21484375,0.392578125,-1.498046875,3.703125,1.62890625,-0.2421875,1.0
4465471,,,,,,,,1.03515625,10.88671875,-3.02734375,-1.013671875,0.205078125,-1.654296875,3.24609375,3.23828125,-0.43359375,1.0
4465472,,,,,,,,0.7578125,11.078125,-2.96484375,-0.857421875,0.150390625,-1.759765625,3.09375,3.43359375,-0.43359375,1.0
4465473,,,,,,,,0.43359375,11.375,-3.09375,-0.6640625,0.15625,-1.59375,2.90234375,3.73828125,-0.625,1.0
4465474,,,,,,,,0.50390625,11.29296875,-3.26953125,-0.5625,0.146484375,-1.41796875,3.01953125,3.65625,-0.81640625,1.0
4465475,,,,,,,,1.58984375,8.7109375,-4.2265625,-0.486328125,0.125,-1.109375,4.203125,1.09375,-1.8125,1.0
4465476,,,,,,,,2.046875,7.90625,-4.625,-0.46875,0.0859375,-1.046875,4.70703125,0.2890625,-2.234375,1.0
4465477,,,,,,,,2.52734375,6.05859375,-5.24609375,-0.408203125,-0.0390625,-1.048828125,5.2734375,-1.55078125,-2.88671875,1.0
4465478,,,,,,,,2.421875,5.58984375,-5.19921875,-0.41015625,-0.1171875,-1.08984375,5.203125,-2.01171875,-2.84765625,1.0
4465479,,,,,,,,-1.4140625,5.78125,-2.69921875,-0.4609375,-0.2421875,-1.15625,1.5625,-1.78515625,-0.43359375,1.0
4465480,36.01301333333333,129.32005750000002,131.39198143799456,68.05598081860127,3.4000000000000004,232.0,,-2.3359375,6.078125,-2.0390625,-0.45703125,-0.0078125,-0.763671875,0.71875,-1.48046875,0.1796875,1.0
4465481,,,,,,,,-4.08984375,7.08203125,-0.66796875,-0.4453125,0.29296875,0.060546875,-1.00390625,-0.48046875,1.51953125,1.0
4465482,,,,,,,,-6.41796875,8.83203125,2.83984375,-0.435546875,0.5234375,1.09375,-3.37890625,1.24609375,5.0,1.0
4465483,,,,,,,,-6.9453125,9.20703125,3.96875,-0.416015625,0.572265625,1.5546875,-3.953125,1.58984375,6.12109375,1.0
4465484,,,,,,,,-6.63671875,8.12109375,1.953125,-0.421875,0.490234375,2.10546875,-3.80078125,0.44140625,4.08984375,1.0
4465485,,,,,,,,-6.734375,1.37109375,4.54296875,-0.4140625,0.220703125,2.228515625,-4.0703125,-6.37890625,6.65234375,1.0
4465486,,,,,,,,-6.09375,-14.0703125,10.81640625,-0.275390625,-0.1953125,2.015625,-3.609375,-21.890625,12.89453125,1.0
4465487,,,,,,,,2.20703125,-30.375,9.1484375,-0.216796875,-1.1796875,0.626953125,4.55078125,-38.25,11.171875,1.0
4465488,,,,,,,,3.69921875,-34.3046875,9.01171875,-0.154296875,-1.34375,0.24609375,6.04296875,-42.19921875,11.01953125,1.0
4465489,,,,,,,,-2.0390625,-15.87109375,10.66796875,-0.17578125,-1.189453125,-0.33203125,0.3359375,-23.765625,12.62890625,1.0
4465490,36.01301083333333,129.32005466666666,131.13656376986816,67.77857889735013,3.6,228.0,,1.9296875,-5.3046875,4.00390625,-0.45703125,-0.0078125,-0.763671875,4.3984375,-13.19921875,5.92578125,1.0
4465491,,,,,,,,5.5,-7.97265625,3.41015625,0.24609375,1.251953125,-0.884765625,8.1875,-15.80078125,5.34765625,1.0
4465492,,,,,,,,4.23828125,-15.03515625,6.4609375,0.49609375,-0.2109375,2.0,6.84765625,-22.8828125,8.453125,1.0
4465493,,,,,,,,3.59765625,-18.53515625,3.85546875,0.1796875,-2.48046875,1.865234375,6.08203125,-26.44921875,5.84765625,1.0
4465494,,,,,,,,2.10546875,-13.04296875,2.58984375,0.177734375,-1.681640625,2.21875,4.47265625,-21.01171875,4.54296875,1.0
4465495,,,,,,,,0.1875,-7.3046875,0.78515625,0.369140625,0.88671875,2.685546875,2.3671875,-15.34765625,2.74609375,1.0
4465496,,,,,,,,-0.30859375,-5.9765625,-0.13671875,0.509765625,1.685546875,2.701171875,1.75390625,-14.0390625,1.86328125,1.0
4465497,,,,,,,,-1.78125,-4.57421875,-1.44921875,0.818359375,1.6640625,2.65625,0.03125,-12.6953125,0.63671875,1.0
4465498,,,,,,,,-2.0703125,-3.96875,-1.91015625,1.2734375,0.90234375,2.740234375,-0.5078125,-12.125,0.29296875,1.0
4465499,,,,,,,,-3.5390625,-1.67578125,-2.3046875,1.68359375,0.23046875,2.91796875,-2.34375,-9.86328125,0.1015625,1.0
4465500,36.013009333333336,129.32005216666667,130.91119406218235,67.61213667386926,3.4000000000000004,229.0,0.0,-4.31640625,-0.09765625,-2.33984375,1.748046875,0.53125,3.1015625,4.3984375,-13.19921875,5.92578125,1.0
4465501,,,,,,,,-4.84375,4.0625,-3.40625,1.701171875,1.23046875,3.1953125,-4.3359375,-4.1171875,-0.625,1.0
4465502,,,,,,,,-5.0859375,6.26953125,-4.0859375,1.62890625,1.388671875,3.140625,-4.87890625,-1.89453125,-1.1640625,1.0
4465503,,,,,,,,-4.78125,7.64453125,-3.98828125,1.333984375,1.310546875,3.125,-4.87890625,-0.48046875,-0.93359375,1.0
4465504,,,,,,,,-3.609375,8.6171875,-3.5,1.0546875,1.107421875,3.078125,-3.99609375,0.515625,-0.359375,1.0
4465505,,,,,,,,-2.68359375,8.6953125,-3.6171875,0.904296875,0.962890625,2.892578125,-3.3359375,0.6328125,-0.3984375,1.0
4465506,,,,,,,,-2.12109375,7.8671875,-4.19140625,0.841796875,0.94921875,2.775390625,-2.91796875,-0.171875,-0.93359375,1.0
4465507,,,,,,,,-1.48828125,6.32421875,-4.3203125,0.693359375,0.99609375,2.5078125,-2.53125,-1.66796875,-1.0078125,1.0
4465508,,,,,,,,-1.37890625,3.26171875,-4.3515625,0.580078125,1.009765625,2.11328125,-2.65234375,-4.69140625,-1.0078125,1.0
4465509,,,,,,,,-1.24609375,2.36328125,-4.56640625,0.587890625,0.978515625,1.8125,-2.61328125,-5.5703125,-1.19921875,1.0
4465510,36.013007333333334,129.32004983333334,130.7008499871005,67.39021505824795,3.4000000000000004,226.0,,-0.546875,1.2890625,-4.8671875,0.640625,0.869140625,1.15234375,-2.078125,-6.609375,-1.46875,1.0
4465511,,,,,,,,0.375,2.2109375,-4.96875,0.59765625,0.765625,0.1484375,-1.2734375,-5.6484375,-1.5078125,1.0
4465512,,,,,,,,0.859375,5.57421875,-4.72265625,0.490234375,0.673828125,-0.515625,-0.8125,-2.2734375,-1.23828125,1.0
4465513,,,,,,,,1.1640625,8.0625,-3.64453125,0.328125,0.46875,-1.01171875,-0.47265625,0.2109375,-0.12890625,1.0
4465514,,,,,,,,1.1015625,9.37890625,-3.30859375,0.236328125,0.064453125,-1.0234375,-0.46875,1.51171875,0.21484375,1.0
4465515,,,,,,,,0.296875,10.4921875,-2.44921875,0.302734375,-0.458984375,-0.60546875,-1.1953125,2.62890625,1.09765625,1.0
4465516,,,,,,,,-0.1953125,11.83203125,-1.9453125,0.376953125,-0.953125,0.1171875,-1.65625,3.9609375,1.6328125,1.0
4465517,,,,,,,,-1.34375,12.34375,-1.234375,0.431640625,-1.390625,0.666015625,-2.8046875,4.5,2.3984375,1.0
4465518,,,,,,,,-3.13671875,11.1328125,0.93359375,0.455078125,-1.677734375,0.91796875,-4.60546875,3.3125,4.62109375,1.0
4465519,,,,,,,,-5.87890625,7.6484375,4.48046875,0.427734375,-1.81640625,0.953125,-7.36328125,-0.1328125,8.21875,1.0
4465520,36.0130055,129.3200465,130.40035674018392,67.18678531574241,3.7,230.0,,-3.734375,3.74609375,1.890625,0.388671875,-1.87890625,0.75390625,-2.078125,-6.609375,-1.46875,1.0
4465521,,,,,,,,1.23046875,-7.69140625,3.48046875,0.3984375,-1.794921875,0.298828125,-0.23828125,-15.41796875,7.33984375,1.0
4465522,,,,,,,,5.03125,-16.3203125,4.9921875,0.408203125,-1.67578125,-0.001953125,3.59375,-24.0390625,8.875,1.0
4465523,,,,,,,,20.8046875,-44.03125,13.09375,0.4765625,-1.169921875,-1.103515625,19.453125,-51.734375,17.03125,1.0
4465524,,,,,,,,15.3203125,-42.3359375,15.30078125,0.662109375,-0.0625,-2.30078125,14.125,-50.046875,19.29296875,1.0
4465525,,,,,,,,2.29296875,-8.8203125,4.765625,0.654296875,1.568359375,-1.763671875,1.29296875,-16.53515625,8.8359375,1.0
4465526,,,,,,,,-2.09765625,-12.09765625,-0.8671875,-0.26171875,1.087890625,-0.263671875,-3.07421875,-19.82421875,3.203125,1.0
4465527,,,,,,,,-1.3515625,-13.890625,-1.01953125,-0.357421875,0.5546875,0.275390625,-2.34375,-21.62890625,3.05078125,1.0
4465528,,,,,,,,1.58203125,-15.8203125,0.4609375,-0.291015625,-1.6484375,-0.4375,0.60546875,-23.578125,4.5078125,1.0
4465529,,,,,,,,3.37890625,-16.1796875,2.28125,0.001953125,-3.837890625,-1.025390625,2.55859375,-23.96484375,6.34375,1.0
4465530,36.01300383333333,129.3200435,130.12991283676234,67.00184923543672,3.6,233.0,,4.0703125,-11.7109375,0.64453125,0.388671875,-1.87890625,0.75390625,-2.078125,-6.609375,-1.46875,1.0
4465531,,,,,,,,4.5625,-9.3828125,-1.953125,-0.5625,-0.12890625,-3.234375,4.28125,-17.22265625,2.1328125,1.0
4465532,,,,,,,,4.48046875,-8.82421875,-2.3203125,-0.966796875,0.75,-3.005859375,4.43359375,-16.72265625,1.7109375,1.0
4465533,,,,,,,,3.7421875,-5.81640625,-1.61328125,-1.150390625,0.396484375,-2.435546875,3.8984375,-13.765625,2.32421875,1.0
4465534,,,,,,,,3.2421875,-4.953125,-1.34375,-1.251953125,0.076171875,-2.390625,3.4765625,-12.9296875,2.5546875,1.0
4465535,,,,,,,,2.125,-2.03125,-2.18359375,-1.3828125,-0.1796875,-2.826171875,2.671875,-10.09375,1.55859375,1.0
4465536,,,,,,,,2.37890625,2.12890625,-4.1953125,-1.474609375,0.203125,-2.67578125,3.28515625,-5.9921875,-0.625,1.0
4465537,,,,,,,,2.7890625,5.625,-4.35546875,-1.45703125,0.2109375,-2.42578125,3.8984375,-2.546875,-0.89453125,1.0
4465538,,,,,,,,3.17578125,9.02734375,-2.8203125,-1.44140625,0.087890625,-2.37890625,4.46875,0.82421875,0.5234375,1.0
4465539,,,,,,,,2.9609375,9.80078125,-2.56640625,-1.396484375,0.060546875,-2.384765625,4.359375,1.58984375,0.71484375,1.0
4465540,36.013001833333334,129.32004083333334,129.88951909729357,66.77992719422268,3.6,231.0,,2.3203125,10.97265625,-2.3046875,-1.2421875,0.1328125,-2.40234375,3.94140625,2.73828125,0.8671875,1.0
4465541,,,,,,,,1.89453125,11.171875,-2.9375,-1.0703125,0.349609375,-2.240234375,3.70703125,2.9296875,0.140625,1.0
4465542,,,,,,,,1.71875,11.1328125,-3.28125,-1.005859375,0.46484375,-2.095703125,3.59765625,2.890625,-0.2421875,1.0
4465543,,,,,,,,1.8828125,10.5234375,-4.1015625,-0.8359375,0.529296875,-1.5859375,3.90234375,2.28125,-1.125,1.0
4465544,,,,,,,,2.07421875,9.91015625,-4.53515625,-0.716796875,0.34375,-1.328125,4.203125,1.66796875,-1.62109375,1.0
4465545,,,,,,,,3.4375,7.2109375,-5.796875,-0.66796875,-0.21484375,-1.609375,5.8125,-1.015625,-3.0,1.0
4465546,,,,,,,,3.28515625,6.66015625,-5.62109375,-0.666015625,-0.328125,-1.609375,5.734375,-1.55078125,-2.84765625,1.0
4465547,,,,,,,,1.07421875,6.53515625,-4.06640625,-0.619140625,-0.443359375,-1.4609375,3.66796875,-1.66796875,-1.35546875,1.0
4465548,,,,,,,,-0.89453125,6.66796875,-2.5390625,-0.55078125,-0.34375,-1.123046875,1.83203125,-1.51171875,0.1015625,1.0
4465549,,,,,,,,-1.96875,6.8984375,-1.6640625,-0.51953125,-0.2421875,-0.890625,0.796875,-1.28125,0.9453125,1.0
4465550,36.01299983333333,129.32003766666668,129.60405090209034,66.55800449531309,3.7,230.0,,-5.47265625,8.6953125,2.6484375,-1.2421875,0.1328125,-2.40234375,3.94140625,2.73828125,0.8671875,1.0
4465551,,,,,,,,-6.60546875,11.02734375,2.53515625,-0.541015625,0.275390625,1.18359375,-3.83984375,2.81640625,5.0390625,1.0
4465552,,,,,,,,-5.0625,11.6953125,0.12890625,-0.6640625,0.232421875,1.81640625,-2.421875,3.43359375,2.58984375,1.0
4465553,,,,,,,,-2.6015625,12.37109375,-2.19140625,-0.7265625,0.0,1.974609375,-0.125,4.0390625,0.21484375,1.0
4465554,,,,,,,,-1.171875,11.66015625,-2.88671875,-0.76171875,-0.529296875,1.208984375,1.1796875,3.27734375,-0.55078125,1.0
4465555,,,,,,,,-0.19140625,9.7734375,-2.0625,-0.703125,-1.23046875,0.03125,2.13671875,1.359375,0.1796875,1.0
4465556,,,,,,,,0.375,3.76171875,-0.75390625,-0.521484375,-1.5,-0.43359375,2.75,-4.65234375,1.40234375,1.0
4465557,,,,,,,,-1.41796875,-19.078125,11.3828125,-0.361328125,-1.33203125,-0.3515625,1.02734375,-27.48828125,13.46875,1.0
4465558,,,,,,,,-4.1015625,-47.88671875,21.67578125,-0.28125,-0.779296875,0.013671875,-1.6171875,-56.2890625,23.69921875,1.0
4465559,,,,,,,,-10.3828125,-62.390625,20.43359375,-0.177734375,0.2109375,0.33203125,-7.8984375,-70.81640625,22.43359375,1.0
4465560,36.0129975,129.32003500000002,129.36365768143878,66.29909605499321,3.6,227.0,,0.94921875,-4.23828125,-1.29296875,-1.2421875,0.1328125,-2.40234375,3.28515625,-12.69921875,0.75390625,1.0
4465561,,,,,,,,11.5703125,-8.7890625,-2.19921875,0.0,2.935546875,-0.806640625,13.859375,-17.2578125,-0.08984375,1.0
4465562,,,,,,,,8.20703125,-13.38671875,5.0703125,-0.005859375,0.4140625,0.66796875,10.48828125,-21.8515625,7.2265625,1.0
4465563,,,,,,,,5.2890625,-15.28515625,6.76953125,-0.181640625,-1.9296875,1.375,7.5390625,-23.765625,8.91015625,1.0
4465564,,,,,,,,2.4375,-14.671875,4.78125,0.02734375,-4.490234375,1.021484375,4.6640625,-23.19921875,6.84375,1.0
4465565,,,,,,,,1.55078125,-10.00390625,1.625,0.470703125,-2.421875,1.837890625,3.74609375,-18.55859375,3.625,1.0
4465566,,,,,,,,-2.35546875,-5.19921875,-0.62890625,0.798828125,2.134765625,3.5390625,-0.54296875,-13.84765625,1.44140625,1.0
4465567,,,,,,,,-3.41796875,-4.1953125,-0.8515625,0.921875,1.185546875,2.86328125,-1.92578125,-12.89453125,1.328125,1.0
4465568,,,,,,,,-4.890625,-1.7578125,-0.8671875,1.025390625,0.376953125,2.51953125,-3.53125,-10.4765625,1.3671875,1.0
4465569,,,,,,,,-6.11328125,1.0546875,-2.2890625,1.517578125,-0.6171875,2.78515625,-5.06640625,-7.68359375,0.1015625,1.0
4465570,36.01299566666667,129.32003216666666,129.10823881161843,66.09566702106986,3.5,228.0,,-6.359375,3.0859375,-2.62109375,-1.2421875,0.1328125,-2.40234375,3.28515625,-12.69921875,0.75390625,1.0
4465571,,,,,,,,-5.703125,6.28515625,-2.140625,1.708984375,0.123046875,3.3046875,-5.22265625,-2.43359375,0.5625,1.0
4465572,,,,,,,,-5.25390625,7.10546875,-2.15234375,1.552734375,0.296875,3.130859375,-5.0234375,-1.58984375,0.67578125,1.0
4465573,,,,,,,,-4.75,9.87109375,-1.90234375,1.380859375,0.513671875,2.783203125,-4.796875,1.20703125,1.05859375,1.0
4465574,,,,,,,,-3.703125,12.34375,-1.75,1.083984375,0.904296875,2.171875,-4.11328125,3.734375,1.3671875,1.0
4465575,,,,,,,,-3.26171875,13.33984375,-2.87109375,0.91796875,0.908203125,1.880859375,-3.87890625,4.765625,0.33203125,1.0
4465576,,,,,,,,-2.8046875,12.234375,-3.9765625,0.79296875,0.748046875,1.732421875,-3.609375,3.69921875,-0.703125,1.0
4465577,,,,,,,,-2.60546875,9.8359375,-4.421875,0.728515625,0.630859375,1.6484375,-3.4921875,1.3203125,-1.125,1.0
4465578,,,,,,,,-2.53125,7.31640625,-4.1328125,0.611328125,0.384765625,1.24609375,-3.57421875,-1.16796875,-0.78125,1.0
4465579,,,,,,,,-2.32421875,6.11328125,-3.45703125,0.603515625,0.259765625,0.931640625,-3.41796875,-2.35546875,-0.08984375,1.0
4465580,36.012993333333334,129.3200295,128.8678455636288,65.83675859443017,3.5,226.0,,-1.6953125,5.62890625,-2.8984375,-1.2421875,0.1328125,-2.40234375,3.28515625,-12.69921875,0.75390625,1.0
4465581,,,,,,,,-0.55078125,5.99609375,-2.28515625,0.4140625,0.2421875,-0.029296875,-1.73046875,-2.43359375,1.17578125,1.0
4465582,,,,,,,,0.55859375,6.86328125,-1.58203125,0.31640625,0.48046875,-0.265625,-0.62109375,-1.55078125,1.90234375,1.0
4465583,,,,,,,,1.36328125,7.93359375,-1.359375,0.2578125,0.56640625,-0.33984375,0.18359375,-0.48046875,2.1328125,1.0
4465584,,,,,,,,2.53515625,9.8828125,-1.8828125,0.232421875,0.494140625,-0.53515625,1.37109375,1.4765625,1.63671875,1.0
4465585,,,,,,,,2.37890625,11.63671875,-1.8984375,0.326171875,0.255859375,-0.66015625,1.25390625,3.23828125,1.6328125,1.0
4465586,,,,,,,,0.83984375,11.703125,-2.40234375,0.478515625,-0.357421875,-0.84375,-0.19921875,3.31640625,1.17578125,1.0
4465587,,,,,,,,-0.2421875,10.34765625,-2.55859375,0.48828125,-0.861328125,-0.794921875,-1.1953125,1.96875,1.05859375,1.0
4465588,,,,,,,,-1.125,9.15234375,-1.9375,0.45703125,-1.046875,-0.6171875,-2.0390625,0.78515625,1.7109375,1.0
4465589,,,,,,,,-2.23828125,6.953125,0.16015625,0.421875,-1.173828125,-0.140625,-3.07421875,-1.3984375,3.85546875,1.0
4465590,36.0129915,129.32002616666665,128.56735222377011,65.63332891438084,3.6,231.0,,-2.19921875,3.55859375,0.85546875,-1.2421875,0.1328125,-2.40234375,3.28515625,-12.69921875,0.75390625,1.0
4465591,,,,,,,,0.21484375,-7.421875,0.6640625,0.33984375,-0.728515625,-0.251953125,-0.54296875,-15.7265625,4.4296875,1.0
4465592,,,,,,,,2.94921875,-15.96875,3.1015625,0.34375,-0.513671875,-0.4140625,2.21484375,-24.265625,6.8828125,1.0
4465593,,,,,,,,14.4921875,-52.9453125,16.9375,0.302734375,-0.06640625,-0.837890625,13.8203125,-61.23828125,20.75,1.0
4465594,,,,,,,,7.17578125,-23.37109375,13.28125,0.173828125,0.30078125,-1.287109375,6.58203125,-31.66015625,17.109375,1.0
4465595,,,,,,,,4.2421875,-7.07421875,3.60546875,0.18359375,0.849609375,-1.814453125,3.8203125,-15.375,7.45703125,1.0
4465596,,,,,,,,-2.5078125,-5.16796875,0.1171875,0.099609375,0.9375,-1.501953125,-2.8828125,-13.4609375,3.96875,1.0
4465597,,,,,,,,-2.953125,-11.28125,-2.05859375,-0.04296875,0.87890625,-0.978515625,-3.265625,-19.59375,1.78515625,1.0
4465598,,,,,,,,1.16015625,-16.66015625,2.01953125,-0.732421875,-2.490234375,-1.2890625,0.98828125,-24.99609375,5.84765625,1.0
4465599,,,,,,,,2.35546875,-10.921875,-0.82421875,-0.05078125,-4.201171875,-1.548828125,2.44140625,-19.2890625,2.97265625,1.0
4465600,36.012989833333336,129.32002333333332,128.31193305015097,65.44839311127538,3.6,232.0,0.0,3.18359375,-8.8359375,-1.6640625,-0.54296875,-0.23046875,-3.13671875,3.70703125,-17.21875,2.09375,1.0
4465601,,,,,,,,4.015625,-8.4765625,-1.53515625,-0.9296875,0.763671875,-3.01953125,4.78125,-16.87890625,2.16796875,1.0
4465602,,,,,,,,3.48046875,-7.41796875,-1.234375,-0.98046875,0.09765625,-2.5703125,4.47265625,-15.83984375,2.3984375,1.0
4465603,,,,,,,,2.8359375,-5.41796875,-1.53125,-1.076171875,-0.17578125,-2.599609375,3.9375,-13.84375,2.0546875,1.0
4465604,,,,,,,,2.2421875,-2.94140625,-2.1875,-1.232421875,-0.10546875,-2.865234375,3.59375,-11.39453125,1.2890625,1.0
4465605,,,,,,,,2.12890625,0.25390625,-3.54296875,-1.40234375,0.126953125,-2.8046875,3.70703125,-8.21484375,-0.16796875,1.0
4465606,,,,,,,,2.31640625,1.90625,-3.83984375,-1.439453125,0.158203125,-2.5390625,4.12890625,-6.5703125,-0.58984375,1.0
4465607,,,,,,,,2.734375,5.36328125,-2.9609375,-1.3828125,0.111328125,-2.373046875,4.7421875,-3.12109375,0.1796875,1.0
4465608,,,,,,,,2.22265625,8.16796875,-2.203125,-1.2734375,0.14453125,-2.333984375,4.43359375,-0.32421875,0.828125,1.0
4465609,,,,,,,,1.5234375,9.76953125,-2.55078125,-1.119140625,0.2890625,-2.263671875,3.94140625,1.28515625,0.37109375,1.0
4465610,36.012988,129.32002066666666,128.0715389526636,65.24496432742588,3.4000000000000004,231.0,,0.5859375,11.20703125,-3.546875,-0.54296875,-0.23046875,-3.13671875,3.17578125,2.73828125,-0.703125,1.0
4465611,,,,,,,,0.3046875,11.68359375,-3.9453125,-0.73828125,0.48828125,-1.763671875,3.0546875,3.234375,-1.1640625,1.0
4465612,,,,,,,,0.09765625,11.97265625,-4.04296875,-0.67578125,0.435546875,-1.5625,2.90234375,3.54296875,-1.27734375,1.0
4465613,,,,,,,,0.6015625,11.19140625,-4.33984375,-0.599609375,0.26953125,-1.2734375,3.51953125,2.77734375,-1.62109375,1.0
4465614,,,,,,,,1.56640625,9.4453125,-5.0625,-0.552734375,0.048828125,-1.13671875,4.5859375,1.0546875,-2.390625,1.0
4465615,,,,,,,,2.3125,7.21484375,-5.625,-0.52734375,-0.07421875,-1.095703125,5.4296875,-1.16796875,-3.0,1.0
4465616,,,,,,,,2.18359375,6.69140625,-5.2265625,-0.4453125,-0.154296875,-1.056640625,5.390625,-1.66796875,-2.65625,1.0
4465617,,,,,,,,1.046875,6.01953125,-3.6171875,-0.427734375,-0.1796875,-1.046875,4.359375,-2.31640625,-1.0859375,1.0
4465618,,,,,,,,-2.7734375,7.51953125,-0.359375,-0.416015625,0.34375,-0.3671875,0.6796875,-0.78515625,2.09375,1.0
4465619,,,,,,,,-4.65625,9.3203125,1.44921875,-0.42578125,0.5,0.064453125,-1.1953125,1.015625,3.890625,1.0
4465620,36.01298583333333,129.32001733333334,127.77104611138955,65.00454826201026,3.7,231.0,,-6.01953125,11.7421875,2.17578125,-0.560546875,0.57421875,1.2265625,-2.65234375,3.390625,4.578125,1.0
4465621,,,,,,,,-4.8515625,12.9140625,0.578125,-0.7421875,0.265625,1.61328125,-1.6171875,4.5,2.9375,1.0
4465622,,,,,,,,-3.30078125,12.7109375,-0.84765625,-0.798828125,-0.240234375,1.607421875,-0.19921875,4.23828125,1.44140625,1.0
4465623,,,,,,,,-2.55078125,11.9296875,-0.890625,-0.759765625,-0.5546875,1.400390625,0.48828125,3.43359375,1.3671875,1.0
4465624,,,,,,,,-0.49609375,8.7578125,0.47265625,-0.689453125,-1.248046875,0.734375,2.48046875,0.2109375,2.625,1.0
4465625,,,,,,,,0.25,3.75390625,1.6015625,-0.5,-1.630859375,0.1953125,3.2109375,-4.8046875,3.6640625,1.0
4465626,,,,,,,,-2.80859375,-6.46484375,7.51171875,-0.23828125,-1.537109375,0.08984375,0.18359375,-15.03515625,9.48828125,1.0
4465627,,,,,,,,-4.6953125,-43.5859375,21.5078125,-0.150390625,-1.03515625,0.27734375,-1.6953125,-52.15625,23.4296875,1.0
4465628,,,,,,,,-5.34375,-56.5625,22.671875,-0.140625,-0.650390625,0.3203125,-2.34375,-65.14453125,24.578125,1.0
4465629,,,,,,,,-9.99609375,-36.0625,4.37890625,-0.11328125,0.37890625,0.21875,-7.01953125,-44.65234375,6.26953125,1.0
4465630,36.01298333333333,129.32001433333335,127.50060342767993,64.72714622837533,3.7,227.0,,1.8828125,-7.875,-4.3125,-0.27734375,2.234375,0.310546875,4.78125,-16.49609375,-2.390625,1.0
4465631,,,,,,,,6.484375,-9.52734375,-5.8125,-0.478515625,1.794921875,-1.435546875,9.4140625,-18.13671875,-3.84375,1.0
4465632,,,,,,,,11.90234375,-9.16015625,3.5703125,-0.095703125,0.66015625,-0.26953125,14.85546875,-17.75,5.5390625,1.0
4465633,,,,,,,,5.4453125,-12.70703125,8.3125,0.33203125,-1.845703125,3.146484375,8.265625,-21.35546875,10.2890625,1.0
4465634,,,,,,,,2.66015625,-13.08203125,4.515625,0.2109375,-3.228515625,2.64453125,5.35546875,-21.77734375,6.4609375,1.0
4465635,,,,,,,,0.5859375,-9.44921875,-0.1328125,0.65234375,-2.21875,1.4296875,3.171875,-18.2109375,1.75,1.0
4465636,,,,,,,,-1.4140625,-6.20703125,-2.640625,0.640625,-0.560546875,2.384765625,1.1015625,-14.9921875,-0.7421875,1.0
4465637,,,,,,,,-4.6640625,-3.5703125,-1.1171875,1.060546875,1.646484375,4.171875,-2.4609375,-12.43359375,0.8671875,1.0
4465638,,,,,,,,-5.0390625,-3.31640625,-0.4453125,1.11328125,0.830078125,3.71875,-3.2265625,-12.234375,1.671875,1.0
4465639,,,,,,,,-6.0625,1.234375,-1.109375,1.681640625,-0.525390625,3.369140625,-4.8359375,-7.7578125,1.25,1.0
4465640,36.01298133333333,129.3200115,127.2451847395803,64.50522404264584,3.6,227.0,,-5.875,2.26953125,-1.79296875,1.77734375,-0.275390625,3.525390625,4.78125,-16.49609375,-2.390625,1.0
4465641,,,,,,,,-5.82421875,5.5546875,-3.41796875,1.78515625,0.3203125,3.32421875,-5.06640625,-3.4296875,-0.81640625,1.0
4465642,,,,,,,,-5.6953125,8.14453125,-3.0703125,1.619140625,0.58984375,2.82421875,-5.21875,-0.82421875,-0.3203125,1.0
4465643,,,,,,,,-5.55078125,10.0390625,-1.40234375,1.3515625,0.5703125,2.625,-5.33203125,1.09375,1.48046875,1.0
4465644,,,,,,,,-4.703125,11.1484375,-1.18359375,1.015625,0.638671875,2.642578125,-4.875,2.2421875,1.86328125,1.0
4465645,,,,,,,,-4.0234375,11.765625,-1.7578125,0.771484375,0.857421875,2.556640625,-4.45703125,2.890625,1.3671875,1.0
4465646,,,,,,,,-3.4609375,11.515625,-2.203125,0.64453125,0.966796875,2.443359375,-4.03515625,2.6640625,0.9453125,1.0
4465647,,,,,,,,-2.62109375,9.30859375,-3.62109375,0.46484375,1.02734375,2.083984375,-3.41796875,0.48046875,-0.43359375,1.0
4465648,,,,,,,,-2.49609375,7.97265625,-3.46875,0.353515625,0.77734375,1.533203125,-3.49609375,-0.82421875,-0.2421875,1.0
4465649,,,,,,,,-2.32421875,6.9921875,-2.796875,0.36328125,0.427734375,1.00390625,-3.45703125,-1.78125,0.4453125,1.0
4465650,36.012979333333334,129.32000883333333,127.00479085848039,64.28330208166385,3.5,228.0,,-1.546875,6.76171875,-2.61328125,1.77734375,-0.275390625,3.525390625,4.78125,-16.49609375,-2.390625,1.0
4465651,,,,,,,,-0.75,7.3046875,-2.66796875,0.37890625,0.376953125,0.1328125,-2.08203125,-1.3984375,0.67578125,1.0
4465652,,,,,,,,-0.08203125,8.21484375,-3.25,0.32421875,0.4453125,-0.095703125,-1.42578125,-0.48046875,0.1015625,1.0
4465653,,,,,,,,1.13671875,10.0078125,-3.6484375,0.25390625,0.44140625,-0.55078125,-0.19921875,1.32421875,-0.28125,1.0
4465654,,,,,,,,1.93359375,10.9296875,-3.55859375,0.3203125,0.04296875,-1.03125,0.98828125,2.77734375,-0.16796875,1.0
4465655,,,,,,,,2.57421875,12.15625,-3.15234375,0.4609375,-0.37890625,-1.27734375,1.37109375,3.47265625,0.25390625,1.0
4465656,,,,,,,,2.7109375,12.26953125,-2.83203125,0.50390625,-0.5703125,-1.3203125,1.67578125,3.50390625,0.9453125,1.0
4465657,,,,,,,,2.515625,11.87109375,-2.41796875,0.548828125,-0.8203125,-1.162109375,0.4140625,1.890625,1.09765625,1.0
4465658,,,,,,,,0.4375,9.94140625,-2.08984375,0.53515625,-0.896484375,-0.79296875,-1.38671875,0.36328125,2.0546875,1.0
4465659,,,,,,,,-0.54296875,9.01171875,-1.5,0.51171875,-0.8828125,-0.62890625,-3.49609375,-1.703125,4.8125,1.0
4465660,36.012977500000005,129.32000566666665,126.71932223794593,64.07987268372402,3.5,230.0,,-4.24609375,3.65625,3.1796875,1.77734375,-0.275390625,3.525390625,-4.94921875,-7.296875,6.0,1.0
4465661,,,,,,,,-1.6875,-9.27734375,1.68359375,0.271484375,-0.384765625,-0.40625,-2.34375,-17.8671875,5.34765625,1.0
4465662,,,,,,,,0.2109375,-16.90625,0.7109375,0.22265625,-0.154296875,-0.390625,-0.4296875,-25.49609375,4.390625,1.0
4465663,,,,,,,,20.4375,-58.171875,18.2421875,0.173828125,0.314453125,-0.70703125,19.8359375,-66.75,21.9375,1.0
4465664,,,,,,,,19.63671875,-47.97265625,22.4453125,0.30859375,0.94921875,-1.791015625,8.2265625,-25.91796875,11.2109375,1.0
4465665,,,,,,,,1.078125,-11.28515625,1.53125,0.470703125,1.0546875,-1.77734375,0.71875,-19.86328125,5.2734375,1.0
4465666,,,,,,,,-2.8359375,-7.56640625,0.48046875,0.3515625,0.671875,-1.47265625,-3.1484375,-16.14453125,4.23828125,1.0
4465667,,,,,,,,-5.45703125,-9.20703125,-0.984375,-0.453125,0.0078125,-0.380859375,-5.6015625,-18.83203125,1.82421875,1.0
4465668,,,,,,,,-3.3203125,-10.1796875,-2.63671875,-0.4296875,-3.2109375,-0.830078125,-1.80859375,-18.55859375,2.0546875,1.0
4465669,,,,,,,,-1.67578125,-9.93359375,-1.6484375,-0.232421875,-4.087890625,-0.666015625,-0.58203125,-18.29296875,3.5859375,1.0
4465670,36.012975833333336,129.32000299999999,126.47892779910421,63.89493715075403,3.4000000000000004,231.0,,-4.24609375,3.65625,3.1796875,-0.369140625,-3.447265625,-1.4140625,-4.94921875,-7.296875,6.0,1.0
4465671,,,,,,,,3.9375,-8.78515625,1.44140625,-0.634765625,-1.107421875,-3.15234375,4.28125,-17.4453125,5.08203125,1.0
4465672,,,,,,,,5.0078125,-7.4375,-0.84375,-0.859375,-0.134765625,-3.419921875,5.46875,-16.109375,2.78125,1.0
4465673,,,,,,,,4.6171875,-5.16796875,-2.171875,-1.12890625,0.623046875,-2.390625,5.5859375,-13.8828125,1.2890625,1.0
4465674,,,,,,,,3.37109375,-2.64453125,-1.7109375,-1.3515625,0.025390625,-2.369140625,4.55078125,-11.390625,1.6328125,1.0
4465675,,,,,,,,2.73828125,-0.61328125,-1.4921875,-1.53515625,0.1796875,-2.18359375,4.20703125,-9.40234375,1.671875,1.0
4465676,,,,,,,,2.11328125,2.1875,-1.4296875,-1.48828125,0.46484375,-2.0234375,3.66796875,-6.609375,1.671875,1.0
4465677,,,,,,,,1.7421875,7.34375,-2.1171875,-1.369140625,0.8046875,-1.587890625,3.4375,-1.4765625,0.8671875,1.0
4465678,,,,,,,,0.515625,11.29296875,-3.00390625,-1.173828125,0.728515625,-1.380859375,2.3671875,2.4296875,-0.16796875,1.0
4465679,,,,,,,,0.15234375,12.01953125,-3.1875,-1.052734375,0.6640625,-1.453125,2.05859375,3.16015625,-0.3984375,1.0
4465680,36.012974166666666,129.32000000000002,126.20848371487281,63.71000119230037,3.4000000000000004,233.0,,0.12109375,12.78515625,-3.53515625,-0.69921875,0.353515625,-1.693359375,2.21484375,3.921875,-0.85546875,1.0
4465681,,,,,,,,0.0625,10.76171875,-4.5703125,-0.330078125,0.033203125,-1.056640625,2.40625,1.93359375,-1.96875,1.0
4465682,,,,,,,,0.92578125,7.875,-4.69140625,-0.369140625,0.017578125,-1.087890625,3.359375,-0.9375,-2.12109375,1.0
4465683,,,,,,,,1.26171875,7.0625,-4.8203125,-0.365234375,0.0078125,-1.1796875,3.7421875,-1.7421875,-2.2734375,1.0
4465684,,,,,,,,1.48046875,5.95703125,-4.90625,-0.33203125,0.0234375,-1.34765625,4.08984375,-2.81640625,-2.390625,1.0
4465685,,,,,,,,0.54296875,6.078125,-3.70703125,-0.3984375,0.2109375,-1.318359375,3.3203125,-2.6640625,-1.23828125,1.0
4465686,,,,,,,,-1.54296875,7.20703125,-1.83984375,-0.4140625,0.375,-0.982421875,1.33203125,-1.51171875,0.59765625,1.0
4465687,,,,,,,,-3.0625,8.72265625,-0.85546875,-0.357421875,0.56640625,-0.3515625,-0.125,0.01953125,1.5546875,1.0
4465688,,,,,,,,-3.48046875,9.375,-0.84765625,-0.35546875,0.6484375,0.017578125,-0.54296875,0.671875,1.55859375,1.0
4465689,,,,,,,,-4.46875,11.3046875,-0.48046875,-0.419921875,0.642578125,0.724609375,-1.578125,2.58984375,1.90234375,1.0
4465690,36.01297216666667,129.319997,125.93804014444262,63.4880788292567,3.4000000000000004,231.0,,-4.55859375,12.03515625,1.08203125,-0.47265625,0.33203125,1.177734375,-1.76953125,3.27734375,3.43359375,1.0
4465691,,,,,,,,-3.1484375,11.84375,1.4296875,-0.537109375,-0.158203125,1.302734375,-0.46875,3.046875,3.7421875,1.0
4465692,,,,,,,,-2.48046875,11.55078125,1.26953125,-0.51953125,-0.4140625,1.244140625,0.14453125,2.73828125,3.546875,1.0
4465693,,,,,,,,3.54296875,9.32421875,1.828125,-0.392578125,-0.828125,1.029296875,6.08203125,0.48046875,4.046875,1.0
4465694,,,,,,,,3.328125,2.34375,2.53515625,-0.3203125,-1.166015625,0.724609375,5.8125,-6.53125,4.69921875,1.0
4465695,,,,,,,,-1.44921875,-25.11328125,14.76953125,-0.23046875,-1.474609375,0.001953125,1.02734375,-33.9921875,16.87890625,1.0
4465696,,,,,,,,-8.59765625,-48.6796875,22.8828125,-0.169921875,-1.513671875,-0.376953125,-6.09765625,-57.55859375,24.9609375,1.0
4465697,,,,,,,,-10.1328125,-47.30859375,10.40625,-0.13671875,-1.146484375,-0.625,-7.5546875,-56.171875,12.4375,1.0
4465698,,,,,,,,-5.4375,-12.90234375,4.23046875,-0.439453125,0.787109375,0.453125,-2.84375,-21.7734375,6.23046875,1.0
4465699,,,,,,,,-5.40625,-12.89453125,4.23828125,-0.673828125,2.21875,0.462890625,1.41015625,-16.4921875,3.7421875,1.0
4465700,36.01296983333334,129.319994,125.66759708928896,63.22917006004542,3.7,229.0,0.0,9.45703125,-5.171875,-3.26171875,-0.47265625,0.33203125,1.177734375,-1.76953125,3.27734375,3.43359375,1.0
4465701,,,,,,,,11.10546875,-7.984375,1.78515625,0.53515625,-0.03125,0.2421875,13.55078125,-16.87890625,3.93359375,1.0
4465702,,,,,,,,3.74609375,-14.90234375,3.26953125,0.4609375,-3.14453125,0.84765625,6.16015625,-23.80859375,5.42578125,1.0
4465703,,,,,,,,2.48828125,-14.08984375,3.953125,0.185546875,-3.982421875,-0.025390625,4.97265625,-23.00390625,6.0390625,1.0
4465704,,,,,,,,1.74609375,-10.265625,2.3125,0.076171875,-1.2734375,3.119140625,4.16796875,-19.2109375,4.3515625,1.0
4465705,,,,,,,,-2.83984375,-3.44140625,-0.96875,0.953125,1.0234375,2.939453125,-1.34765625,-12.578125,1.2109375,1.0
4465706,,,,,,,,-4.90625,-2.078125,-0.6328125,1.3984375,-0.21484375,2.330078125,-3.6484375,-11.2421875,1.671875,1.0
4465707,,,,,,,,-6.76171875,0.83203125,-0.94921875,1.642578125,-0.599609375,2.791015625,-5.71484375,-8.33203125,1.48046875,1.0
4465708,,,,,,,,-7.0703125,3.8515625,-1.98828125,1.755859375,-0.224609375,3.12109375,-6.2890625,-5.3046875,0.59765625,1.0
4465709,,,,,,,,-5.96484375,6.74609375,-3.453125,1.58203125,0.26171875,3.12890625,-5.484375,-2.39453125,-0.703125,1.0
4465710,36.012968,129.31999183333335,125.47227733251914,63.025741992002295,3.2,226.0,,9.45703125,-5.171875,-3.26171875,1.220703125,0.501953125,2.96875,-5.0234375,0.44140625,-0.703125,1.0
4465711,,,,,,,,-4.51171875,10.4140625,-3.65625,0.896484375,0.404296875,2.7734375,-3.71875,2.203125,-0.08984375,1.0
4465712,,,,,,,,-3.47265625,11.28125,-3.12890625,0.638671875,0.3125,2.5234375,-3.4921875,2.96875,0.140625,1.0
4465713,,,,,,,,-2.30859375,12.734375,-2.45703125,0.5546875,0.517578125,1.98046875,-2.765625,3.9609375,0.5625,1.0
4465714,,,,,,,,-1.9453125,12.97265625,-2.6171875,0.509765625,0.623046875,1.7734375,-2.53515625,3.62109375,0.29296875,1.0
4465715,,,,,,,,-1.18359375,10.90234375,-3.69140625,0.43359375,0.77734375,1.4140625,-2.38671875,1.24609375,-0.703125,1.0
4465716,,,,,,,,-1.44921875,9.27734375,-3.82421875,0.423828125,0.779296875,1.25,-2.53125,0.32421875,-0.58984375,1.0
4465717,,,,,,,,-2.05078125,6.98828125,-3.21875,0.4296875,0.6328125,0.859375,-3.33984375,-1.93359375,0.0625,1.0
4465718,,,,,,,,-2.2734375,6.3203125,-3.03515625,0.4140625,0.513671875,0.63671875,-3.61328125,-2.5859375,0.25390625,1.0
4465719,,,,,,,,-2.2890625,5.1875,-2.453125,0.359375,0.314453125,0.34375,-3.6875,-3.69921875,0.8671875,1.0
4465720,36.01296583333333,129.319989,125.21685880724581,62.78532665961659,3.5,226.0,,-2.04296875,5.1796875,-2.31640625,1.220703125,0.501953125,2.96875,-3.45703125,-3.69921875,1.01953125,1.0
4465721,,,,,,,,-0.38671875,7.33984375,-2.19140625,0.388671875,0.365234375,0.2890625,-1.84375,-1.51171875,1.17578125,1.0
4465722,,,,,,,,1.3828125,9.078125,-2.5703125,0.310546875,0.41015625,-0.056640625,-0.125,0.25,0.83203125,1.0
4465723,,,,,,,,1.73828125,9.60546875,-2.65234375,0.291015625,0.359375,-0.212890625,0.22265625,0.78125,0.75390625,1.0
4465724,,,,,,,,2.640625,10.86328125,-2.79296875,0.32421875,0.14453125,-0.5078125,1.140625,2.05078125,0.63671875,1.0
4465725,,,,,,,,2.85546875,11.734375,-3.0625,0.435546875,-0.2109375,-0.8203125,1.41015625,2.93359375,0.40625,1.0
4465726,,,,,,,,2.62890625,11.87109375,-3.046875,0.556640625,-0.779296875,-1.017578125,1.33203125,3.08203125,0.484375,1.0
4465727,,,,,,,,1.171875,10.5859375,-2.44921875,0.60546875,-1.095703125,-0.96484375,-0.0078125,1.8203125,1.13671875,1.0
4465728,,,,,,,,-0.00390625,9.703125,-1.140625,0.603515625,-1.21875,-0.896484375,-1.12109375,0.9375,2.48046875,1.0
4465729,,,,,,,,-5.16796875,5.12109375,4.99609375,0.580078125,-1.37109375,-0.634765625,-6.17578125,-3.62109375,8.6796875,1.0
4465730,36.012964000000004,129.31998583333333,124.93139009903926,62.58189731916336,3.5,230.0,,-4.296875,-2.609375,1.8671875,1.220703125,0.501953125,2.96875,-5.21875,-11.3203125,5.6171875,1.0
4465731,,,,,,,,1.88671875,-14.99609375,2.73828125,0.419921875,-1.005859375,-0.15234375,1.02734375,-23.6875,6.53515625,1.0
4465732,,,,,,,,19.50390625,-48.73046875,7.44921875,0.279296875,-0.431640625,-0.439453125,18.68359375,-57.40234375,11.28515625,1.0
4465733,,,,,,,,21.34375,-55.703125,13.45703125,0.232421875,-0.052734375,-0.978515625,20.5625,-64.375,17.30078125,1.0
4465734,,,,,,,,3.03125,-11.8046875,3.6640625,0.279296875,1.0078125,-2.30078125,2.3671875,-20.4765625,7.53125,1.0
4465735,,,,,,,,-1.33203125,-6.85546875,-0.10546875,0.228515625,1.833984375,-2.388671875,-1.84765625,-15.53125,3.77734375,1.0
4465736,,,,,,,,-2.046875,-10.0625,-2.578125,-0.333984375,1.392578125,-1.388671875,-2.4609375,-18.75390625,1.2890625,1.0
4465737,,,,,,,,-0.5,-12.37109375,-2.4765625,-0.298828125,0.240234375,-0.125,-0.890625,-21.0859375,1.3671875,1.0
4465738,,,,,,,,-0.1015625,-12.70703125,-2.109375,-0.4921875,-1.19140625,-0.6171875,-0.46875,-21.4296875,1.7109375,1.0
4465739,,,,,,,,2.65234375,-11.44921875,1.68359375,-0.12890625,-4.05078125,-1.626953125,2.59765625,-20.203125,5.46484375,1.0
4465740,36.01296216666666,129.31998316666667,124.69099584443663,62.37846862890491,3.3000000000000003,230.0,,3.6953125,-6.68359375,-1.43359375,1.220703125,0.501953125,2.96875,-5.21875,-11.3203125,5.6171875,1.0
4465741,,,,,,,,4.80078125,-5.81640625,-3.25,-0.888671875,0.220703125,-3.32421875,5.39453125,-14.609375,0.4453125,1.0
4465742,,,,,,,,4.9609375,-5.21875,-2.84765625,-1.201171875,0.48046875,-2.689453125,5.8125,-14.04296875,0.75390625,1.0
4465743,,,,,,,,4.71484375,-4.62890625,-2.3359375,-1.26953125,0.173828125,-2.423828125,5.66015625,-13.4609375,1.2109375,1.0
4465744,,,,,,,,3.6015625,-1.76171875,-1.52734375,-1.310546875,-0.662109375,-2.39453125,4.78125,-10.62890625,1.90234375,1.0
4465745,,,,,,,,2.8125,0.98046875,-2.75,-1.4453125,-0.39453125,-2.71484375,4.359375,-7.91015625,0.484375,1.0
4465746,,,,,,,,2.73046875,4.015625,-3.99609375,-1.466796875,0.298828125,-2.37109375,4.51171875,-4.88671875,-0.89453125,1.0
4465747,,,,,,,,2.89453125,8.828125,-3.01171875,-1.33984375,0.4375,-1.8359375,4.9296875,-0.09375,-0.08984375,1.0
4465748,,,,,,,,2.5390625,9.70703125,-2.453125,-1.251953125,0.3046875,-1.77734375,4.66796875,0.78515625,0.40625,1.0
4465749,,,,,,,,1.5859375,11.73828125,-2.08984375,-1.0859375,0.126953125,-1.802734375,3.86328125,2.81640625,0.67578125,1.0
4465750,36.012960666666665,129.31998033333332,124.43557623053051,62.212026145581724,3.4000000000000004,232.0,,0.640625,12.78515625,-2.453125,-0.85546875,0.458984375,-1.833984375,3.171875,3.88671875,0.1796875,1.0
4465751,,,,,,,,0.1796875,11.890625,-3.3671875,-0.650390625,0.578125,-1.3125,2.828125,3.0078125,-0.78125,1.0
4465752,,,,,,,,0.390625,11.30859375,-3.6875,-0.57421875,0.505859375,-0.982421875,3.09375,2.43359375,-1.125,1.0
4465753,,,,,,,,1.5234375,9.5,-4.4453125,-0.591796875,0.26171875,-0.533203125,4.28515625,0.6328125,-1.9296875,1.0
4465754,,,,,,,,2.203125,8.359375,-4.7421875,-0.5703125,0.0078125,-0.478515625,5.0078125,-0.515625,-2.2734375,1.0
4465755,,,,,,,,2.50390625,7.31640625,-4.57421875,-0.4921875,-0.1796875,-0.587890625,5.35546875,-1.55078125,-2.16015625,1.0
4465756,,,,,,,,1.734375,6.6171875,-3.7890625,-0.466796875,-0.248046875,-0.705078125,4.6640625,-2.2421875,-1.4296875,1.0
4465757,,,,,,,,-1.046875,6.7578125,-1.484375,-0.326171875,-0.109375,-0.66796875,1.9453125,-2.0859375,0.828125,1.0
4465758,,,,,,,,-5.8515625,8.6953125,4.640625,-0.232421875,0.146484375,-0.294921875,-2.8046875,-0.1328125,6.921875,1.0
4465759,,,,,,,,-6.625,9.4609375,5.22265625,-0.224609375,0.279296875,0.013671875,-3.5703125,0.6328125,7.49609375,1.0
4465760,36.012958499999996,129.31997733333336,124.16513283507574,61.97161063162911,3.6,231.0,,-6.02734375,11.63671875,2.6328125,-0.85546875,0.458984375,-1.833984375,3.171875,3.88671875,0.1796875,1.0
4465761,,,,,,,,-3.171875,13.1796875,-0.5703125,-0.55078125,0.05078125,2.201171875,-0.46875,4.23828125,1.6328125,1.0
4465762,,,,,,,,-2.01171875,12.92578125,-1.3125,-0.6328125,-0.49609375,1.400390625,0.52734375,3.921875,0.828125,1.0
4465763,,,,,,,,-1.87890625,7.51171875,-0.26953125,-0.603515625,-1.15625,0.1875,0.60546875,-1.51171875,1.78515625,1.0
4465764,,,,,,,,-2.953125,-3.4453125,3.79296875,-0.431640625,-1.421875,-0.30078125,-0.4296875,-12.46875,5.76953125,1.0
4465765,,,,,,,,-5.796875,-41.99609375,17.578125,-0.259765625,-1.2734375,-0.060546875,-3.2265625,-51.00390625,19.484375,1.0
4465766,,,,,,,,-4.08203125,-51.796875,16.453125,-0.216796875,-1.046875,0.185546875,-1.50390625,-60.81640625,18.3359375,1.0
4465767,,,,,,,,-7.8203125,-52.671875,15.6484375,-0.2265625,-0.1953125,0.388671875,-5.2578125,-61.69921875,17.4921875,1.0
4465768,,,,,,,,0.33984375,-9.47265625,7.60546875,-0.2421875,1.1328125,0.30859375,2.86328125,-18.51953125,9.44921875,1.0
4465769,,,,,,,,7.796875,-4.6484375,-4.66796875,-0.2734375,2.685546875,-0.822265625,10.296875,-13.69921875,-2.80859375,1.0
4465770,36.01295616666666,129.31997433333333,123.8946896815728,61.71270191680493,3.7,228.0,,10.4453125,-10.1875,-1.55859375,-0.85546875,0.458984375,-1.833984375,13.015625,-19.2109375,0.37109375,1.0
4465771,,,,,,,,4.9375,-14.6015625,3.3046875,-0.0703125,-0.642578125,0.701171875,7.5,-23.62109375,5.2734375,1.0
4465772,,,,,,,,3.703125,-14.6171875,3.91796875,-0.044921875,-4.248046875,0.392578125,6.2734375,-23.66015625,5.80859375,1.0
4465773,,,,,,,,2.8828125,-13.6875,3.6953125,0.392578125,-3.98828125,0.734375,5.46875,-22.734375,5.5390625,1.0
4465774,,,,,,,,0.83203125,-11.57421875,2.87109375,0.365234375,-0.744140625,2.4375,3.32421875,-20.66796875,4.69921875,1.0
4465775,,,,,,,,-2.06640625,-5.80078125,0.5546875,0.783203125,1.775390625,3.365234375,0.14453125,-14.95703125,2.4375,1.0
4465776,,,,,,,,-2.6171875,-3.03515625,-0.765625,0.94921875,0.65625,2.85546875,-0.890625,-12.27734375,1.2890625,1.0
4465777,,,,,,,,-5.2890625,-0.5078125,-2.578125,1.36328125,-0.16015625,2.837890625,-3.953125,-9.79296875,-0.359375,1.0
4465778,,,,,,,,-7.1953125,0.95703125,-2.41796875,1.48828125,-0.150390625,2.955078125,-5.984375,-8.33203125,-0.12890625,1.0
4465779,,,,,,,,-7.52734375,2.87890625,-1.37890625,1.6328125,-0.033203125,3.095703125,-6.59375,-6.41796875,1.05859375,1.0
4465780,36.0129545,129.31997199999998,123.6843447620765,61.52776688484072,3.4000000000000004,228.0,,-6.9609375,4.7109375,-0.80078125,-0.85546875,0.458984375,-1.833984375,-6.328125,-4.578125,1.78515625,1.0
4465781,,,,,,,,-5.453125,8.3125,-2.58984375,1.40234375,0.634765625,3.103515625,-5.30078125,-0.9375,0.21484375,1.0
4465782,,,,,,,,-3.5859375,12.31640625,-2.875,0.861328125,0.41796875,2.52734375,-3.9921875,3.12109375,0.140625,1.0
4465783,,,,,,,,-2.69921875,13.7734375,-2.83984375,0.759765625,-0.05078125,2.173828125,-3.33984375,4.62109375,0.25390625,1.0
4465784,,,,,,,,-2.17578125,12.546875,-3.8671875,0.66015625,-0.1484375,1.880859375,-2.99609375,3.43359375,-0.703125,1.0
4465785,,,,,,,,-2.1328125,9.90234375,-3.96875,0.392578125,0.22265625,1.34765625,-3.1875,0.82421875,-0.7421875,1.0
4465786,,,,,,,,-2.4609375,8.8515625,-2.98828125,0.349609375,0.265625,1.08203125,-3.57421875,-0.2109375,0.25390625,1.0
4465787,,,,,,,,-2.40625,7.6796875,-2.29296875,0.34375,0.26953125,0.65234375,-3.61328125,-1.359375,0.98046875,1.0
4465788,,,,,,,,-1.875,5.703125,-2.23828125,0.3359375,0.27734375,0.5625,-3.1484375,-3.3125,1.05859375,1.0
4465789,,,,,,,,-0.3203125,5.609375,-2.26171875,0.279296875,0.478515625,0.58203125,-1.65625,-3.390625,1.05859375,1.0
4465790,36.01295233333334,129.31996916666668,123.42892614837628,61.287351604768915,3.5,227.0,,0.78515625,6.58984375,-1.92578125,0.1640625,0.64453125,0.333984375,-0.62109375,-2.39453125,1.40234375,1.0
4465791,,,,,,,,1.66796875,7.6875,-1.359375,0.1328125,0.525390625,-0.033203125,0.64453125,-0.515625,2.1328125,1.0
4465792,,,,,,,,2.43359375,9.1796875,-1.2421875,0.16015625,0.416015625,-0.205078125,0.98828125,0.2109375,2.09765625,1.0
4465793,,,,,,,,2.38671875,10.7734375,-1.34375,0.291015625,0.16015625,-0.400390625,0.94921875,1.8203125,2.01953125,1.0
4465794,,,,,,,,0.8984375,12.10546875,-2.8203125,0.458984375,-0.16015625,-0.484375,-0.5078125,3.15625,0.5625,1.0
4465795,,,,,,,,0.26171875,12.12109375,-3.3359375,0.544921875,-0.521484375,-0.546875,-1.08203125,3.19921875,0.1015625,1.0
4465796,,,,,,,,-0.02734375,11.38671875,-3.3203125,0.5546875,-0.7109375,-0.51171875,-1.34765625,2.46875,0.140625,1.0
4465797,,,,,,,,-0.28125,10.2890625,-2.49609375,0.54296875,-1.017578125,-0.107421875,-1.54296875,1.3984375,1.01953125,1.0
4465798,,,,,,,,-1.42578125,7.0078125,1.1953125,0.54296875,-1.119140625,0.177734375,-2.65234375,-1.859375,4.77734375,1.0
4465799,,,,,,,,-1.2734375,5.65234375,1.78515625,0.51953125,-1.060546875,0.146484375,-2.5,-3.19921875,5.3828125,1.0
4465800,36.01295066666667,129.319966,123.14345708883457,61.102415530333,3.5,230.0,0.0,4.59765625,-7.05859375,-1.44921875,0.1640625,0.64453125,0.333984375,3.40234375,-15.875,2.20703125,1.0
4465801,,,,,,,,11.4140625,-24.97265625,3.66796875,0.46875,-0.376953125,-0.388671875,10.2578125,-33.765625,7.37890625,1.0
4465802,,,,,,,,14.9140625,-36.5859375,8.94140625,0.44921875,-0.212890625,-0.46484375,13.78125,-45.375,12.66796875,1.0
4465803,,,,,,,,3.7890625,-38.2109375,23.6953125,0.353515625,-0.001953125,-0.849609375,2.7109375,-46.98828125,27.453125,1.0
4465804,,,,,,,,-1.2265625,-7.3359375,0.50390625,0.267578125,0.421875,-1.125,-2.1171875,-16.109375,4.31640625,1.0
4465805,,,,,,,,-0.91015625,-10.28515625,-1.94140625,0.408203125,1.03515625,0.16796875,-1.80859375,-19.0546875,1.90234375,1.0
4465806,,,,,,,,0.0625,-12.4375,-1.11328125,0.05859375,0.4375,-0.419921875,-0.8515625,-21.20703125,2.74609375,1.0
4465807,,,,,,,,2.65625,-14.24609375,1.30078125,-0.65625,-3.236328125,-1.537109375,1.90625,-23.0390625,5.12109375,1.0
4465808,,,,,,,,3.8984375,-12.05859375,0.87109375,-0.193359375,-2.20703125,-2.1953125,3.5546875,-20.890625,4.69921875,1.0
4465809,,,,,,,,4.79296875,-9.8984375,0.1953125,-0.44140625,-1.09375,-2.40234375,4.58984375,-18.75,4.0078125,1.0
4465810,36.012949166666665,129.3199635,122.91808705906806,60.935973511776076,3.2,231.0,,4.640625,-8.2890625,-0.96875,-0.75,0.263671875,-2.568359375,4.6640625,-17.18359375,2.78125,1.0
4465811,,,,,,,,3.84765625,-5.046875,-1.6328125,-0.884765625,0.328125,-2.470703125,4.08984375,-13.9609375,2.0546875,1.0
4465812,,,,,,,,3.3671875,-4.01171875,-1.66015625,-1.09765625,0.0390625,-2.59765625,3.8203125,-12.9609375,1.94140625,1.0
4465813,,,,,,,,3.00390625,-1.140625,-1.67578125,-1.28125,-0.166015625,-2.642578125,3.70703125,-10.1328125,1.82421875,1.0
4465814,,,,,,,,2.92578125,-0.39453125,-1.8046875,-1.373046875,-0.185546875,-2.580078125,3.74609375,-9.3984375,1.6328125,1.0
4465815,,,,,,,,2.65625,3.3671875,-2.4453125,-1.49609375,0.115234375,-2.306640625,3.8203125,-5.6875,0.7890625,1.0
4465816,,,,,,,,2.74609375,6.77734375,-2.8671875,-1.35546875,0.328125,-2.19140625,4.20703125,-2.31640625,0.1796875,1.0
4465817,,,,,,,,2.7265625,7.625,-2.9609375,-1.296875,0.322265625,-2.15625,4.28515625,-1.4765625,0.0234375,1.0
4465818,,,,,,,,2.39453125,9.0078125,-3.08984375,-1.16015625,0.279296875,-2.013671875,4.12890625,-0.09375,-0.20703125,1.0
4465819,,,,,,,,1.765625,10.9296875,-3.5703125,-1.091796875,0.232421875,-1.931640625,3.59765625,1.8203125,-0.7421875,1.0
4465820,36.01294733333334,129.31996116666667,122.70774236358972,60.73254529752094,3.3000000000000003,230.0,,0.91015625,11.91796875,-4.2109375,-0.865234375,0.099609375,-1.56640625,2.98046875,2.81640625,-1.5078125,1.0
4465821,,,,,,,,0.5546875,11.984375,-4.40234375,-0.712890625,0.072265625,-1.3203125,2.75,2.89453125,-1.77734375,1.0
4465822,,,,,,,,1.21875,11.02734375,-4.71484375,-0.646484375,0.087890625,-1.1953125,3.4765625,1.93359375,-2.12109375,1.0
4465823,,,,,,,,2.34375,10.0078125,-4.62890625,-0.5625,0.037109375,-0.861328125,4.7421875,0.9375,-2.12109375,1.0
4465824,,,,,,,,3.03125,9.12890625,-4.71875,-0.552734375,0.029296875,-0.73828125,5.47265625,0.05859375,-2.234375,1.0
4465825,,,,,,,,2.86328125,8.32421875,-4.16796875,-0.505859375,0.041015625,-0.474609375,5.3515625,-0.74609375,-1.73828125,1.0
4465826,,,,,,,,-0.265625,7.25,-0.2734375,-0.408203125,0.19140625,-0.375,2.2890625,-1.8203125,2.09375,1.0
4465827,,,,,,,,-2.5625,7.47265625,2.34765625,-0.2890625,0.390625,-0.35546875,0.03125,-1.58984375,4.6953125,1.0
4465828,,,,,,,,-4.48828125,9.11328125,2.75390625,-0.287109375,0.564453125,-0.03125,-1.88671875,0.05859375,5.08203125,1.0
4465829,,,,,,,,-4.546875,9.84765625,2.0703125,-0.35546875,0.572265625,0.279296875,-1.9609375,0.78515625,4.390625,1.0
4465830,36.012944833333336,129.3199585,122.46734903765014,60.455143840745905,3.5,226.0,,-3.91796875,12.16015625,-0.6171875,-0.51953125,0.3515625,0.912109375,2.98046875,2.81640625,-1.5078125,1.0
4465831,,,,,,,,-2.5234375,13.12109375,-1.98828125,-0.650390625,-0.177734375,1.03125,-0.0859375,4.0,0.25390625,1.0
4465832,,,,,,,,-1.87890625,13.10546875,-1.984375,-0.671875,-0.86328125,0.724609375,0.48828125,3.96484375,0.1796875,1.0
4465833,,,,,,,,-2.0078125,10.8984375,-0.7109375,-0.556640625,-1.34375,0.43359375,0.3359375,1.7421875,1.3671875,1.0
4465834,,,,,,,,-2.66015625,3.859375,0.74609375,-0.35546875,-1.21875,0.283203125,-0.31640625,-5.30859375,2.70703125,1.0
4465835,,,,,,,,-5.546875,-34.08984375,15.9921875,-0.203125,-0.625,0.470703125,-3.2265625,-43.26953125,17.875,1.0
4465836,,,,,,,,-11.140625,-47.87109375,12.953125,-0.17578125,-0.041015625,0.4765625,-8.859375,-57.0546875,14.8125,1.0
4465837,,,,,,,,-9.828125,-18.359375,15.6328125,-0.271484375,0.658203125,0.37890625,-7.59375,-27.56640625,17.4921875,1.0
4465838,,,,,,,,2.33984375,-5.59375,1.4765625,-0.53125,1.392578125,-0.484375,4.55078125,-14.80859375,3.3203125,1.0
4465839,,,,,,,,13.4765625,-8.875,-2.953125,-0.408203125,1.537109375,-1.908203125,15.7734375,-18.0625,-1.125,1.0
4465840,36.01294233333333,129.31995550000002,122.19690604415331,60.177741972610114,3.7,224.0,,14.50390625,-12.14453125,4.859375,-0.51953125,0.3515625,0.912109375,16.88671875,-21.3125,6.7265625,1.0
4465841,,,,,,,,5.41796875,-17.21875,6.66015625,0.015625,-2.458984375,0.884765625,7.73046875,-26.4140625,8.52734375,1.0
4465842,,,,,,,,3.38671875,-14.52734375,4.3046875,0.318359375,-3.390625,-0.32421875,5.73828125,-23.7265625,6.1171875,1.0
4465843,,,,,,,,2.3203125,-12.3125,2.94140625,0.392578125,-2.240234375,0.099609375,4.703125,-21.5078125,4.73828125,1.0
4465844,,,,,,,,0.62890625,-8.13671875,0.35546875,0.30078125,1.107421875,2.59375,2.90234375,-17.37109375,2.16796875,1.0
4465845,,,,,,,,-3.0546875,-4.6328125,0.03125,0.79296875,0.96484375,3.431640625,-1.2734375,-13.96484375,1.9765625,1.0
4465846,,,,,,,,-3.46875,-2.87109375,0.11328125,1.205078125,-0.24609375,2.900390625,-2.0,-12.23828125,2.16796875,1.0
4465847,,,,,,,,-4.60546875,-0.6328125,-0.953125,1.40625,-0.453125,2.9765625,-3.37890625,-10.015625,1.2109375,1.0
4465848,,,,,,,,-5.33984375,0.53125,-1.375,1.51171875,-0.28515625,3.212890625,-4.26171875,-8.87109375,0.8671875,1.0
4465849,,,,,,,,-6.54296875,4.31640625,-1.109375,1.69140625,0.1328125,3.544921875,-5.79296875,-5.07421875,1.2890625,1.0
4465850,36.0129405,129.3199531666667,121.98656131367551,59.97431377556522,3.4000000000000004,225.0,,14.50390625,-12.14453125,4.859375,1.642578125,0.345703125,3.49609375,-5.5234375,-1.78125,1.13671875,1.0
4465851,,,,,,,,-4.98828125,8.47265625,-2.57421875,1.265625,0.673828125,2.453125,-4.83984375,0.59375,0.1796875,1.0
4465852,,,,,,,,-4.375,9.859375,-2.796875,0.9765625,0.76953125,1.96875,-4.6796875,1.3203125,0.40625,1.0
4465853,,,,,,,,-3.6640625,11.55078125,-1.88671875,0.75,0.5625,1.669921875,-3.875,2.81640625,0.98046875,1.0
4465854,,,,,,,,-3.12109375,12.03515625,-2.12109375,0.642578125,0.41015625,1.634765625,-3.15234375,2.69921875,0.140625,1.0
4465855,,,,,,,,-1.75390625,11.26953125,-3.5546875,0.521484375,0.22265625,1.732421875,-2.23046875,1.4765625,-0.89453125,1.0
4465856,,,,,,,,-0.75390625,9.08984375,-4.44140625,0.47265625,0.166015625,1.759765625,-1.765625,-0.86328125,-1.0859375,1.0
4465857,,,,,,,,-0.58984375,8.26953125,-4.3125,0.46484375,0.13671875,1.611328125,-1.76953125,-1.4765625,-0.85546875,1.0
4465858,,,,,,,,-0.39453125,7.19921875,-3.82421875,0.4453125,-0.03515625,0.943359375,-1.76953125,-1.9296875,0.0234375,1.0
4465859,,,,,,,,-0.37890625,7.14453125,-3.2734375,0.44921875,-0.10546875,0.591796875,-1.6953125,-1.86328125,0.4453125,1.0
4465860,36.01293833333333,129.31995066666664,121.76119225322932,59.733898960225474,3.3000000000000003,224.0,,14.50390625,-12.14453125,4.859375,0.435546875,0.001953125,0.06640625,-1.6171875,-1.12890625,1.8203125,1.0
4465861,,,,,,,,0.15625,8.8515625,-1.296875,0.333984375,0.2578125,-0.064453125,-0.8125,0.671875,1.78515625,1.0
4465862,,,,,,,,0.85546875,10.16796875,-1.796875,0.2734375,0.296875,-0.201171875,-0.390625,1.8203125,1.51953125,1.0
4465863,,,,,,,,1.0859375,10.8125,-1.91796875,0.33984375,0.16015625,-0.3203125,-0.3515625,2.55078125,1.6328125,1.0
4465864,,,,,,,,1.54296875,12.015625,-1.62109375,0.4296875,-0.232421875,-0.57421875,0.10546875,3.046875,1.86328125,1.0
4465865,,,,,,,,1.12890625,11.1875,-2.16015625,0.4375,-0.81640625,-0.6875,-0.19921875,2.24609375,1.40234375,1.0
4465866,,,,,,,,-0.11328125,9.25390625,-1.23828125,0.341796875,-1.0625,-0.587890625,-1.34765625,0.32421875,2.36328125,1.0
4465867,,,,,,,,-0.77734375,8.62890625,-0.29296875,0.234375,-1.125,-0.34375,-3.3046875,-2.01171875,6.08203125,1.0
4465868,,,,,,,,-2.1875,6.89453125,2.4140625,0.234375,-1.02734375,-0.255859375,-3.45703125,-3.50390625,6.12109375,1.0
4465869,,,,,,,,-2.25,3.27734375,1.2421875,0.228515625,-0.630859375,-0.234375,-2.765625,-8.5625,3.39453125,1.0
4465870,36.01293616666667,129.3199475,121.47572387984299,59.49348332072057,3.6,227.0,,14.50390625,-12.14453125,4.859375,0.1953125,-0.08203125,-0.4296875,-1.6171875,-1.12890625,1.8203125,1.0
4465871,,,,,,,,5.94921875,-30.42578125,4.75,0.171875,0.34765625,-0.876953125,16.1953125,-63.15234375,21.9765625,1.0
4465872,,,,,,,,15.875,-55.36328125,20.6015625,0.162109375,0.6171875,-1.62890625,6.390625,-30.01171875,14.3515625,1.0
4465873,,,,,,,,7.25,-21.14453125,10.6015625,0.240234375,0.865234375,-1.974609375,4.08984375,-23.421875,7.72265625,1.0
4465874,,,,,,,,2.6640625,-10.48828125,1.73828125,0.25,1.55078125,-1.70703125,-0.16015625,-16.98828125,4.16015625,1.0
4465875,,,,,,,,-0.9921875,-7.8828125,-1.19140625,-0.08203125,1.576171875,-1.115234375,-1.2734375,-18.1015625,1.78515625,1.0
4465876,,,,,,,,1.640625,-11.78515625,-1.91015625,-0.203125,-0.09765625,-1.259765625,1.75390625,-20.78125,2.515625,1.0
4465877,,,,,,,,3.28125,-12.06640625,-0.35546875,-0.5625,-3.615234375,-1.744140625,4.3203125,-21.2421875,5.578125,1.0
4465878,,,,,,,,4.6484375,-12.3203125,1.8515625,-0.3671875,-4.146484375,-1.6796875,4.55078125,-20.93359375,6.57421875,1.0
4465879,,,,,,,,4.265625,-11.03125,3.21875,-0.62109375,-2.6484375,-2.189453125,3.8984375,-18.83203125,6.421875,1.0
4465880,36.0129345,129.3199445,121.20527954977439,59.30854751813008,3.5,229.0,,3.39453125,-7.90625,0.24609375,-1.013671875,0.0078125,-2.76953125,3.8203125,-16.18359375,2.8203125,1.0
4465881,,,,,,,,3.3984375,-5.78125,-2.25,-1.322265625,0.75,-2.4296875,4.015625,-14.80859375,1.25,1.0
4465882,,,,,,,,3.046875,-5.16796875,-1.98046875,-1.42578125,0.115234375,-2.212890625,3.859375,-14.2265625,1.40234375,1.0
4465883,,,,,,,,2.5703125,-2.4921875,-0.88671875,-1.505859375,-0.447265625,-2.390625,3.59375,-11.5859375,2.36328125,1.0
4465884,,,,,,,,2.40625,-1.40625,-0.703125,-1.53125,-0.40234375,-2.5,3.5546875,-10.51953125,2.4765625,1.0
4465885,,,,,,,,2.046875,1.8359375,-1.16796875,-1.548828125,0.119140625,-2.533203125,3.4375,-7.296875,1.86328125,1.0
4465886,,,,,,,,1.86328125,3.03125,-1.41015625,-1.517578125,0.388671875,-2.431640625,3.36328125,-6.11328125,1.55859375,1.0
4465887,,,,,,,,1.51171875,7.15234375,-1.37890625,-1.40625,0.7265625,-1.87109375,3.28515625,-2.01171875,1.40234375,1.0
4465888,,,,,,,,1.47265625,9.796875,-1.58984375,-1.3515625,0.65234375,-1.75,3.32421875,0.6328125,1.13671875,1.0
4465889,,,,,,,,1.17578125,12.29296875,-2.99609375,-1.09765625,0.201171875,-1.630859375,3.24609375,3.12109375,-0.43359375,1.0
4465890,36.012932666666664,129.3199415,120.93483546585367,59.10511851687145,3.5,232.0,,0.4609375,13.3203125,-3.1796875,-0.857421875,-0.046875,-1.533203125,2.75,4.16015625,-0.7421875,1.0
4465891,,,,,,,,0.93359375,12.23046875,-3.484375,-0.720703125,-0.267578125,-1.255859375,3.36328125,3.08203125,-1.125,1.0
4465892,,,,,,,,2.5546875,9.8046875,-3.8359375,-0.5390625,-0.44140625,-0.88671875,5.0859375,0.671875,-1.546875,1.0
4465893,,,,,,,,3.03515625,9.07421875,-3.92578125,-0.49609375,-0.46484375,-0.810546875,5.62109375,-0.05859375,-1.66015625,1.0
4465894,,,,,,,,3.48828125,7.8359375,-3.98046875,-0.490234375,-0.462890625,-0.8828125,6.15625,-1.28125,-1.77734375,1.0
4465895,,,,,,,,2.45703125,7.625,-3.53515625,-0.482421875,-0.462890625,-1.017578125,5.23828125,-1.4765625,-1.39453125,1.0
4465896,,,,,,,,0.2890625,8.5546875,-2.22265625,-0.4921875,-0.365234375,-1.0703125,3.171875,-0.515625,-0.12890625,1.0
4465897,,,,,,,,-1.18359375,9.40234375,-1.41015625,-0.4765625,0.0625,-0.626953125,1.83203125,0.36328125,0.59765625,1.0
4465898,,,,,,,,-2.40234375,10.3515625,-0.81640625,-0.4609375,0.1953125,-0.33984375,0.64453125,1.32421875,1.17578125,1.0
4465899,,,,,,,,-5.5,12.12109375,2.515625,-0.41796875,0.29296875,0.37890625,-2.4609375,3.08203125,4.46875,1.0
4465900,36.0129305,129.31993866666664,120.6794167014817,58.86470331697908,3.5,230.0,0.0,-7.23828125,13.02734375,3.54296875,-0.390625,0.189453125,1.142578125,-4.26171875,3.96484375,5.46484375,1.0
4465901,,,,,,,,-7.01953125,13.06640625,2.1171875,-0.41796875,-0.052734375,1.76171875,-4.1796875,3.96484375,4.0078125,1.0
4465902,,,,,,,,-5.77734375,12.00390625,1.015625,-0.455078125,-0.33203125,2.203125,-3.109375,2.85546875,2.859375,1.0
4465903,,,,,,,,-4.31640625,9.5,1.1484375,-0.3984375,-0.513671875,2.142578125,-1.84765625,0.2890625,2.94140625,1.0
4465904,,,,,,,,-4.05859375,2.98046875,2.08203125,-0.40234375,-0.79296875,1.259765625,-1.73046875,-6.2578125,3.81640625,1.0
4465905,,,,,,,,-2.3046875,-23.0078125,11.33203125,-0.310546875,-0.931640625,0.572265625,-0.046875,-32.2734375,13.01171875,1.0
4465906,,,,,,,,-6.34375,-55.80078125,21.59765625,-0.18359375,-0.662109375,0.271484375,-4.109375,-65.06640625,23.23828125,1.0
4465907,,,,,,,,-9.16796875,-34.453125,15.4140625,-0.16015625,0.03125,-0.00390625,-6.94140625,-43.73046875,17.03125,1.0
4465908,,,,,,,,0.4765625,-7.70703125,0.16796875,-0.216796875,1.2265625,-0.380859375,2.7109375,-16.98828125,1.78515625,1.0
4465909,,,,,,,,5.43359375,-2.859375,-4.81640625,-0.71875,2.890625,-1.853515625,7.73046875,-12.125,-3.19140625,1.0
4465910,36.01292816666667,129.3199355,120.3939485235916,58.605794505631565,3.7,228.0,,13.23828125,-6.359375,1.96875,0.357421875,1.626953125,-0.017578125,15.6953125,-15.5703125,3.6640625,1.0
4465911,,,,,,,,3.30859375,-14.48828125,5.8515625,0.17578125,-2.529296875,1.6171875,5.66015625,-23.7265625,7.5703125,1.0
4465912,,,,,,,,1.88671875,-15.59375,6.57421875,0.158203125,-3.994140625,1.0234375,4.20703125,-24.84765625,8.26171875,1.0
4465913,,,,,,,,1.40234375,-13.30078125,4.65234375,0.14453125,-3.521484375,1.30859375,3.70703125,-22.58203125,6.26953125,1.0
4465914,,,,,,,,1.04296875,-11.1015625,2.98828125,0.0859375,-2.1171875,2.39453125,3.28515625,-20.40234375,4.58203125,1.0
4465915,,,,,,,,-2.1328125,-3.55859375,0.3671875,0.6953125,1.974609375,3.82421875,-0.390625,-12.9609375,2.015625,1.0
4465916,,,,,,,,-3.93359375,-2.36328125,0.09765625,1.060546875,1.435546875,2.931640625,-2.53515625,-11.8125,1.86328125,1.0
4465917,,,,,,,,-5.60546875,0.1015625,0.27734375,1.671875,-0.31640625,2.1875,-4.56640625,-9.37109375,2.24609375,1.0
4465918,,,,,,,,-6.1484375,1.05078125,0.09765625,1.8125,-0.51953125,2.42578125,-5.21875,-8.40625,2.16796875,1.0
4465919,,,,,,,,-6.5234375,3.44921875,-1.35546875,1.904296875,-0.1171875,3.009765625,-5.984375,-5.9921875,0.98046875,1.0
4465920,36.01292633333333,129.31993283333335,120.15355405477524,58.40236594003661,3.4000000000000004,228.0,,-6.4765625,5.38671875,-2.50390625,1.89453125,0.119140625,3.0,-6.0625,-4.04296875,-0.08984375,1.0
4465921,,,,,,,,-5.95703125,7.28125,-3.10546875,1.6875,0.470703125,2.845703125,-5.83203125,-2.125,-0.51171875,1.0
4465922,,,,,,,,-5.03125,10.0,-2.02734375,1.36328125,0.505859375,2.705078125,-5.18359375,0.6328125,0.71484375,1.0
4465923,,,,,,,,-3.6953125,10.83984375,-1.5234375,1.056640625,0.3828125,2.591796875,-4.11328125,1.51171875,1.328125,1.0
4465924,,,,,,,,-2.14453125,12.08984375,-1.41796875,0.720703125,0.46875,2.2578125,-2.91796875,2.81640625,1.55859375,1.0
4465925,,,,,,,,-1.0,11.32421875,-2.9375,0.576171875,0.66796875,1.962890625,-2.0,2.0859375,0.1015625,1.0
4465926,,,,,,,,-0.7109375,10.46484375,-3.57421875,0.4921875,0.6171875,1.171875,-1.9609375,1.28515625,-0.47265625,1.0
4465927,,,,,,,,-1.453125,8.5546875,-3.3828125,0.5234375,0.33984375,0.7265625,-2.8046875,-0.59375,-0.2421875,1.0
4465928,,,,,,,,-1.7578125,8.04296875,-3.17578125,0.51171875,0.19140625,0.548828125,-3.15234375,-1.08984375,-0.01171875,1.0
4465929,,,,,,,,-2.21875,7.05859375,-2.22265625,0.421875,-0.015625,0.138671875,-3.65234375,-2.05078125,0.98046875,1.0
4465930,36.01292416666667,129.31993016666667,119.91316007772292,58.16195096926727,3.5,227.0,,-1.7578125,7.41796875,-1.5546875,0.37109375,0.13671875,-0.19921875,-3.1875,-1.66796875,1.7109375,1.0
4465931,,,,,,,,-0.39453125,8.4375,-1.38671875,0.3203125,0.302734375,-0.1875,-1.80859375,-0.6328125,1.90234375,1.0
4465932,,,,,,,,0.5625,9.38671875,-1.51953125,0.296875,0.361328125,-0.19140625,-0.8515625,0.32421875,1.78515625,1.0
4465933,,,,,,,,1.55859375,10.453125,-1.9609375,0.2890625,0.3515625,-0.341796875,0.14453125,1.3984375,1.3671875,1.0
4465934,,,,,,,,2.515625,11.9296875,-3.25,0.3671875,0.13671875,-0.552734375,1.140625,2.89453125,0.1015625,1.0
4465935,,,,,,,,2.99609375,12.40625,-4.1953125,0.533203125,-0.39453125,-0.896484375,1.71484375,3.390625,-0.78125,1.0
4465936,,,,,,,,2.7890625,11.70703125,-4.25390625,0.56640625,-0.548828125,-1.025390625,1.5625,2.6953125,-0.81640625,1.0
4465937,,,,,,,,0.83203125,8.859375,-2.7109375,0.548828125,-0.802734375,-1.19921875,-0.27734375,-0.1328125,0.79296875,1.0
4465938,,,,,,,,-2.48046875,5.73828125,1.71875,0.505859375,-0.88671875,-1.185546875,-3.45703125,-3.23828125,5.27734375,1.0
4465939,,,,,,,,-3.73828125,3.81640625,2.99609375,0.484375,-0.837890625,-1.05078125,-4.64453125,-5.15234375,6.57421875,1.0
4465940,36.012922333333336,129.31992683333334,119.61266627006928,57.958521598520115,3.6,231.0,,1.4921875,-14.5859375,5.70703125,0.4609375,-0.58203125,-0.66796875,0.6796875,-23.54296875,9.33203125,1.0
4465941,,,,,,,,12.08984375,-36.7890625,9.875,0.41015625,-0.177734375,-0.2734375,11.33203125,-45.71875,13.546875,1.0
4465942,,,,,,,,16.33203125,-50.91015625,16.1953125,0.33984375,0.33984375,-0.12890625,15.58203125,-59.81640625,19.90625,1.0
4465943,,,,,,,,6.82421875,-29.08203125,12.31640625,0.314453125,0.615234375,-0.50390625,6.08203125,-37.98046875,16.03515625,1.0
4465944,,,,,,,,-1.24609375,-7.78515625,3.1015625,0.318359375,1.359375,-1.751953125,-1.92578125,-16.68359375,6.84375,1.0
4465945,,,,,,,,-5.5,-5.74609375,0.18359375,-0.1875,2.361328125,-1.857421875,-6.0234375,-14.65234375,3.93359375,1.0
4465946,,,,,,,,0.4375,-13.55078125,-1.15625,-0.4765625,-2.71875,-0.603515625,0.03125,-22.50390625,2.515625,1.0
4465947,,,,,,,,2.23828125,-12.3046875,2.61328125,-0.19921875,-4.74609375,-1.490234375,2.05859375,-21.28125,6.26953125,1.0
4465948,,,,,,,,3.02734375,-8.7421875,1.73046875,-0.130859375,-4.197265625,-2.298828125,3.01953125,-17.72265625,5.38671875,1.0
4465949,,,,,,,,4.53125,-5.8046875,-1.69140625,-0.7109375,0.39453125,-3.5625,5.046875,-14.8046875,1.90234375,1.0
4465950,36.012920666666666,129.31992383333332,119.34222185091849,57.77358585310185,3.5,232.0,,5.27734375,-3.98046875,-1.890625,-1.12109375,1.076171875,-2.583984375,6.04296875,-13.0,1.6328125,1.0
4465951,,,,,,,,4.64453125,-2.83203125,-1.12109375,-1.23828125,-0.291015625,-2.294921875,5.69921875,-11.89453125,2.24609375,1.0
4465952,,,,,,,,3.9921875,-1.328125,-1.2890625,-1.27734375,-0.5703125,-2.451171875,5.1640625,-10.3984375,2.015625,1.0
4465953,,,,,,,,3.08984375,0.45703125,-2.19921875,-1.390625,-0.35546875,-2.595703125,4.51171875,-8.6328125,0.98046875,1.0
4465954,,,,,,,,2.78125,2.2578125,-3.62890625,-1.41796875,-0.09375,-2.486328125,4.3203125,-6.83984375,-0.51171875,1.0
4465955,,,,,,,,2.578125,5.8359375,-4.1171875,-1.33203125,0.3046875,-2.1171875,4.32421875,-3.2734375,-1.125,1.0
4465956,,,,,,,,2.29296875,7.21484375,-3.6015625,-1.255859375,0.36328125,-1.986328125,4.12890625,-1.89453125,-0.6640625,1.0
4465957,,,,,,,,2.04296875,9.44140625,-2.23828125,-1.091796875,0.31640625,-1.916015625,4.046875,0.32421875,0.59765625,1.0
4465958,,,,,,,,1.734375,10.5859375,-1.69921875,-1.0234375,0.28515625,-1.908203125,3.82421875,1.4765625,1.09765625,1.0
4465959,,,,,,,,0.90234375,12.859375,-2.578125,-0.912109375,0.5078125,-1.873046875,3.24609375,3.77734375,0.1015625,1.0
4465960,36.012918666666664,129.319921,119.08680275662417,57.55166390558117,3.4000000000000004,231.0,,0.265625,13.07421875,-3.3984375,-0.763671875,0.83203125,-1.630859375,2.75,4.00390625,-0.78125,1.0
4465961,,,,,,,,0.578125,12.015625,-3.95703125,-0.5703125,0.65625,-0.9375,3.2109375,2.96875,-1.39453125,1.0
4465962,,,,,,,,1.6953125,9.39453125,-4.59765625,-0.53515625,0.23828125,-0.66796875,4.3984375,0.36328125,-2.08203125,1.0
4465963,,,,,,,,2.375,7.6328125,-5.171875,-0.509765625,-0.064453125,-0.49609375,5.12890625,-1.3984375,-2.6953125,1.0
4465964,,,,,,,,2.01953125,6.484375,-5.23046875,-0.470703125,-0.20703125,-0.42578125,4.81640625,-2.546875,-2.80859375,1.0
4465965,,,,,,,,-0.5234375,5.85546875,-3.73046875,-0.44140625,-0.236328125,-0.447265625,2.328125,-3.15625,-1.35546875,1.0
4465966,,,,,,,,-1.6953125,5.96875,-2.94140625,-0.408203125,-0.193359375,-0.466796875,1.1796875,-3.046875,-0.58984375,1.0
4465967,,,,,,,,-6.26171875,6.61328125,3.65625,-0.37890625,0.025390625,-0.345703125,-3.33984375,-2.39453125,5.96484375,1.0
4465968,,,,,,,,-7.765625,8.60546875,4.484375,-0.404296875,0.322265625,0.158203125,-4.8359375,-0.40234375,6.765625,1.0
4465969,,,,,,,,-5.38671875,11.2109375,0.39453125,-0.59765625,0.58984375,1.40234375,-2.57421875,2.1640625,2.62890625,1.0
4465970,36.01291633333334,129.319918,118.81635931913837,57.2927553515681,3.6,229.0,,-2.3046875,13.28125,-2.046875,-0.763671875,0.83203125,-1.630859375,0.2578125,4.15625,0.1015625,1.0
4465971,,,,,,,,-0.68359375,12.78515625,-1.625,-0.765625,-0.8203125,0.4609375,1.79296875,3.6171875,0.4453125,1.0
4465972,,,,,,,,0.39453125,7.53515625,-1.109375,-0.5703125,-1.666015625,-0.43359375,2.90234375,-1.62890625,0.8671875,1.0
4465973,,,,,,,,-0.3359375,-3.359375,3.390625,-0.306640625,-1.916015625,-0.552734375,2.25,-12.5078125,5.2734375,1.0
4465974,,,,,,,,-6.50390625,-39.61328125,19.734375,-0.125,-1.65234375,-0.29296875,-3.83984375,-48.74609375,21.5546875,1.0
4465975,,,,,,,,-7.4140625,-55.2890625,17.359375,-0.078125,-0.841796875,-0.087890625,-4.71875,-64.4140625,19.140625,1.0
4465976,,,,,,,,-8.96484375,-34.79296875,14.109375,-0.068359375,-0.193359375,-0.0546875,-6.25390625,-43.91796875,15.8828125,1.0
4465977,,,,,,,,-0.58203125,-10.1640625,5.98046875,-0.09765625,1.509765625,0.369140625,2.09765625,-19.2890625,7.76171875,1.0
4465978,,,,,,,,6.875,-4.515625,-4.9609375,-0.087890625,3.146484375,-0.087890625,9.4921875,-13.66015625,-3.1171875,1.0
4465979,,,,,,,,12.24609375,-8.125,-3.421875,-0.099609375,2.802734375,-0.728515625,14.85546875,-17.2578125,-1.5078125,1.0
4465980,36.01291416666666,129.31991516666668,118.56094044728384,57.05234021280175,3.5,228.0,,4.40234375,-14.27734375,4.390625,-0.763671875,0.83203125,-1.630859375,0.2578125,4.15625,0.1015625,1.0
4465981,,,,,,,,2.37109375,-13.86328125,4.03515625,0.107421875,-4.185546875,1.30859375,4.85546875,-23.04296875,5.92578125,1.0
4465982,,,,,,,,1.4375,-10.3203125,1.69140625,0.474609375,-4.259765625,1.42578125,3.8984375,-19.515625,3.55078125,1.0
4465983,,,,,,,,-0.1875,-7.28515625,0.6171875,0.51953125,0.9296875,3.580078125,1.984375,-16.5625,2.4765625,1.0
4465984,,,,,,,,-2.375,-4.99609375,-0.65625,0.8671875,1.93359375,3.677734375,-0.390625,-14.3046875,1.25,1.0
4465985,,,,,,,,-5.19921875,-0.234375,-1.84765625,1.1796875,0.015625,2.744140625,-3.83984375,-9.6328125,0.29296875,1.0
4465986,,,,,,,,-5.91015625,1.3515625,-2.38671875,1.603515625,-0.267578125,3.50390625,-4.98828125,-8.0625,-0.05078125,1.0
4465987,,,,,,,,-6.23828125,2.921875,-2.16015625,1.6640625,-0.0859375,3.583984375,-5.48828125,-6.49609375,0.25390625,1.0
4465988,,,,,,,,-5.515625,5.2421875,-1.81640625,1.640625,0.3125,3.603515625,-5.1015625,-4.15625,0.75390625,1.0
4465989,,,,,,,,-5.34375,6.18359375,-2.05078125,1.6015625,0.470703125,3.52734375,-5.1015625,-3.19921875,0.59765625,1.0
4465990,36.012912166666666,129.31991233333335,118.30552131134418,56.83041828965287,3.5,227.0,,-4.78125,8.91015625,-2.51171875,-0.763671875,0.83203125,-1.630859375,-4.87890625,-0.44140625,0.29296875,1.0
4465991,,,,,,,,-4.75,10.93359375,-1.91796875,1.3125,0.82421875,2.673828125,-5.140625,1.62890625,1.01953125,1.0
4465992,,,,,,,,-4.65625,12.09765625,-1.43359375,1.20703125,0.873046875,2.443359375,-5.1796875,2.81640625,1.55859375,1.0
4465993,,,,,,,,-3.55078125,13.3125,-3.19140625,0.873046875,0.537109375,2.052734375,-4.5234375,4.1171875,-0.01171875,1.0
4465994,,,,,,,,-2.7578125,9.4296875,-4.328125,0.716796875,0.400390625,2.013671875,-3.953125,0.2890625,-1.0859375,1.0
4465995,,,,,,,,-1.97265625,7.3359375,-3.83984375,0.5625,0.1796875,1.23828125,-3.4140625,-1.7421875,-0.51171875,1.0
4465996,,,,,,,,-1.7734375,6.8125,-3.51953125,0.533203125,0.099609375,0.892578125,-3.265625,-2.2421875,-0.16796875,1.0
4465997,,,,,,,,-1.328125,6.015625,-2.8359375,0.4765625,0.048828125,0.408203125,-2.8828125,-3.0078125,0.5625,1.0
4465998,,,,,,,,0.015625,5.5703125,-1.64453125,0.404296875,0.27734375,0.189453125,-1.578125,-3.4296875,1.78515625,1.0
4465999,,,,,,,,0.6796875,5.87109375,-1.50390625,0.341796875,0.447265625,0.048828125,-0.9296875,-3.12109375,1.94140625,1.0
4466000,36.012910000000005,129.3199095,118.0501024094994,56.5900031676817,3.5,227.0,0.0,2.53515625,7.81640625,-1.55859375,-0.763671875,0.83203125,-1.630859375,0.91015625,-1.16796875,1.8984375,1.0
4466001,,,,,,,,3.859375,10.40625,-1.4609375,0.201171875,0.55078125,-0.57421875,2.25390625,1.4375,2.015625,1.0
4466002,,,,,,,,2.2890625,11.9765625,-1.8203125,0.3125,0.142578125,-0.779296875,0.71875,3.01171875,1.671875,1.0
4466003,,,,,,,,1.62890625,12.04296875,-2.21875,0.38671875,-0.115234375,-0.81640625,0.10546875,3.078125,1.2890625,1.0
4466004,,,,,,,,0.21875,11.875,-3.29296875,0.515625,-0.6484375,-0.70703125,-1.234375,2.93359375,0.25390625,1.0
4466005,,,,,,,,-0.34765625,11.40234375,-3.546875,0.59375,-0.990234375,-0.111328125,-1.73046875,2.47265625,0.0625,1.0
4466006,,,,,,,,-1.1015625,9.79296875,-2.84375,0.587890625,-1.12890625,0.3515625,-2.4609375,0.90234375,0.828125,1.0
4466007,,,,,,,,-3.1015625,5.64453125,1.546875,0.544921875,-1.029296875,0.083984375,-4.453125,-3.19921875,5.3125,1.0
4466008,,,,,,,,-2.203125,3.859375,0.6328125,0.533203125,-0.900390625,-0.1171875,-3.53125,-4.96484375,4.4296875,1.0
4466009,,,,,,,,4.63671875,-8.5,-1.3359375,0.48828125,-0.572265625,-0.4765625,3.36328125,-17.296875,2.515625,1.0
4466010,36.012908,129.31990633333334,117.76463358243495,56.368080855641175,3.6,229.0,,17.75,-47.59375,12.875,0.41015625,-0.19921875,-0.6796875,16.5390625,-56.3671875,16.765625,1.0
4466011,,,,,,,,8.48828125,-37.98828125,22.41796875,0.34375,0.1015625,-1.072265625,7.34765625,-46.75390625,26.33984375,1.0
4466012,,,,,,,,8.44140625,-37.98828125,22.40234375,0.26953125,0.267578125,-1.791015625,8.6484375,-30.05078125,15.30859375,1.0
4466013,,,,,,,,4.35546875,-6.4453125,1.91796875,0.287109375,0.685546875,-1.625,3.40234375,-15.2265625,5.88671875,1.0
4466014,,,,,,,,-2.6875,-6.828125,0.25390625,0.265625,1.76171875,0.048828125,-4.30078125,-17.21875,3.28125,1.0
4466015,,,,,,,,-0.265625,-13.9140625,-0.56640625,-0.73828125,-1.28515625,-1.138671875,-1.15625,-22.69921875,3.43359375,1.0
4466016,,,,,,,,-0.0234375,-13.69921875,0.55859375,-0.87890625,-3.857421875,-1.263671875,-0.8125,-22.50390625,4.54296875,1.0
4466017,,,,,,,,2.12890625,-10.421875,-0.28125,0.19140625,-4.568359375,-1.498046875,1.63671875,-19.25390625,3.703125,1.0
4466018,,,,,,,,4.515625,-8.3828125,-0.93359375,-0.3984375,-1.509765625,-2.87109375,4.359375,-17.21875,3.05078125,1.0
4466019,,,,,,,,5.09375,-7.78515625,-0.95703125,-0.76171875,-0.236328125,-3.1484375,5.0859375,-16.640625,3.01171875,1.0
4466020,36.01290633333333,129.31990333333334,117.49418907980468,56.18314516677499,3.4000000000000004,231.0,,4.296875,-6.88671875,-1.2890625,-0.970703125,0.359375,-2.3515625,4.625,-15.80078125,2.5546875,1.0
4466021,,,,,,,,3.1640625,-2.50390625,-2.3828125,-1.185546875,-0.1796875,-2.59765625,3.8203125,-11.46875,1.328125,1.0
4466022,,,,,,,,3.27734375,-0.15234375,-3.125,-1.26171875,-0.138671875,-2.62890625,4.05078125,-9.1328125,0.5234375,1.0
4466023,,,,,,,,3.234375,2.0625,-3.73046875,-1.3984375,-0.0703125,-2.435546875,4.2421875,-6.953125,-0.20703125,1.0
4466024,,,,,,,,3.2734375,2.8046875,-3.8203125,-1.4140625,-0.044921875,-2.326171875,4.3984375,-6.2265625,-0.359375,1.0
4466025,,,,,,,,2.75,6.37890625,-2.23828125,-1.26171875,0.0234375,-2.158203125,4.28125,-2.69921875,0.98046875,1.0
4466026,,,,,,,,2.640625,8.5703125,-1.8984375,-1.052734375,0.1484375,-2.1171875,4.359375,-0.515625,1.2109375,1.0
4466027,,,,,,,,2.4609375,9.87109375,-2.125,-0.974609375,0.25390625,-2.052734375,4.28125,0.78515625,0.9453125,1.0
4466028,,,,,,,,1.64453125,12.0078125,-3.234375,-0.880859375,0.39453125,-1.87109375,3.625,2.9296875,-0.2421875,1.0
4466029,,,,,,,,1.359375,12.34765625,-3.578125,-0.853515625,0.390625,-1.744140625,3.4375,3.27734375,-0.625,1.0
4466030,36.0129045,129.31990033333335,117.22374481330043,55.97971628069955,3.6,232.0,,0.73046875,12.875,-4.3125,-0.970703125,0.359375,-2.3515625,2.94140625,3.8125,-1.4296875,1.0
4466031,,,,,,,,0.796875,12.98046875,-4.60546875,-0.537109375,-0.072265625,-1.251953125,3.1328125,3.921875,-1.77734375,1.0
4466032,,,,,,,,1.3671875,11.81640625,-5.015625,-0.390625,-0.287109375,-1.0859375,3.82421875,2.77734375,-2.234375,1.0
4466033,,,,,,,,1.98046875,10.40625,-5.4296875,-0.33203125,-0.3671875,-0.92578125,4.546875,1.3984375,-2.6953125,1.0
4466034,,,,,,,,1.25,8.015625,-3.91015625,-0.341796875,-0.34375,-0.6484375,3.94140625,-0.9765625,-1.23828125,1.0
4466035,,,,,,,,-1.1875,7.73046875,-0.33984375,-0.279296875,-0.208984375,-0.58203125,1.5625,-1.24609375,2.28125,1.0
4466036,,,,,,,,-1.2265625,7.73046875,-0.32421875,-0.28125,0.09375,-0.515625,0.44921875,-1.015625,3.8515625,1.0
4466037,,,,,,,,-4.67578125,8.98046875,3.1484375,-0.4140625,0.638671875,0.2421875,-2.23046875,0.59375,5.23828125,1.0
4466038,,,,,,,,-4.65234375,10.75,0.15234375,-0.587890625,0.701171875,0.943359375,-1.34765625,2.08984375,2.015625,1.0
4466039,,,,,,,,-3.5234375,11.33984375,-1.08984375,-0.82421875,0.21484375,1.16015625,0.10546875,1.97265625,0.8671875,1.0
4466040,36.01290216666666,129.31989733333333,116.95330126793417,55.720807783095026,3.7,229.0,,0.73046875,12.875,-4.3125,-0.798828125,-0.431640625,0.673828125,0.796875,0.1328125,2.01953125,1.0
4466041,,,,,,,,-1.57421875,8.1484375,0.4453125,-0.626953125,-0.83203125,0.267578125,1.29296875,-3.8515625,1.75,1.0
4466042,,,,,,,,-1.19140625,5.2421875,-0.5390625,-0.537109375,-0.865234375,0.16015625,0.7578125,-7.0234375,2.5546875,1.0
4466043,,,,,,,,-3.06640625,-3.13671875,3.125,-0.396484375,-0.693359375,0.17578125,-1.08203125,-20.16796875,7.87890625,1.0
4466044,,,,,,,,-2.9453125,-38.45703125,12.2109375,-0.2734375,-0.291015625,0.34375,-0.46875,-47.5546875,14.3515625,1.0
4466045,,,,,,,,-9.578125,-54.4140625,17.59765625,-0.1875,0.240234375,0.392578125,-7.1328125,-63.53125,19.71484375,1.0
4466046,,,,,,,,-9.06640625,-31.26953125,17.4453125,-0.16015625,0.5234375,0.390625,-6.63671875,-40.39453125,19.5625,1.0
4466047,,,,,,,,-3.48828125,-10.1484375,6.05859375,-0.15625,1.19140625,0.541015625,-1.12109375,-19.2890625,8.18359375,1.0
4466048,,,,,,,,5.6484375,-6.22265625,-5.87109375,-0.478515625,1.921875,-0.419921875,7.9609375,-15.37890625,-3.73046875,1.0
4466049,,,,,,,,12.06640625,-10.1015625,-5.2265625,-0.39453125,2.314453125,-1.16015625,14.39453125,-19.25390625,-3.078125,1.0
4466050,36.012899999999995,129.31989433333334,116.68285746559171,55.48039249978525,3.6,227.0,,11.8359375,-12.4609375,2.59375,-0.798828125,-0.431640625,0.673828125,0.796875,0.1328125,2.01953125,1.0
4466051,,,,,,,,2.8671875,-14.0703125,6.46484375,0.068359375,-2.451171875,1.72265625,5.125,-23.234375,8.64453125,1.0
4466052,,,,,,,,0.8203125,-12.89453125,5.1796875,0.318359375,-3.8203125,0.841796875,3.0546875,-22.08203125,7.3046875,1.0
4466053,,,,,,,,0.38671875,-8.421875,-0.453125,0.265625,-1.32421875,2.1328125,2.55859375,-17.64453125,1.6328125,1.0
4466054,,,,,,,,-1.984375,-4.8046875,-1.1875,0.5546875,1.521484375,3.654296875,-0.0859375,-14.08203125,0.9453125,1.0
4466055,,,,,,,,-3.02734375,-3.63671875,-0.5234375,0.892578125,1.40625,3.47265625,-1.50390625,-12.9609375,1.7109375,1.0
4466056,,,,,,,,-4.57421875,-1.41796875,0.0078125,1.115234375,-0.43359375,2.578125,-3.49609375,-10.78515625,2.3984375,1.0
4466057,,,,,,,,-5.49609375,1.609375,-0.40625,1.5390625,-0.576171875,2.86328125,-4.64453125,-7.7578125,2.09375,1.0
4466058,,,,,,,,-5.95703125,4.046875,-1.20703125,1.671875,-0.1015625,3.1171875,-5.3671875,-5.3046875,1.44140625,1.0
4466059,,,,,,,,-6.12890625,7.31640625,-2.2734375,1.53125,0.22265625,2.982421875,-5.828125,-2.01171875,0.5234375,1.0
4466060,36.012898,129.31989166666665,116.44246306858106,55.25847083140507,3.4000000000000004,227.0,,-5.6953125,8.625,-2.9140625,1.294921875,0.22265625,2.875,-5.68359375,-0.671875,0.0234375,1.0
4466061,,,,,,,,-4.0703125,11.67578125,-2.6640625,1.087890625,0.017578125,2.658203125,-4.45703125,2.43359375,0.4453125,1.0
4466062,,,,,,,,-3.66796875,12.08203125,-2.640625,1.03125,-0.021484375,2.51171875,-4.1796875,2.85546875,0.5234375,1.0
4466063,,,,,,,,-2.7109375,12.625,-2.60546875,0.791015625,0.11328125,1.90625,-3.53125,3.46875,0.67578125,1.0
4466064,,,,,,,,-2.3203125,12.53125,-3.01953125,0.697265625,0.220703125,1.744140625,-3.2265625,3.39453125,0.29296875,1.0
4466065,,,,,,,,-1.6640625,10.61328125,-4.03125,0.5625,0.369140625,1.45703125,-2.73046875,1.51171875,-0.6640625,1.0
4466066,,,,,,,,-1.75390625,8.515625,-3.6875,0.462890625,0.3828125,1.169921875,-2.95703125,-0.5546875,-0.28125,1.0
4466067,,,,,,,,-1.77734375,7.83984375,-3.48046875,0.4453125,0.345703125,0.98828125,-3.03125,-1.20703125,-0.05078125,1.0
4466068,,,,,,,,-1.56640625,6.859375,-2.984375,0.4609375,0.193359375,0.626953125,-2.9140625,-2.1640625,0.484375,1.0
4466069,,,,,,,,-1.125,6.57421875,-2.5390625,0.45703125,0.123046875,0.45703125,-2.5,-2.43359375,0.9453125,1.0
4466070,36.012896,129.31988883333332,116.18704382787618,55.03654897002532,3.4000000000000004,228.0,,-0.203125,7.65625,-2.44140625,1.294921875,0.22265625,2.875,-1.62109375,-1.3203125,1.09765625,1.0
4466071,,,,,,,,0.28125,8.828125,-2.57421875,0.279296875,0.453125,-0.115234375,-1.16015625,-0.1328125,0.98046875,1.0
4466072,,,,,,,,1.16015625,10.34375,-2.734375,0.212890625,0.53125,-0.40234375,-0.27734375,1.3984375,0.828125,1.0
4466073,,,,,,,,1.375,10.60546875,-2.81640625,0.232421875,0.5,-0.552734375,-0.046875,1.6640625,0.75390625,1.0
4466074,,,,,,,,1.94140625,11.33203125,-3.109375,0.34375,0.291015625,-0.837890625,0.56640625,2.390625,0.484375,1.0
4466075,,,,,,,,2.20703125,11.31640625,-3.34765625,0.4765625,-0.19140625,-1.068359375,0.94921875,2.39453125,0.29296875,1.0
4466076,,,,,,,,1.8359375,9.69921875,-2.66796875,0.494140625,-0.4921875,-0.9609375,0.6796875,0.78515625,1.01953125,1.0
4466077,,,,,,,,0.2421875,5.578125,1.64453125,0.462890625,-0.708984375,-0.791015625,-0.8125,-3.3125,5.3828125,1.0
4466078,,,,,,,,0.26953125,3.21875,1.65234375,0.3984375,-0.810546875,-0.68359375,-0.69921875,-5.65234375,5.42578125,1.0
4466079,,,,,,,,3.48046875,-10.28125,3.13671875,0.380859375,-0.7734375,-0.58984375,2.59765625,-19.1328125,6.95703125,1.0
4466080,36.012893999999996,129.31988533333333,115.87152523406446,54.81462632321927,3.5,231.0,,14.83984375,-36.9375,13.2421875,0.333984375,-0.541015625,-0.423828125,14.05078125,-45.76171875,17.109375,1.0
4466081,,,,,,,,12.890625,-31.0390625,13.59375,0.255859375,-0.26953125,-0.859375,12.171875,-39.859375,17.4921875,1.0
4466082,,,,,,,,1.49609375,-11.5859375,6.7890625,0.3515625,0.787109375,-1.353515625,0.87109375,-20.3984375,10.7109375,1.0
4466083,,,,,,,,-6.01953125,-2.8984375,1.18359375,0.099609375,1.962890625,-1.111328125,-6.59765625,-11.703125,5.12109375,1.0
4466084,,,,,,,,-5.765625,-3.08203125,-0.57421875,-0.095703125,1.55078125,-0.828125,-6.328125,-11.89453125,3.35546875,1.0
4466085,,,,,,,,0.76171875,-10.4609375,-2.48046875,-0.302734375,-0.90625,-0.45703125,0.22265625,-19.2890625,1.44140625,1.0
4466086,,,,,,,,1.828125,-14.15234375,3.6796875,-0.32421875,-5.01953125,-0.3671875,1.5234375,-23.00390625,7.5703125,1.0
4466087,,,,,,,,2.203125,-13.921875,4.0703125,-0.177734375,-4.38671875,-1.28125,2.0234375,-22.7734375,7.953125,1.0
4466088,,,,,,,,2.97265625,-9.5703125,0.30859375,-0.474609375,-0.3671875,-3.451171875,3.28515625,-18.44921875,4.16015625,1.0
4466089,,,,,,,,2.94140625,-8.56640625,-0.671875,-0.775390625,0.365234375,-3.037109375,3.40234375,-17.44921875,3.1640625,1.0
4466090,36.01289216666667,129.3198825,115.616105721812,54.61119768485244,3.4000000000000004,231.0,,2.37109375,-7.46875,-2.3828125,0.333984375,-0.541015625,-0.423828125,14.05078125,-45.76171875,17.109375,1.0
4466091,,,,,,,,2.5703125,-5.875,-1.70703125,-1.53515625,0.3828125,-2.23046875,3.4765625,-14.84765625,1.86328125,1.0
4466092,,,,,,,,2.59375,-4.08984375,-0.9921875,-1.58203125,0.185546875,-2.2578125,3.59375,-13.078125,2.515625,1.0
4466093,,,,,,,,2.97265625,-1.60546875,-1.15234375,-1.646484375,0.16796875,-2.275390625,4.16796875,-10.625,2.20703125,1.0
4466094,,,,,,,,2.84375,0.30859375,-2.04296875,-1.626953125,0.4921875,-2.2890625,4.2421875,-8.75,1.17578125,1.0
4466095,,,,,,,,2.97265625,2.27734375,-2.83203125,-1.572265625,0.765625,-2.119140625,4.55078125,-6.796875,0.25390625,1.0
4466096,,,,,,,,2.42578125,6.24609375,-3.2109375,-1.451171875,0.759765625,-1.90234375,4.1640625,-2.85546875,-0.2421875,1.0
4466097,,,,,,,,1.625,9.90234375,-3.05859375,-1.2578125,0.5390625,-1.720703125,3.51953125,0.78515625,-0.20703125,1.0
4466098,,,,,,,,1.109375,11.6171875,-3.52734375,-0.947265625,0.251953125,-1.45703125,3.21484375,2.5078125,-0.81640625,1.0
4466099,,,,,,,,0.77734375,12.39453125,-3.86328125,-0.83203125,0.255859375,-1.388671875,2.94140625,3.27734375,-1.19921875,1.0
4466100,36.01289033333333,129.31987933333332,115.33063652616472,54.40776866058325,3.5,232.0,0.0,0.28515625,12.578125,-4.1171875,0.333984375,-0.541015625,-0.423828125,2.55859375,3.46875,-1.5078125,1.0
4466101,,,,,,,,0.09765625,12.0625,-4.1015625,-0.54296875,0.216796875,-1.080078125,2.48046875,2.96875,-1.546875,1.0
4466102,,,,,,,,0.5703125,10.125,-4.375,-0.52734375,-0.015625,-1.015625,3.09765625,1.0546875,-1.890625,1.0
4466103,,,,,,,,1.625,7.65625,-3.8984375,-0.509765625,-0.103515625,-0.9609375,4.24609375,-1.3984375,-1.46875,1.0
4466104,,,,,,,,1.76953125,6.65234375,-3.890625,-0.482421875,-0.11328125,-0.85546875,4.47265625,-2.39453125,-1.5078125,1.0
4466105,,,,,,,,0.89453125,5.77734375,-3.359375,-0.509765625,-0.01953125,-0.607421875,3.703125,-3.23828125,-1.046875,1.0
4466106,,,,,,,,-0.875,6.890625,-1.97265625,-0.400390625,0.216796875,-0.1796875,1.4453125,-1.4375,0.63671875,1.0
4466107,,,,,,,,-1.92578125,8.3828125,-1.24609375,-0.396484375,0.34375,0.23046875,-0.16015625,0.9375,1.8984375,1.0
4466108,,,,,,,,-3.6953125,10.7265625,0.47265625,-0.431640625,0.44140625,0.732421875,-2.0,2.2421875,5.27734375,1.0
4466109,,,,,,,,-5.5859375,11.82421875,5.0625,-0.474609375,0.412109375,1.142578125,-2.8046875,2.5859375,7.45703125,1.0
4466110,36.012888,129.31987633333335,115.06019288376318,54.14886022133379,3.6,230.0,,0.28515625,12.578125,-4.1171875,-0.45703125,0.1953125,1.505859375,2.55859375,3.46875,-1.5078125,1.0
4466111,,,,,,,,-4.71484375,10.74609375,4.21484375,-0.28125,-0.201171875,1.8515625,-1.04296875,-0.05859375,4.58203125,1.0
4466112,,,,,,,,-2.94921875,7.03125,1.90625,-0.171875,-0.8984375,1.685546875,-0.69921875,-5.6875,4.4296875,1.0
4466113,,,,,,,,0.1015625,-22.3125,9.9609375,-0.1796875,-1.806640625,0.6640625,2.328125,-31.5078125,11.9765625,1.0
4466114,,,,,,,,-4.81640625,-45.6328125,18.3984375,-0.048828125,-2.00390625,0.0078125,-2.61328125,-54.8359375,20.3671875,1.0
4466115,,,,,,,,-10.83203125,-33.8359375,11.05859375,-0.009765625,-1.099609375,-0.2578125,-8.58984375,-43.0390625,12.97265625,1.0
4466116,,,,,,,,-4.2578125,-13.04296875,4.30078125,-0.224609375,1.115234375,-0.50390625,-1.9609375,-22.234375,6.19140625,1.0
4466117,,,,,,,,4.59765625,-6.4296875,-4.6875,-0.310546875,3.09375,-1.0546875,6.92578125,-15.609375,-2.7734375,1.0
4466118,,,,,,,,13.4765625,-11.3046875,1.82421875,0.296875,2.69921875,-0.0703125,15.8125,-20.48046875,3.81640625,1.0
4466119,,,,,,,,8.1328125,-14.15234375,4.84375,0.21875,-0.837890625,2.158203125,10.3359375,-23.34765625,6.8828125,1.0
4466120,36.01288566666666,129.31987366666667,114.81979889204551,53.88995218288417,3.5,226.0,,2.40234375,-14.23046875,4.56640625,0.078125,-3.439453125,0.908203125,4.51171875,-23.4609375,6.57421875,1.0
4466121,,,,,,,,2.08203125,-11.83203125,2.9375,0.232421875,-2.234375,1.28515625,4.16796875,-21.0859375,4.890625,1.0
4466122,,,,,,,,1.1328125,-8.16796875,0.28515625,0.296875,-0.734375,2.53125,3.1328125,-17.4453125,2.24609375,1.0
4466123,,,,,,,,-0.2109375,-5.31640625,-1.1015625,0.66015625,1.44921875,4.087890625,1.484375,-14.6484375,0.90625,1.0
4466124,,,,,,,,-3.40625,-1.60546875,-0.4921875,1.326171875,-0.080078125,2.9921875,-2.4609375,-11.0078125,1.75,1.0
4466125,,,,,,,,-5.1640625,0.8828125,-1.171875,1.68359375,-0.73046875,2.68359375,-4.453125,-8.5234375,1.2109375,1.0
4466126,,,,,,,,-5.421875,1.90234375,-1.78515625,1.80078125,-0.734375,2.890625,-4.8359375,-7.48828125,0.67578125,1.0
4466127,,,,,,,,-6.05859375,4.63671875,-3.56640625,1.943359375,-0.34765625,3.35546875,-5.75,-4.73046875,-0.93359375,1.0
4466128,,,,,,,,-5.9296875,7.73828125,-3.6015625,1.923828125,0.0078125,3.44921875,-5.9453125,-1.58984375,-0.78125,1.0
4466129,,,,,,,,-5.19921875,9.203125,-2.8671875,1.84765625,0.076171875,3.42578125,-5.41015625,-0.09375,0.0625,1.0
4466130,36.012884,129.31987083333334,114.56437908595092,53.70501678367837,3.4000000000000004,228.0,,-4.76171875,10.49609375,-2.15234375,1.4453125,0.173828125,3.16015625,-5.41015625,1.28515625,0.98046875,1.0
4466131,,,,,,,,-3.32421875,13.1640625,-0.69140625,1.064453125,0.7734375,2.421875,-4.5234375,4.078125,2.66796875,1.0
4466132,,,,,,,,-2.87109375,12.22265625,-2.6484375,0.916015625,0.966796875,1.927734375,-4.296875,3.19921875,0.7890625,1.0
4466133,,,,,,,,-2.7109375,10.4453125,-3.359375,0.7734375,0.9453125,1.5,-4.33984375,1.4765625,0.140625,1.0
4466134,,,,,,,,-2.7890625,9.34765625,-3.58203125,0.6484375,0.796875,1.298828125,-4.4921875,0.40234375,-0.05078125,1.0
4466135,,,,,,,,-2.77734375,6.97265625,-3.96875,0.50390625,0.3046875,0.919921875,-4.60546875,-1.93359375,-0.3984375,1.0
4466136,,,,,,,,-2.546875,6.6875,-3.8671875,0.455078125,0.046875,0.677734375,-4.41796875,-2.203125,-0.28125,1.0
4466137,,,,,,,,-1.2421875,6.80859375,-3.41015625,0.291015625,-0.283203125,0.1953125,-3.15234375,-2.05078125,0.21484375,1.0
4466138,,,,,,,,-0.5546875,6.91796875,-3.30859375,0.22265625,-0.3203125,-0.02734375,-2.4609375,-1.93359375,0.33203125,1.0
4466139,,,,,,,,1.59765625,7.71484375,-3.21875,0.111328125,-0.263671875,-0.4296875,-0.27734375,-1.12890625,0.4453125,1.0
4466140,36.012881666666665,129.319868,114.30896023331884,53.446108563433604,3.5,227.0,,2.34765625,8.09765625,-3.02734375,1.4453125,0.173828125,3.16015625,-5.41015625,1.28515625,0.98046875,1.0
4466141,,,,,,,,4.0859375,9.76171875,-2.7890625,-0.0234375,-0.015625,-0.888671875,2.328125,0.90234375,0.8671875,1.0
4466142,,,,,,,,5.30078125,11.9140625,-2.4140625,0.09375,-0.04296875,-1.1328125,3.62890625,3.046875,1.25,1.0
4466143,,,,,,,,3.109375,11.98828125,-1.6796875,0.345703125,-0.259765625,-1.291015625,1.6015625,3.1171875,2.015625,1.0
4466144,,,,,,,,-0.04296875,10.53515625,-1.7578125,0.43359375,-0.427734375,-1.2109375,-1.42578125,1.66796875,1.9765625,1.0
4466145,,,,,,,,-2.51953125,8.48828125,0.734375,0.474609375,-0.580078125,-0.79296875,-3.80078125,-0.36328125,4.5078125,1.0
4466146,,,,,,,,-2.91015625,7.29296875,1.32421875,0.505859375,-0.61328125,-0.369140625,-4.14453125,-1.55078125,5.1171875,1.0
4466147,,,,,,,,-1.74609375,3.1640625,0.1484375,0.5390625,-0.6328125,0.158203125,-2.95703125,-5.6484375,4.0078125,1.0
4466148,,,,,,,,3.453125,-12.0,2.75390625,0.44921875,-0.47265625,-0.005859375,2.25,-20.78125,6.65234375,1.0
4466149,,,,,,,,15.65234375,-47.10546875,15.5859375,0.365234375,-0.134765625,-0.470703125,14.47265625,-55.8671875,19.5234375,1.0
4466150,36.012879833333336,129.31986466666666,114.0084661324288,53.24267938699435,3.6,232.0,,12.66796875,-48.8046875,16.625,0.32421875,0.2734375,-1.15625,-5.41015625,1.28515625,0.98046875,1.0
4466151,,,,,,,,5.015625,-13.1328125,8.828125,0.33203125,0.7578125,-1.712890625,4.015625,-21.89453125,12.8203125,1.0
4466152,,,,,,,,-4.59765625,-3.51171875,0.375,0.1875,0.884765625,-1.517578125,-5.48828125,-12.2734375,4.390625,1.0
4466153,,,,,,,,-1.7109375,-11.76953125,-3.26171875,0.08984375,0.20703125,-1.416015625,-2.4609375,-20.546875,0.75390625,1.0
4466154,,,,,,,,0.890625,-14.359375,-0.22265625,-0.642578125,-3.00390625,-1.205078125,0.296875,-23.15625,3.77734375,1.0
4466155,,,,,,,,3.453125,-11.41015625,1.5546875,-0.19921875,-4.166015625,-1.5625,3.1328125,-20.2421875,5.5390625,1.0
4466156,,,,,,,,4.85546875,-7.90625,-1.68359375,-0.373046875,-1.615234375,-2.662109375,4.85546875,-16.7578125,2.28515625,1.0
4466157,,,,,,,,4.609375,-7.77734375,-1.73828125,-0.619140625,-0.328125,-3.03125,4.7421875,-16.640625,2.20703125,1.0
4466158,,,,,,,,4.359375,-7.5625,-1.7890625,-1.05078125,0.66015625,-2.830078125,4.7421875,-16.45703125,2.09375,1.0
4466159,,,,,,,,4.04296875,-6.234375,-1.66015625,-1.09375,0.59375,-2.689453125,4.55078125,-15.15234375,2.16796875,1.0
4466160,36.012878,129.3198618333333,113.75304652673684,53.039250803491875,3.3000000000000003,232.0,,3.5546875,-4.22265625,-1.79296875,0.32421875,0.2734375,-1.15625,-5.41015625,1.28515625,0.98046875,1.0
4466161,,,,,,,,3.02734375,-1.0625,-3.19140625,-1.361328125,0.08984375,-2.828125,4.12890625,-10.05859375,0.37109375,1.0
4466162,,,,,,,,2.90234375,0.32421875,-4.125,-1.42578125,0.189453125,-2.740234375,4.12890625,-8.67578125,-0.625,1.0
4466163,,,,,,,,2.40625,2.60546875,-4.12890625,-1.40234375,0.361328125,-2.4765625,3.9765625,-6.41796875,-0.81640625,1.0
4466164,,,,,,,,1.95703125,4.5390625,-3.69921875,-1.267578125,0.32421875,-2.376953125,3.74609375,-4.5,-0.51171875,1.0
4466165,,,,,,,,0.875,9.84765625,-3.05078125,-1.052734375,0.5625,-2.091796875,3.05859375,0.82421875,-0.05078125,1.0
4466166,,,,,,,,0.30078125,10.98828125,-3.3203125,-1.0078125,0.642578125,-1.939453125,2.5546875,1.97265625,-0.359375,1.0
4466167,,,,,,,,-0.078125,12.0625,-3.73828125,-0.890625,0.658203125,-1.609375,2.328125,3.046875,-0.85546875,1.0
4466168,,,,,,,,-0.33203125,12.20703125,-4.08984375,-0.82421875,0.6015625,-1.44140625,2.13671875,3.19921875,-1.23828125,1.0
4466169,,,,,,,,-0.203125,11.46484375,-4.3828125,-0.7109375,0.41015625,-1.12109375,2.3671875,2.46875,-1.5859375,1.0
4466170,36.01287633333333,129.319859,113.49762667782342,52.854315433709864,3.3000000000000003,233.0,,0.859375,9.73046875,-4.80859375,0.32421875,0.2734375,-1.15625,-5.41015625,1.28515625,0.98046875,1.0
4466171,,,,,,,,3.00390625,6.66796875,-4.90625,-0.69140625,0.1328125,-0.921875,5.6953125,-2.31640625,-2.1953125,1.0
4466172,,,,,,,,3.53125,6.19921875,-4.609375,-0.693359375,0.083984375,-0.875,6.31640625,-2.77734375,-1.96875,1.0
4466173,,,,,,,,3.4921875,6.11328125,-4.1171875,-0.65625,0.078125,-0.845703125,6.3125,-2.85546875,-1.5078125,1.0
4466174,,,,,,,,1.84375,5.9140625,-2.56640625,-0.560546875,0.13671875,-0.8828125,4.74609375,-3.046875,-0.01171875,1.0
4466175,,,,,,,,-2.10546875,6.58984375,2.2578125,-0.43359375,0.30078125,-0.9296875,0.87109375,-2.35546875,4.77734375,1.0
4466176,,,,,,,,-4.6640625,8.7109375,3.25,-0.33203125,0.451171875,-0.7109375,-1.6171875,-0.2109375,5.734375,1.0
4466177,,,,,,,,-4.41796875,13.38671875,-0.765625,-0.48046875,0.158203125,0.37890625,-1.34765625,4.4609375,1.671875,1.0
4466178,,,,,,,,-3.8359375,14.00390625,-1.30859375,-0.556640625,-0.09375,0.662109375,-0.7734375,5.07421875,1.09765625,1.0
4466179,,,,,,,,-2.13671875,14.6796875,-2.2734375,-0.69921875,-0.953125,0.705078125,0.87109375,5.7265625,0.0625,1.0
4466180,36.01287416666666,129.31985583333332,113.21215785211275,52.613900064789604,3.5,231.0,,-1.9296875,12.87109375,-0.69921875,0.32421875,0.2734375,-1.15625,1.0625,3.88671875,1.51953125,1.0
4466181,,,,,,,,-1.96875,9.2421875,0.23046875,-0.53125,-2.326171875,-0.052734375,1.0625,0.25,2.32421875,1.0
4466182,,,,,,,,-3.79296875,-7.58203125,8.11328125,-0.39453125,-2.091796875,-0.171875,-0.69921875,-16.5625,10.09765625,1.0
4466183,,,,,,,,-5.80859375,-31.9921875,19.42578125,-0.353515625,-1.841796875,-0.111328125,-2.69140625,-40.97265625,21.36328125,1.0
4466184,,,,,,,,-4.2890625,-53.3984375,16.8046875,-0.25390625,-0.587890625,0.36328125,-1.15625,-62.3828125,18.640625,1.0
4466185,,,,,,,,-2.95703125,-10.8984375,9.2734375,-0.16796875,0.552734375,0.451171875,0.14453125,-19.8984375,11.09375,1.0
4466186,,,,,,,,-0.56640625,-0.3125,4.04296875,-0.224609375,1.6328125,0.240234375,2.48046875,-9.33203125,5.88671875,1.0
