time,latitude,longitude,enu_x,enu_y,speed,course,ecg,accX,accY,accZ,gyrX,gyrY,gyrZ,eulR,eulP,eulY,validity
4431920,36.012539833333335,129.31934433333333,67.10121195896939,15.516055521620395,3.0,50.0,,0.625,9.27734375,-3.234375,0.83984375,-0.796875,1.169921875,-2.125,2.4921875,-0.6171875,1.0
4431921,,,,,,,,1.734375,9.74609375,-3.80078125,-0.806640625,-0.716796875,0.283203125,-1.015625,2.95703125,-1.23046875,1.0
4431922,,,,,,,,2.24609375,9.1484375,-3.73828125,-0.650390625,-1.0078125,-0.07421875,-0.48046875,2.34375,-1.19140625,1.0
4431923,,,,,,,,2.4609375,7.984375,-3.3046875,-0.5234375,-1.05078125,-0.25390625,-0.2109375,1.15625,-0.7734375,1.0
4431924,,,,,,,,3.0859375,4.62890625,-1.72265625,-0.3828125,-0.986328125,-0.185546875,0.4765625,-2.21484375,0.80078125,1.0
4431925,,,,,,,,3.625,1.72265625,-0.3828125,-0.265625,-0.8828125,-0.0546875,1.0546875,-5.125,2.140625,1.0
4431926,,,,,,,,3.79296875,-0.61328125,0.49609375,-0.22265625,-0.798828125,-0.009765625,1.24609375,-7.4609375,3.01953125,1.0
4431927,,,,,,,,3.30078125,-18.45703125,9.9296875,-0.150390625,-0.52734375,-0.123046875,0.78515625,-25.31640625,12.4453125,1.0
4431928,,,,,,,,3.13671875,-39.09765625,15.13671875,-0.048828125,-0.005859375,-0.37890625,0.66796875,-45.96484375,17.65234375,1.0
4431929,,,,,,,,-2.0703125,-46.08984375,11.77734375,0.0234375,0.66015625,-0.634765625,-4.5,-52.96875,14.28515625,1.0
4431930,36.01254183333333,129.3193465,67.29653398454529,15.737975481809723,2.9000000000000004,46.0,,-3.25390625,-13.8203125,11.61328125,0.255859375,1.669921875,-1.666015625,-5.57421875,-20.7578125,14.08984375,1.0
4431931,,,,,,,,4.375,-6.86328125,-3.203125,0.3984375,1.01171875,0.21484375,2.0859375,-13.8203125,-0.734375,1.0
4431932,,,,,,,,9.6875,-10.6796875,-5.1875,0.224609375,-1.84375,1.658203125,7.3359375,-17.6171875,-2.6875,1.0
4431933,,,,,,,,15.5859375,-13.68359375,5.203125,0.20703125,-3.390625,0.966796875,13.234375,-20.60546875,7.734375,1.0
4431934,,,,,,,,10.60546875,-15.69140625,6.80859375,0.72265625,-3.314453125,0.123046875,8.33203125,-22.59375,9.45703125,1.0
4431935,,,,,,,,7.890625,-14.09765625,4.80078125,0.580078125,-0.490234375,1.16015625,5.6484375,-20.98828125,7.54296875,1.0
4431936,,,,,,,,6.984375,-12.48828125,1.47265625,0.60546875,1.3828125,2.626953125,4.6171875,-19.3359375,4.24609375,1.0
4431937,,,,,,,,3.72265625,-9.43359375,-0.45703125,0.841796875,0.921875,3.107421875,1.12890625,-16.19921875,2.33203125,1.0
4431938,,,,,,,,2.71484375,-8.54296875,-0.2421875,0.966796875,0.404296875,3.0546875,0.01953125,-15.2734375,2.5625,1.0
4431939,,,,,,,,0.83984375,-5.96484375,0.484375,1.359375,-0.236328125,3.095703125,-2.05078125,-12.59375,3.3671875,1.0
4431940,36.01254316666667,129.31934866666668,67.49185656968086,15.885922624519264,2.8000000000000003,49.0,,-1.50390625,-2.35546875,-1.58203125,1.697265625,0.255859375,2.98828125,-4.76953125,-8.7265625,1.52734375,1.0
4431941,,,,,,,,-1.71484375,-0.640625,-1.9453125,1.564453125,0.39453125,2.796875,-5.15234375,-6.89453125,1.2578125,1.0
4431942,,,,,,,,-1.62890625,0.74609375,-1.9453125,1.5,0.443359375,2.70703125,-5.15234375,-5.4296875,1.296875,1.0
4431943,,,,,,,,-1.45703125,2.23828125,-2.09375,1.3046875,0.611328125,2.484375,-5.15234375,-3.82421875,1.21875,1.0
4431944,,,,,,,,-0.6484375,4.80078125,-2.94140625,1.029296875,0.716796875,2.31640625,-4.50390625,-1.14453125,0.41796875,1.0
4431945,,,,,,,,-0.1640625,7.765625,-3.203125,0.84765625,0.63671875,2.208984375,-4.16015625,1.921875,0.1875,1.0
4431946,,,,,,,,-0.21875,8.8359375,-3.09765625,0.74609375,0.564453125,2.140625,-4.2734375,3.03125,0.30078125,1.0
4431947,,,,,,,,0.52734375,11.03515625,-2.8515625,0.6015625,0.421875,1.974609375,-3.66015625,5.33203125,0.5703125,1.0
4431948,,,,,,,,0.87890625,8.08203125,-5.02734375,0.529296875,0.30078125,1.298828125,-3.50390625,2.53515625,-1.57421875,1.0
4431949,,,,,,,,0.81640625,7.0390625,-4.9765625,0.48046875,0.134765625,0.931640625,-3.6171875,1.5390625,-1.5,1.0
4431950,36.01254516666667,129.31935116666668,67.71722837882345,16.10784282596414,3.2,49.0,,0.48046875,4.35546875,-3.7734375,0.373046875,0.078125,0.73046875,-4.0,-1.10546875,-0.2734375,1.0
4431951,,,,,,,,1.171875,3.43359375,-2.70703125,0.328125,0.345703125,0.78515625,-3.35546875,-1.98828125,0.80078125,1.0
4431952,,,,,,,,1.81640625,2.74609375,-1.8046875,0.2890625,0.796875,0.548828125,-2.77734375,-2.63671875,1.6796875,1.0
4431953,,,,,,,,2.95703125,2.65234375,-1.53515625,0.322265625,0.912109375,0.44140625,-1.66796875,-2.7109375,1.94921875,1.0
4431954,,,,,,,,3.953125,3.43359375,-1.55078125,0.5,1.09765625,0.26171875,-0.7109375,-1.91015625,1.91015625,1.0
4431955,,,,,,,,4.796875,5.6015625,-1.56640625,0.615234375,0.974609375,0.01171875,0.09375,0.2734375,1.8671875,1.0
4431956,,,,,,,,5.2734375,6.97265625,-1.98046875,0.611328125,0.60546875,-0.2578125,0.5546875,1.6484375,1.44921875,1.0
4431957,,,,,,,,4.63671875,7.8984375,-2.03515625,0.5,0.126953125,-0.4375,-0.05859375,2.57421875,1.41015625,1.0
4431958,,,,,,,,4.27734375,7.9765625,-1.88671875,0.40234375,-0.1171875,-0.47265625,-0.40234375,2.65234375,1.56640625,1.0
4431959,,,,,,,,2.4765625,6.8515625,-0.85546875,0.26953125,-0.576171875,-0.349609375,-2.1640625,1.5,2.63671875,1.0
4431960,36.012547000000005,129.31935333333334,67.91255051618009,16.311269594813176,3.2,47.0,,-0.14453125,3.79296875,0.984375,0.373046875,0.078125,0.73046875,-4.73046875,-1.56640625,4.515625,1.0
4431961,,,,,,,,0.11328125,-2.296875,-0.52734375,0.064453125,-1.1015625,0.03515625,-4.42578125,-7.65625,3.05859375,1.0
4431962,,,,,,,,1.1015625,-11.8671875,0.72265625,0.056640625,-1.06640625,-0.205078125,-3.390625,-17.23828125,4.36328125,1.0
4431963,,,,,,,,4.51953125,-26.453125,3.5703125,0.0859375,-0.935546875,-0.587890625,0.05859375,-31.828125,7.234375,1.0
4431964,,,,,,,,15.11328125,-45.17578125,12.6953125,0.171875,-0.265625,-1.45703125,10.74609375,-50.59375,16.390625,1.0
4431965,,,,,,,,12.6875,-26.7109375,12.53515625,0.349609375,0.76953125,-1.845703125,8.40625,-32.2109375,16.23828125,1.0
4431966,,,,,,,,6.07421875,-16.89453125,4.4296875,0.23046875,0.99609375,-2.39453125,1.89453125,-22.48046875,8.1171875,1.0
4431967,,,,,,,,1.97265625,-10.02734375,-0.54296875,-0.5703125,-0.40625,-1.869140625,-2.05078125,-15.77734375,3.09765625,1.0
4431968,,,,,,,,4.98828125,-12.39453125,-0.7421875,-0.50390625,-3.404296875,-0.80859375,1.12890625,-18.2265625,2.9453125,1.0
4431969,,,,,,,,7.078125,-14.65234375,2.55859375,-0.626953125,-3.4453125,-1.474609375,3.4296875,-20.5625,6.35546875,1.0
4431970,36.01254866666667,129.319356,68.1529474896002,16.496203511563344,3.0,50.0,,7.83984375,-14.765625,3.7421875,-0.830078125,-1.2578125,-2.693359375,4.42578125,-20.80078125,7.578125,1.0
4431971,,,,,,,,7.7890625,-12.53125,1.26171875,-1.099609375,0.837890625,-2.19140625,4.6171875,-18.765625,5.01171875,1.0
4431972,,,,,,,,7.49609375,-11.1953125,-0.94140625,-1.15625,0.779296875,-2.041015625,4.38671875,-17.50390625,2.75390625,1.0
4431973,,,,,,,,6.56640625,-10.11328125,-1.62109375,-1.2578125,0.4453125,-2.01953125,3.58203125,-16.54296875,1.98828125,1.0
4431974,,,,,,,,5.3125,-8.1796875,-1.328125,-1.306640625,0.443359375,-2.208984375,2.46875,-14.74609375,2.1796875,1.0
4431975,,,,,,,,4.4140625,-3.2890625,-1.296875,-1.345703125,0.796875,-2.109375,1.78125,-10.03125,2.0625,1.0
4431976,,,,,,,,4.6640625,-1.171875,-1.890625,-1.296875,0.8828125,-1.658203125,2.203125,-8.078125,1.296875,1.0
4431977,,,,,,,,5.12109375,3.03125,-4.1953125,-1.208984375,0.6953125,-1.60546875,2.77734375,-3.98046875,-1.1171875,1.0
4431978,,,,,,,,5.1640625,5.2890625,-4.55859375,-1.107421875,0.48046875,-1.62109375,2.93359375,-1.796875,-1.57421875,1.0
4431979,,,,,,,,4.91015625,6.2578125,-4.58984375,-1.044921875,0.3984375,-1.62109375,2.73828125,-0.875,-1.65234375,1.0
4431980,36.012550499999996,129.31935800000002,68.33324471283085,16.699630172486174,3.3000000000000003,49.0,,4.078125,8.98046875,-3.3984375,-0.830078125,-1.2578125,-2.693359375,4.42578125,-20.80078125,7.578125,1.0
4431981,,,,,,,,3.6015625,9.265625,-3.0390625,-0.673828125,0.537109375,-1.076171875,1.703125,1.96484375,-0.2734375,1.0
4431982,,,,,,,,3.5625,9.203125,-3.0078125,-0.630859375,0.5390625,-0.982421875,1.703125,1.88671875,-0.2734375,1.0
4431983,,,,,,,,3.79296875,8.68359375,-3.48046875,-0.615234375,0.45703125,-1.017578125,2.01171875,1.30859375,-0.80859375,1.0
4431984,,,,,,,,5.0390625,6.4609375,-4.19921875,-0.640625,0.267578125,-1.244140625,3.35546875,-0.953125,-1.57421875,1.0
4431985,,,,,,,,6.4140625,4.78515625,-4.375,-0.6875,0.05859375,-1.353515625,4.84765625,-2.67578125,-1.8046875,1.0
4431986,,,,,,,,6.7421875,4.4921875,-4.11328125,-0.71875,0.0078125,-1.35546875,5.23046875,-2.984375,-1.57421875,1.0
4431987,,,,,,,,6.703125,4.35546875,-3.74609375,-0.73046875,0.0546875,-1.205078125,5.30859375,-3.17578125,-1.26953125,1.0
4431988,,,,,,,,5.4140625,5.046875,-2.6953125,-0.732421875,0.19140625,-0.87890625,4.1171875,-2.5234375,-0.2734375,1.0
4431989,,,,,,,,4.80859375,5.71484375,-2.47265625,-0.71875,0.216796875,-0.650390625,3.5390625,-1.87109375,-0.08203125,1.0
4431990,36.0125525,129.319361,68.60369117451778,16.921550747950448,3.5,49.0,,2.9609375,8.3828125,-1.60546875,-0.830078125,-1.2578125,-2.693359375,4.42578125,-20.80078125,7.578125,1.0
4431991,,,,,,,,0.6484375,10.88671875,0.984375,-0.435546875,-0.73046875,1.28515625,-0.59375,3.26171875,3.25,1.0
4431992,,,,,,,,-2.359375,12.33203125,3.1015625,-0.080078125,-1.650390625,2.5390625,-3.8125,4.75390625,5.36328125,1.0
4431993,,,,,,,,-1.63671875,11.92578125,0.625,0.005859375,-2.068359375,1.806640625,-3.19921875,4.3671875,2.90625,1.0
4431994,,,,,,,,-1.19921875,9.3359375,-0.82421875,0.017578125,-2.126953125,0.53125,-2.7734375,1.8046875,1.48828125,1.0
4431995,,,,,,,,-2.80078125,-4.4140625,6.38671875,0.259765625,-1.259765625,0.263671875,-4.34765625,-11.94921875,8.73046875,1.0
4431996,,,,,,,,-0.2734375,-25.921875,12.56640625,0.267578125,0.24609375,0.341796875,-1.8203125,-33.44140625,14.93359375,1.0
4431997,,,,,,,,-3.046875,-44.99609375,10.66015625,0.025390625,1.79296875,0.037109375,-4.6171875,-52.5078125,13.01953125,1.0
4431998,,,,,,,,-6.125,-23.63671875,8.5625,-0.255859375,2.990234375,-1.53515625,-7.6796875,-31.17578125,10.875,1.0
4431999,,,,,,,,0.22265625,-10.734375,3.8203125,0.33984375,2.25390625,-1.435546875,-1.24609375,-18.30859375,6.0859375,1.0
4432000,36.01255483333333,129.31936333333334,68.8140377417877,17.180457270901893,3.3000000000000003,45.0,0.0,10.11328125,-8.390625,-3.3671875,0.61328125,-0.064453125,1.326171875,8.63671875,-15.96875,-1.078125,1.0
4432001,,,,,,,,15.265625,-10.93359375,4.77734375,0.12890625,-2.45703125,1.01953125,13.734375,-18.4921875,7.12109375,1.0
4432002,,,,,,,,8.390625,-15.38671875,4.40625,0.025390625,-3.078125,0.458984375,6.875,-22.9375,6.7734375,1.0
4432003,,,,,,,,4.26171875,-16.3828125,4.96484375,0.33203125,-1.974609375,1.068359375,2.77734375,-23.94140625,7.38671875,1.0
4432004,,,,,,,,3.703125,-12.421875,2.859375,0.451171875,0.5625,3.208984375,2.0859375,-19.95703125,5.3203125,1.0
4432005,,,,,,,,3.40234375,-9.1875,1.41796875,0.765625,1.69921875,3.7265625,1.51171875,-16.66015625,3.90234375,1.0
4432006,,,,,,,,3.0859375,-7.89453125,1.01171875,0.9921875,1.498046875,3.53125,1.015625,-15.31640625,3.51953125,1.0
4432007,,,,,,,,2.1484375,-5.359375,0.18359375,1.359375,0.4921875,2.52734375,-0.1328125,-12.7109375,2.75390625,1.0
4432008,,,,,,,,-0.66796875,-3.03515625,-0.14453125,1.884765625,-0.046875,2.314453125,-3.23828125,-10.22265625,2.67578125,1.0
4432009,,,,,,,,-2.05078125,-1.50390625,-0.58984375,1.912109375,0.107421875,2.458984375,-4.69140625,-8.6484375,2.29296875,1.0
4432010,36.01255666666667,129.31936583333334,69.03940962941671,17.383884301002883,3.2,46.0,,-2.9921875,1.18359375,-1.94140625,0.61328125,-0.064453125,1.326171875,-5.8046875,-5.8515625,1.06640625,1.0
4432011,,,,,,,,-2.90234375,3.625,-3.24609375,1.447265625,0.525390625,2.681640625,-5.9921875,-3.25,-0.08203125,1.0
4432012,,,,,,,,-2.609375,4.56640625,-3.36328125,1.29296875,0.486328125,2.685546875,-5.80859375,-2.25390625,-0.16015625,1.0
4432013,,,,,,,,-2.0,7.7109375,-2.89453125,1.01953125,0.431640625,2.591796875,-5.3828125,1.0,0.37890625,1.0
4432014,,,,,,,,-0.75390625,9.41015625,-2.3671875,0.771484375,0.52734375,2.37890625,-4.30859375,2.80078125,0.953125,1.0
4432015,,,,,,,,-0.0703125,10.0625,-2.27734375,0.51171875,0.767578125,1.373046875,-2.9296875,4.1015625,0.4921875,1.0
4432016,,,,,,,,0.8984375,10.56640625,-2.859375,0.466796875,0.724609375,1.05859375,-2.43359375,3.2578125,-1.15625,1.0
4432017,,,,,,,,1.40625,8.91796875,-4.71484375,0.3671875,0.470703125,0.298828125,-2.6640625,1.57421875,-1.15625,1.0
4432018,,,,,,,,0.6484375,5.62109375,-3.984375,0.298828125,0.3671875,0.109375,-3.73828125,-1.7578125,-0.234375,1.0
4432019,,,,,,,,0.234375,4.625,-3.609375,0.271484375,0.44140625,0.12109375,-4.15625,-2.484375,0.1875,1.0
4432020,36.01255883333333,129.31936833333333,69.26478121368991,17.624297746746286,3.6,45.0,,-0.32421875,3.36328125,-2.8046875,0.22265625,0.6875,0.13671875,-4.16015625,-3.55859375,0.953125,1.0
4432021,,,,,,,,0.1953125,2.90234375,-2.33203125,0.1875,0.845703125,-0.078125,-2.85546875,-2.71484375,0.875,1.0
4432022,,,,,,,,2.05078125,5.1015625,-2.71875,0.125,0.701171875,-0.421875,-1.96875,-1.296875,0.609375,1.0
4432023,,,,,,,,2.9765625,6.55078125,-2.859375,0.14453125,0.291015625,-0.771484375,-1.01953125,0.12109375,0.453125,1.0
4432024,,,,,,,,4.29296875,8.15234375,-3.33984375,0.267578125,-0.232421875,-0.943359375,0.36328125,1.69140625,-0.00390625,1.0
4432025,,,,,,,,4.90625,8.796875,-3.640625,0.328125,-0.638671875,-0.8828125,1.0546875,2.3046875,-0.2734375,1.0
4432026,,,,,,,,5.125,9.31640625,-3.671875,0.337890625,-0.798828125,-0.798828125,1.3203125,2.796875,-0.2734375,1.0
4432027,,,,,,,,4.54296875,9.21875,-3.765625,0.361328125,-1.03515625,-0.59375,0.82421875,2.6875,-0.3125,1.0
4432028,,,,,,,,3.0859375,7.953125,-3.55859375,0.3828125,-1.1484375,-0.29296875,-0.5546875,1.42578125,-0.04296875,1.0
4432029,,,,,,,,-1.4921875,5.08203125,1.12890625,0.390625,-1.1484375,-0.01171875,-5.078125,-1.44921875,4.70703125,1.0
4432030,36.012560666666666,129.319371,69.50517797678106,17.827724907241787,3.2,48.0,,-4.984375,2.84375,5.85546875,0.22265625,0.6875,0.13671875,-8.5234375,-3.671875,9.4921875,1.0
4432031,,,,,,,,-3.09375,-0.23046875,0.55859375,0.30078125,-0.669921875,0.076171875,-6.609375,-6.73828125,4.24609375,1.0
4432032,,,,,,,,1.79296875,-7.46875,-3.53125,0.234375,-0.28515625,-0.95703125,-1.66796875,-13.98046875,0.1875,1.0
4432033,,,,,,,,3.0,-14.80078125,-3.1328125,0.28515625,0.060546875,-2.763671875,-0.328125,-21.3671875,0.609375,1.0
4432034,,,,,,,,17.82421875,-46.125,4.5859375,0.498046875,0.623046875,-2.97265625,14.69140625,-52.78125,8.34375,1.0
4432035,,,,,,,,27.375,-38.77734375,22.9375,0.3984375,1.1953125,-1.857421875,24.3828125,-45.50390625,26.6953125,1.0
4432036,,,,,,,,7.19921875,-23.3671875,4.609375,-0.021484375,1.419921875,-1.265625,4.26953125,-30.14453125,8.34375,1.0
4432037,,,,,,,,-3.16015625,-9.59375,0.875,-1.138671875,2.052734375,-0.58984375,-6.07421875,-16.43359375,4.515625,1.0
4432038,,,,,,,,-2.8515625,-9.36328125,-1.64453125,-1.017578125,0.21875,-0.591796875,-5.765625,-16.234375,1.94921875,1.0
4432039,,,,,,,,-1.87109375,-9.7890625,-4.50390625,-0.396484375,-3.923828125,0.20703125,-4.69140625,-16.6953125,-0.88671875,1.0
4432040,36.01256216666666,129.3193735,69.73055012687196,17.994165543210258,2.9000000000000004,50.0,,1.21875,-10.4921875,-1.96875,-0.751953125,-3.998046875,-1.87890625,-8.5234375,-3.671875,9.4921875,1.0
4432041,,,,,,,,4.12109375,-11.9921875,2.59765625,-0.32421875,-1.599609375,-3.7578125,1.85546875,-19.07421875,6.31640625,1.0
4432042,,,,,,,,3.98828125,-11.9375,2.59765625,-0.791015625,0.416015625,-3.033203125,2.546875,-18.3828125,5.43359375,1.0
4432043,,,,,,,,5.953125,-10.11328125,-0.14453125,-1.189453125,0.609375,-2.33203125,4.23046875,-16.8515625,2.59765625,1.0
4432044,,,,,,,,5.97265625,-8.2734375,-2.48046875,-1.423828125,-0.2578125,-2.01953125,4.5390625,-12.55859375,1.18359375,1.0
4432045,,,,,,,,5.984375,-3.79296875,-1.640625,-1.43359375,-0.078125,-1.892578125,4.42578125,-8.6875,2.29296875,1.0
4432046,,,,,,,,5.74609375,-1.10546875,-1.01171875,-1.39453125,0.017578125,-1.705078125,4.1953125,-6.0078125,2.40625,1.0
4432047,,,,,,,,5.2734375,2.921875,-0.54296875,-1.119140625,0.052734375,-1.171875,3.54296875,-2.25390625,2.1796875,1.0
4432048,,,,,,,,4.12890625,6.8046875,-1.44921875,-0.9140625,-0.0546875,-1.333984375,2.81640625,1.5,0.33984375,1.0
4432049,,,,,,,,3.75390625,9.296875,-2.66796875,-0.818359375,-0.09765625,-1.515625,2.66015625,2.15234375,-0.12109375,1.0
4432050,36.01256416666667,129.31937666666667,70.0160214131154,18.216086281828307,3.6,51.0,,1.21875,-10.4921875,-1.96875,-0.751953125,-3.998046875,-1.87890625,2.2421875,3.875,-0.80859375,1.0
4432051,,,,,,,,2.8046875,12.03515625,-3.90625,-0.46875,-0.2734375,-1.724609375,2.01171875,4.56640625,-1.1171875,1.0
4432052,,,,,,,,2.58203125,12.46875,-4.0,-0.431640625,-0.25390625,-1.55859375,1.85546875,5.17578125,-1.4609375,1.0
4432053,,,,,,,,2.28515625,13.19921875,-4.2890625,-0.294921875,-0.078125,-1.24609375,2.5859375,5.02734375,-1.4609375,1.0
4432054,,,,,,,,4.05859375,10.65625,-4.6015625,-0.306640625,0.107421875,-0.97265625,4.6875,1.3828125,-1.9609375,1.0
4432055,,,,,,,,5.52734375,7.4140625,-4.6328125,-0.353515625,0.16015625,-0.8828125,5.53515625,-1.41015625,-1.69140625,1.0
4432056,,,,,,,,5.51953125,6.58203125,-4.42578125,-0.40625,0.220703125,-0.833984375,5.34765625,-2.1015625,-1.5,1.0
4432057,,,,,,,,3.44921875,4.87109375,-2.81640625,-0.478515625,0.54296875,-0.474609375,3.5390625,-3.13671875,-0.12109375,1.0
4432058,,,,,,,,1.5390625,5.34765625,-1.83203125,-0.439453125,0.787109375,0.177734375,1.6640625,-2.67578125,0.80078125,1.0
4432059,,,,,,,,-0.12890625,6.51171875,-1.01171875,-0.451171875,0.806640625,0.56640625,-0.01953125,-1.52734375,1.6015625,1.0
4432060,36.01256583333333,129.31937983333333,70.30149297992605,18.401020617628205,3.5,53.0,,-1.4296875,7.82421875,-0.046875,-0.751953125,-3.998046875,-1.87890625,2.2421875,3.875,-0.80859375,1.0
4432061,,,,,,,,-3.59375,9.90625,2.19140625,-0.654296875,0.2265625,2.04296875,-3.6953125,1.84375,4.703125,1.0
4432062,,,,,,,,-3.4609375,10.99609375,0.3984375,-0.6328125,-0.484375,2.369140625,-3.81640625,2.91796875,2.828125,1.0
4432063,,,,,,,,-3.04296875,10.87890625,-0.6640625,-0.51171875,-1.013671875,1.720703125,-3.5390625,2.80078125,1.71875,1.0
4432064,,,,,,,,-2.53125,5.71484375,-0.6328125,-0.38671875,-1.30859375,0.962890625,-3.08984375,-2.37109375,1.71875,1.0
4432065,,,,,,,,-3.546875,-4.7421875,4.140625,-0.181640625,-1.16015625,0.58203125,-4.1171875,-12.828125,6.46875,1.0
4432066,,,,,,,,-2.1328125,-25.703125,9.08203125,-0.11328125,-0.916015625,0.43359375,-2.703125,-33.78515625,11.41015625,1.0
4432067,,,,,,,,-1.40234375,-44.12109375,14.23828125,-0.15625,-0.083984375,0.0703125,-1.97265625,-52.20703125,16.54296875,1.0
4432068,,,,,,,,-1.43359375,-33.73046875,18.62109375,-0.296875,1.330078125,-1.05078125,-1.97265625,-41.8203125,20.91015625,1.0
4432069,,,,,,,,0.8828125,-9.875,1.55859375,0.095703125,3.25390625,-2.810546875,0.4765625,-18.0,3.82421875,1.0
4432070,36.0125685,129.31938233333332,70.52686405938704,18.6969137137949,3.3000000000000003,47.0,,5.39453125,-5.58203125,-3.86328125,-0.751953125,-3.998046875,-1.87890625,5.07421875,-13.703125,-1.57421875,1.0
4432071,,,,,,,,9.50390625,-7.1171875,-1.4296875,0.2421875,-1.681640625,1.59375,9.09765625,-15.24609375,0.875,1.0
4432072,,,,,,,,8.34765625,-9.98828125,2.9453125,0.076171875,-3.59375,1.234375,7.91015625,-18.109375,5.28125,1.0
4432073,,,,,,,,4.78515625,-13.51171875,3.6171875,0.1796875,-3.1640625,1.263671875,4.34765625,-21.63671875,5.96875,1.0
4432074,,,,,,,,3.4765625,-13.328125,3.15234375,0.615234375,-0.515625,2.048828125,2.96875,-21.4453125,5.55078125,1.0
4432075,,,,,,,,2.875,-9.9375,0.9375,0.57421875,1.60546875,2.94140625,2.1640625,-18.0390625,3.3671875,1.0
4432076,,,,,,,,2.0,-7.171875,-0.60546875,0.763671875,1.775390625,3.07421875,1.015625,-15.2421875,1.87109375,1.0
4432077,,,,,,,,1.34765625,-4.12890625,-0.1171875,1.14453125,0.689453125,2.716796875,-0.01953125,-12.1328125,2.4453125,1.0
4432078,,,,,,,,0.9296875,-3.2421875,-0.203125,1.2734375,0.4921875,2.6484375,-0.5546875,-11.22265625,2.40625,1.0
4432079,,,,,,,,-0.359375,-1.3828125,-1.19921875,1.486328125,0.537109375,2.892578125,-2.1640625,-9.26953125,1.56640625,1.0
4432080,36.01257016666667,129.31938433333335,70.70716133147408,18.881847219618873,3.4000000000000004,46.0,,-2.26953125,1.21484375,-2.265625,1.45703125,0.5703125,2.91796875,5.07421875,-13.703125,-1.57421875,1.0
4432081,,,,,,,,-3.8359375,6.59765625,-3.90234375,1.201171875,0.484375,3.171875,-6.23046875,-1.06640625,-0.88671875,1.0
4432082,,,,,,,,-3.68359375,8.36328125,-3.3046875,0.841796875,0.650390625,3.025390625,-6.45703125,0.84765625,-0.1953125,1.0
4432083,,,,,,,,-3.44140625,9.11328125,-2.9375,0.74609375,0.794921875,2.822265625,-6.33984375,1.65234375,0.1875,1.0
4432084,,,,,,,,-2.08203125,9.87109375,-1.54296875,0.5703125,1.111328125,2.236328125,-5.1875,2.49609375,1.60546875,1.0
4432085,,,,,,,,-1.390625,9.76953125,-2.08203125,0.435546875,1.30859375,1.556640625,-4.65625,2.45703125,1.06640625,1.0
4432086,,,,,,,,-0.3046875,9.04296875,-3.55859375,0.283203125,1.1796875,0.853515625,-3.69921875,1.76953125,-0.42578125,1.0
4432087,,,,,,,,-0.08984375,8.06640625,-4.42578125,0.234375,0.73046875,0.201171875,-3.5390625,0.80859375,-1.30859375,1.0
4432088,,,,,,,,0.03125,7.37109375,-4.65625,0.19921875,0.5,-0.064453125,-3.43359375,0.12109375,-1.5390625,1.0
4432089,,,,,,,,-0.2421875,4.89453125,-4.5,0.177734375,0.169921875,-0.244140625,-3.6953125,-2.37109375,-1.3828125,1.0
4432090,36.01257233333333,129.319387,70.947557727695,19.12226082969123,3.6,46.0,,0.46875,3.79296875,-4.2421875,1.45703125,0.5703125,2.91796875,-2.96875,-3.48046875,-1.1171875,1.0
4432091,,,,,,,,1.890625,4.71875,-3.61328125,0.248046875,0.119140625,-0.31640625,-1.515625,-2.56640625,-0.46484375,1.0
4432092,,,,,,,,2.90234375,5.4921875,-3.19140625,0.1796875,0.107421875,-0.44921875,-0.48046875,-1.796875,-0.04296875,1.0
4432093,,,,,,,,4.20703125,6.4296875,-2.74609375,0.255859375,-0.05078125,-0.54296875,0.86328125,-0.87890625,0.41796875,1.0
4432094,,,,,,,,4.1484375,7.45703125,-2.03515625,0.4375,-0.462890625,-0.56640625,0.8984375,0.12109375,1.1796875,1.0
4432095,,,,,,,,2.984375,8.53515625,-0.46484375,0.529296875,-0.681640625,-0.478515625,-0.2109375,1.19140625,2.79296875,1.0
4432096,,,,,,,,2.0625,8.7578125,0.7578125,0.568359375,-0.765625,-0.392578125,-1.09375,1.421875,4.0546875,1.0
4432097,,,,,,,,-0.97265625,8.75,2.83984375,0.5703125,-0.94921875,-0.095703125,-4.08203125,1.421875,6.19921875,1.0
4432098,,,,,,,,-2.40625,7.68359375,2.00390625,0.435546875,-1.349609375,0.25,-5.4609375,0.38671875,5.46875,1.0
4432099,,,,,,,,-2.7265625,6.68359375,1.78125,0.400390625,-1.505859375,0.087890625,-5.765625,-0.60546875,5.28125,1.0
4432100,36.01257433333333,129.31938983333333,71.2029791562796,19.34418136415309,3.3000000000000003,48.0,0.0,-1.65625,-0.52734375,-1.58203125,0.412109375,-1.501953125,-0.4375,-4.6171875,-7.8046875,1.98828125,1.0
4432101,,,,,,,,3.67578125,-29.6796875,4.20703125,0.486328125,-0.845703125,-1.02734375,0.82421875,-36.96484375,7.84765625,1.0
4432102,,,,,,,,10.8515625,-44.40625,8.4140625,0.517578125,0.208984375,-1.55859375,8.1015625,-51.7109375,12.1015625,1.0
4432103,,,,,,,,20.87109375,-35.9140625,23.21484375,0.59765625,0.884765625,-1.3671875,18.21484375,-43.24609375,26.92578125,1.0
4432104,,,,,,,,14.01171875,-21.7265625,11.21484375,0.640625,0.908203125,-1.55078125,11.39453125,-29.0703125,14.93359375,1.0
4432105,,,,,,,,1.8984375,-8.35546875,1.28515625,0.095703125,1.330078125,-1.494140625,-0.6328125,-15.73828125,5.01171875,1.0
4432106,,,,,,,,-2.83984375,-8.80078125,-0.796875,-0.263671875,-0.857421875,-1.59765625,-5.26953125,-16.23828125,2.90625,1.0
4432107,,,,,,,,-3.8046875,-10.0,-1.46484375,-0.244140625,-3.193359375,-1.04296875,-6.1484375,-17.46484375,2.25390625,1.0
4432108,,,,,,,,1.06640625,-14.03125,-0.625,-0.046875,-1.78515625,-2.1640625,-0.82421875,-21.56640625,3.25,1.0
4432109,,,,,,,,2.55078125,-11.2421875,-0.44140625,-0.259765625,-0.2421875,-2.927734375,0.78515625,-18.80859375,3.44140625,1.0
4432110,36.012575999999996,129.3193925,71.44337597752849,19.529115371827857,3.2,51.0,,6.1171875,-10.3515625,-0.80859375,0.412109375,-1.501953125,-0.4375,-4.6171875,-7.8046875,1.98828125,1.0
4432111,,,,,,,,6.80078125,-9.94140625,-0.4921875,-0.89453125,0.82421875,-2.7578125,5.45703125,-17.69140625,3.25,1.0
4432112,,,,,,,,6.625,-9.3671875,-0.328125,-1.005859375,0.5390625,-2.822265625,5.3828125,-17.16015625,3.3671875,1.0
4432113,,,,,,,,4.98828125,-6.29296875,-0.81640625,-1.2578125,0.388671875,-2.94921875,3.96484375,-14.1640625,2.79296875,1.0
4432114,,,,,,,,4.03515625,-3.86328125,-2.2421875,-1.361328125,0.443359375,-2.626953125,3.23828125,-11.83203125,1.2578125,1.0
4432115,,,,,,,,4.0390625,0.0859375,-4.890625,-1.388671875,0.24609375,-2.091796875,3.4296875,-7.9609375,-1.5,1.0
4432116,,,,,,,,3.99609375,1.53515625,-4.96484375,-1.2734375,-0.0625,-1.8203125,3.54296875,-6.578125,-1.69140625,1.0
4432117,,,,,,,,4.53515625,7.50390625,-2.32421875,-0.978515625,0.1953125,-1.892578125,4.42578125,-0.72265625,0.76171875,1.0
4432118,,,,,,,,4.30859375,8.84765625,-1.94921875,-0.78125,0.603515625,-1.84375,4.34765625,0.58203125,1.06640625,1.0
4432119,,,,,,,,4.23046875,9.16796875,-2.25390625,-0.6796875,0.677734375,-1.693359375,4.34765625,0.88671875,0.72265625,1.0
4432120,36.01257816666667,129.31939533333335,71.69879723255063,19.769529126814394,3.7,50.0,,2.80859375,11.375,-3.85546875,0.412109375,-1.501953125,-0.4375,3.04296875,3.07421875,-0.92578125,1.0
4432121,,,,,,,,2.1484375,12.34765625,-4.12109375,-0.359375,0.125,-0.826171875,2.46875,4.0234375,-1.23046875,1.0
4432122,,,,,,,,1.92578125,12.9765625,-4.40625,-0.33203125,-0.0546875,-0.66796875,2.31640625,4.640625,-1.5390625,1.0
4432123,,,,,,,,2.62890625,10.65625,-5.0390625,-0.431640625,0.01953125,-0.515625,3.12109375,2.3046875,-2.2265625,1.0
4432124,,,,,,,,3.1953125,8.52734375,-4.92578125,-0.431640625,0.119140625,-0.40234375,3.73828125,0.16015625,-2.15234375,1.0
4432125,,,,,,,,3.078125,6.1953125,-4.203125,-0.314453125,0.32421875,-0.2421875,3.65625,-2.1796875,-1.4609375,1.0
4432126,,,,,,,,2.53515625,5.62890625,-3.8046875,-0.251953125,0.4609375,-0.15234375,3.12109375,-2.75390625,-1.078125,1.0
4432127,,,,,,,,-0.68359375,4.98828125,-0.640625,-0.271484375,0.728515625,0.146484375,-0.09765625,-3.40234375,2.0625,1.0
4432128,,,,,,,,-3.33203125,5.33984375,3.10546875,-0.4296875,0.8203125,0.55078125,-2.77734375,-3.05859375,5.77734375,1.0
4432129,,,,,,,,-4.75,8.12109375,2.734375,-0.673828125,0.61328125,0.986328125,-4.2734375,-0.30078125,5.359375,1.0
4432130,36.01258,129.319398,71.93919388020275,19.97295635439085,3.5,50.0,,-3.58984375,10.28125,0.04296875,0.412109375,-1.501953125,-0.4375,3.04296875,3.07421875,-0.92578125,1.0
4432131,,,,,,,,-1.796875,12.796875,-3.171875,-0.912109375,-0.9921875,0.271484375,-1.4375,4.3359375,-0.6953125,1.0
4432132,,,,,,,,-1.4765625,13.15625,-3.8515625,-0.869140625,-1.419921875,-0.078125,-1.09375,4.68359375,-1.421875,1.0
4432133,,,,,,,,-1.23046875,12.90234375,-4.65625,-0.701171875,-1.87109375,-0.236328125,-0.78515625,4.41015625,-2.3046875,1.0
4432134,,,,,,,,-1.4453125,11.03515625,-3.75,-0.6328125,-1.8359375,0.1640625,-0.9375,2.53515625,-1.4609375,1.0
4432135,,,,,,,,-1.30859375,3.609375,-1.07421875,-0.615234375,-1.302734375,0.58203125,-0.78515625,-4.8984375,1.14453125,1.0
4432136,,,,,,,,-2.05859375,-10.40234375,5.890625,-0.576171875,-0.880859375,0.705078125,-1.55078125,-18.9140625,8.078125,1.0
4432137,,,,,,,,-3.65234375,-51.453125,15.4921875,-0.392578125,0.654296875,0.42578125,-3.19921875,-59.984375,17.6171875,1.0
4432138,,,,,,,,1.55078125,-21.359375,13.5859375,-0.416015625,1.744140625,-0.69140625,1.97265625,-29.91796875,15.6640625,1.0
4432139,,,,,,,,4.8046875,-8.21875,5.671875,-0.271484375,1.78515625,-1.513671875,5.265625,-16.7734375,7.734375,1.0
4432140,36.01258233333333,129.3194005,72.16456516712009,20.231863080313914,3.2,46.0,,5.73046875,-5.27734375,-3.69921875,0.412109375,-1.501953125,-0.4375,3.04296875,3.07421875,-0.92578125,1.0
4432141,,,,,,,,6.83203125,-10.1328125,-0.12109375,0.203125,-3.15234375,0.884765625,7.44921875,-18.69140625,1.94921875,1.0
4432142,,,,,,,,5.27734375,-15.4140625,3.84765625,0.623046875,-3.513671875,1.60546875,5.87890625,-23.9765625,5.93359375,1.0
4432143,,,,,,,,3.85546875,-13.21484375,2.56640625,0.50390625,1.041015625,2.662109375,4.23046875,-21.7890625,4.70703125,1.0
4432144,,,,,,,,2.65234375,-9.34375,0.86328125,0.59765625,1.73828125,2.548828125,2.77734375,-17.92578125,3.05859375,1.0
4432145,,,,,,,,0.47265625,-6.203125,-1.18359375,0.828125,0.646484375,2.6171875,0.36328125,-14.78125,1.06640625,1.0
4432146,,,,,,,,0.0703125,-4.83984375,-1.765625,1.03125,-0.208984375,3.34765625,-0.2890625,-13.3984375,0.5703125,1.0
4432147,,,,,,,,-1.25,-2.54296875,-2.625,1.2890625,-0.017578125,3.794921875,-1.8984375,-11.0625,-0.1953125,1.0
4432148,,,,,,,,-3.9453125,0.25390625,-3.1796875,1.408203125,0.677734375,3.646484375,-5.078125,-8.19140625,-0.578125,1.0
4432149,,,,,,,,-4.48046875,1.67578125,-2.90625,1.353515625,0.833984375,3.37890625,-5.91796875,-6.6953125,-0.1953125,1.0
4432150,36.012584,129.31940283333333,72.37491215791788,20.41679686828621,3.1,47.0,,-4.703125,5.55078125,-2.7734375,1.126953125,0.79296875,2.99609375,-6.57421875,-2.71484375,0.0703125,1.0
4432151,,,,,,,,-4.44921875,9.07421875,-2.30078125,0.8671875,0.599609375,2.564453125,-6.68359375,0.92578125,0.64453125,1.0
4432152,,,,,,,,-4.1484375,9.578125,-2.24609375,0.779296875,0.49609375,2.353515625,-6.49609375,1.4609375,0.72265625,1.0
4432153,,,,,,,,-3.00390625,12.01171875,-2.73046875,0.48828125,0.296875,1.853515625,-5.61328125,3.98828125,0.30078125,1.0
4432154,,,,,,,,-1.9140625,12.08203125,-3.44921875,0.373046875,0.2109375,1.3984375,-4.66015625,4.10546875,-0.38671875,1.0
4432155,,,,,,,,-1.24609375,9.51171875,-4.578125,0.30078125,0.06640625,0.8828125,-4.08203125,1.57421875,-1.5,1.0
4432156,,,,,,,,-0.8671875,7.12890625,-4.2109375,0.306640625,0.0,0.65625,-3.73828125,-0.80078125,-1.1171875,1.0
4432157,,,,,,,,-0.453125,5.4609375,-3.7734375,0.3515625,-0.06640625,0.384765625,-3.3515625,-2.4453125,-0.65625,1.0
4432158,,,,,,,,0.265625,4.1796875,-2.80078125,0.28515625,0.142578125,0.2734375,-2.6640625,-3.71484375,0.33984375,1.0
4432159,,,,,,,,0.6875,4.140625,-2.2734375,0.236328125,0.2890625,0.12890625,-2.2421875,-3.75,0.875,1.0
4432160,36.012586166666665,129.31940533333332,72.60028357367817,20.65721040185477,3.4000000000000004,47.0,,2.19921875,4.984375,-1.125,0.234375,0.45703125,-0.2421875,-0.74609375,-2.90625,2.0234375,1.0
4432161,,,,,,,,2.84765625,7.0234375,-0.83203125,0.40234375,0.22265625,-0.5859375,-0.05859375,-0.875,2.33203125,1.0
4432162,,,,,,,,2.33203125,9.25390625,-0.52734375,0.505859375,-0.310546875,-0.810546875,-0.51953125,1.34765625,2.671875,1.0
4432163,,,,,,,,1.55859375,10.41015625,-0.8125,0.578125,-0.931640625,-0.8359375,-1.20703125,2.4921875,2.4453125,1.0
4432164,,,,,,,,0.66015625,11.58984375,-2.421875,0.62109375,-1.453125,-0.619140625,-2.01171875,3.68359375,0.9140625,1.0
4432165,,,,,,,,0.4375,10.890625,-3.2734375,0.60546875,-1.70703125,-0.365234375,-2.125,2.99609375,0.1484375,1.0
4432166,,,,,,,,0.3203125,10.203125,-3.3203125,0.58203125,-1.697265625,-0.275390625,-2.203125,2.30859375,0.1484375,1.0
4432167,,,,,,,,-0.515625,8.41796875,-2.2109375,0.6015625,-1.3515625,-0.158203125,-2.97265625,0.54296875,1.3359375,1.0
4432168,,,,,,,,-2.28515625,3.8046875,1.00390625,0.642578125,-0.724609375,-0.09765625,-4.69140625,-4.0546875,4.62890625,1.0
4432169,,,,,,,,-2.05078125,-6.26171875,1.21875,0.6328125,-0.1015625,-0.15625,-4.42578125,-14.08984375,4.8984375,1.0
4432170,36.012588,129.3194085,72.88575485640044,20.86063802849882,3.3000000000000003,50.0,,2.4609375,-24.28515625,4.49609375,0.6015625,0.314453125,-0.8984375,0.1328125,-32.09765625,8.23046875,1.0
4432171,,,,,,,,17.3828125,-19.79296875,8.25,0.796875,0.404296875,-1.41015625,15.1875,-27.609375,12.0625,1.0
4432172,,,,,,,,12.76953125,-15.84765625,1.94921875,0.646484375,0.27734375,-1.6015625,10.62890625,-23.6640625,5.77734375,1.0
4432173,,,,,,,,3.3125,-10.5234375,3.19140625,-0.0390625,0.171875,-2.068359375,1.3203125,-18.3828125,7.04296875,1.0
4432174,,,,,,,,-0.28125,-9.76953125,3.62109375,-0.306640625,0.197265625,-2.0390625,-2.203125,-17.6484375,7.46484375,1.0
4432175,,,,,,,,-5.96875,-11.47265625,1.26953125,-0.587890625,-2.216796875,-0.71484375,-7.71875,-19.41796875,5.08984375,1.0
4432176,,,,,,,,-3.296875,-12.63671875,-0.78515625,-0.20703125,-3.439453125,0.09375,-4.921875,-20.60546875,3.05859375,1.0
4432177,,,,,,,,-1.19921875,-13.27734375,-0.76171875,-0.3671875,-3.234375,-0.517578125,-2.73828125,-21.25390625,3.09765625,1.0
4432178,,,,,,,,2.6484375,-11.546875,-0.140625,-0.67578125,-1.328125,-2.599609375,1.3203125,-19.57421875,3.7109375,1.0
4432179,,,,,,,,4.8359375,-10.08203125,0.12109375,-0.927734375,-0.513671875,-3.248046875,3.65625,-18.15234375,3.94140625,1.0
4432180,36.0125895,129.31941116666667,73.12615175427266,21.027078876377075,3.1,52.0,,5.640625,-9.765625,-0.328125,-1.134765625,0.072265625,-2.796875,4.84375,-17.96484375,3.3671875,1.0
4432181,,,,,,,,5.1953125,-8.0,-0.80078125,-1.326171875,0.072265625,-2.5390625,4.6171875,-16.2734375,2.79296875,1.0
4432182,,,,,,,,4.4765625,-6.20703125,-0.53125,-1.453125,0.21875,-2.568359375,4.1171875,-14.546875,2.9453125,1.0
4432183,,,,,,,,3.078125,-2.3125,-1.94140625,-1.5546875,0.283203125,-2.466796875,2.9296875,-10.72265625,1.41015625,1.0
4432184,,,,,,,,3.47265625,2.31640625,-3.98828125,-1.564453125,0.080078125,-2.0546875,3.62109375,-6.19921875,-0.84765625,1.0
4432185,,,,,,,,3.55859375,4.4921875,-3.03515625,-1.33984375,-0.099609375,-1.97265625,3.96484375,-4.09375,-0.08203125,1.0
4432186,,,,,,,,3.546875,5.6171875,-2.64453125,-1.216796875,-0.05078125,-1.99609375,4.0390625,-2.984375,0.26171875,1.0
4432187,,,,,,,,3.70703125,8.140625,-2.03515625,-0.96875,0.2421875,-2.025390625,4.38671875,-0.4921875,0.76171875,1.0
4432188,,,,,,,,2.8828125,10.30078125,-2.5390625,-0.71875,0.43359375,-1.92578125,3.734375,1.65234375,0.1875,1.0
4432189,,,,,,,,2.45703125,11.15234375,-2.83984375,-0.5,0.296875,-1.64453125,3.46484375,2.49609375,-0.16015625,1.0
4432190,36.01259133333333,129.31941433333336,73.41162301263833,21.230506520071177,3.7,53.0,,1.08984375,12.80078125,-3.625,-0.34765625,-0.052734375,-1.080078125,2.27734375,4.14453125,-1.0,1.0
4432191,,,,,,,,1.01953125,11.06640625,-4.390625,-0.482421875,-0.12890625,-1.255859375,2.4296875,2.41796875,-1.84375,1.0
4432192,,,,,,,,1.33203125,9.421875,-5.05859375,-0.521484375,-0.134765625,-1.193359375,2.81640625,0.7734375,-2.53515625,1.0
4432193,,,,,,,,1.6875,7.50390625,-4.96484375,-0.54296875,-0.126953125,-0.953125,3.27734375,-1.14453125,-2.49609375,1.0
4432194,,,,,,,,1.60546875,6.39453125,-4.08984375,-0.546875,-0.0625,-0.826171875,3.23828125,-2.25390625,-1.65234375,1.0
4432195,,,,,,,,-0.03125,6.2421875,-1.97265625,-0.529296875,0.208984375,-0.490234375,1.6640625,-2.41015625,0.41796875,1.0
4432196,,,,,,,,-0.8203125,6.43359375,-0.95703125,-0.556640625,0.376953125,-0.224609375,0.8984375,-2.2109375,1.41015625,1.0
4432197,,,,,,,,-2.91015625,7.91015625,0.82421875,-0.66796875,0.611328125,0.48828125,-1.20703125,-0.76171875,3.1328125,1.0
4432198,,,,,,,,-3.66796875,8.6171875,2.2578125,-0.794921875,0.515625,1.14453125,-2.05078125,-0.0703125,4.515625,1.0
4432199,,,,,,,,-3.9765625,11.46875,1.72265625,-0.974609375,-0.22265625,1.337890625,-2.5078125,2.7265625,3.859375,1.0
4432200,36.01259366666667,129.31941733333332,73.68206889825052,21.48941366408739,3.7,50.0,0.0,-3.51171875,11.94140625,0.8828125,-0.34765625,-0.052734375,-1.080078125,2.27734375,4.14453125,-1.0,1.0
4432201,,,,,,,,-1.5703125,12.6171875,-0.46484375,-0.875,-1.26953125,0.677734375,-0.2109375,3.8359375,1.52734375,1.0
4432202,,,,,,,,-1.34765625,11.9453125,0.04296875,-0.498046875,-1.810546875,0.03125,0.05859375,1.9609375,2.2890625,1.0
4432203,,,,,,,,-1.32421875,10.765625,0.42578125,-0.376953125,-1.72265625,-0.052734375,-0.2109375,-3.51953125,3.51953125,1.0
4432204,,,,,,,,-2.859375,-0.3515625,5.19921875,-0.1796875,-0.794921875,-0.13671875,0.74609375,-30.6796875,16.3515625,1.0
4432205,,,,,,,,0.96484375,-48.08203125,23.0234375,-0.1484375,0.46484375,-0.171875,-1.20703125,-61.625,24.12890625,1.0
4432206,,,,,,,,-6.22265625,-46.0546875,15.0234375,-0.34375,2.37109375,-1.296875,-3.7734375,-27.95703125,11.87109375,1.0
4432207,,,,,,,,-2.9609375,-11.09375,7.30859375,0.349609375,2.841796875,-1.16015625,0.36328125,-14.82421875,4.97265625,1.0
4432208,,,,,,,,-1.24609375,-6.046875,3.18359375,0.546875,1.705078125,0.572265625,2.46875,-13.01953125,0.41796875,1.0
4432209,,,,,,,,9.55078125,-6.7265625,-5.3515625,0.185546875,-1.78515625,2.2109375,14.57421875,-15.546875,-0.54296875,1.0
4432210,36.012596,129.31941999999998,73.92246498664073,21.748320563893326,3.4000000000000004,47.0,,-3.51171875,11.94140625,0.8828125,0.33203125,-3.861328125,0.68359375,8.9453125,-20.87109375,8.23046875,1.0
4432211,,,,,,,,4.51171875,-14.85546875,6.43359375,0.62109375,-1.95703125,1.51953125,3.92578125,-24.7421875,8.30859375,1.0
4432212,,,,,,,,1.09375,-12.78515625,3.3046875,0.658203125,1.17578125,3.84375,2.2421875,-21.63671875,5.203125,1.0
4432213,,,,,,,,0.87890625,-10.9765625,1.734375,0.716796875,1.7578125,4.09765625,1.85546875,-19.83984375,3.671875,1.0
4432214,,,,,,,,0.046875,-7.8359375,0.0390625,0.947265625,1.35546875,3.66796875,0.6328125,-16.734375,2.0625,1.0
4432215,,,,,,,,-2.49609375,-3.59375,0.375,1.41796875,-0.09765625,2.724609375,-2.31640625,-12.484375,2.5625,1.0
4432216,,,,,,,,-3.8203125,-1.81640625,-0.41015625,1.6015625,-0.08984375,3.125,-3.890625,-10.6796875,1.91015625,1.0
4432217,,,,,,,,-4.37890625,0.09765625,-1.09375,1.70703125,0.408203125,3.18359375,-4.73046875,-8.73046875,1.375,1.0
4432218,,,,,,,,-4.5703125,1.2265625,-1.6015625,1.677734375,0.6171875,3.0703125,-5.078125,-7.58203125,0.953125,1.0
4432219,,,,,,,,-5.10546875,4.6953125,-2.38671875,1.4453125,0.83203125,3.0078125,-5.87890625,-4.0546875,0.30078125,1.0
4432220,36.01259783333333,129.31942266666667,74.1628615313289,21.951747851994813,3.5,48.0,,-4.2890625,6.74609375,-3.1015625,0.33203125,-3.861328125,0.68359375,-5.34765625,-1.94921875,-0.3125,1.0
4432221,,,,,,,,-3.89453125,8.30078125,-2.8515625,0.96484375,0.80859375,2.85546875,-5.23046875,-0.33984375,0.03125,1.0
4432222,,,,,,,,-3.08984375,10.28515625,-1.51953125,0.59375,0.736328125,2.390625,-4.8046875,1.73046875,1.44921875,1.0
4432223,,,,,,,,-2.09765625,12.015625,-1.765625,0.55078125,0.78125,2.203125,-3.92578125,3.4921875,1.21875,1.0
4432224,,,,,,,,-0.84375,10.81640625,-4.26171875,0.40234375,0.7265625,1.080078125,-3.0078125,2.37890625,-1.23046875,1.0
4432225,,,,,,,,-1.5703125,8.7265625,-4.140625,0.392578125,0.443359375,0.642578125,-3.8125,0.3125,-1.078125,1.0
4432226,,,,,,,,-2.55078125,6.56640625,-2.96875,0.32421875,0.205078125,0.568359375,-4.84375,-1.83203125,0.109375,1.0
4432227,,,,,,,,-2.9375,5.4609375,-2.34765625,0.333984375,0.29296875,0.798828125,-5.30859375,-2.90625,0.76171875,1.0
4432228,,,,,,,,-3.08203125,5.140625,-1.93359375,0.29296875,0.427734375,0.83203125,-5.4921875,-3.2109375,1.18359375,1.0
4432229,,,,,,,,-2.20703125,5.1171875,-1.40625,0.205078125,0.646484375,0.583984375,-4.69140625,-3.2109375,1.71875,1.0
4432230,36.012600166666665,129.3194255,74.41828248218467,22.210654892210204,3.7,48.0,,0.49609375,8.00390625,-2.74609375,0.24609375,0.62890625,0.287109375,-2.05078125,-0.30078125,0.37890625,1.0
4432231,,,,,,,,0.98046875,8.80859375,-3.0234375,0.384765625,0.037109375,-0.36328125,-0.7109375,1.765625,-0.04296875,1.0
4432232,,,,,,,,2.6640625,11.21484375,-3.3984375,0.49609375,-0.48828125,-0.798828125,0.44140625,3.22265625,-0.3515625,1.0
4432233,,,,,,,,3.12109375,11.7890625,-3.76171875,0.50390625,-0.796875,-0.986328125,1.015625,3.53515625,-0.84765625,1.0
4432234,,,,,,,,3.25,11.7109375,-4.08203125,0.48828125,-0.89453125,-1.083984375,0.4765625,3.109375,-0.46484375,1.0
4432235,,,,,,,,-0.109375,9.3046875,-0.73046875,0.5390625,-0.88671875,-0.611328125,-3.390625,0.1953125,3.671875,1.0
4432236,,,,,,,,-2.21484375,7.49609375,1.20703125,0.5390625,-0.703125,-0.052734375,-5.0390625,-2.0625,5.77734375,1.0
4432237,,,,,,,,-4.421875,2.984375,4.859375,0.509765625,-0.349609375,0.03125,-6.80078125,-7.1953125,8.38671875,1.0
4432238,,,,,,,,-4.27734375,-0.87109375,3.13671875,0.48046875,-0.009765625,-0.609375,-4.34765625,-11.87109375,3.48046875,1.0
4432239,,,,,,,,-0.921875,-7.54296875,-0.39453125,0.4765625,0.33203125,-1.60546875,-1.62890625,-22.4765625,2.0625,1.0
4432240,36.012602,129.31942916666668,74.74882834344118,22.41408296147424,3.6,51.0,,2.33203125,-23.77734375,-1.76953125,0.529296875,0.5390625,-2.671875,15.72265625,-56.109375,9.6875,1.0
4432241,,,,,,,,17.51171875,-47.86328125,6.0625,0.568359375,0.6484375,-2.66796875,26.10546875,-65.421875,21.6015625,1.0
4432242,,,,,,,,32.2734375,-53.35546875,26.1796875,0.583984375,0.84765625,-2.14453125,22.65625,-41.859375,24.01171875,1.0
4432243,,,,,,,,24.171875,-33.58203125,20.33984375,0.41015625,0.783203125,-1.818359375,5.3828125,-27.1484375,7.38671875,1.0
4432244,,,,,,,,6.7890625,-18.85546875,3.69140625,-0.48828125,1.3984375,-0.658203125,0.44140625,-22.2890625,7.734375,1.0
4432245,,,,,,,,-2.92578125,-8.859375,2.60546875,-0.552734375,-2.44140625,0.271484375,-5.99609375,-17.12109375,0.5703125,1.0
4432246,,,,,,,,-4.68359375,-8.7265625,-3.0,-0.439453125,-3.845703125,-0.388671875,-3.890625,-15.890625,1.52734375,1.0
4432247,,,,,,,,-2.640625,-7.4921875,-2.05078125,-0.544921875,-3.439453125,-1.76953125,-2.28125,-16.77734375,2.71484375,1.0
4432248,,,,,,,,-1.3046875,-8.328125,-0.86328125,-0.275390625,-1.14453125,-4.001953125,-1.0546875,-17.38671875,3.94140625,1.0
4432249,,,,,,,,1.1171875,-8.3125,0.68359375,-0.685546875,0.435546875,-3.623046875,1.359375,-16.31640625,3.40234375,1.0
4432250,36.01260366666667,129.31943233333334,75.03429967483103,22.59901745250463,3.3000000000000003,53.0,,2.33203125,-23.77734375,-1.76953125,0.529296875,0.5390625,-2.671875,2.1640625,-15.7734375,2.5234375,1.0
4432251,,,,,,,,4.04296875,-6.36328125,-2.30859375,-1.162109375,0.205078125,-2.505859375,4.42578125,-14.7421875,0.5703125,1.0
4432252,,,,,,,,4.9765625,-5.08203125,-2.90625,-1.431640625,-0.09375,-2.4375,5.2265625,-13.09765625,0.76171875,1.0
4432253,,,,,,,,5.09375,-4.4375,-2.53515625,-1.55859375,0.02734375,-2.369140625,5.2265625,-12.09375,1.14453125,1.0
4432254,,,,,,,,5.0,-2.27734375,-1.59765625,-1.6484375,0.482421875,-2.09375,4.76953125,-8.265625,2.140625,1.0
4432255,,,,,,,,4.0625,3.32421875,-0.921875,-1.5625,0.765625,-1.53125,4.50390625,-4.0546875,1.796875,1.0
4432256,,,,,,,,3.71484375,6.15234375,-1.5,-0.998046875,0.4609375,-1.14453125,3.04296875,1.9609375,-0.46484375,1.0
4432257,,,,,,,,1.77734375,11.41015625,-3.3125,-0.640625,0.1328125,-1.5859375,2.1640625,3.2578125,-1.1171875,1.0
4432258,,,,,,,,1.21875,12.15234375,-3.75,-0.498046875,0.087890625,-1.576171875,2.01171875,3.41796875,-1.26953125,1.0
4432259,,,,,,,,0.3125,12.265625,-4.0390625,-0.361328125,0.103515625,-1.4375,1.3984375,3.375,-1.4609375,1.0
4432260,36.012605666666666,129.31943516666666,75.2897208984347,22.820938106258772,3.7,52.0,,0.0625,12.19140625,-4.046875,-0.369140625,0.173828125,-1.431640625,1.28125,3.30078125,-1.5,1.0
4432261,,,,,,,,0.54296875,10.2578125,-4.3203125,-0.388671875,0.2109375,-1.44921875,1.89453125,1.3828125,-1.8046875,1.0
4432262,,,,,,,,1.0234375,8.3359375,-4.47265625,-0.501953125,0.236328125,-1.36328125,2.5078125,-0.53125,-1.99609375,1.0
4432263,,,,,,,,1.75,6.48828125,-4.05078125,-0.64453125,0.287109375,-1.107421875,3.3515625,-2.37109375,-1.61328125,1.0
4432264,,,,,,,,1.87890625,5.79296875,-3.30859375,-0.66015625,0.484375,-0.740234375,3.578125,-3.05859375,-0.92578125,1.0
4432265,,,,,,,,0.62890625,5.80078125,-1.8359375,-0.5625,0.71484375,-0.21484375,2.39453125,-3.05859375,0.4921875,1.0
4432266,,,,,,,,0.28515625,6.22265625,-1.859375,-0.52734375,0.759765625,0.068359375,2.05078125,-2.6328125,0.453125,1.0
4432267,,,,,,,,-0.6796875,7.5,-1.296875,-0.53125,0.69140625,0.54296875,1.0546875,-1.37890625,0.953125,1.0
4432268,,,,,,,,-1.72265625,9.9375,-0.953125,-0.580078125,0.37109375,0.763671875,-0.05859375,1.0390625,1.26171875,1.0
4432269,,,,,,,,-3.0234375,11.73046875,0.55859375,-0.63671875,-0.009765625,0.939453125,-1.4375,2.80078125,2.71484375,1.0
4432270,36.01260766666667,129.31943816666666,75.56016699838905,23.04285889719418,3.6,51.0,,-3.671875,12.20703125,2.16015625,-0.57421875,-0.447265625,1.13671875,-2.1640625,3.26171875,4.2421875,1.0
4432271,,,,,,,,-3.3125,11.81640625,1.52734375,-0.40234375,-0.875,1.34375,-1.8984375,2.83984375,3.5546875,1.0
4432272,,,,,,,,-2.08984375,8.73046875,0.4765625,-0.189453125,-1.5,0.8515625,-0.78515625,-0.26171875,2.44921875,1.0
4432273,,,,,,,,-2.03515625,-5.98046875,6.30078125,-0.05078125,-1.49609375,0.32421875,-0.74609375,-14.96875,8.23046875,1.0
4432274,,,,,,,,-2.46484375,-54.36328125,21.140625,0.0703125,-0.791015625,0.162109375,-1.16796875,-63.3515625,23.0546875,1.0
4432275,,,,,,,,-7.19921875,-55.01171875,16.57421875,-0.40625,2.37109375,-0.580078125,-8.484375,-54.5390625,11.984375,1.0
4432276,,,,,,,,-4.80859375,-17.93359375,5.19921875,0.203125,3.5703125,-1.376953125,-0.6328125,-20.37890625,3.48046875,1.0
4432277,,,,,,,,-0.3671875,-6.9140625,-1.84375,0.626953125,1.119140625,1.20703125,2.5859375,-13.6328125,-2.53515625,1.0
4432278,,,,,,,,9.171875,-6.29296875,-7.796875,0.18359375,-2.892578125,1.890625,14.765625,-16.078125,-3.375,1.0
4432279,,,,,,,,13.17578125,-8.9140625,2.8984375,0.318359375,-4.064453125,0.703125,14.30859375,-17.92578125,4.9375,1.0
4432280,36.01261,129.31944133333334,75.84563765817367,23.30176623780775,3.4000000000000004,48.0,,-3.671875,12.20703125,2.16015625,0.451171875,-2.048828125,1.529296875,-2.1640625,3.26171875,4.2421875,1.0
4432281,,,,,,,,3.21484375,-11.765625,3.3125,0.67578125,1.251953125,4.146484375,4.23046875,-20.80078125,5.359375,1.0
4432282,,,,,,,,3.05078125,-10.58984375,1.87109375,0.787109375,2.005859375,4.400390625,3.92578125,-19.640625,3.94140625,1.0
4432283,,,,,,,,1.55078125,-7.85546875,-0.8203125,0.931640625,1.59765625,3.876953125,2.01171875,-16.92578125,1.3359375,1.0
4432284,,,,,,,,-0.33203125,-3.94921875,-1.15234375,1.1875,0.3203125,2.986328125,-0.40234375,-13.01953125,1.14453125,1.0
4432285,,,,,,,,-4.73046875,1.3984375,-0.90234375,1.720703125,-0.505859375,3.251953125,-5.19140625,-7.62109375,1.60546875,1.0
4432286,,,,,,,,-5.27734375,1.92578125,-1.7109375,1.681640625,-0.185546875,3.5,-6.03515625,-7.04296875,0.953125,1.0
4432287,,,,,,,,-6.16796875,4.0703125,-3.78515625,1.5859375,0.017578125,3.525390625,-7.2578125,-4.8203125,-0.96484375,1.0
4432288,,,,,,,,-6.12109375,7.66796875,-3.84765625,1.419921875,0.171875,3.451171875,-7.5234375,-1.14453125,-0.88671875,1.0
4432289,,,,,,,,-5.49609375,8.5859375,-3.55859375,1.21484375,0.505859375,3.30078125,-7.1796875,-0.1484375,-0.50390625,1.0
4432290,36.01261183333334,129.31944383333334,76.07100922518374,23.5051934500399,3.6,48.0,,-3.62890625,12.109375,-0.59765625,0.701171875,1.328125,2.326171875,-5.87890625,3.53125,2.59765625,1.0
4432291,,,,,,,,-2.578125,12.54296875,-2.14453125,0.580078125,1.400390625,1.552734375,-5.04296875,4.02734375,1.06640625,1.0
4432292,,,,,,,,-2.0390625,12.2890625,-2.99609375,0.494140625,1.2265625,1.1484375,-4.578125,3.796875,0.22265625,1.0
4432293,,,,,,,,-1.44140625,10.49609375,-4.6875,0.408203125,0.5859375,0.58203125,-4.078125,2.03515625,-1.4609375,1.0
4432294,,,,,,,,-1.4296875,6.87109375,-4.6328125,0.3125,0.00390625,0.3125,-4.1171875,-1.56640625,-1.3828125,1.0
4432295,,,,,,,,-0.9921875,4.94140625,-4.359375,0.314453125,-0.06640625,0.1328125,-3.6953125,-3.48046875,-1.078125,1.0
4432296,,,,,,,,-0.52734375,4.4375,-4.25390625,0.310546875,0.08984375,0.0234375,-3.23828125,-3.9765625,-0.96484375,1.0
4432297,,,,,,,,1.50390625,5.0859375,-2.8046875,0.203125,0.4921875,-0.380859375,-1.20703125,-3.33203125,0.4921875,1.0
4432298,,,,,,,,2.69921875,5.70703125,-2.49609375,0.064453125,0.771484375,-0.732421875,0.01953125,-2.71484375,0.80078125,1.0
4432299,,,,,,,,3.1640625,6.10546875,-2.453125,0.142578125,0.78515625,-0.859375,0.515625,-2.328125,0.8359375,1.0
4432300,36.012614,129.31944716666666,76.37150489854052,23.74560773110194,3.8000000000000003,50.0,0.0,4.06640625,7.84765625,-2.453125,0.314453125,0.48046875,-0.9921875,-5.87890625,3.53125,2.59765625,1.0
4432301,,,,,,,,4.06640625,9.73828125,-2.3125,0.48046875,0.005859375,-0.984375,1.55078125,1.26953125,0.9921875,1.0
4432302,,,,,,,,2.72265625,11.046875,-2.20703125,0.54296875,-0.423828125,-0.830078125,0.28515625,2.57421875,1.14453125,1.0
4432303,,,,,,,,1.99609375,11.26953125,-2.15625,0.5390625,-0.61328125,-0.671875,-0.40234375,2.80078125,1.21875,1.0
4432304,,,,,,,,-1.0625,10.91015625,-1.0,0.4921875,-0.9765625,-0.08984375,-3.39453125,2.45703125,2.4453125,1.0
4432305,,,,,,,,-3.0703125,9.69140625,0.36328125,0.4375,-1.267578125,0.474609375,-5.3828125,1.26953125,3.86328125,1.0
4432306,,,,,,,,-4.01953125,5.71484375,1.52734375,0.357421875,-1.369140625,0.671875,-6.33984375,-2.67578125,5.08984375,1.0
4432307,,,,,,,,-1.578125,-3.73046875,0.0078125,0.2578125,-1.166015625,0.181640625,-3.890625,-12.09765625,3.6328125,1.0
4432308,,,,,,,,0.515625,-9.5625,0.62890625,0.251953125,-0.650390625,-0.736328125,-1.7421875,-17.92578125,4.28515625,1.0
4432309,,,,,,,,22.578125,-60.1875,18.6015625,0.271484375,0.056640625,-1.796875,20.4375,-68.5625,22.2890625,1.0
4432310,36.012615833333335,129.31945066666668,76.68702576925949,23.94903574416024,3.5,52.0,,14.19140625,-38.70703125,19.734375,0.314453125,0.48046875,-0.9921875,-5.87890625,3.53125,2.59765625,1.0
4432311,,,,,,,,6.14453125,-17.484375,5.41015625,0.21484375,1.888671875,-2.330078125,4.30859375,-25.93359375,9.11328125,1.0
4432312,,,,,,,,0.2734375,-8.01953125,0.8125,-0.376953125,1.962890625,-1.671875,-1.4765625,-16.50390625,4.4765625,1.0
4432313,,,,,,,,-4.24609375,-8.78515625,-4.60546875,-0.12109375,-5.234375,-1.310546875,-5.57421875,-17.34375,-0.92578125,1.0
4432314,,,,,,,,-0.10546875,-11.55859375,-2.8203125,-0.12890625,-4.794921875,-1.595703125,-1.28515625,-20.140625,0.875,1.0
4432315,,,,,,,,3.2734375,-10.26171875,-0.8359375,-1.078125,-0.12109375,-3.08203125,2.546875,-18.9140625,2.828125,1.0
4432316,,,,,,,,6.5859375,-8.4609375,0.1953125,-1.2265625,1.087890625,-2.814453125,6.109375,-17.19921875,3.75,1.0
4432317,,,,,,,,6.68359375,-8.24609375,0.125,-1.126953125,1.09765625,-2.82421875,6.30078125,-17.0,3.6328125,1.0
4432318,,,,,,,,5.0078125,-6.57421875,-1.19140625,-1.234375,0.658203125,-2.9921875,4.84375,-15.390625,2.21484375,1.0
4432319,,,,,,,,4.0546875,-4.3984375,-1.96875,-1.267578125,0.470703125,-2.95703125,4.0390625,-13.25,1.375,1.0
4432320,36.01261783333334,129.3194538333333,76.97249668358721,24.170956709397206,3.6,52.0,,3.29296875,-0.82421875,-4.19140625,0.314453125,0.48046875,-0.9921875,-5.87890625,3.53125,2.59765625,1.0
4432321,,,,,,,,3.62890625,4.39453125,-5.12890625,-1.26953125,-0.064453125,-2.240234375,4.26953125,-4.58984375,-2.15234375,1.0
4432322,,,,,,,,3.41796875,5.640625,-4.328125,-1.169921875,0.056640625,-2.287109375,4.26953125,-3.3671875,-1.4609375,1.0
4432323,,,,,,,,2.7578125,9.48828125,-1.0078125,-1.052734375,0.48046875,-2.275390625,3.81640625,0.46484375,1.7578125,1.0
4432324,,,,,,,,2.38671875,10.4921875,-0.89453125,-0.96484375,0.732421875,-2.17578125,3.54296875,1.4609375,1.83203125,1.0
4432325,,,,,,,,1.37890625,12.30078125,-2.77734375,-0.7890625,0.94921875,-1.810546875,2.69921875,3.2578125,-0.12109375,1.0
4432326,,,,,,,,0.6640625,12.8828125,-3.984375,-0.638671875,0.294921875,-1.142578125,2.1640625,3.83984375,-1.421875,1.0
4432327,,,,,,,,0.76953125,13.07421875,-4.56640625,-0.59375,-0.015625,-0.96875,2.31640625,4.0234375,-2.03515625,1.0
4432328,,,,,,,,1.82421875,11.57421875,-4.89453125,-0.55078125,-0.37109375,-0.7265625,3.4609375,2.53515625,-2.41796875,1.0
4432329,,,,,,,,2.33203125,10.38671875,-4.94921875,-0.560546875,-0.40625,-0.669921875,4.00390625,1.34765625,-2.49609375,1.0
4432330,36.01262,129.31945716666667,77.2729923139296,24.411371021792263,4.0,52.0,,3.59375,6.02734375,-4.9296875,-0.42578125,-0.126953125,-0.671875,5.3828125,-3.01953125,-2.5703125,1.0
4432331,,,,,,,,-1.3125,4.59375,0.984375,-0.275390625,0.6640625,-0.408203125,0.59375,-4.4375,3.2890625,1.0
4432332,,,,,,,,-5.06640625,5.671875,5.94140625,-0.38671875,0.892578125,0.2578125,-3.16015625,-3.3671875,8.2265625,1.0
4432333,,,,,,,,-5.50390625,6.71484375,5.23046875,-0.501953125,0.84765625,0.65625,-3.62109375,-2.33203125,7.5,1.0
4432334,,,,,,,,-4.05078125,11.16796875,0.44140625,-0.73046875,-0.244140625,1.078125,-2.31640625,2.07421875,2.63671875,1.0
4432335,,,,,,,,-2.2578125,15.21484375,-2.61328125,-0.794921875,-1.650390625,0.134765625,-0.5546875,6.09375,-0.50390625,1.0
4432336,,,,,,,,-1.40234375,16.515625,-3.5390625,-0.65234375,-2.537109375,-0.373046875,0.36328125,7.40234375,-1.5390625,1.0
4432337,,,,,,,,-1.34375,15.25,-2.87109375,-0.419921875,-2.625,-0.212890625,0.515625,6.1328125,-0.96484375,1.0
4432338,,,,,,,,-1.55859375,12.71484375,-0.01953125,-0.37890625,-2.44140625,-0.033203125,0.32421875,3.60546875,1.83203125,1.0
4432339,,,,,,,,0.05078125,5.484375,1.5546875,-0.34375,-1.6328125,0.283203125,1.97265625,-3.6328125,3.328125,1.0
4432340,36.01262216666667,129.31946000000002,77.52841326745369,24.65178494820583,3.6,49.0,,0.2578125,-6.27734375,4.359375,-0.42578125,-0.126953125,-0.671875,5.3828125,-3.01953125,-2.5703125,1.0
4432341,,,,,,,,-4.62890625,-47.41796875,20.42578125,-0.12109375,1.607421875,0.048828125,-2.77734375,-56.53515625,22.13671875,1.0
4432342,,,,,,,,-10.3203125,-53.234375,9.69140625,-0.0625,1.970703125,0.11328125,-8.484375,-62.36328125,11.41015625,1.0
4432343,,,,,,,,-3.515625,-15.9609375,10.41015625,0.08203125,2.130859375,0.375,-1.7421875,-25.08984375,12.17578125,1.0
4432344,,,,,,,,-0.4765625,-7.75390625,7.25390625,0.173828125,2.08203125,-0.244140625,1.28125,-16.88671875,9.03515625,1.0
4432345,,,,,,,,3.34765625,-4.1328125,-4.3984375,0.0703125,1.4765625,-1.072265625,5.15234375,-13.25390625,-2.5703125,1.0
4432346,,,,,,,,14.59765625,-7.28125,-3.37109375,-0.16015625,-3.19140625,1.666015625,16.30078125,-16.4296875,-1.57421875,1.0
4432347,,,,,,,,12.25390625,-9.68359375,0.6796875,0.357421875,-4.060546875,1.34375,13.92578125,-18.8359375,2.4453125,1.0
4432348,,,,,,,,4.015625,-16.6015625,6.15234375,0.791015625,-2.662109375,1.25,5.6484375,-25.77734375,7.92578125,1.0
4432349,,,,,,,,3.0,-15.8671875,5.953125,0.625,-0.66015625,1.90234375,4.578125,-25.046875,7.734375,1.0
4432350,36.01262416666667,129.31946333333332,77.82890902293704,24.873706074263527,3.4000000000000004,49.0,,1.2265625,-9.74609375,2.6484375,-0.42578125,-0.126953125,-0.671875,2.546875,-18.95703125,4.515625,1.0
4432351,,,,,,,,-0.86328125,-5.140625,-0.52734375,0.82421875,0.8203125,2.751953125,-0.01953125,-14.40234375,1.48828125,1.0
4432352,,,,,,,,-2.109375,-3.1484375,-1.4921875,1.0390625,0.078125,2.68359375,-1.3984375,-12.40625,0.5703125,1.0
4432353,,,,,,,,-3.66015625,-1.6171875,-1.75390625,1.408203125,-0.517578125,3.15625,-3.19921875,-10.875,0.41796875,1.0
4432354,,,,,,,,-4.31640625,-0.734375,-1.7109375,1.494140625,-0.40234375,3.376953125,-4.00390625,-9.9921875,0.53125,1.0
4432355,,,,,,,,-5.25390625,4.15234375,-1.78515625,1.328125,0.6484375,3.287109375,-5.57421875,-5.05078125,0.72265625,1.0
4432356,,,,,,,,-5.02734375,6.93359375,-3.296875,1.23046875,0.75390625,3.16015625,-5.4921875,-2.25390625,-0.734375,1.0
4432357,,,,,,,,-4.66796875,8.51953125,-3.56640625,1.07421875,0.484375,2.75390625,-5.57421875,-0.60546875,-0.84765625,1.0
4432358,,,,,,,,-4.49609375,11.3203125,-2.65625,1.060546875,0.337890625,2.61328125,-5.53125,2.2265625,0.109375,1.0
4432359,,,,,,,,-3.5078125,13.05078125,-2.6953125,0.82421875,0.267578125,2.244140625,-4.88671875,4.02734375,0.1875,1.0
4432360,36.01262633333333,129.31946566666664,78.03925529044092,25.11411961566852,3.8000000000000003,47.0,,-2.7109375,13.52734375,-3.65625,-0.42578125,-0.126953125,-0.671875,2.546875,-18.95703125,4.515625,1.0
4432361,,,,,,,,-2.3984375,12.65234375,-3.91796875,0.50390625,0.65625,1.205078125,-4.1171875,3.72265625,-0.92578125,1.0
4432362,,,,,,,,-2.60546875,10.4140625,-3.703125,0.47265625,0.69140625,0.974609375,-4.38671875,1.5,-0.6953125,1.0
4432363,,,,,,,,-2.94921875,7.890625,-3.19140625,0.439453125,0.7734375,0.85546875,-4.84375,-0.9921875,-0.16015625,1.0
4432364,,,,,,,,-3.3984375,6.078125,-2.31640625,0.390625,0.8125,0.861328125,-5.34375,-2.7890625,0.72265625,1.0
4432365,,,,,,,,-3.19140625,4.859375,-1.63671875,0.224609375,0.923828125,0.822265625,-5.23046875,-3.9765625,1.41015625,1.0
4432366,,,,,,,,0.50390625,4.4140625,-1.12109375,0.125,1.03515625,0.064453125,-1.70703125,-4.3984375,1.91015625,1.0
4432367,,,,,,,,2.3203125,5.515625,-1.34375,0.138671875,0.869140625,-0.208984375,0.09375,-3.2890625,1.6796875,1.0
4432368,,,,,,,,3.90625,8.3515625,-2.109375,0.27734375,0.34375,-0.64453125,1.70703125,-0.453125,0.9140625,1.0
4432369,,,,,,,,3.921875,9.4609375,-2.203125,0.357421875,0.0078125,-0.78125,1.7421875,0.65625,0.8359375,1.0
4432370,36.0126285,129.31946916666666,78.35477574380272,25.354534098954904,3.8000000000000003,49.0,,2.5625,12.6796875,-1.890625,0.564453125,-1.029296875,-0.66796875,2.546875,-18.95703125,4.515625,1.0
4432371,,,,,,,,0.38671875,14.2734375,-2.234375,0.603515625,-1.4609375,-0.283203125,-1.58984375,5.48828125,0.953125,1.0
4432372,,,,,,,,-0.2890625,14.171875,-3.1953125,0.5703125,-1.60546875,0.0703125,-2.203125,5.41015625,0.0703125,1.0
4432373,,,,,,,,-0.625,12.30078125,-3.6875,0.486328125,-1.4609375,0.171875,-2.5078125,3.56640625,-0.3515625,1.0
4432374,,,,,,,,-1.9609375,9.25390625,-1.44921875,0.431640625,-0.97265625,-0.099609375,-3.8125,0.54296875,1.94921875,1.0
4432375,,,,,,,,-3.75390625,4.47265625,2.625,0.33203125,-0.00390625,-0.419921875,-5.53515625,-4.20703125,6.08984375,1.0
4432376,,,,,,,,-3.1875,2.51953125,1.58203125,0.271484375,0.27734375,-0.46875,-4.9609375,-6.16015625,5.05078125,1.0
4432377,,,,,,,,0.87109375,-7.52734375,-2.41015625,0.166015625,0.607421875,-0.78125,-0.86328125,-16.1953125,1.06640625,1.0
4432378,,,,,,,,9.71875,-42.68359375,9.16015625,0.150390625,0.515625,-1.4765625,8.0625,-51.36328125,12.63671875,1.0
4432379,,,,,,,,17.02734375,-63.859375,27.453125,0.328125,0.263671875,-1.720703125,15.49609375,-72.546875,30.9453125,1.0
4432380,36.0126305,129.3194725,78.65527145666285,25.57645525478717,3.4000000000000004,50.0,,8.48046875,-15.73046875,4.859375,0.564453125,-1.029296875,-0.66796875,7.06640625,-24.43359375,8.3828125,1.0
4432381,,,,,,,,-1.6796875,-6.23046875,-0.34765625,-0.125,1.88671875,-0.611328125,-3.0859375,-14.9296875,3.17578125,1.0
4432382,,,,,,,,-2.8828125,-8.359375,-3.75,-0.349609375,1.103515625,-1.359375,-4.2734375,-17.08203125,-0.234375,1.0
4432383,,,,,,,,-2.33984375,-11.109375,-2.140625,-0.662109375,-3.595703125,-1.59765625,-3.54296875,-19.875,1.3359375,1.0
4432384,,,,,,,,-0.87109375,-13.125,-0.9140625,-0.212890625,-4.4609375,-1.572265625,-1.93359375,-21.91015625,2.5625,1.0
4432385,,,,,,,,1.96484375,-12.55859375,0.70703125,-0.376953125,-3.16015625,-2.169921875,1.20703125,-21.37109375,4.20703125,1.0
4432386,,,,,,,,4.203125,-11.70703125,1.875,-0.83203125,0.064453125,-2.75390625,3.734375,-20.5625,5.3203125,1.0
4432387,,,,,,,,4.5234375,-11.14453125,1.98046875,-0.97265625,0.84765625,-2.7421875,4.15625,-20.0234375,5.39453125,1.0
4432388,,,,,,,,2.29296875,-7.16796875,-1.109375,-1.048828125,0.2890625,-2.673828125,2.43359375,-16.16015625,2.1015625,1.0
4432389,,,,,,,,1.8203125,-4.625,-1.890625,-1.14453125,0.181640625,-2.734375,2.0859375,-13.63671875,1.2578125,1.0
4432390,36.01263216666667,129.3194755,78.92571772359443,25.761389738489516,3.4000000000000004,53.0,,1.44140625,-1.08203125,-3.15234375,-1.275390625,0.1953125,-2.4375,7.06640625,-24.43359375,8.3828125,1.0
4432391,,,,,,,,2.29296875,1.16796875,-3.37890625,-1.263671875,0.26953125,-2.294921875,3.12109375,-7.92578125,-0.50390625,1.0
4432392,,,,,,,,2.5,1.828125,-3.59375,-1.22265625,0.33203125,-2.259765625,3.4296875,-7.2734375,-0.7734375,1.0
4432393,,,,,,,,2.83984375,4.6796875,-3.10546875,-1.125,0.515625,-2.19921875,3.96484375,-4.4375,-0.38671875,1.0
4432394,,,,,,,,2.8984375,5.7578125,-2.90625,-1.0546875,0.5625,-2.119140625,4.1171875,-3.3671875,-0.234375,1.0
4432395,,,,,,,,2.80859375,8.984375,-2.7421875,-0.8125,0.48828125,-1.611328125,4.26953125,-0.1484375,-0.1953125,1.0
4432396,,,,,,,,0.23828125,12.25,-3.9765625,-0.5390625,0.2109375,-1.08984375,1.93359375,3.109375,-1.5390625,1.0
4432397,,,,,,,,-0.34375,12.25,-4.3359375,-0.49609375,0.1484375,-1.0,1.3984375,3.11328125,-1.921875,1.0
4432398,,,,,,,,-0.09375,10.9453125,-5.24609375,-0.53125,0.10546875,-0.84375,1.7421875,1.8046875,-2.87890625,1.0
4432399,,,,,,,,0.3359375,10.25,-5.2890625,-0.58984375,0.109375,-0.751953125,2.203125,1.1171875,-2.953125,1.0
4432400,36.012634166666665,129.31947866666667,79.2111885239275,25.983310776641463,3.9000000000000004,53.0,0.0,1.0,8.37109375,-4.81640625,-1.275390625,0.1953125,-2.4375,7.06640625,-24.43359375,8.3828125,1.0
4432401,,,,,,,,1.88671875,7.0390625,-3.734375,-0.544921875,0.408203125,-0.236328125,3.84765625,-2.1015625,-1.5,1.0
4432402,,,,,,,,0.546875,6.09765625,-1.97265625,-0.19140625,0.876953125,0.00390625,2.5078125,-3.0546875,0.22265625,1.0
4432403,,,,,,,,-1.92578125,5.75390625,1.37109375,-0.20703125,0.939453125,-0.08984375,0.01953125,-3.40234375,3.55859375,1.0
4432404,,,,,,,,-4.9140625,7.32421875,4.625,-0.32421875,0.658203125,-0.072265625,-2.96875,-1.83203125,6.81640625,1.0
4432405,,,,,,,,-4.90625,9.78125,2.75,-0.431640625,0.02734375,0.22265625,-2.96875,0.6171875,4.8984375,1.0
4432406,,,,,,,,-3.55078125,12.04296875,-0.0546875,-0.5,-0.455078125,0.21484375,-1.62890625,2.875,2.0625,1.0
4432407,,,,,,,,-1.58984375,14.65625,-2.17578125,-0.564453125,-1.55078125,-0.380859375,0.36328125,5.48828125,-0.12109375,1.0
4432408,,,,,,,,-1.15625,15.3359375,-2.88671875,-0.462890625,-2.28125,-0.794921875,0.8984375,6.171875,-0.92578125,1.0
4432409,,,,,,,,-1.33984375,13.90234375,-3.17578125,-0.330078125,-2.28515625,-0.544921875,0.82421875,4.75390625,-1.30859375,1.0
4432410,36.01263633333333,129.31948133333333,79.4515844938448,26.223724623705632,3.5,50.0,,-2.015625,11.55078125,-0.30859375,-1.275390625,0.1953125,-2.4375,7.06640625,-24.43359375,8.3828125,1.0
4432411,,,,,,,,-1.44921875,3.5078125,0.58984375,-0.271484375,-0.86328125,0.474609375,0.78515625,-5.625,2.33203125,1.0
4432412,,,,,,,,-3.32421875,-22.52734375,9.23828125,-0.228515625,0.333984375,0.60546875,-1.12890625,-31.671875,10.94921875,1.0
4432413,,,,,,,,-9.36328125,-54.3515625,10.671875,-0.072265625,1.703125,0.1875,-7.26171875,-63.51171875,12.40625,1.0
4432414,,,,,,,,3.09765625,-6.23046875,4.7890625,-0.0703125,1.5078125,-0.185546875,5.15234375,-15.39453125,6.546875,1.0
4432415,,,,,,,,3.25,-3.71875,2.609375,0.216796875,0.7734375,-0.115234375,7.10546875,-13.25390625,0.72265625,1.0
4432416,,,,,,,,12.7421875,-5.6015625,-6.30078125,-0.21484375,-2.525390625,0.833984375,16.22265625,-16.73828125,-3.1484375,1.0
4432417,,,,,,,,8.0078125,-11.9375,0.0,0.587890625,-3.626953125,1.021484375,10.09375,-21.1015625,1.7578125,1.0
4432418,,,,,,,,2.73046875,-13.9921875,4.3515625,0.404296875,-0.859375,2.587890625,4.76953125,-23.17578125,6.0859375,1.0
4432419,,,,,,,,0.453125,-8.81640625,2.71875,0.8203125,1.642578125,3.42578125,2.125,-18.07421875,4.515625,1.0
4432420,36.01263816666667,129.31948433333335,79.7220305534531,26.42715233782226,3.2,50.0,,-0.2890625,-6.13671875,0.08984375,0.6875,1.173828125,3.04296875,1.0546875,-15.43359375,1.98828125,1.0
4432421,,,,,,,,-2.19921875,-3.4609375,-2.1796875,1.01171875,0.1875,2.720703125,-1.12890625,-12.7890625,-0.1953125,1.0
4432422,,,,,,,,-3.9296875,-2.609375,-2.08203125,1.1640625,-0.076171875,2.83984375,-3.0078125,-11.9453125,-0.04296875,1.0
4432423,,,,,,,,-5.40234375,-1.72265625,-1.5859375,1.359375,-0.0546875,3.30078125,-4.76953125,-11.0625,0.5703125,1.0
4432424,,,,,,,,-6.3046875,-0.84765625,-0.953125,1.392578125,0.130859375,3.48046875,-5.8046875,-10.18359375,1.2578125,1.0
4432425,,,,,,,,-6.24609375,0.78515625,-0.5859375,1.296875,0.5703125,3.4921875,-6.07421875,-8.53125,1.7578125,1.0
4432426,,,,,,,,-4.8828125,3.80078125,-1.42578125,1.103515625,0.8203125,3.130859375,-5.0390625,-5.5078125,1.02734375,1.0
4432427,,,,,,,,-4.171875,4.8359375,-2.12890625,0.986328125,0.720703125,2.638671875,-4.6171875,-4.4375,0.41796875,1.0
4432428,,,,,,,,-2.9296875,10.3671875,-3.828125,0.82421875,0.15625,1.955078125,-3.81640625,1.15625,-1.1171875,1.0
4432429,,,,,,,,-2.67578125,11.98828125,-3.3671875,0.7578125,0.111328125,1.884765625,-3.66015625,2.80078125,-0.6171875,1.0
4432430,36.01264033333334,129.31948683333334,79.94740161421262,26.667566062489563,3.5,47.0,,-2.08984375,13.4140625,-3.4609375,0.6875,1.173828125,3.04296875,-3.23828125,4.2578125,-0.65625,1.0
4432431,,,,,,,,-2.59765625,11.671875,-3.26171875,0.447265625,0.529296875,1.40234375,-4.00390625,2.5703125,-0.38671875,1.0
4432432,,,,,,,,-3.03125,9.3671875,-3.00390625,0.41015625,0.56640625,1.2734375,-4.50390625,0.2734375,-0.12109375,1.0
4432433,,,,,,,,-3.55859375,7.11328125,-2.0703125,0.337890625,0.57421875,1.123046875,-5.1484375,-1.94921875,0.8359375,1.0
4432434,,,,,,,,-3.4296875,6.71484375,-1.9609375,0.28125,0.55078125,1.080078125,-5.078125,-2.33203125,0.953125,1.0
4432435,,,,,,,,-2.12109375,5.7734375,-1.7109375,0.12890625,0.56640625,0.68359375,-3.921875,-3.25,1.21875,1.0
4432436,,,,,,,,-1.625,5.60546875,-1.51171875,0.107421875,0.53515625,0.453125,-3.46875,-3.40234375,1.41015625,1.0
4432437,,,,,,,,0.60546875,6.62109375,-0.90625,0.138671875,0.009765625,0.03125,-1.28515625,-2.3671875,2.0234375,1.0
4432438,,,,,,,,1.9765625,10.33203125,-1.53515625,0.212890625,-0.419921875,-0.04296875,0.09375,1.34765625,1.41015625,1.0
4432439,,,,,,,,2.09375,11.88671875,-1.92578125,0.353515625,-0.9765625,-0.177734375,0.25,2.91796875,1.06640625,1.0
4432440,36.01264233333333,129.3194898333333,80.21784747566184,26.88948699701324,3.6,49.0,,1.484375,12.98828125,-2.30078125,0.6875,1.173828125,3.04296875,-3.23828125,4.2578125,-0.65625,1.0
4432441,,,,,,,,0.55078125,13.203125,-2.9296875,0.369140625,-1.265625,-0.26953125,-1.20703125,4.2578125,0.1484375,1.0
4432442,,,,,,,,-0.578125,12.27734375,-2.83203125,0.34375,-1.220703125,-0.171875,-2.28125,3.33984375,0.30078125,1.0
4432443,,,,,,,,-1.53515625,10.8046875,-2.11328125,0.31640625,-1.009765625,-0.0625,-3.19921875,1.8828125,1.06640625,1.0
4432444,,,,,,,,-3.21484375,7.1484375,1.1796875,0.294921875,-0.6640625,-0.08984375,-4.84375,-1.7578125,4.3984375,1.0
4432445,,,,,,,,-0.45703125,-3.90625,-1.953125,0.23828125,-0.10546875,-0.341796875,-2.05078125,-12.7890625,1.296875,1.0
4432446,,,,,,,,0.59375,-9.125,-2.19921875,0.19140625,0.037109375,-0.568359375,-0.9765625,-18.00390625,1.06640625,1.0
4432447,,,,,,,,5.73046875,-30.921875,5.41796875,0.1640625,0.220703125,-1.27734375,4.23046875,-39.796875,8.69140625,1.0
4432448,,,,,,,,17.0625,-55.0078125,27.65625,0.361328125,0.291015625,-1.5703125,15.6875,-63.89453125,30.9453125,1.0
4432449,,,,,,,,9.18359375,-9.53125,4.671875,0.431640625,0.681640625,-0.88671875,7.91015625,-18.421875,8.0,1.0
4432450,36.012644333333334,129.31949316666666,80.51834309332223,27.111408216606186,3.4000000000000004,51.0,,-2.41015625,-4.03515625,-0.1015625,-0.314453125,1.169921875,-0.880859375,-3.66015625,-12.9375,3.2109375,1.0
4432451,,,,,,,,-6.640625,-7.60546875,-1.74609375,-0.751953125,-2.287109375,-1.44140625,-7.7578125,-16.54296875,1.52734375,1.0
4432452,,,,,,,,-4.66796875,-10.90625,-0.7109375,-0.099609375,-4.5078125,-0.65625,-5.57421875,-19.875,2.5625,1.0
4432453,,,,,,,,0.84375,-13.7734375,0.56640625,-0.244140625,-2.642578125,-1.373046875,0.1328125,-22.75390625,3.86328125,1.0
4432454,,,,,,,,5.26171875,-12.046875,2.3203125,-0.763671875,0.236328125,-2.689453125,4.76953125,-21.06640625,5.5859375,1.0
4432455,,,,,,,,4.78125,-11.01171875,2.0234375,-0.86328125,0.775390625,-2.94140625,4.1171875,-19.2578125,4.62890625,1.0
4432456,,,,,,,,3.7890625,-9.12890625,0.9140625,-0.974609375,0.31640625,-2.615234375,3.7734375,-18.2265625,4.015625,1.0
4432457,,,,,,,,2.90234375,-5.984375,-0.29296875,-1.203125,0.08203125,-2.455078125,3.12109375,-15.125,2.71484375,1.0
4432458,,,,,,,,2.19921875,-0.03125,-2.17578125,-1.43359375,-0.109375,-2.1796875,2.73828125,-9.23046875,0.64453125,1.0
4432459,,,,,,,,2.2109375,0.90234375,-2.49609375,-1.45703125,-0.140625,-2.048828125,2.8515625,-8.30859375,0.26171875,1.0
4432460,36.012646000000004,129.3194955,80.7286897433371,27.29634220546184,3.4000000000000004,51.0,,2.59375,2.890625,-2.890625,-0.314453125,1.169921875,-0.880859375,3.4296875,-6.35546875,-0.2734375,1.0
4432461,,,,,,,,2.43359375,4.23046875,-2.703125,-1.283203125,0.11328125,-1.982421875,3.62109375,-3.2890625,-0.16015625,1.0
4432462,,,,,,,,2.42578125,6.0,-2.53515625,-1.205078125,0.232421875,-1.94921875,3.7734375,-2.29296875,-0.12109375,1.0
4432463,,,,,,,,2.40625,8.11328125,-2.39453125,-1.0546875,0.376953125,-1.8203125,3.8828125,-0.1484375,-0.3125,1.0
4432464,,,,,,,,2.234375,10.60546875,-2.9140625,-0.994140625,0.39453125,-1.70703125,3.6953125,1.30859375,-0.6953125,1.0
4432465,,,,,,,,2.02734375,11.33203125,-3.12109375,-0.7421875,0.2265625,-1.46484375,3.23828125,2.80078125,-1.30859375,1.0
4432466,,,,,,,,0.93359375,12.17578125,-3.5,-0.587890625,0.009765625,-1.30078125,2.43359375,2.609375,-1.5390625,1.0
4432467,,,,,,,,0.63671875,11.890625,-3.59375,-0.537109375,-0.111328125,-1.185546875,2.31640625,2.34765625,-1.765625,1.0
4432468,,,,,,,,0.35546875,10.65625,-4.02734375,-0.521484375,-0.267578125,-0.923828125,2.3515625,0.58203125,-2.1875,1.0
4432469,,,,,,,,0.39453125,9.85546875,-4.1640625,-0.607421875,-0.31640625,-0.431640625,2.77734375,-0.953125,-2.11328125,1.0
4432470,36.01264833333333,129.3194993333333,81.0742596338121,27.555250269444652,4.0,51.0,,2.59375,2.890625,-2.890625,-0.546875,-0.037109375,0.216796875,2.8515625,-2.25390625,-1.30859375,1.0
4432471,,,,,,,,0.0390625,7.21875,-1.49609375,-0.455078125,0.216796875,0.701171875,1.55078125,-1.87109375,1.10546875,1.0
4432472,,,,,,,,-1.421875,7.703125,0.65234375,-0.431640625,0.365234375,1.03515625,-0.7109375,-1.375,4.32421875,1.0
4432473,,,,,,,,-2.6875,7.9375,2.62109375,-0.4609375,0.375,1.134765625,-1.8203125,-1.06640625,6.12890625,1.0
4432474,,,,,,,,-4.875,9.6875,5.33984375,-0.560546875,0.12109375,1.111328125,-2.85546875,1.30859375,5.97265625,1.0
4432475,,,,,,,,-3.1171875,13.39453125,0.22265625,-0.634765625,-0.517578125,0.6328125,-1.359375,4.0234375,1.83203125,1.0
4432476,,,,,,,,-2.4296875,14.7421875,-1.3984375,-0.552734375,-1.361328125,-0.21484375,-0.7109375,5.37109375,0.1484375,1.0
4432477,,,,,,,,-2.453125,14.16015625,-1.3984375,-0.279296875,-1.8203125,-0.384765625,-0.671875,4.7890625,0.03125,1.0
4432478,,,,,,,,-2.7890625,13.234375,-0.453125,-0.15625,-1.818359375,-0.23046875,-0.9765625,3.875,0.953125,1.0
4432479,,,,,,,,-2.62890625,7.2109375,0.7734375,-0.017578125,-1.4609375,0.25,-0.78515625,-2.140625,2.140625,1.0
4432480,36.012650666666666,129.31950233333333,81.34470510157115,27.814157651965015,3.6,49.0,,-1.609375,-25.91796875,13.93359375,-0.546875,-0.037109375,0.216796875,2.8515625,-2.25390625,-1.30859375,1.0
4432481,,,,,,,,-3.84375,-55.98828125,21.06640625,0.138671875,1.236328125,0.431640625,-2.125,-65.34375,22.44140625,1.0
4432482,,,,,,,,-6.37890625,-28.4453125,12.32421875,0.08984375,2.43359375,-0.41015625,-4.69140625,-37.8046875,13.74609375,1.0
4432483,,,,,,,,-5.33203125,-14.8984375,9.96484375,0.142578125,2.734375,-1.427734375,-3.62109375,-24.2421875,11.41015625,1.0
4432484,,,,,,,,1.5546875,-4.43359375,-2.41015625,0.50390625,1.98046875,-1.3984375,3.390625,-13.74609375,-0.88671875,1.0
4432485,,,,,,,,10.296875,-9.0625,-1.5078125,0.287109375,-0.677734375,1.94921875,12.0859375,-18.38671875,0.0703125,1.0
4432486,,,,,,,,10.015625,-11.60546875,5.55859375,0.173828125,-3.388671875,1.48046875,11.6640625,-20.94921875,7.12109375,1.0
4432487,,,,,,,,2.0703125,-14.64453125,6.53125,0.5078125,-2.263671875,1.275390625,3.65625,-24.0078125,8.078125,1.0
4432488,,,,,,,,-0.04296875,-11.8046875,4.75390625,0.583984375,-0.583984375,2.064453125,1.47265625,-21.18359375,6.31640625,1.0
4432489,,,,,,,,0.11328125,-8.4453125,1.2890625,0.986328125,1.71484375,3.669921875,1.16796875,-17.88671875,2.984375,1.0
4432490,36.01265216666666,129.31950533333332,81.61515140944708,27.980599013133673,3.2,51.0,,-0.50390625,-3.52734375,-0.03515625,1.23828125,0.166015625,2.859375,0.05859375,-12.9765625,1.83203125,1.0
4432491,,,,,,,,-2.4375,-1.8203125,0.4375,1.52734375,-0.298828125,2.548828125,-2.125,-11.2578125,2.4453125,1.0
4432492,,,,,,,,-3.26953125,-0.49609375,-0.33203125,1.6796875,0.044921875,2.568359375,-3.19921875,-9.91796875,1.83203125,1.0
4432493,,,,,,,,-3.61328125,0.44921875,-0.71484375,1.654296875,0.29296875,2.490234375,-3.66015625,-8.953125,1.52734375,1.0
4432494,,,,,,,,-4.2421875,2.9375,-1.4765625,1.453125,0.5,2.5,-4.5390625,-6.43359375,0.9140625,1.0
4432495,,,,,,,,-4.80859375,7.40234375,-2.69140625,1.0234375,0.412109375,2.892578125,-5.49609375,-1.91015625,-0.12109375,1.0
4432496,,,,,,,,-4.5703125,10.48046875,-2.73828125,0.6875,0.251953125,2.9765625,-5.6875,1.23046875,-0.04296875,1.0
4432497,,,,,,,,-3.9453125,11.99609375,-2.2109375,0.521484375,0.2421875,2.767578125,-5.34375,2.80078125,0.53125,1.0
4432498,,,,,,,,-3.20703125,12.81640625,-1.96484375,0.470703125,0.31640625,2.587890625,-4.7265625,3.64453125,0.80078125,1.0
4432499,,,,,,,,-2.8671875,13.03125,-2.734375,0.37890625,0.52734375,2.09375,-4.62109375,3.9140625,0.0703125,1.0
4432500,36.012654500000004,129.31950783333332,81.84052220660145,28.239505992273816,3.8000000000000003,48.0,0.0,-2.91796875,10.84765625,-4.3203125,0.2890625,0.54296875,1.361328125,0.05859375,-12.9765625,1.83203125,1.0
4432501,,,,,,,,-3.390625,8.67578125,-3.953125,0.306640625,0.37109375,0.6875,-5.42578125,-0.37890625,-1.1171875,1.0
4432502,,,,,,,,-3.734375,8.01171875,-3.39453125,0.322265625,0.263671875,0.5234375,-5.80859375,-1.02734375,-0.54296875,1.0
4432503,,,,,,,,-3.984375,6.65234375,-2.19140625,0.30078125,0.236328125,0.478515625,-6.11328125,-2.37109375,0.68359375,1.0
4432504,,,,,,,,-2.66796875,6.27734375,-1.32421875,0.220703125,0.490234375,0.32421875,-4.84765625,-2.71484375,1.56640625,1.0
4432505,,,,,,,,-0.4375,7.7265625,-1.6875,0.232421875,0.5546875,-0.64453125,-2.62890625,-1.2578125,1.21875,1.0
4432506,,,,,,,,1.34765625,8.875,-2.61328125,0.28515625,0.44921875,-0.8828125,-0.8203125,-0.109375,0.30078125,1.0
4432507,,,,,,,,3.09765625,11.11328125,-3.15625,0.396484375,-0.322265625,-1.634765625,1.08984375,2.109375,-0.1953125,1.0
4432508,,,,,,,,3.35546875,11.88671875,-2.9296875,0.44140625,-0.77734375,-1.828125,1.51171875,2.87890625,0.0703125,1.0
4432509,,,,,,,,3.109375,12.28515625,-2.421875,0.46875,-0.923828125,-1.728515625,1.359375,3.26171875,0.609375,1.0
4432510,36.012656500000006,129.3195113333333,82.1560426146422,28.46142740844285,3.6,50.0,,1.99609375,12.171875,-1.7890625,0.478515625,-1.033203125,-1.349609375,0.05859375,-12.9765625,1.83203125,1.0
4432511,,,,,,,,0.59765625,11.5859375,-1.57421875,0.45703125,-0.953125,-0.783203125,-0.86328125,2.5703125,1.56640625,1.0
4432512,,,,,,,,-0.66015625,10.18359375,-1.58984375,0.451171875,-0.763671875,-0.27734375,-2.05078125,1.19140625,1.60546875,1.0
4432513,,,,,,,,-2.23046875,6.72265625,0.54296875,0.435546875,-0.43359375,-0.326171875,-3.58203125,-2.25390625,3.78515625,1.0
4432514,,,,,,,,-4.15625,3.2890625,4.14453125,0.423828125,0.00390625,-0.6171875,-5.4609375,-5.6640625,7.421875,1.0
4432515,,,,,,,,-3.828125,-5.26953125,0.46484375,0.408203125,0.3828125,-1.01953125,-5.078125,-14.203125,3.78515625,1.0
4432516,,,,,,,,-2.37890625,-9.51953125,0.06640625,0.380859375,0.5234375,-1.283203125,-3.58203125,-18.45703125,3.40234375,1.0
4432517,,,,,,,,14.6171875,-42.42578125,5.8671875,0.27734375,0.58203125,-2.07421875,13.5390625,-51.36328125,9.2265625,1.0
4432518,,,,,,,,34.7578125,-57.62890625,26.72265625,0.44140625,0.6015625,-2.875,33.8828125,-66.5703125,30.10546875,1.0
4432519,,,,,,,,8.01953125,-16.1796875,2.70703125,0.447265625,1.0,-1.9375,7.44921875,-25.125,6.16015625,1.0
4432520,36.01265816666667,129.31951466666666,82.456538474614,28.646362282910733,3.3000000000000003,52.0,,-1.87109375,-9.0078125,4.5703125,-0.66015625,1.2734375,-0.19140625,-2.39453125,-17.96484375,8.0,1.0
4432521,,,,,,,,-2.09375,-9.0,-2.828125,-0.267578125,-4.34375,0.4296875,-2.5078125,-18.00390625,0.53125,1.0
4432522,,,,,,,,2.76953125,-10.140625,-0.4453125,-0.369140625,-4.080078125,-0.62890625,2.43359375,-19.15234375,2.90625,1.0
4432523,,,,,,,,3.25,-10.25390625,1.953125,-0.62109375,-0.267578125,-3.697265625,3.3515625,-19.30078125,5.2421875,1.0
4432524,,,,,,,,2.703125,-9.94140625,1.86328125,-0.7734375,0.578125,-3.32421875,2.96875,-18.99609375,5.12890625,1.0
4432525,,,,,,,,1.39453125,-8.57421875,-0.40234375,-0.951171875,0.765625,-2.5625,1.89453125,-17.6484375,2.79296875,1.0
4432526,,,,,,,,1.5234375,-7.984375,-2.3125,-1.0,0.458984375,-2.453125,2.125,-17.08203125,0.8359375,1.0
4432527,,,,,,,,1.43359375,-5.11328125,-1.83203125,-1.53125,0.099609375,-2.287109375,2.35546875,-14.24609375,1.14453125,1.0
4432528,,,,,,,,1.484375,-3.75390625,-1.1484375,-1.583984375,0.244140625,-2.3203125,2.5078125,-12.8984375,1.7578125,1.0
4432529,,,,,,,,1.328125,0.03125,-0.703125,-1.630859375,0.6171875,-2.08203125,2.546875,-9.15234375,2.0625,1.0
4432530,36.01266,129.31951750000002,82.71195951129975,28.84978994738925,3.4000000000000004,53.0,,1.79296875,3.34765625,-1.7578125,-1.56640625,0.796875,-1.556640625,3.16015625,-5.85546875,0.875,1.0
4432531,,,,,,,,1.734375,8.2890625,-3.140625,-1.28515625,0.466796875,-1.373046875,3.2734375,-0.953125,-0.6953125,1.0
4432532,,,,,,,,1.63671875,9.4453125,-3.35546875,-1.22265625,0.31640625,-1.462890625,3.234375,0.1953125,-0.96484375,1.0
4432533,,,,,,,,0.96484375,11.4375,-3.09765625,-0.853515625,0.150390625,-1.59765625,2.77734375,2.1875,-0.84765625,1.0
4432534,,,,,,,,0.81640625,12.12109375,-2.84375,-0.576171875,0.18359375,-1.568359375,2.77734375,2.875,-0.65625,1.0
4432535,,,,,,,,0.4609375,12.83203125,-2.8046875,-0.45703125,0.21484375,-1.34765625,2.546875,3.60546875,-0.65625,1.0
4432536,,,,,,,,0.66015625,12.59375,-3.2421875,-0.455078125,0.19140625,-1.251953125,2.81640625,3.37890625,-1.1171875,1.0
4432537,,,,,,,,2.3515625,9.9296875,-4.4375,-0.39453125,0.109375,-1.181640625,4.6171875,0.734375,-2.34375,1.0
4432538,,,,,,,,3.3125,7.578125,-4.85546875,-0.361328125,-0.02734375,-1.255859375,5.6875,-1.6015625,-2.80078125,1.0
4432539,,,,,,,,3.6015625,6.79296875,-4.83984375,-0.39453125,-0.080078125,-1.26953125,6.03515625,-2.37109375,-2.80078125,1.0
4432540,36.01266183333333,129.31952066666665,82.99743029096683,29.053217905476906,3.8000000000000003,53.0,,2.87109375,5.8515625,-4.328125,-1.56640625,0.796875,-1.556640625,5.41796875,-3.2890625,-2.34375,1.0
4432541,,,,,,,,0.6328125,6.83203125,-2.5703125,-0.52734375,0.30078125,-0.072265625,3.27734375,-2.29296875,-0.65625,1.0
4432542,,,,,,,,-1.703125,8.54296875,-1.62109375,-0.455078125,0.388671875,0.80078125,0.90234375,-0.60546875,0.26171875,1.0
4432543,,,,,,,,-2.3828125,9.28515625,-1.296875,-0.470703125,0.345703125,1.203125,0.171875,0.12109375,0.5703125,1.0
4432544,,,,,,,,-5.19921875,11.31640625,2.46484375,-0.498046875,0.05078125,1.736328125,-2.77734375,2.11328125,4.28125,1.0
4432545,,,,,,,,-6.62890625,12.17578125,4.78125,-0.47265625,-0.25,2.115234375,-4.38671875,2.91796875,6.55078125,1.0
4432546,,,,,,,,-4.76953125,12.93359375,1.09765625,-0.390625,-0.73828125,2.115234375,-2.81640625,3.6015625,2.79296875,1.0
4432547,,,,,,,,-4.0234375,12.078125,0.66015625,-0.34375,-1.2890625,1.072265625,-2.203125,2.7265625,2.29296875,1.0
4432548,,,,,,,,-3.87890625,11.05078125,0.453125,-0.294921875,-1.494140625,0.5546875,-2.08984375,1.69140625,2.0625,1.0
4432549,,,,,,,,-4.5,4.8359375,1.95703125,-0.05078125,-1.453125,0.12890625,-2.703125,-4.515625,3.51953125,1.0
4432550,36.01266416666667,129.319524,83.29792541167467,29.31212563212515,3.6,49.0,,-0.69921875,-22.359375,11.2890625,-1.56640625,0.796875,-1.556640625,5.41796875,-3.2890625,-2.34375,1.0
4432551,,,,,,,,-0.421875,-49.14453125,20.63671875,-0.01171875,0.2265625,0.302734375,1.359375,-58.48828125,22.17578125,1.0
4432552,,,,,,,,-9.8515625,-41.70703125,10.5078125,-0.181640625,2.115234375,-0.314453125,-8.1015625,-51.05859375,12.0625,1.0
4432553,,,,,,,,-3.03515625,-14.02734375,4.63671875,0.16015625,3.37109375,-1.189453125,-1.24609375,-23.36328125,6.23828125,1.0
4432554,,,,,,,,4.18359375,-2.1953125,-5.1484375,0.654296875,1.083984375,1.0546875,5.95703125,-11.5234375,-3.453125,1.0
4432555,,,,,,,,13.34765625,-1.4765625,-1.44921875,0.0546875,-2.791015625,2.109375,14.953125,-10.8359375,0.26171875,1.0
4432556,,,,,,,,3.96484375,-10.4921875,3.578125,0.31640625,-4.279296875,0.982421875,5.49609375,-19.87890625,5.2421875,1.0
4432557,,,,,,,,1.27734375,-13.7734375,5.38671875,0.564453125,-2.591796875,2.115234375,2.73828125,-23.171875,7.04296875,1.0
4432558,,,,,,,,1.08984375,-10.859375,2.62109375,0.720703125,0.736328125,4.248046875,2.27734375,-20.30078125,4.32421875,1.0
4432559,,,,,,,,-1.09765625,-4.9609375,0.703125,1.22265625,1.697265625,3.40625,-0.51953125,-14.4375,2.5625,1.0
4432560,36.012665999999996,129.319527,83.56837128483613,29.515553464700965,3.3000000000000003,50.0,,-3.29296875,-1.375,0.09375,-1.56640625,0.796875,-1.556640625,-3.12109375,-10.83984375,2.1796875,1.0
4432561,,,,,,,,-5.4921875,1.0703125,-0.1484375,1.703125,-0.759765625,2.990234375,-5.6875,-8.34765625,2.1796875,1.0
4432562,,,,,,,,-5.859375,2.8828125,-0.89453125,1.71875,-0.62109375,2.962890625,-6.1875,-6.5078125,1.52734375,1.0
4432563,,,,,,,,-6.22265625,5.3203125,-2.19921875,1.55859375,-0.1484375,2.7890625,-6.80078125,-4.015625,0.37890625,1.0
4432564,,,,,,,,-5.87890625,6.57421875,-2.59375,1.17578125,0.1640625,2.7734375,-6.72265625,-2.71484375,0.109375,1.0
4432565,,,,,,,,-5.1640625,7.90625,-2.6953125,0.841796875,0.28125,2.73828125,-6.26953125,-1.3359375,0.109375,1.0
4432566,,,,,,,,-4.33984375,10.18359375,-1.9140625,0.6875,0.298828125,2.69921875,-5.5703125,0.96484375,0.9140625,1.0
4432567,,,,,,,,-2.24609375,12.15625,-2.61328125,0.388671875,0.529296875,2.0078125,-3.9609375,3.03125,0.30078125,1.0
4432568,,,,,,,,-0.88671875,12.72265625,-3.6015625,0.392578125,0.5625,1.287109375,-2.77734375,3.64453125,-0.65625,1.0
4432569,,,,,,,,-0.6015625,11.328125,-4.23046875,0.40234375,0.525390625,0.892578125,-2.55078125,2.265625,-1.26953125,1.0
4432570,36.012667666666665,129.31952950000002,83.79374269288743,29.700487671132617,3.5,50.0,,-1.14453125,9.0,-3.80078125,0.4296875,0.404296875,0.314453125,-3.16015625,-0.03125,-0.80859375,1.0
4432571,,,,,,,,-2.1796875,6.609375,-2.37890625,0.439453125,0.29296875,0.166015625,-4.23828125,-2.40625,0.64453125,1.0
4432572,,,,,,,,-2.33984375,5.94140625,-1.3359375,0.443359375,0.29296875,0.322265625,-4.421875,-3.05859375,1.71875,1.0
4432573,,,,,,,,-1.7578125,5.87109375,-0.75390625,0.45703125,0.5078125,0.29296875,-3.890625,-3.09765625,2.33203125,1.0
4432574,,,,,,,,-0.15234375,6.7734375,-1.0546875,0.4375,0.6484375,-0.041015625,-2.3125,-2.1796875,2.0625,1.0
4432575,,,,,,,,1.41796875,8.67578125,-1.9296875,0.48828125,0.48828125,-0.4375,-0.74609375,-0.26171875,1.22265625,1.0
4432576,,,,,,,,1.78515625,9.43359375,-2.12890625,0.53515625,0.296875,-0.650390625,-0.36328125,0.50390625,1.02734375,1.0
4432577,,,,,,,,2.2109375,11.41796875,-2.98828125,0.673828125,-0.439453125,-1.0078125,0.171875,2.4921875,0.26171875,1.0
4432578,,,,,,,,1.94921875,12.21484375,-3.09765625,0.681640625,-0.798828125,-0.888671875,0.01953125,3.296875,0.22265625,1.0
4432579,,,,,,,,0.97265625,12.08203125,-2.5546875,0.642578125,-0.98046875,-0.673828125,-0.86328125,3.18359375,0.8359375,1.0
4432580,36.0126695,129.31953266666667,84.07921342230419,29.903915665031228,3.3000000000000003,51.0,,-0.4765625,10.56640625,-1.6640625,0.5703125,-0.970703125,-0.373046875,-2.2421875,1.69140625,1.796875,1.0
4432581,,,,,,,,-2.76171875,7.5859375,1.796875,0.49609375,-0.830078125,-0.201171875,-4.46484375,-1.2578125,5.3203125,1.0
4432582,,,,,,,,-3.3125,5.890625,2.80078125,0.4453125,-0.705078125,-0.224609375,-5.0,-2.9453125,6.3515625,1.0
4432583,,,,,,,,-2.96875,-2.55859375,1.48828125,0.38671875,-0.365234375,-0.3984375,-4.6171875,-11.37109375,5.08984375,1.0
4432584,,,,,,,,-2.1484375,-6.2734375,1.6640625,0.353515625,-0.173828125,-0.580078125,-3.7734375,-15.08984375,5.28125,1.0
4432585,,,,,,,,8.23828125,-32.1328125,6.078125,0.298828125,0.30078125,-1.876953125,6.76171875,-40.9453125,9.7265625,1.0
4432586,,,,,,,,19.0703125,-45.9609375,12.83984375,0.42578125,0.572265625,-2.212890625,17.6796875,-54.77734375,16.50390625,1.0
4432587,,,,,,,,-2.19140625,-6.55859375,2.0234375,-0.08203125,1.533203125,-1.87109375,-3.27734375,-15.39453125,5.7421875,1.0
4432588,,,,,,,,-4.3359375,-6.65625,-0.25390625,-0.55859375,1.556640625,-1.28125,-5.3828125,-15.51171875,3.44140625,1.0
4432589,,,,,,,,-4.69140625,-8.265625,-1.953125,-0.599609375,-1.81640625,-0.869140625,-5.65234375,-17.16015625,1.6796875,1.0
4432590,36.012671,129.31953583333333,84.36468449084114,30.070357254600545,3.2,54.0,,-3.3515625,-9.4375,-2.51953125,0.5703125,-0.970703125,-0.373046875,-4.234375,-18.34765625,1.10546875,1.0
4432591,,,,,,,,0.67578125,-12.02734375,-1.37890625,-0.1953125,-4.107421875,-1.240234375,0.01953125,-20.94921875,2.25390625,1.0
4432592,,,,,,,,4.015625,-10.9296875,2.58203125,-0.431640625,-1.3359375,-2.994140625,3.65625,-19.875,6.19921875,1.0
4432593,,,,,,,,3.51953125,-8.609375,0.45703125,-1.046875,1.115234375,-3.091796875,3.58203125,-17.62109375,3.98046875,1.0
4432594,,,,,,,,3.59765625,-6.5390625,-2.8203125,-1.22265625,0.63671875,-2.40234375,3.88671875,-15.5859375,0.609375,1.0
4432595,,,,,,,,3.328125,-5.54296875,-2.19921875,-1.380859375,0.056640625,-2.388671875,3.8125,-14.62890625,1.10546875,1.0
4432596,,,,,,,,2.7890625,-4.75390625,-1.63671875,-1.416015625,0.0859375,-2.505859375,3.390625,-13.859375,1.60546875,1.0
4432597,,,,,,,,1.6328125,-0.9140625,-2.6015625,-1.525390625,0.681640625,-2.318359375,2.546875,-10.0703125,0.453125,1.0
4432598,,,,,,,,1.796875,2.8203125,-4.3984375,-1.4375,0.70703125,-1.7734375,2.96875,-6.39453125,-1.5390625,1.0
4432599,,,,,,,,1.80078125,5.6328125,-4.234375,-1.34375,0.525390625,-1.75,3.12109375,-3.59765625,-1.5,1.0
4432600,36.0126725,129.31953833333333,84.59005604345606,30.236798274998442,3.4000000000000004,53.0,0.0,1.69140625,10.359375,-2.6015625,-1.1484375,0.5703125,-1.82421875,3.16015625,1.1171875,0.03125,1.0
4432601,,,,,,,,1.50390625,11.66796875,-2.23828125,-0.908203125,0.8125,-1.70703125,3.12109375,2.41796875,0.30078125,1.0
4432602,,,,,,,,1.328125,12.3203125,-2.4375,-0.802734375,0.912109375,-1.59375,3.0078125,3.07421875,0.0703125,1.0
4432603,,,,,,,,0.671875,12.80859375,-3.125,-0.62109375,0.892578125,-1.37890625,2.46875,3.5625,-0.65625,1.0
4432604,,,,,,,,0.42578125,12.80859375,-3.4453125,-0.564453125,0.740234375,-1.251953125,2.27734375,3.5625,-1.0,1.0
4432605,,,,,,,,0.29296875,11.875,-4.11328125,-0.53515625,0.162109375,-0.978515625,2.27734375,2.65234375,-1.73046875,1.0
4432606,,,,,,,,0.5078125,10.10546875,-4.640625,-0.60546875,-0.029296875,-0.890625,2.58984375,0.88671875,-2.3046875,1.0
4432607,,,,,,,,1.96875,6.45703125,-3.83984375,-0.64453125,-0.05859375,-0.583984375,4.16015625,-2.75390625,-1.61328125,1.0
4432608,,,,,,,,1.33984375,4.7734375,-2.32421875,-0.380859375,0.310546875,-0.12890625,3.58203125,-4.4375,-0.16015625,1.0
4432609,,,,,,,,-0.23046875,4.51171875,-1.00390625,-0.318359375,0.423828125,-0.009765625,2.01171875,-4.703125,1.14453125,1.0
4432610,36.0126745,129.31954116666665,84.84547680386939,30.458719210072907,3.6,52.0,,-1.96875,5.625,0.66796875,-1.1484375,0.5703125,-1.82421875,0.25,-3.59765625,2.79296875,1.0
4432611,,,,,,,,-4.54296875,9.046875,4.4453125,-0.453125,0.357421875,0.474609375,-2.35546875,-0.1875,6.546875,1.0
4432612,,,,,,,,-4.6328125,11.32421875,3.12109375,-0.638671875,-0.11328125,0.689453125,-2.5078125,2.07421875,5.16796875,1.0
4432613,,,,,,,,-3.125,14.2578125,-0.37109375,-0.71875,-0.904296875,0.671875,-1.0546875,4.98828125,1.60546875,1.0
4432614,,,,,,,,-1.046875,15.33984375,-2.26953125,-0.62109375,-1.8671875,0.15625,1.015625,6.05859375,-0.38671875,1.0
4432615,,,,,,,,-0.703125,14.34375,-1.87109375,-0.40234375,-2.33984375,-0.12890625,1.3984375,5.06640625,-0.08203125,1.0
4432616,,,,,,,,-0.91796875,13.15625,-1.02734375,-0.341796875,-2.337890625,-0.060546875,1.20703125,3.87890625,0.72265625,1.0
4432617,,,,,,,,-0.98828125,4.91796875,0.31640625,-0.263671875,-1.943359375,0.3671875,1.16796875,-4.359375,1.98828125,1.0
4432618,,,,,,,,-3.33203125,-11.4296875,8.14453125,-0.19140625,-1.021484375,0.76953125,-1.20703125,-20.72265625,9.76171875,1.0
4432619,,,,,,,,-7.03125,-51.22265625,21.38671875,-0.1171875,0.44921875,0.52734375,-4.9609375,-60.515625,22.98046875,1.0
4432620,36.01267683333333,129.3195445,85.14597182429966,30.717627000027562,3.6,49.0,,-7.54296875,-57.0,11.2265625,-1.1484375,0.5703125,-1.82421875,0.25,-3.59765625,2.79296875,1.0
4432621,,,,,,,,0.1328125,-13.7109375,8.87890625,-0.00390625,2.953125,-0.134765625,2.0859375,-23.01953125,10.52734375,1.0
4432622,,,,,,,,3.16796875,-7.359375,3.68359375,0.1171875,2.57421875,-1.56640625,5.15234375,-16.65625,5.39453125,1.0
4432623,,,,,,,,9.359375,-4.08203125,-6.88671875,-0.142578125,0.234375,0.958984375,11.359375,-13.36328125,-5.13671875,1.0
4432624,,,,,,,,15.54296875,-6.25,-2.3046875,-0.234375,-1.841796875,1.619140625,17.484375,-15.546875,-0.578125,1.0
4432625,,,,,,,,4.89453125,-12.29296875,5.1640625,0.634765625,-3.5625,1.697265625,6.72265625,-21.6328125,6.8125,1.0
4432626,,,,,,,,2.984375,-12.67578125,2.94921875,0.65234375,-0.029296875,3.4296875,4.6171875,-22.0546875,4.62890625,1.0
4432627,,,,,,,,1.484375,-9.3984375,1.02734375,0.90234375,1.560546875,4.03125,2.9296875,-18.80859375,2.75390625,1.0
4432628,,,,,,,,-0.41796875,-6.515625,-0.1875,0.880859375,1.408203125,3.208984375,0.44140625,-15.96875,1.71875,1.0
4432629,,,,,,,,-2.81640625,-2.2265625,-1.5390625,1.443359375,-0.07421875,3.267578125,-2.39453125,-11.68359375,0.53125,1.0
4432630,36.0126785,129.31954733333333,85.40139291617515,30.9025615389474,3.3000000000000003,51.0,,-4.77734375,0.36328125,-2.796875,1.599609375,-0.109375,3.875,-4.69140625,-9.0703125,-0.578125,1.0
4432631,,,,,,,,-5.77734375,2.74609375,-3.72265625,1.5859375,0.228515625,4.0078125,-6.07421875,-6.65625,-1.34765625,1.0
4432632,,,,,,,,-5.89453125,3.375,-3.71484375,1.515625,0.38671875,3.96484375,-6.375,-6.0078125,-1.26953125,1.0
4432633,,,,,,,,-5.40625,4.66015625,-2.8203125,1.3515625,0.705078125,3.66796875,-6.26953125,-4.66796875,-0.234375,1.0
4432634,,,,,,,,-5.04296875,6.421875,-2.33984375,1.25,0.84765625,3.46875,-6.07421875,-2.8671875,0.30078125,1.0
4432635,,,,,,,,-4.1953125,8.2421875,-2.2109375,1.048828125,1.0234375,2.751953125,-5.69140625,-0.953125,0.5703125,1.0
4432636,,,,,,,,-3.6640625,11.859375,-2.3671875,0.955078125,0.8046875,2.349609375,-5.421875,2.7265625,0.4921875,1.0
4432637,,,,,,,,-3.5390625,12.2109375,-2.17578125,0.8671875,0.681640625,2.18359375,-5.421875,3.109375,0.72265625,1.0
4432638,,,,,,,,-3.11328125,12.53125,-3.42578125,0.662109375,0.45703125,1.87109375,-5.1875,3.4921875,-0.46484375,1.0
4432639,,,,,,,,-2.95703125,10.23046875,-4.33203125,0.462890625,0.28515625,1.21875,-5.26953125,1.26953125,-1.30859375,1.0
4432640,36.01268016666667,129.31954916666666,85.56666474524296,31.087495206943746,3.3000000000000003,49.0,,-2.84765625,8.0859375,-4.0625,1.599609375,-0.109375,3.875,-5.265625,-0.8359375,-1.0,1.0
4432641,,,,,,,,-2.26171875,7.01171875,-3.97265625,0.435546875,0.40234375,0.736328125,-4.76953125,-1.87109375,-0.88671875,1.0
4432642,,,,,,,,-0.69921875,5.74609375,-3.4609375,0.341796875,0.69140625,0.416015625,-3.2734375,-3.09765625,-0.3515625,1.0
4432643,,,,,,,,0.8046875,5.31640625,-2.96875,0.232421875,0.806640625,-0.068359375,-1.8203125,-3.515625,0.1484375,1.0
4432644,,,,,,,,2.4921875,5.578125,-2.2734375,0.232421875,0.70703125,-0.41015625,-0.1328125,-3.25390625,0.8359375,1.0
4432645,,,,,,,,3.80859375,7.26953125,-0.74609375,0.27734375,0.396484375,-0.537109375,1.20703125,-1.56640625,2.3671875,1.0
4432646,,,,,,,,3.38671875,8.91015625,0.84765625,0.37109375,-0.0625,-0.576171875,0.82421875,0.08203125,3.9765625,1.0
4432647,,,,,,,,2.765625,10.43359375,0.5703125,0.427734375,-0.630859375,-0.53125,0.25,1.61328125,3.75,1.0
4432648,,,,,,,,1.19140625,12.1953125,-1.5234375,0.40234375,-1.2265625,-0.35546875,-1.24609375,3.375,1.71875,1.0
4432649,,,,,,,,0.1328125,12.1796875,-3.00390625,0.361328125,-1.681640625,-0.271484375,-2.2421875,3.37890625,0.30078125,1.0
4432650,36.0126815,129.31955166666665,85.79203642890336,31.23544305289854,2.9000000000000004,50.0,,-1.62890625,10.47265625,-2.65234375,1.599609375,-0.109375,3.875,-5.265625,-0.8359375,-1.0,1.0
4432651,,,,,,,,-3.70703125,6.734375,1.57421875,0.36328125,-1.193359375,-0.08203125,-5.95703125,-2.0234375,5.01171875,1.0
4432652,,,,,,,,-1.29296875,-0.59765625,-0.77734375,0.3046875,-0.44921875,-0.173828125,-3.50390625,-9.3359375,2.71484375,1.0
4432653,,,,,,,,2.75,-11.2578125,-0.578125,0.197265625,0.31640625,-0.806640625,0.59375,-19.99609375,2.9453125,1.0
4432654,,,,,,,,17.55859375,-56.421875,19.9453125,0.294921875,0.31640625,-1.634765625,15.49609375,-65.16015625,23.4765625,1.0
4432655,,,,,,,,14.0078125,-27.78125,12.90234375,0.58203125,0.51171875,-1.830078125,12.0859375,-36.54296875,16.46484375,1.0
4432656,,,,,,,,11.30078125,-16.28125,5.80078125,0.67578125,0.8203125,-1.5390625,9.44140625,-25.05078125,9.37890625,1.0
4432657,,,,,,,,-1.1640625,-5.69921875,1.11328125,-0.107421875,1.677734375,-1.091796875,-2.96875,-14.47265625,4.70703125,1.0
4432658,,,,,,,,-5.41796875,-8.796875,-2.37109375,-0.568359375,-1.41015625,-1.560546875,-7.10546875,-17.6171875,1.18359375,1.0
4432659,,,,,,,,-0.40625,-12.93359375,-1.0546875,-0.12109375,-4.556640625,-0.78125,-1.859375,-21.7890625,2.5234375,1.0
4432660,36.012683,129.31955466666668,86.0624825501161,31.401884552391138,2.9000000000000004,52.0,,1.28515625,-11.3359375,-1.32421875,1.599609375,-0.109375,3.875,0.05859375,-20.22265625,2.29296875,1.0
4432661,,,,,,,,3.37109375,-9.7109375,0.1328125,-0.9453125,0.134765625,-2.8515625,2.39453125,-18.65234375,3.7109375,1.0
4432662,,,,,,,,4.234375,-8.984375,0.6015625,-1.171875,0.75,-2.974609375,3.390625,-17.96484375,4.1328125,1.0
4432663,,,,,,,,4.44140625,-7.6484375,-1.12109375,-1.068359375,0.66015625,-2.701171875,3.84765625,-16.6953125,2.29296875,1.0
4432664,,,,,,,,3.85546875,-6.828125,-1.33203125,-1.228515625,0.298828125,-2.728515625,3.46484375,-15.93359375,1.98828125,1.0
4432665,,,,,,,,2.33203125,-2.0,-2.609375,-1.431640625,0.0,-2.673828125,2.31640625,-11.1796875,0.53125,1.0
4432666,,,,,,,,3.0625,2.0234375,-3.1328125,-1.525390625,-0.009765625,-2.158203125,3.390625,-7.23828125,-0.1953125,1.0
4432667,,,,,,,,3.34375,2.734375,-3.1015625,-1.505859375,0.009765625,-2.125,3.7734375,-6.546875,-0.234375,1.0
4432668,,,,,,,,3.8515625,6.22265625,-1.99609375,-1.41015625,0.134765625,-2.123046875,4.50390625,-3.09765625,0.72265625,1.0
4432669,,,,,,,,3.90234375,7.12890625,-1.88671875,-1.244140625,0.265625,-2.09375,4.73046875,-2.21484375,0.72265625,1.0
4432670,36.012685000000005,129.3195575,86.31790324226988,31.62380552981526,3.5,51.0,,3.828125,9.9765625,-2.015625,1.599609375,-0.109375,3.875,4.84765625,0.6171875,0.4921875,1.0
4432671,,,,,,,,2.77734375,11.86328125,-2.53515625,-0.89453125,0.115234375,-1.748046875,3.96484375,2.49609375,-0.12109375,1.0
4432672,,,,,,,,1.734375,12.97265625,-3.18359375,-0.7734375,-0.021484375,-1.609375,3.0078125,3.6015625,-0.80859375,1.0
4432673,,,,,,,,0.984375,13.1640625,-3.98828125,-0.419921875,-0.45703125,-0.8359375,2.5078125,3.796875,-1.73046875,1.0
4432674,,,,,,,,1.48046875,12.359375,-4.30859375,-0.416015625,-0.515625,-0.642578125,3.0390625,2.9921875,-2.07421875,1.0
4432675,,,,,,,,3.03515625,9.296875,-4.453125,-0.443359375,-0.41796875,-0.271484375,4.69140625,-0.0703125,-2.3046875,1.0
4432676,,,,,,,,3.93359375,7.07421875,-3.953125,-0.33203125,-0.1171875,-0.173828125,5.609375,-2.29296875,-1.84375,1.0
4432677,,,,,,,,3.83984375,6.76953125,-3.59375,-0.251953125,0.078125,-0.181640625,5.53125,-2.59765625,-1.5,1.0
4432678,,,,,,,,1.7109375,7.2265625,-1.546875,-0.173828125,0.513671875,-0.134765625,3.43359375,-2.140625,0.53125,1.0
4432679,,,,,,,,-1.68359375,8.22265625,2.796875,-0.271484375,0.78515625,0.265625,0.01953125,-1.14453125,4.859375,1.0
4432680,36.01268683333333,129.3195606666667,86.6033738499997,31.827233604933877,3.6,52.0,,-4.71875,10.1171875,4.16015625,1.599609375,-0.109375,3.875,4.84765625,0.6171875,0.4921875,1.0
4432681,,,,,,,,-4.73828125,13.203125,-0.2890625,-0.572265625,0.119140625,1.603515625,-3.23828125,3.796875,1.71875,1.0
4432682,,,,,,,,-3.76953125,14.76953125,-2.96875,-0.693359375,-0.826171875,1.298828125,-2.39453125,5.33203125,-1.0390625,1.0
4432683,,,,,,,,-3.34765625,14.66796875,-3.3515625,-0.583984375,-1.431640625,0.833984375,-2.05078125,5.21484375,-1.5,1.0
4432684,,,,,,,,-3.5,13.18359375,-2.97265625,-0.427734375,-1.390625,0.72265625,-2.2421875,3.72265625,-1.19140625,1.0
4432685,,,,,,,,-3.71875,11.28125,-1.1953125,-0.357421875,-0.99609375,0.869140625,-2.51171875,1.8046875,0.53125,1.0
4432686,,,,,,,,-4.03515625,8.32421875,1.5078125,-0.322265625,-0.72265625,0.990234375,-2.85546875,-1.14453125,3.21484375,1.0
4432687,,,,,,,,-3.51953125,-3.3515625,5.140625,-0.23046875,-0.12890625,1.130859375,-2.43359375,-12.83203125,6.8125,1.0
4432688,,,,,,,,-3.2265625,-24.48828125,10.6796875,-0.138671875,0.513671875,0.88671875,-2.2421875,-33.96875,12.328125,1.0
4432689,,,,,,,,-7.078125,-59.203125,18.41796875,-0.109375,1.080078125,0.056640625,-6.1484375,-68.68359375,20.06640625,1.0
4432690,36.012689333333334,129.31956350000002,86.8587939651538,32.104634216395546,3.4000000000000004,46.0,,-8.55078125,-35.453125,17.8046875,1.599609375,-0.109375,3.875,4.84765625,0.6171875,0.4921875,1.0
4432691,,,,,,,,2.45703125,-6.1171875,4.421875,0.064453125,1.431640625,-1.86328125,3.50390625,-15.5859375,6.0859375,1.0
4432692,,,,,,,,4.953125,-4.9140625,-6.6875,0.28125,1.26953125,-1.287109375,6.1484375,-14.36328125,-4.984375,1.0
4432693,,,,,,,,7.05078125,-6.4921875,-7.5859375,0.10546875,0.654296875,0.513671875,8.25390625,-15.93359375,-5.8671875,1.0
4432694,,,,,,,,11.53515625,-9.11328125,1.75390625,0.3515625,-3.859375,0.443359375,12.66015625,-18.5703125,3.44140625,1.0
4432695,,,,,,,,3.75390625,-13.546875,5.82421875,0.484375,-0.484375,1.978515625,4.80859375,-23.01953125,7.54296875,1.0
4432696,,,,,,,,1.94140625,-8.5546875,-0.59765625,0.697265625,1.779296875,3.056640625,2.73828125,-18.04296875,1.18359375,1.0
4432697,,,,,,,,0.28125,-4.546875,-0.49609375,0.828125,0.96875,3.125,0.59375,-14.05859375,1.41015625,1.0
4432698,,,,,,,,-0.22265625,-3.43359375,0.1875,1.009765625,0.490234375,2.951171875,-0.05859375,-12.94140625,2.140625,1.0
4432699,,,,,,,,-1.78125,-1.8046875,0.30078125,1.41796875,0.13671875,2.943359375,-1.8984375,-11.30078125,2.37109375,1.0
4432700,36.012691000000004,129.31956649999998,87.12923985101217,32.289568953923336,3.2,50.0,0.0,-4.08203125,1.453125,-1.7421875,1.4453125,0.275390625,3.009765625,-4.76953125,-7.96484375,0.609375,1.0
4432701,,,,,,,,-5.44140625,4.5078125,-2.6875,1.3671875,0.16796875,3.072265625,-6.41796875,-4.859375,-0.1953125,1.0
4432702,,,,,,,,-6.08984375,6.26953125,-2.8984375,1.30078125,0.18359375,3.078125,-7.21875,-3.05859375,-0.3515625,1.0
4432703,,,,,,,,-5.39453125,8.3984375,-3.0078125,1.064453125,0.333984375,2.92578125,-6.796875,-0.875,-0.3515625,1.0
4432704,,,,,,,,-4.60546875,9.5078125,-2.671875,0.814453125,0.5703125,2.603515625,-6.30078125,0.3125,0.0703125,1.0
4432705,,,,,,,,-3.33203125,11.3359375,-1.76953125,0.544921875,0.76953125,2.220703125,-5.265625,2.1875,1.02734375,1.0
4432706,,,,,,,,-2.96875,11.91796875,-1.62890625,0.466796875,0.845703125,1.986328125,-5.0,2.80078125,1.18359375,1.0
4432707,,,,,,,,-1.75390625,12.203125,-2.6875,0.375,0.9140625,1.138671875,-4.0390625,3.1484375,0.1484375,1.0
4432708,,,,,,,,-1.78125,8.4765625,-3.79296875,0.404296875,0.5234375,0.322265625,-4.1953125,-0.53125,-0.92578125,1.0
4432709,,,,,,,,-2.31640625,7.12109375,-2.78125,0.421875,0.208984375,0.140625,-4.76953125,-1.87109375,0.109375,1.0
4432710,36.012693166666665,129.31956899999997,87.35461055844183,32.52998287034588,3.7,47.0,,-2.0234375,6.0703125,-1.86328125,0.396484375,0.2265625,0.193359375,-4.76953125,-7.96484375,0.609375,1.0
4432711,,,,,,,,-0.09375,6.78125,-2.22265625,0.279296875,0.439453125,-0.025390625,-2.58984375,-2.1796875,0.72265625,1.0
4432712,,,,,,,,0.83984375,7.96875,-2.62109375,0.265625,0.337890625,-0.68359375,-1.625,-0.9921875,0.33984375,1.0
4432713,,,,,,,,1.53515625,9.2734375,-2.8984375,0.3125,0.115234375,-0.888671875,-0.8984375,0.3125,0.0703125,1.0
4432714,,,,,,,,2.515625,10.859375,-3.05078125,0.40625,-0.435546875,-1.123046875,0.171875,1.8828125,-0.04296875,1.0
4432715,,,,,,,,2.7421875,11.73828125,-2.79296875,0.4609375,-0.908203125,-1.12109375,0.515625,2.7578125,0.26171875,1.0
4432716,,,,,,,,2.40234375,12.4296875,-1.8515625,0.427734375,-1.15625,-0.8515625,0.36328125,3.45703125,1.296875,1.0
4432717,,,,,,,,0.921875,11.2421875,-0.49609375,0.423828125,-1.134765625,-0.591796875,-1.015625,2.265625,2.7109375,1.0
4432718,,,,,,,,0.26171875,10.58984375,-0.09765625,0.4140625,-1.087890625,-0.51953125,-1.62890625,1.61328125,3.1328125,1.0
4432719,,,,,,,,-1.69140625,7.54296875,2.71875,0.38671875,-0.93359375,-0.56640625,-3.50390625,-1.41015625,6.01171875,1.0
4432720,36.012695,129.31957233333333,87.65510598775678,32.73341112935236,3.4000000000000004,50.0,,-0.9296875,-0.359375,0.48828125,0.353515625,-0.546875,-0.826171875,-2.6640625,-9.3046875,3.82421875,1.0
4432721,,,,,,,,-1.17578125,-9.55078125,1.4453125,0.37109375,0.0546875,-1.21875,-2.81640625,-18.4921875,4.8203125,1.0
4432722,,,,,,,,0.28515625,-17.13671875,2.08203125,0.392578125,0.37109375,-1.5390625,-1.28515625,-26.078125,5.47265625,1.0
4432723,,,,,,,,20.11328125,-53.09765625,14.76953125,0.62109375,1.046875,-1.953125,18.67578125,-62.046875,18.19140625,1.0
4432724,,,,,,,,5.9453125,-16.01953125,4.609375,0.775390625,1.421875,-1.607421875,4.6171875,-24.96875,8.078125,1.0
4432725,,,,,,,,-0.69140625,-7.66796875,2.28515625,0.09765625,1.451171875,-1.236328125,-1.93359375,-16.62109375,5.77734375,1.0
4432726,,,,,,,,-3.359375,-5.890625,0.72265625,-0.3125,1.34765625,-0.837890625,-4.578125,-14.859375,4.20703125,1.0
4432727,,,,,,,,-5.25390625,-7.97265625,-2.26953125,-0.34765625,-1.6796875,-1.0390625,-6.37890625,-16.9609375,1.18359375,1.0
4432728,,,,,,,,-2.4453125,-11.05078125,-2.8515625,-0.220703125,-4.1328125,-0.72265625,-3.390625,-20.06640625,0.609375,1.0
4432729,,,,,,,,-0.2265625,-11.65625,-1.2890625,-0.19921875,-3.916015625,-1.337890625,-1.0546875,-20.6796875,2.1796875,1.0
4432730,36.01269666666667,129.31957599999998,87.98565132701752,32.91834649496309,3.2,53.0,,2.92578125,-11.47265625,1.4296875,0.353515625,-0.546875,-0.826171875,-2.6640625,-9.3046875,3.82421875,1.0
4432731,,,,,,,,3.68359375,-7.37109375,-0.0859375,-0.86328125,0.90625,-3.43359375,3.46484375,-16.4609375,3.328125,1.0
4432732,,,,,,,,2.8984375,-6.21484375,-1.6875,-1.115234375,1.078125,-2.818359375,2.9296875,-15.3515625,1.640625,1.0
4432733,,,,,,,,2.21875,-5.5546875,-3.953125,-1.3671875,0.11328125,-2.384765625,2.46875,-14.74609375,-0.734375,1.0
4432734,,,,,,,,2.62890625,-4.17578125,-3.46484375,-1.572265625,-0.22265625,-2.21875,3.08203125,-13.3984375,-0.38671875,1.0
4432735,,,,,,,,2.80078125,-2.05859375,-2.13671875,-1.673828125,0.1015625,-2.2578125,3.46484375,-11.33203125,0.80078125,1.0
4432736,,,,,,,,2.484375,0.0859375,-1.5625,-1.65625,0.599609375,-2.068359375,3.3515625,-9.23046875,1.21875,1.0
4432737,,,,,,,,2.07421875,6.421875,-2.09765625,-1.298828125,0.74609375,-1.671875,3.23828125,-2.9453125,0.41796875,1.0
4432738,,,,,,,,1.72265625,10.69140625,-3.29296875,-1.0234375,0.43359375,-1.87890625,3.1171875,1.30859375,-0.92578125,1.0
4432739,,,,,,,,0.86328125,12.0703125,-2.9765625,-0.775390625,0.26953125,-1.818359375,2.43359375,2.6875,-0.6953125,1.0
4432740,36.012698500000006,129.31957833333334,88.19599749735042,33.12177387035911,3.6,52.0,,0.57421875,12.515625,-3.14453125,-0.52734375,0.14453125,-1.619140625,-2.6640625,-9.3046875,3.82421875,1.0
4432741,,,,,,,,0.05078125,12.4296875,-3.5625,-0.44921875,0.099609375,-1.421875,1.93359375,3.07421875,-1.3828125,1.0
4432742,,,,,,,,-0.11328125,11.33203125,-3.671875,-0.42578125,-0.01171875,-1.416015625,1.89453125,1.9921875,-1.5390625,1.0
4432743,,,,,,,,0.7734375,8.60546875,-4.296875,-0.412109375,-0.05078125,-1.431640625,2.85546875,-0.72265625,-2.1875,1.0
4432744,,,,,,,,1.69921875,6.12890625,-4.51953125,-0.515625,-0.125,-1.357421875,3.92578125,-3.17578125,-2.45703125,1.0
4432745,,,,,,,,2.1171875,4.23828125,-4.00390625,-0.650390625,-0.087890625,-1.173828125,4.4609375,-5.046875,-1.99609375,1.0
4432746,,,,,,,,1.44140625,4.52734375,-3.0234375,-0.6015625,0.203125,-0.85546875,3.88671875,-4.7421875,-1.078125,1.0
4432747,,,,,,,,-0.21484375,7.203125,-1.4453125,-0.423828125,0.478515625,-0.345703125,2.2734375,-2.0625,0.453125,1.0
4432748,,,,,,,,-0.64453125,8.12109375,-0.890625,-0.392578125,0.5390625,-0.060546875,1.85546875,-1.14453125,0.9921875,1.0
4432749,,,,,,,,-1.9609375,10.6953125,-0.484375,-0.412109375,0.375,0.4609375,0.515625,1.42578125,1.375,1.0
4432750,36.0127005,129.31958133333333,88.46644295641315,33.343695061291484,3.5,51.0,,-4.44140625,13.71484375,2.15234375,-0.52734375,0.14453125,-1.619140625,-2.05078125,4.40625,3.94140625,1.0
4432751,,,,,,,,-3.625,14.19140625,-0.08984375,-0.384765625,-1.310546875,1.36328125,-1.4375,4.828125,1.56640625,1.0
4432752,,,,,,,,-3.43359375,14.12890625,-0.59765625,-0.376953125,-1.509765625,1.203125,-1.28515625,4.75390625,1.02734375,1.0
4432753,,,,,,,,-3.37109375,12.98828125,-0.2578125,-0.2890625,-1.765625,0.658203125,-1.28515625,3.60546875,1.296875,1.0
4432754,,,,,,,,-2.80859375,7.51953125,-0.15625,-0.111328125,-1.57421875,0.46875,-0.74609375,-1.87109375,1.3359375,1.0
4432755,,,,,,,,-0.05859375,-27.30078125,14.5859375,0.015625,-0.857421875,0.580078125,1.97265625,-36.6875,16.046875,1.0
4432756,,,,,,,,1.50390625,-41.32421875,18.9140625,-0.048828125,0.345703125,0.4296875,3.50390625,-50.71484375,20.375,1.0
4432757,,,,,,,,-8.6015625,-56.90625,12.4296875,-0.154296875,2.033203125,0.044921875,-6.6484375,-66.30859375,13.8984375,1.0
4432758,,,,,,,,-8.27734375,-24.34375,9.2890625,-0.169921875,3.212890625,-1.359375,-6.30078125,-33.7421875,10.796875,1.0
4432759,,,,,,,,0.609375,-9.61328125,-0.05078125,0.259765625,2.64453125,-1.16796875,2.625,-18.9921875,1.48828125,1.0
4432760,36.012702833333336,129.319584,88.70683828388945,33.60260236977827,3.3000000000000003,47.0,,4.65234375,-3.26171875,-7.75,-0.52734375,0.14453125,-1.619140625,6.64453125,-12.6328125,-6.1328125,1.0
4432761,,,,,,,,9.56640625,-2.68359375,-2.9921875,-0.06640625,-3.5546875,2.158203125,11.39453125,-12.09765625,-1.3828125,1.0
4432762,,,,,,,,7.0546875,-8.67578125,3.90234375,-0.056640625,-4.44140625,1.509765625,8.828125,-18.11328125,5.47265625,1.0
4432763,,,,,,,,2.70703125,-14.58984375,5.75,0.40625,-3.416015625,1.3515625,4.42578125,-24.046875,7.2734375,1.0
4432764,,,,,,,,1.91796875,-13.3203125,5.52734375,0.380859375,-2.025390625,2.078125,3.58203125,-22.79296875,7.04296875,1.0
4432765,,,,,,,,1.41796875,-10.3984375,3.640625,0.716796875,1.2421875,3.564453125,2.81640625,-19.91796875,5.203125,1.0
4432766,,,,,,,,0.28125,-5.09765625,-0.77734375,1.267578125,0.95703125,2.962890625,0.9765625,-14.66796875,1.02734375,1.0
4432767,,,,,,,,-2.22265625,-2.0,0.00390625,1.40625,0.19921875,2.80859375,-1.66796875,-11.56640625,1.87109375,1.0
4432768,,,,,,,,-5.0234375,2.0078125,-0.61328125,1.83984375,-0.859375,3.232421875,-4.8828125,-7.54296875,1.48828125,1.0
4432769,,,,,,,,-5.49609375,2.78515625,-1.2421875,1.865234375,-0.701171875,3.2734375,-5.49609375,-6.73828125,0.953125,1.0
4432770,36.01270416666667,129.31958616666668,88.90216011021025,33.75054999245109,3.1,48.0,,-6.21875,5.14453125,-2.83984375,-0.52734375,0.14453125,-1.619140625,6.64453125,-12.6328125,-6.1328125,1.0
4432771,,,,,,,,-6.30078125,8.62890625,-3.20703125,1.275390625,0.03125,2.958984375,-7.14453125,-0.76171875,-0.54296875,1.0
4432772,,,,,,,,-5.375,10.98828125,-2.703125,1.01953125,0.208984375,2.982421875,-6.49609375,1.65234375,0.0703125,1.0
4432773,,,,,,,,-4.40625,12.8125,-2.2421875,0.720703125,0.44921875,2.66015625,-5.80859375,3.53125,0.609375,1.0
4432774,,,,,,,,-3.0234375,13.25390625,-2.4453125,0.505859375,0.640625,1.9375,-4.65625,4.02734375,0.453125,1.0
4432775,,,,,,,,-2.28515625,12.14453125,-3.125,0.38671875,0.609375,1.119140625,-4.08203125,2.95703125,-0.1953125,1.0
4432776,,,,,,,,-2.18359375,10.86328125,-2.98828125,0.35546875,0.5234375,0.74609375,-4.0390625,1.69140625,-0.04296875,1.0
4432777,,,,,,,,-2.81640625,8.3125,-2.09375,0.3515625,0.232421875,0.349609375,-4.7265625,-0.8359375,0.875,1.0
4432778,,,,,,,,-2.87109375,7.13671875,-1.98828125,0.376953125,0.041015625,0.45703125,-4.84375,-1.98828125,1.02734375,1.0
4432779,,,,,,,,-2.08203125,6.6328125,-2.125,0.376953125,0.111328125,0.41015625,-4.08203125,-2.484375,0.9140625,1.0
4432780,36.012706,129.31958816666665,89.08245649479471,33.95397708469795,3.3000000000000003,47.0,,-0.9765625,7.17578125,-1.8515625,0.23046875,0.267578125,-0.1640625,-3.01171875,-1.91015625,1.21875,1.0
4432781,,,,,,,,0.5390625,8.32421875,-2.01953125,0.205078125,0.26171875,-0.51171875,-1.4765625,-0.76171875,1.06640625,1.0
4432782,,,,,,,,1.640625,10.15625,-2.6640625,0.3359375,-0.08203125,-0.830078125,-0.2890625,1.08203125,0.453125,1.0
4432783,,,,,,,,1.88671875,10.66015625,-2.71484375,0.37109375,-0.26953125,-0.962890625,-0.01953125,1.5703125,0.41796875,1.0
4432784,,,,,,,,2.265625,11.4296875,-2.79296875,0.439453125,-0.580078125,-1.123046875,0.4765625,2.34375,0.37890625,1.0
4432785,,,,,,,,2.03515625,12.41796875,-2.96484375,0.455078125,-0.76171875,-1.060546875,0.36328125,3.33984375,0.26171875,1.0
4432786,,,,,,,,1.12109375,11.94921875,-2.59765625,0.4140625,-0.80078125,-0.830078125,-0.44140625,2.87890625,0.68359375,1.0
4432787,,,,,,,,0.0078125,10.63671875,-1.83203125,0.390625,-0.765625,-0.458984375,-1.4765625,1.57421875,1.48828125,1.0
4432788,,,,,,,,-0.86328125,9.75,-0.74609375,0.3671875,-0.689453125,-0.31640625,-2.31640625,0.6953125,2.59765625,1.0
4432789,,,,,,,,-2.90234375,4.8671875,2.28125,0.30859375,-0.42578125,-0.291015625,-4.30859375,-4.171875,5.6640625,1.0
4432790,36.012707500000005,129.31959083333334,89.32285272956277,34.12041838097586,3.1,48.0,,-2.75,-1.390625,0.640625,0.23046875,0.267578125,-0.1640625,-3.01171875,-1.91015625,1.21875,1.0
4432791,,,,,,,,3.27734375,-25.45703125,4.37890625,0.205078125,0.185546875,-1.185546875,1.97265625,-34.46875,7.80859375,1.0
4432792,,,,,,,,7.7890625,-34.7265625,7.3984375,0.240234375,0.34765625,-1.646484375,6.53125,-43.7421875,10.8359375,1.0
4432793,,,,,,,,19.69921875,-32.3828125,19.86328125,0.482421875,0.9296875,-2.03515625,18.59765625,-41.40625,23.32421875,1.0
4432794,,,,,,,,3.8125,-12.8359375,2.28515625,0.35546875,1.033203125,-2.205078125,2.8515625,-21.87109375,5.77734375,1.0
4432795,,,,,,,,-4.16796875,-8.8828125,-0.73046875,-0.720703125,-1.421875,-1.208984375,-4.76953125,-17.9609375,2.71484375,1.0
4432796,,,,,,,,-3.13671875,-11.41796875,-0.80859375,-0.54296875,-3.861328125,-0.353515625,-3.58203125,-20.52734375,2.59765625,1.0
4432797,,,,,,,,0.26171875,-13.36328125,0.12109375,-0.392578125,-3.763671875,-0.630859375,-0.09765625,-22.4765625,3.51953125,1.0
4432798,,,,,,,,2.625,-12.56640625,2.015625,-0.626953125,-0.388671875,-3.064453125,2.625,-21.71484375,5.359375,1.0
4432799,,,,,,,,3.35546875,-10.86328125,1.77734375,-0.865234375,0.34765625,-3.251953125,3.50390625,-20.0234375,5.08984375,1.0
4432800,36.01270933333333,129.3195935,89.56324857674808,34.3238460945581,3.1,49.0,0.0,3.0234375,-7.77734375,-0.51171875,-1.04296875,0.603515625,-2.716796875,-3.01171875,-1.91015625,1.21875,1.0
4432801,,,,,,,,2.7734375,-6.48046875,-1.72265625,-1.26171875,0.130859375,-2.3046875,3.390625,-15.69921875,1.41015625,1.0
4432802,,,,,,,,2.77734375,-5.81640625,-1.3828125,-1.310546875,-0.03515625,-2.28125,3.50390625,-15.046875,1.6796875,1.0
4432803,,,,,,,,2.0234375,-3.63671875,-0.765625,-1.44921875,0.033203125,-2.3515625,2.96875,-12.90234375,2.1796875,1.0
4432804,,,,,,,,1.76953125,-2.93359375,-1.04296875,-1.5078125,0.1953125,-2.333984375,2.81640625,-12.2109375,1.83203125,1.0
4432805,,,,,,,,2.55078125,1.81640625,-3.94921875,-1.4609375,0.529296875,-1.900390625,3.88671875,-7.50390625,-1.26953125,1.0
4432806,,,,,,,,2.515625,5.48828125,-4.14453125,-1.375,0.400390625,-1.65234375,4.078125,-3.86328125,-1.65234375,1.0
4432807,,,,,,,,2.4765625,7.90234375,-3.203125,-1.328125,0.412109375,-1.6484375,4.1171875,-1.44921875,-0.7734375,1.0
4432808,,,,,,,,2.06640625,9.6328125,-1.98046875,-0.962890625,0.81640625,-1.634765625,3.921875,0.2734375,0.30078125,1.0
4432809,,,,,,,,1.46875,11.08203125,-1.4140625,-0.83984375,0.96875,-1.521484375,3.390625,1.73046875,0.8359375,1.0
4432810,36.01271133333333,129.31959616666666,89.80364422360942,34.54576702080029,3.5,49.0,,0.484375,12.23046875,-1.6640625,-1.04296875,0.603515625,-2.716796875,-3.01171875,-1.91015625,1.21875,1.0
4432811,,,,,,,,-0.3125,12.0234375,-2.98828125,-0.47265625,0.587890625,-0.779296875,1.8203125,2.69140625,-0.84765625,1.0
4432812,,,,,,,,-0.69140625,11.6796875,-3.39453125,-0.48046875,0.33984375,-0.720703125,1.47265625,2.34375,-1.26953125,1.0
4432813,,,,,,,,-0.98828125,10.26171875,-4.03125,-0.546875,-0.0546875,-0.634765625,1.24609375,0.92578125,-1.9609375,1.0
4432814,,,,,,,,0.2578125,6.69140625,-3.58984375,-0.60546875,-0.19921875,-0.298828125,2.546875,-2.63671875,-1.57421875,1.0
4432815,,,,,,,,0.6015625,5.390625,-2.41015625,-0.466796875,0.09375,0.6953125,2.8515625,-3.9765625,-0.50390625,1.0
4432816,,,,,,,,0.14453125,4.9375,-1.3515625,-0.361328125,0.26171875,0.783203125,2.35546875,-4.44140625,0.53125,1.0
4432817,,,,,,,,-1.31640625,5.59765625,-0.4921875,-0.208984375,0.537109375,0.642578125,0.82421875,-3.78515625,1.375,1.0
4432818,,,,,,,,-2.95703125,7.41015625,1.62890625,-0.31640625,0.55859375,0.1796875,-0.86328125,-1.98828125,3.48046875,1.0
4432819,,,,,,,,-3.953125,9.71875,3.3671875,-0.396484375,0.431640625,-0.048828125,-1.859375,0.3125,5.20703125,1.0
4432820,36.012713500000004,129.31959933333334,90.08911427659521,34.78618162309069,3.6,49.0,,-4.19140625,11.6640625,3.25390625,-1.04296875,0.603515625,-2.716796875,-3.01171875,-1.91015625,1.21875,1.0
4432821,,,,,,,,-3.453125,14.3828125,0.8203125,-0.482421875,-1.3046875,0.0,-1.3203125,4.984375,2.5234375,1.0
4432822,,,,,,,,-3.30078125,15.9609375,-0.75,-0.353515625,-2.197265625,-0.21484375,-1.12890625,6.5546875,0.875,1.0
4432823,,,,,,,,-3.48046875,12.921875,-0.48046875,-0.1875,-2.634765625,-0.203125,-1.24609375,3.53515625,1.06640625,1.0
4432824,,,,,,,,-2.8671875,5.44140625,0.35546875,-0.126953125,-2.3828125,0.251953125,-0.59375,-3.94140625,1.83203125,1.0
4432825,,,,,,,,-6.94921875,-24.3984375,16.01171875,-0.0859375,-1.3359375,0.50390625,-4.69140625,-33.78125,17.42578125,1.0
4432826,,,,,,,,-5.171875,-47.23046875,21.234375,-0.0625,0.439453125,0.111328125,-2.9296875,-56.61328125,22.6328125,1.0
4432827,,,,,,,,1.31640625,-31.29296875,12.1640625,-0.041015625,2.291015625,-0.455078125,3.54296875,-40.67578125,13.59375,1.0
4432828,,,,,,,,4.265625,-8.33203125,7.3515625,-0.017578125,2.869140625,-2.060546875,6.5703125,-17.6875,8.84375,1.0
4432829,,,,,,,,4.7734375,-2.25,-3.046875,0.03125,1.134765625,-1.078125,7.21875,-11.56640625,-1.5,1.0
4432830,36.012715666666665,129.31960216666667,90.34453457617992,35.026595924746644,3.3000000000000003,46.0,,8.4765625,-5.34765625,-2.6484375,-0.037109375,-2.8046875,1.359375,-3.01171875,-1.91015625,1.21875,1.0
4432831,,,,,,,,5.66015625,-12.73828125,4.77734375,0.333984375,-3.79296875,1.87109375,7.98828125,-22.09765625,6.23828125,1.0
4432832,,,,,,,,1.96484375,-12.8515625,4.484375,0.654296875,1.234375,3.12890625,3.96484375,-22.29296875,5.96875,1.0
4432833,,,,,,,,0.94140625,-11.01953125,3.359375,0.83984375,2.05078125,3.150390625,2.77734375,-20.48828125,4.8984375,1.0
4432834,,,,,,,,-2.32421875,-5.37890625,-0.08984375,0.8515625,1.48046875,2.96484375,-0.82421875,-14.890625,1.56640625,1.0
4432835,,,,,,,,-3.109375,-3.77734375,-0.4375,1.12890625,0.2265625,2.94140625,-1.8984375,-13.32421875,1.3359375,1.0
4432836,,,,,,,,-4.03515625,-2.078125,-1.59765625,1.33984375,-0.052734375,3.4765625,-3.12109375,-11.64453125,0.30078125,1.0
4432837,,,,,,,,-4.77734375,1.37109375,-2.3046875,1.5,0.640625,4.025390625,-4.42578125,-8.1875,-0.1953125,1.0
4432838,,,,,,,,-4.515625,2.16015625,-2.0546875,1.380859375,0.931640625,3.73828125,-4.5390625,-7.3828125,0.1875,1.0
4432839,,,,,,,,-3.8671875,3.69921875,-1.69921875,1.25,1.16015625,3.30859375,-4.2734375,-5.8125,0.68359375,1.0
4432840,36.01271716666667,129.31960433333333,90.53985615185786,35.19303679050105,3.1,47.0,,-3.1015625,5.8359375,-2.98046875,-0.037109375,-2.8046875,1.359375,-3.8125,-3.6328125,-0.50390625,1.0
4432841,,,,,,,,-2.921875,6.921875,-3.6171875,1.048828125,1.177734375,2.732421875,-3.81640625,-2.5234375,-1.078125,1.0
4432842,,,,,,,,-2.76953125,10.875,-4.22265625,0.826171875,0.748046875,2.466796875,-4.04296875,1.5,-1.57421875,1.0
4432843,,,,,,,,-2.8828125,12.34375,-4.02734375,0.74609375,0.6328125,2.470703125,-4.2734375,2.9921875,-1.34765625,1.0
4432844,,,,,,,,-3.20703125,14.359375,-2.7109375,0.6484375,0.5859375,2.501953125,-4.84765625,5.06640625,0.03125,1.0
4432845,,,,,,,,-3.265625,14.2890625,-2.46484375,0.60546875,0.654296875,2.470703125,-5.04296875,5.0234375,0.30078125,1.0
4432846,,,,,,,,-3.72265625,12.80078125,-2.83203125,0.5703125,0.732421875,2.333984375,-5.609375,3.56640625,-0.04296875,1.0
4432847,,,,,,,,-4.0078125,10.296875,-3.28515625,0.470703125,0.818359375,1.69921875,-6.109375,1.1171875,-0.46484375,1.0
4432848,,,,,,,,-4.26953125,7.97265625,-3.1484375,0.40234375,0.796875,1.302734375,-6.45703125,-1.18359375,-0.3125,1.0
4432849,,,,,,,,-1.69921875,4.34765625,-3.046875,0.2109375,0.853515625,0.380859375,-4.08203125,-4.74609375,-0.1953125,1.0
4432850,36.01271933333333,129.319607,90.78025155943638,35.43345094977636,3.4000000000000004,47.0,,-0.84765625,4.37890625,-2.89453125,0.103515625,0.951171875,-0.111328125,-3.27734375,-4.70703125,-0.04296875,1.0
4432851,,,,,,,,1.796875,5.40625,-2.265625,0.115234375,0.759765625,-0.4140625,-0.6328125,-3.67578125,0.5703125,1.0
4432852,,,,,,,,3.765625,7.0625,-1.65234375,0.232421875,0.37109375,-0.546875,1.359375,-2.0234375,1.18359375,1.0
4432853,,,,,,,,4.1484375,9.25390625,-1.1015625,0.36328125,-0.111328125,-0.564453125,1.78515625,0.16015625,1.7578125,1.0
4432854,,,,,,,,3.6328125,10.73828125,-0.52734375,0.431640625,-0.6484375,-0.568359375,1.3203125,1.65234375,2.3671875,1.0
4432855,,,,,,,,1.2578125,11.90234375,-0.0546875,0.458984375,-1.3046875,-0.365234375,-0.9375,2.83984375,2.94921875,1.0
4432856,,,,,,,,-0.5,12.09375,-1.19921875,0.447265625,-1.466796875,-0.228515625,-2.6640625,3.03515625,1.83203125,1.0
4432857,,,,,,,,-2.66015625,10.58984375,-1.84375,0.47265625,-1.771484375,0.3359375,-4.765625,1.57421875,1.296875,1.0
4432858,,,,,,,,-3.04296875,6.4921875,-0.8125,0.494140625,-1.275390625,0.0625,-5.109375,-2.484375,2.4453125,1.0
4432859,,,,,,,,0.25,-4.37109375,-1.75390625,0.482421875,-0.6015625,-0.267578125,-1.78125,-13.3203125,1.56640625,1.0
4432860,36.012721166666665,129.3196105,91.09577167712484,35.63687948295674,3.3000000000000003,49.0,,8.015625,-29.36328125,9.54296875,0.435546875,0.056640625,-0.734375,6.03125,-38.30078125,12.90234375,1.0
4432861,,,,,,,,14.60546875,-50.2421875,21.6484375,0.529296875,0.45703125,-1.26171875,12.69921875,-59.1796875,25.046875,1.0
4432862,,,,,,,,15.8515625,-46.9453125,19.2109375,0.6328125,0.53125,-1.404296875,14.0,-55.8828125,22.6328125,1.0
4432863,,,,,,,,3.57421875,-9.25390625,4.66796875,0.28125,1.033203125,-1.267578125,1.85546875,-18.1875,8.15234375,1.0
4432864,,,,,,,,-2.80078125,-8.265625,1.66796875,-0.365234375,0.001953125,-2.09375,-4.38671875,-17.234375,5.12890625,1.0
4432865,,,,,,,,-4.99609375,-10.37890625,-1.90234375,-0.130859375,-3.365234375,-1.052734375,-6.37890625,-19.375,1.56640625,1.0
4432866,,,,,,,,-1.3515625,-13.16015625,-1.0859375,0.017578125,-3.931640625,-0.890625,-2.625,-22.17578125,2.40625,1.0
4432867,,,,,,,,1.140625,-13.41015625,-0.39453125,-0.19921875,-2.361328125,-1.787109375,0.09375,-22.4375,3.13671875,1.0
4432868,,,,,,,,5.02734375,-13.03515625,1.8125,-0.771484375,0.55859375,-2.99609375,4.34765625,-22.13671875,5.28125,1.0
4432869,,,,,,,,5.23046875,-11.40234375,0.12890625,-0.7734375,0.697265625,-3.126953125,4.69140625,-20.5234375,3.55859375,1.0
4432870,36.012723,129.319614,91.41129177546259,35.84030802775083,3.3000000000000003,53.0,,4.26953125,-9.125,-1.05859375,-0.98828125,0.466796875,-3.068359375,6.03125,-38.30078125,12.90234375,1.0
4432871,,,,,,,,2.76171875,-4.3359375,-2.296875,-1.1484375,0.029296875,-2.73828125,2.73828125,-13.5546875,0.953125,1.0
4432872,,,,,,,,2.71484375,-0.78125,-2.2109375,-1.32421875,-0.09375,-2.330078125,3.04296875,-10.07421875,0.875,1.0
4432873,,,,,,,,2.875,0.8203125,-2.23046875,-1.427734375,0.013671875,-2.2734375,3.4296875,-8.50390625,0.72265625,1.0
