time,latitude,longitude,enu_x,enu_y,speed,course,ecg,accX,accY,accZ,gyrX,gyrY,gyrZ,eulR,eulP,eulY,validity
4401780,36.0125385,129.319344,67.07116328535442,15.368109648131199,3.1,48.0,,0.87890625,-3.44140625,-1.50390625,0.28515625,0.83984375,0.078125,-2.625,-3.25390625,1.10546875,1.0
4401781,,,,,,,,1.66796875,-2.92578125,-0.76171875,0.23828125,0.5625,-0.318359375,-0.86328125,-1.4453125,0.64453125,1.0
4401782,,,,,,,,2.3359375,-2.09765625,0.55078125,0.248046875,0.263671875,-0.548828125,-0.2109375,-0.68359375,1.9453125,1.0
4401783,,,,,,,,2.3125,-0.53515625,0.6953125,0.30859375,-0.068359375,-0.51171875,-0.25,0.80859375,2.10546875,1.0
4401784,,,,,,,,2.47265625,0.70703125,0.44921875,0.3515625,-0.48046875,-0.443359375,-0.09765625,1.99609375,1.87109375,1.0
4401785,,,,,,,,2.2421875,2.140625,0.12109375,0.353515625,-0.876953125,-0.501953125,-0.328125,3.37890625,1.56640625,1.0
4401786,,,,,,,,1.9765625,2.2890625,-0.0859375,0.32421875,-1.0078125,-0.54296875,-0.59375,3.4921875,1.375,1.0
4401787,,,,,,,,1.31640625,1.80859375,-0.28125,0.228515625,-1.01171875,-0.48828125,-1.24609375,2.953125,1.21875,1.0
4401788,,,,,,,,0.046875,0.40625,0.5390625,0.177734375,-0.76953125,-0.34765625,-2.5078125,1.5,2.0625,1.0
4401789,,,,,,,,-1.2109375,-3.875,2.33984375,0.087890625,-0.212890625,-0.416015625,-3.7734375,-2.8671875,3.90234375,1.0
4401790,36.012539999999994,129.31934666666666,67.31156044415674,15.534550335125775,2.9000000000000004,52.0,,0.94140625,-12.0859375,-0.2734375,-0.033203125,0.115234375,-0.6953125,-1.62890625,-11.14453125,1.296875,1.0
4401791,,,,,,,,8.390625,-28.98828125,-0.08984375,-0.123046875,0.30078125,-1.09765625,5.8046875,-28.11328125,1.48828125,1.0
4401792,,,,,,,,18.9375,-58.89453125,14.50390625,-0.078125,0.341796875,-1.421875,16.3359375,-58.1015625,16.08203125,1.0
4401793,,,,,,,,18.9453125,-58.84765625,14.49609375,0.21875,0.388671875,-1.337890625,12.27734375,-51.63671875,24.78125,1.0
4401794,,,,,,,,15.0625,-28.19921875,9.91015625,0.474609375,1.50390625,-0.048828125,4.42578125,-18.0703125,4.3984375,1.0
4401795,,,,,,,,4.61328125,-19.375,2.39453125,-0.271484375,0.53125,-0.853515625,-2.5078125,-20.296875,3.55859375,1.0
4401796,,,,,,,,-1.890625,-20.55859375,3.265625,-0.326171875,-3.36328125,-0.607421875,-4.5,-20.76171875,6.23828125,1.0
4401797,,,,,,,,-0.71875,-22.16015625,5.1953125,-0.03515625,-3.318359375,-0.5390625,-2.203125,-22.0546875,6.58203125,1.0
4401798,,,,,,,,1.82421875,-22.3515625,4.2578125,-0.1875,-2.259765625,-1.041015625,-0.74609375,-21.984375,5.96875,1.0
4401799,,,,,,,,4.6484375,-21.49609375,3.96875,-0.591796875,-0.38671875,-2.294921875,2.125,-21.21484375,5.7421875,1.0
4401800,36.01254166666667,129.31934916666665,67.53693255066125,15.71948412235352,2.8000000000000003,56.0,0.0,0.94140625,-12.0859375,-0.2734375,-0.654296875,-0.11328125,-2.603515625,2.31640625,-19.91796875,5.77734375,1.0
4401801,,,,,,,,5.5078125,-18.6953125,2.578125,-0.916015625,-0.38671875,-2.1875,3.0078125,-18.69140625,4.3984375,1.0
4401802,,,,,,,,6.33203125,-16.15625,0.91015625,-1.171875,-0.470703125,-2.22265625,3.84765625,-16.27734375,2.75390625,1.0
4401803,,,,,,,,6.30078125,-13.82421875,0.234375,-1.34375,-0.359375,-2.453125,3.84765625,-14.0859375,2.1015625,1.0
4401804,,,,,,,,6.27734375,-11.76953125,-0.01171875,-1.404296875,-0.201171875,-2.388671875,3.84765625,-12.171875,1.87109375,1.0
4401805,,,,,,,,6.01953125,-8.86328125,0.05859375,-1.416015625,-0.0546875,-2.201171875,3.62109375,-9.41796875,1.94921875,1.0
4401806,,,,,,,,5.7421875,-7.07421875,-0.32421875,-1.349609375,0.08203125,-2.044921875,3.390625,-7.76953125,1.56640625,1.0
4401807,,,,,,,,4.9453125,-3.5625,-0.8828125,-1.234375,0.095703125,-1.896484375,2.625,-4.40234375,0.9921875,1.0
4401808,,,,,,,,4.64453125,-1.90625,-1.15234375,-1.14453125,0.080078125,-1.759765625,2.35546875,-2.8671875,0.72265625,1.0
4401809,,,,,,,,4.08203125,0.48828125,-1.296875,-1.1171875,0.080078125,-1.642578125,1.8515625,-0.64453125,0.5703125,1.0
4401810,36.01254333333333,129.31935133333334,67.73225484714614,15.904417680758009,3.2,53.0,,4.04296875,2.55078125,-1.58984375,-1.087890625,0.119140625,-1.544921875,2.31640625,-19.91796875,5.77734375,1.0
4401811,,,,,,,,4.04296875,5.109375,-3.83203125,-1.03515625,0.185546875,-1.513671875,1.89453125,3.7578125,-1.99609375,1.0
4401812,,,,,,,,4.234375,6.63671875,-4.74609375,-0.96484375,0.16796875,-1.548828125,2.125,5.171875,-2.91796875,1.0
4401813,,,,,,,,5.58203125,5.5078125,-4.109375,-0.859375,0.07421875,-1.07421875,3.54296875,3.91796875,-2.3046875,1.0
4401814,,,,,,,,6.9609375,2.59765625,-4.1328125,-0.81640625,0.166015625,-0.484375,4.9609375,0.92578125,-2.34375,1.0
4401815,,,,,,,,7.203125,0.71484375,-4.03125,-0.71875,0.29296875,-0.26953125,5.2265625,-1.02734375,-2.265625,1.0
4401816,,,,,,,,6.9609375,-0.13671875,-3.79296875,-0.64453125,0.345703125,-0.328125,5.00390625,-1.91015625,-2.03515625,1.0
4401817,,,,,,,,5.7421875,-1.26171875,-3.1953125,-0.576171875,0.42578125,-0.509765625,3.8125,-3.09765625,-1.4609375,1.0
4401818,,,,,,,,2.56640625,-1.734375,-0.14453125,-0.6953125,0.466796875,-0.35546875,0.66796875,-3.6328125,1.56640625,1.0
4401819,,,,,,,,-0.328125,-1.13671875,3.69921875,-0.76953125,0.359375,0.255859375,-2.203125,-3.09765625,5.390625,1.0
4401820,36.012545,129.3193535,67.9275771324975,16.089351244410118,3.1,53.0,,-2.25,1.0546875,4.71875,-0.80859375,0.123046875,0.98828125,-4.1171875,-0.953125,6.39453125,1.0
4401821,,,,,,,,-1.4921875,3.1953125,2.09375,-0.78125,-0.35546875,1.173828125,-3.3515625,1.15625,3.75390625,1.0
4401822,,,,,,,,0.56640625,5.4921875,-0.88671875,-0.677734375,-1.083984375,0.466796875,-1.28515625,3.41796875,0.76171875,1.0
4401823,,,,,,,,1.39453125,5.76171875,-1.24609375,-0.40625,-1.650390625,-0.173828125,-0.40234375,3.640625,0.41796875,1.0
4401824,,,,,,,,1.875,3.44140625,-0.19921875,-0.13671875,-1.689453125,-0.19921875,0.1328125,1.26953125,1.484375,1.0
4401825,,,,,,,,0.96875,-10.2578125,5.21875,0.033203125,-1.0078125,0.0859375,-0.7109375,-12.48828125,6.9296875,1.0
4401826,,,,,,,,-1.7890625,-26.58203125,12.41015625,0.06640625,-0.228515625,0.150390625,-3.4296875,-28.8359375,14.12890625,1.0
4401827,,,,,,,,-4.0625,-46.69140625,16.2421875,0.115234375,0.58984375,0.236328125,-5.6875,-48.98828125,17.9609375,1.0
4401828,,,,,,,,-0.81640625,-39.48046875,13.03125,0.21484375,1.3828125,-0.70703125,-2.43359375,-41.82421875,14.7421875,1.0
4401829,,,,,,,,6.31640625,-14.4453125,2.3203125,0.349609375,1.62109375,-2.546875,4.73046875,-16.8515625,4.015625,1.0
4401830,36.012547166666664,129.31935566666667,68.1228989803183,16.329764428695327,2.9000000000000004,50.0,,13.234375,-16.703125,-1.921875,-0.80859375,0.123046875,0.98828125,11.703125,-19.19140625,-0.234375,1.0
4401831,,,,,,,,11.9765625,-17.3984375,5.0546875,0.41015625,-2.3984375,0.728515625,10.4765625,-19.91796875,6.7734375,1.0
4401832,,,,,,,,9.9609375,-19.09765625,6.48828125,0.296875,-3.169921875,0.55078125,8.484375,-21.6328125,8.23046875,1.0
4401833,,,,,,,,6.7578125,-19.91796875,6.40234375,0.267578125,-1.8515625,1.2109375,5.34375,-22.48046875,8.19140625,1.0
4401834,,,,,,,,6.7421875,-16.1796875,3.015625,0.296875,0.576171875,2.46484375,5.3046875,-18.76953125,4.8203125,1.0
4401835,,,,,,,,6.421875,-14.9921875,2.05078125,0.7578125,0.65625,2.65625,4.0390625,-16.3515625,3.328125,1.0
4401836,,,,,,,,5.5703125,-13.765625,1.515625,0.978515625,0.3359375,2.486328125,2.73828125,-15.3125,3.09765625,1.0
4401837,,,,,,,,2.09375,-11.8125,1.64453125,1.353515625,0.021484375,2.490234375,0.515625,-14.3984375,3.48046875,1.0
4401838,,,,,,,,-0.578125,-9.56640625,1.52734375,1.642578125,0.24609375,2.767578125,-2.203125,-12.1328125,3.40234375,1.0
4401839,,,,,,,,-1.0546875,-8.43359375,1.16015625,1.697265625,0.421875,2.85546875,-3.19921875,-9.72265625,2.59765625,1.0
4401840,36.01254866666667,129.31935783333333,68.31822139339756,16.49620479499368,2.9000000000000004,51.0,,-2.59765625,-4.06640625,-0.625,-0.80859375,0.123046875,0.98828125,-4.34765625,-6.578125,1.3359375,1.0
4401841,,,,,,,,-2.52734375,-2.56640625,-0.88671875,1.544921875,0.720703125,2.822265625,-4.34765625,-5.05078125,1.10546875,1.0
4401842,,,,,,,,-2.56640625,-0.7578125,-1.078125,1.439453125,0.8671875,2.541015625,-4.46484375,-3.2109375,0.953125,1.0
4401843,,,,,,,,-2.37890625,-0.15234375,-1.39453125,1.345703125,0.9453125,2.40234375,-4.30859375,-2.59765625,0.64453125,1.0
4401844,,,,,,,,-1.7421875,1.35546875,-2.25,1.13671875,1.02734375,2.146484375,-3.73828125,-1.06640625,-0.1953125,1.0
4401845,,,,,,,,-1.55859375,2.609375,-2.45703125,0.935546875,1.0,1.861328125,-3.6171875,0.1953125,-0.38671875,1.0
4401846,,,,,,,,-1.54296875,4.43359375,-1.81640625,0.77734375,0.96484375,1.70703125,-3.65625,2.03515625,0.26171875,1.0
4401847,,,,,,,,-0.890625,4.625,-2.25390625,0.712890625,1.02734375,1.705078125,-3.0859375,2.2265625,-0.16015625,1.0
4401848,,,,,,,,-0.62109375,3.97265625,-2.97265625,0.6953125,1.068359375,1.654296875,-2.85546875,1.57421875,-0.88671875,1.0
4401849,,,,,,,,-0.56640625,0.94140625,-3.59375,0.638671875,1.013671875,1.376953125,-2.85546875,-1.44921875,-1.5,1.0
4401850,36.012550499999996,129.31935983333332,68.4985186087027,16.69963145973312,3.1,48.0,,-1.015625,-1.3203125,-3.2109375,-0.80859375,0.123046875,0.98828125,-3.3515625,-3.71484375,-1.1171875,1.0
4401851,,,,,,,,-1.09375,-1.84765625,-2.55859375,0.556640625,1.03125,0.759765625,-3.46875,-4.24609375,-0.46484375,1.0
4401852,,,,,,,,-0.70703125,-1.41015625,-1.67578125,0.482421875,1.21484375,0.490234375,-3.12109375,-3.82421875,0.41796875,1.0
4401853,,,,,,,,-0.09375,-0.5078125,-1.078125,0.365234375,1.2421875,0.267578125,-2.546875,-2.9453125,0.9921875,1.0
4401854,,,,,,,,0.55078125,1.9453125,-0.8046875,0.34765625,0.720703125,0.08203125,-1.9296875,-0.53125,1.2578125,1.0
4401855,,,,,,,,0.82421875,4.4453125,-1.31640625,0.400390625,-0.26953125,-0.01953125,-1.515625,2.34375,0.53125,1.0
4401856,,,,,,,,1.3828125,5.77734375,-2.19921875,0.34765625,-0.86328125,-0.1875,-1.09375,3.21875,-0.08203125,1.0
4401857,,,,,,,,1.98828125,6.3671875,-2.33203125,0.244140625,-1.369140625,-0.556640625,-0.44140625,3.76171875,-0.16015625,1.0
4401858,,,,,,,,2.1328125,5.87109375,-2.1484375,0.193359375,-1.412109375,-0.654296875,-0.25,3.22265625,0.0703125,1.0
4401859,,,,,,,,1.6953125,4.39453125,-1.16015625,0.162109375,-1.244140625,-0.69921875,-0.6328125,1.6875,1.10546875,1.0
4401860,36.012552,129.319362,68.69384100799967,16.866071835648665,2.8000000000000003,50.0,,0.0078125,0.1796875,1.64453125,0.171875,-0.953125,-0.701171875,-3.3515625,-3.71484375,-1.1171875,1.0
4401861,,,,,,,,0.046875,-9.01171875,1.6875,0.19140625,-0.591796875,-0.65625,-2.203125,-11.79296875,4.015625,1.0
4401862,,,,,,,,1.69140625,-27.62890625,5.49609375,0.19921875,-0.201171875,-0.921875,-0.51953125,-30.4453125,7.84765625,1.0
4401863,,,,,,,,7.078125,-36.09375,7.05859375,0.234375,0.017578125,-1.20703125,4.8828125,-38.95703125,9.41796875,1.0
4401864,,,,,,,,21.375,-51.63671875,18.57421875,0.564453125,0.806640625,-1.474609375,19.2109375,-54.5390625,20.94921875,1.0
4401865,,,,,,,,4.75,-16.1171875,5.50390625,0.365234375,0.60546875,-1.611328125,2.625,-19.109375,7.88671875,1.0
4401866,,,,,,,,-0.515625,-10.37109375,4.18359375,-0.302734375,-0.767578125,-1.359375,-2.5859375,-13.44140625,6.58203125,1.0
4401867,,,,,,,,-3.29296875,-14.1015625,-0.59765625,-0.46484375,-3.1484375,-0.564453125,-5.26953125,-17.234375,1.83203125,1.0
4401868,,,,,,,,1.52734375,-18.390625,-0.94140625,-0.39453125,-3.814453125,-0.294921875,-0.40234375,-21.56640625,1.52734375,1.0
4401869,,,,,,,,6.46484375,-21.0546875,2.44140625,-0.255859375,-3.232421875,-1.1171875,4.65234375,-24.28515625,4.97265625,1.0
4401870,36.01255366666667,129.31936416666667,68.88916325098522,17.05100542100618,2.7,52.0,,8.09375,-21.046875,6.3125,0.171875,-0.953125,-0.701171875,-3.3515625,-3.71484375,-1.1171875,1.0
4401871,,,,,,,,6.72265625,-17.94140625,3.68359375,-0.951171875,0.92578125,-2.916015625,5.15234375,-21.3671875,6.23828125,1.0
4401872,,,,,,,,5.5390625,-14.890625,-0.109375,-1.154296875,0.779296875,-1.958984375,4.0390625,-18.421875,2.40625,1.0
4401873,,,,,,,,5.40234375,-13.4765625,-1.01953125,-1.3671875,-0.06640625,-1.666015625,3.84765625,-16.4609375,1.60546875,1.0
4401874,,,,,,,,4.88671875,-11.26953125,0.09375,-1.41015625,-0.291015625,-2.037109375,3.54296875,-15.01171875,2.5234375,1.0
4401875,,,,,,,,4.28515625,-9.62890625,0.70703125,-1.369140625,0.044921875,-2.373046875,2.890625,-12.8984375,2.90625,1.0
4401876,,,,,,,,3.6875,-8.14453125,0.26171875,-1.33203125,0.458984375,-2.162109375,2.546875,-12.09375,2.59765625,1.0
4401877,,,,,,,,3.11328125,-5.1015625,-1.3671875,-1.296875,0.59375,-1.837890625,2.05078125,-9.1484375,0.9140625,1.0
4401878,,,,,,,,3.0625,-1.21875,-2.26953125,-1.208984375,0.470703125,-1.72265625,2.0859375,-5.36328125,-0.04296875,1.0
4401879,,,,,,,,3.140625,1.62890625,-2.53125,-1.166015625,0.32421875,-1.7265625,2.2421875,-2.59375,-0.3515625,1.0
4401880,36.012555,129.31936616666664,69.06946087756357,17.198952480155604,2.9000000000000004,52.0,,3.19921875,6.03515625,-3.6328125,0.171875,-0.953125,-0.701171875,2.39453125,1.73046875,-1.5,1.0
4401881,,,,,,,,2.9296875,7.484375,-3.34765625,-0.869140625,0.30078125,-1.37890625,2.2421875,3.07421875,-1.26953125,1.0
4401882,,,,,,,,2.890625,8.50390625,-2.90234375,-0.787109375,0.275390625,-1.173828125,2.2421875,4.06640625,-0.84765625,1.0
4401883,,,,,,,,3.02734375,8.48828125,-3.0625,-0.626953125,0.216796875,-0.708984375,2.43359375,3.98828125,-1.0390625,1.0
4401884,,,,,,,,3.74609375,7.08203125,-3.73046875,-0.6171875,0.076171875,-0.802734375,3.8828125,1.5,-2.15234375,1.0
4401885,,,,,,,,5.25390625,4.140625,-4.9609375,-0.677734375,-0.046875,-1.21875,4.9609375,-1.18359375,-3.109375,1.0
4401886,,,,,,,,5.4140625,3.43359375,-5.0625,-0.71875,-0.064453125,-1.345703125,5.0703125,-1.91015625,-3.03125,1.0
4401887,,,,,,,,5.39453125,1.8359375,-4.37109375,-0.814453125,0.02734375,-1.28515625,5.03515625,-2.828125,-2.45703125,1.0
4401888,,,,,,,,5.05078125,1.54296875,-3.49609375,-0.701171875,0.33984375,-0.740234375,4.42578125,-3.25,-1.3828125,1.0
4401889,,,,,,,,4.67578125,1.4921875,-3.25,-0.638671875,0.490234375,-0.376953125,3.31640625,-3.2109375,-0.65625,1.0
4401890,36.01255666666667,129.3193686666667,69.29483290860689,17.38388631219726,3.1,51.0,,3.19921875,6.03515625,-3.6328125,-0.603515625,0.62109375,0.322265625,1.8203125,-2.91015625,0.03125,1.0
4401891,,,,,,,,1.203125,2.18359375,-1.41796875,-0.58984375,0.48046875,0.947265625,0.32421875,-2.25,0.53125,1.0
4401892,,,,,,,,-0.6796875,3.79296875,-0.8515625,-0.541015625,0.12109375,1.568359375,-0.9375,-1.0625,0.9140625,1.0
4401893,,,,,,,,-2.3203125,6.57421875,0.3671875,-0.529296875,-0.30078125,2.0625,-2.62890625,1.69140625,2.1015625,1.0
4401894,,,,,,,,-4.15625,8.75,4.265625,-0.443359375,-0.71875,2.30078125,-4.5390625,3.8359375,5.96875,1.0
4401895,,,,,,,,-3.46484375,8.7421875,4.12890625,-0.248046875,-1.099609375,2.20703125,-3.96484375,3.796875,5.8125,1.0
4401896,,,,,,,,-0.4140625,7.88671875,1.9140625,-0.076171875,-1.755859375,0.693359375,-0.9765625,2.91796875,3.59375,1.0
4401897,,,,,,,,2.6328125,0.96875,-0.20703125,0.111328125,-1.892578125,-0.5078125,2.125,-4.01953125,1.48828125,1.0
4401898,,,,,,,,2.171875,-36.16796875,19.890625,0.318359375,-1.29296875,-0.9140625,1.7421875,-41.171875,21.6015625,1.0
4401899,,,,,,,,-5.22265625,-54.66796875,13.8203125,0.197265625,1.380859375,-0.21484375,-5.57421875,-59.71484375,15.546875,1.0
4401900,36.01255866666667,129.31937133333335,69.53522953103872,17.605806678922814,3.0,49.0,0.0,-7.7265625,-32.57421875,4.12890625,0.1015625,3.498046875,-0.103515625,-8.1015625,-37.6484375,5.85546875,1.0
4401901,,,,,,,,0.73046875,-13.85546875,-0.5234375,0.724609375,2.8046875,-0.171875,0.32421875,-18.953125,1.21875,1.0
4401902,,,,,,,,4.43359375,-11.00390625,-3.28125,0.734375,-0.55078125,2.31640625,3.96484375,-16.1171875,-1.5,1.0
4401903,,,,,,,,10.1484375,-8.15234375,-0.1015625,0.240234375,-3.146484375,2.21875,9.59375,-13.28125,1.71875,1.0
4401904,,,,,,,,8.45703125,-11.35546875,5.7265625,0.263671875,-3.234375,0.93359375,7.91015625,-16.5,7.578125,1.0
4401905,,,,,,,,2.97265625,-13.32421875,2.05078125,0.587890625,-1.15625,1.056640625,2.43359375,-18.4921875,3.94140625,1.0
4401906,,,,,,,,1.6953125,-11.6328125,2.38671875,1.130859375,1.0546875,2.955078125,1.0546875,-16.8125,4.32421875,1.0
4401907,,,,,,,,0.5546875,-8.91796875,0.72265625,1.048828125,1.40625,3.34375,-0.25,-14.08984375,2.71484375,1.0
4401908,,,,,,,,0.15234375,-8.27734375,0.58203125,1.048828125,1.216796875,3.306640625,-0.74609375,-13.4375,2.59765625,1.0
4401909,,,,,,,,-1.171875,-5.80078125,1.640625,1.2890625,0.595703125,2.880859375,-2.2421875,-10.94921875,3.7109375,1.0
4401910,36.01256016666667,129.31937366666668,69.74557678658087,17.772247196200574,2.8000000000000003,49.0,,-1.99609375,-3.14453125,0.94921875,0.1015625,3.498046875,-0.103515625,-8.1015625,-37.6484375,5.85546875,1.0
4401911,,,,,,,,-2.40625,-0.44140625,-0.73828125,1.58203125,0.32421875,1.716796875,-3.6953125,-5.546875,1.48828125,1.0
4401912,,,,,,,,-2.66796875,1.52734375,-1.51171875,1.421875,0.43359375,1.49609375,-4.04296875,-3.55859375,0.80078125,1.0
4401913,,,,,,,,-2.54296875,2.2109375,-1.96484375,1.326171875,0.45703125,1.52734375,-3.9609375,-2.8671875,0.37890625,1.0
4401914,,,,,,,,-2.83203125,3.94921875,-2.18359375,1.060546875,0.517578125,1.78125,-4.34375,-1.10546875,0.22265625,1.0
4401915,,,,,,,,-2.53125,6.60546875,-2.24609375,0.677734375,0.599609375,2.173828125,-4.1953125,1.57421875,0.22265625,1.0
4401916,,,,,,,,-1.41796875,6.953125,-2.7421875,0.58984375,0.74609375,2.044921875,-3.2734375,1.9609375,-0.234375,1.0
4401917,,,,,,,,-0.9609375,7.12890625,-3.21875,0.5234375,0.78515625,1.669921875,-2.93359375,2.15234375,-0.6953125,1.0
4401918,,,,,,,,-0.76171875,6.62109375,-3.83984375,0.505859375,0.783203125,1.416015625,-2.7734375,1.65234375,-1.30859375,1.0
4401919,,,,,,,,-0.8359375,3.89453125,-4.0859375,0.564453125,0.75390625,0.9765625,-2.9296875,-1.06640625,-1.5390625,1.0
4401920,36.012562,129.31937566666664,69.92587394013515,17.975673890999456,3.1,47.0,,-1.04296875,1.734375,-3.953125,0.1015625,3.498046875,-0.103515625,-3.19921875,-3.2109375,-1.3828125,1.0
4401921,,,,,,,,-0.71875,0.171875,-3.14453125,0.662109375,0.810546875,0.216796875,-2.9296875,-4.78125,-0.54296875,1.0
4401922,,,,,,,,-0.3125,0.984375,-2.5078125,0.591796875,0.927734375,-0.169921875,-2.546875,-3.98046875,0.109375,1.0
4401923,,,,,,,,0.19140625,2.64453125,-2.171875,0.494140625,0.8359375,-0.505859375,-2.05078125,-2.328125,0.453125,1.0
4401924,,,,,,,,0.375,3.89453125,-1.88671875,0.470703125,0.43359375,-0.578125,-1.86328125,-1.10546875,0.76171875,1.0
4401925,,,,,,,,0.4296875,5.94921875,-1.375,0.376953125,-0.19140625,-0.42578125,-1.78515625,0.92578125,1.296875,1.0
4401926,,,,,,,,0.4140625,6.69140625,-1.34375,0.326171875,-0.505859375,-0.318359375,-1.78125,1.65234375,1.3359375,1.0
4401927,,,,,,,,0.19140625,8.4609375,-1.421875,0.26953125,-1.04296875,-0.208984375,-1.97265625,3.41796875,1.296875,1.0
4401928,,,,,,,,0.21875,9.13671875,-1.23046875,0.2109375,-1.43359375,-0.333984375,-1.8984375,4.06640625,1.52734375,1.0
4401929,,,,,,,,-0.80859375,8.5859375,-0.12890625,0.12890625,-1.69921875,-0.537109375,-2.85546875,3.49609375,2.67578125,1.0
4401930,36.012563666666665,129.31937833333333,70.1662708284701,18.160607863259887,3.0,49.0,,-2.84765625,6.5,3.37890625,0.1015625,3.498046875,-0.103515625,-4.80859375,1.3828125,6.234375,1.0
4401931,,,,,,,,-1.984375,2.94140625,1.9375,-0.0390625,-1.583984375,-1.220703125,-3.8515625,-2.21484375,4.8203125,1.0
4401932,,,,,,,,-1.1171875,-0.0703125,0.66015625,-0.0625,-1.40625,-1.447265625,-2.9296875,-5.24609375,3.55859375,1.0
4401933,,,,,,,,5.4375,-23.27734375,2.28125,-0.109375,-0.37109375,-2.4453125,3.8125,-28.53515625,5.203125,1.0
4401934,,,,,,,,9.38671875,-33.85546875,5.1875,-0.099609375,0.146484375,-2.69140625,7.83203125,-39.14453125,8.1171875,1.0
4401935,,,,,,,,22.83203125,-61.83203125,18.1796875,0.126953125,1.322265625,-2.34765625,21.39453125,-67.18359375,21.1015625,1.0
4401936,,,,,,,,7.8515625,-21.80078125,4.53515625,-0.287109375,2.53515625,-1.3359375,6.4921875,-27.23046875,7.42578125,1.0
4401937,,,,,,,,-0.73828125,-11.171875,-2.6953125,-0.53515625,1.40234375,-1.306640625,-2.08984375,-16.65625,0.1484375,1.0
4401938,,,,,,,,0.4921875,-13.5,-1.01171875,-0.328125,-4.677734375,-0.724609375,-0.671875,-19.07421875,1.83203125,1.0
4401939,,,,,,,,0.8046875,-14.58984375,0.0703125,-0.189453125,-4.896484375,-0.830078125,-0.25,-20.1796875,2.9453125,1.0
4401940,36.0125655,129.31938116666666,70.42169245229411,18.364035169291583,2.9000000000000004,52.0,,2.9765625,-14.89453125,3.37890625,-0.677734375,-0.58984375,-2.650390625,2.203125,-20.5625,6.27734375,1.0
4401941,,,,,,,,3.2109375,-12.39453125,1.48046875,-1.05859375,1.107421875,-2.701171875,2.5859375,-18.1484375,4.32421875,1.0
4401942,,,,,,,,3.5703125,-11.62890625,0.20703125,-1.26953125,1.03125,-2.451171875,3.0078125,-17.42578125,3.01953125,1.0
4401943,,,,,,,,4.09375,-9.86328125,-1.97265625,-1.4296875,0.044921875,-2.03125,3.65625,-15.73828125,0.76171875,1.0
4401944,,,,,,,,3.83984375,-7.6796875,-1.0078125,-1.421875,-0.447265625,-2.267578125,3.54296875,-13.6328125,1.640625,1.0
4401945,,,,,,,,3.1015625,-6.26953125,-0.58203125,-1.44140625,-0.044921875,-2.28125,2.96875,-12.29296875,1.98828125,1.0
4401946,,,,,,,,2.84765625,-5.5078125,-0.7734375,-1.4609375,0.21875,-2.150390625,2.77734375,-11.5625,1.7578125,1.0
4401947,,,,,,,,2.60546875,3.44140625,-3.125,-1.341796875,0.515625,-1.5546875,2.77734375,-2.75390625,-0.7734375,1.0
4401948,,,,,,,,2.3671875,5.86328125,-1.98046875,-1.2265625,0.546875,-1.50390625,2.625,-0.37890625,0.30078125,1.0
4401949,,,,,,,,2.12890625,8.30859375,-1.52734375,-1.138671875,0.63671875,-1.51953125,2.4296875,2.03515625,0.72265625,1.0
4401950,36.01256716666667,129.31938333333335,70.61701462957281,18.548968792892758,3.5,50.0,,2.1484375,9.7265625,-1.6171875,-0.8984375,0.830078125,-1.34765625,2.546875,3.41796875,0.5703125,1.0
4401951,,,,,,,,1.89453125,10.953125,-2.375,-0.744140625,0.861328125,-1.0,2.35546875,4.60546875,-0.234375,1.0
4401952,,,,,,,,2.13671875,10.984375,-2.63671875,-0.6484375,0.60546875,-0.8359375,2.66015625,4.60546875,-0.54296875,1.0
4401953,,,,,,,,2.54296875,9.828125,-3.5703125,-0.51171875,0.26171875,-0.83984375,3.12109375,3.4140625,-1.5,1.0
4401954,,,,,,,,3.0078125,8.16796875,-4.3828125,-0.40234375,-0.001953125,-0.74609375,3.66015625,1.73046875,-2.34375,1.0
4401955,,,,,,,,3.64453125,5.44140625,-4.88671875,-0.453125,-0.19140625,-0.59765625,4.34765625,-1.02734375,-2.87890625,1.0
4401956,,,,,,,,3.765625,4.59765625,-4.75390625,-0.474609375,-0.255859375,-0.501953125,4.50390625,-1.87109375,-2.76171875,1.0
4401957,,,,,,,,3.7265625,3.1640625,-4.10546875,-0.41796875,-0.171875,-0.189453125,4.5,-3.328125,-2.15234375,1.0
4401958,,,,,,,,1.98828125,1.9765625,-2.08984375,-0.1875,0.4140625,0.265625,2.77734375,-4.55859375,-0.16015625,1.0
4401959,,,,,,,,-1.55859375,2.19140625,1.60546875,-0.171875,0.626953125,0.634765625,-0.78515625,-4.36328125,3.51953125,1.0
4401960,36.012569500000005,129.31938583333334,70.84238599290845,18.807875486554675,3.7,47.0,,-4.6015625,4.62890625,4.71484375,-0.32421875,0.51953125,1.15234375,-3.890625,-1.94921875,6.6171875,1.0
4401961,,,,,,,,-4.4453125,7.88671875,2.33203125,-0.5234375,0.109375,1.591796875,-3.8125,1.26953125,4.203125,1.0
4401962,,,,,,,,-3.890625,8.59375,1.16015625,-0.615234375,-0.177734375,1.57421875,-3.31640625,1.9609375,3.01953125,1.0
4401963,,,,,,,,-2.49609375,9.7734375,-0.4296875,-0.693359375,-0.95703125,0.85546875,-1.97265625,3.109375,1.375,1.0
4401964,,,,,,,,-1.9140625,10.09375,-0.7890625,-0.666015625,-1.365234375,0.427734375,-1.3984375,3.41796875,0.9921875,1.0
4401965,,,,,,,,-1.02734375,8.203125,-0.66015625,-0.46484375,-1.869140625,-0.044921875,-0.48046875,1.50390625,1.06640625,1.0
4401966,,,,,,,,-0.97265625,-3.390625,1.03515625,-0.23828125,-1.7421875,0.07421875,-0.36328125,-10.11328125,2.71484375,1.0
4401967,,,,,,,,-2.7890625,-11.9921875,4.53515625,-0.1953125,-1.515625,0.15625,-2.1640625,-18.7265625,6.19921875,1.0
4401968,,,,,,,,-7.07421875,-33.08203125,14.328125,-0.126953125,-0.583984375,0.013671875,-6.41796875,-39.83203125,15.96875,1.0
4401969,,,,,,,,-4.62109375,-34.8984375,15.25390625,-0.046875,0.759765625,0.00390625,-3.96484375,-41.671875,16.88671875,1.0
4401970,36.012572,129.31938866666667,71.09780698376352,19.085275633264217,3.6,44.0,,8.2421875,-9.6328125,-0.57421875,0.1328125,2.55078125,-1.857421875,8.984375,-16.4296875,1.10546875,1.0
4401971,,,,,,,,12.16015625,-12.61328125,0.29296875,-0.107421875,-0.146484375,-0.28125,12.96484375,-19.41796875,1.98828125,1.0
4401972,,,,,,,,6.7734375,-15.421875,5.02734375,0.078125,-3.3984375,0.78125,7.6015625,-22.25,6.69921875,1.0
4401973,,,,,,,,4.859375,-16.01953125,6.25390625,0.384765625,-3.322265625,1.615234375,5.6875,-22.859375,7.92578125,1.0
4401974,,,,,,,,3.8671875,-15.875,5.0859375,0.404296875,-0.63671875,3.259765625,4.578125,-22.75390625,6.7734375,1.0
4401975,,,,,,,,1.0234375,-9.8828125,0.91796875,0.8671875,1.134765625,3.44921875,1.359375,-16.81640625,2.67578125,1.0
4401976,,,,,,,,-0.98828125,-7.30078125,0.3125,1.091796875,0.138671875,2.814453125,-0.86328125,-14.2421875,2.140625,1.0
4401977,,,,,,,,-3.13671875,-4.6484375,-0.6953125,1.404296875,-0.4453125,2.986328125,-3.19921875,-11.60546875,1.21875,1.0
4401978,,,,,,,,-3.37890625,-4.16015625,-1.20703125,1.505859375,-0.392578125,3.220703125,-3.54296875,-11.10546875,0.76171875,1.0
4401979,,,,,,,,-4.44140625,-1.9921875,-1.5546875,1.63671875,-0.0078125,3.59375,-4.84765625,-8.921875,0.53125,1.0
4401980,36.01257366666667,129.31939116666666,71.32317891894168,19.27020951697767,3.4000000000000004,46.0,,-4.93359375,-0.44140625,-0.984375,0.1328125,2.55078125,-1.857421875,8.984375,-16.4296875,1.10546875,1.0
4401981,,,,,,,,-4.40625,1.140625,-0.6328125,1.345703125,0.68359375,3.2890625,-5.421875,-5.70703125,1.71875,1.0
4401982,,,,,,,,-4.10546875,1.85546875,-0.94140625,1.263671875,0.724609375,3.03515625,-5.2265625,-4.97265625,1.44921875,1.0
4401983,,,,,,,,-3.234375,5.8203125,-3.1640625,1.083984375,0.45703125,2.373046875,-4.66015625,-0.953125,-0.65625,1.0
4401984,,,,,,,,-2.9765625,10.5234375,-2.09375,0.99609375,0.1328125,2.16015625,-4.58203125,3.796875,0.4921875,1.0
4401985,,,,,,,,-2.16796875,11.2421875,-2.5234375,0.865234375,0.138671875,1.900390625,-3.96484375,4.56640625,0.1484375,1.0
4401986,,,,,,,,-1.53125,10.875,-3.24609375,0.837890625,0.267578125,1.736328125,-3.390625,4.21875,-0.54296875,1.0
4401987,,,,,,,,-1.0390625,9.65625,-4.09765625,0.732421875,0.4453125,1.123046875,-3.0078125,3.03515625,-1.34765625,1.0
4401988,,,,,,,,-1.3828125,7.41796875,-4.25,0.65625,0.4921875,0.666015625,-3.4296875,0.80859375,-1.4609375,1.0
4401989,,,,,,,,-1.8203125,5.91015625,-3.61328125,0.640625,0.513671875,0.603515625,-3.89453125,-0.68359375,-0.80859375,1.0
4401990,36.01257566666666,129.3193935,71.5335256493053,19.492129694167556,3.4000000000000004,46.0,,-1.87109375,4.40625,-3.38671875,0.1328125,2.55078125,-1.857421875,8.984375,-16.4296875,1.10546875,1.0
4401991,,,,,,,,-1.703125,3.51171875,-2.75,0.517578125,0.849609375,0.5234375,-3.89453125,-3.05859375,0.109375,1.0
4401992,,,,,,,,-1.28515625,3.39453125,-2.45703125,0.435546875,0.880859375,0.43359375,-3.5,-3.17578125,0.41796875,1.0
4401993,,,,,,,,-0.28125,3.46484375,-1.73046875,0.3125,0.80078125,0.224609375,-2.546875,-3.09765625,1.14453125,1.0
4401994,,,,,,,,1.86328125,4.98828125,-0.4453125,0.298828125,0.5,0.123046875,-0.44140625,-1.56640625,2.4453125,1.0
4401995,,,,,,,,2.5625,6.1171875,-0.4296875,0.40234375,-0.1328125,-0.142578125,0.25,-0.453125,2.48828125,1.0
4401996,,,,,,,,2.67578125,8.30078125,-0.828125,0.439453125,-0.345703125,-0.28125,0.36328125,1.73046875,2.1015625,1.0
4401997,,,,,,,,1.5859375,10.03125,-1.734375,0.541015625,-1.17578125,-0.4375,-0.6328125,3.45703125,1.296875,1.0
4401998,,,,,,,,-0.4453125,8.5390625,-0.5390625,0.50390625,-1.375,-0.310546875,-2.5859375,1.9609375,2.5625,1.0
4401999,,,,,,,,-0.8125,5.77734375,-0.140625,0.4765625,-1.361328125,-0.244140625,-2.9296875,-0.80078125,2.98828125,1.0
4402000,36.012577666666665,129.319397,71.84904663160802,19.714050736653512,3.4000000000000004,50.0,0.0,0.36328125,0.76171875,-0.81640625,0.1328125,2.55078125,-1.857421875,-1.70703125,-5.8125,2.37109375,1.0
4402001,,,,,,,,2.25,-8.86328125,0.4453125,0.36328125,-0.4921875,-0.23046875,0.2109375,-15.4296875,3.671875,1.0
4402002,,,,,,,,11.94921875,-35.59375,12.7109375,0.34375,0.111328125,-0.591796875,9.94140625,-42.17578125,15.96875,1.0
4402003,,,,,,,,13.6328125,-50.28515625,20.9296875,0.470703125,0.580078125,-0.787109375,11.6640625,-56.87890625,24.203125,1.0
4402004,,,,,,,,5.18359375,-15.80078125,11.28515625,0.5078125,1.091796875,-0.755859375,3.23828125,-22.3984375,14.58984375,1.0
4402005,,,,,,,,-2.44140625,-9.34375,0.8828125,-0.16015625,-0.896484375,-1.29296875,-4.34765625,-16.0078125,4.171875,1.0
4402006,,,,,,,,0.51953125,-14.66015625,-0.15234375,-0.177734375,-3.9140625,-1.326171875,-1.20703125,-21.37109375,3.17578125,1.0
4402007,,,,,,,,4.75390625,-16.375,3.69140625,0.03125,-2.69140625,-1.744140625,3.23828125,-23.13671875,7.08203125,1.0
4402008,,,,,,,,5.890625,-14.94140625,2.96484375,-0.630859375,-0.2109375,-2.3828125,4.578125,-21.75390625,6.35546875,1.0
4402009,,,,,,,,5.96484375,-13.20703125,0.94140625,-0.85546875,0.599609375,-2.484375,4.80859375,-20.1015625,4.28515625,1.0
4402010,36.01257966666667,129.31940016666667,72.13451781020758,19.93597154382651,3.2,52.0,,4.1953125,-10.72265625,-0.6796875,-1.107421875,0.12109375,-2.5078125,3.2734375,-17.7265625,2.5625,1.0
4402011,,,,,,,,2.9453125,-8.9921875,-1.25390625,-1.197265625,-0.033203125,-2.57421875,2.125,-16.046875,1.94921875,1.0
4402012,,,,,,,,2.25390625,-7.07421875,-1.40625,-1.3203125,-0.029296875,-2.677734375,1.62890625,-14.20703125,1.71875,1.0
4402013,,,,,,,,2.3125,-6.19140625,-1.46484375,-1.392578125,0.037109375,-2.640625,1.78125,-13.36328125,1.60546875,1.0
4402014,,,,,,,,2.83203125,-3.921875,-2.0859375,-1.435546875,0.103515625,-2.576171875,2.39453125,-11.14453125,0.953125,1.0
4402015,,,,,,,,2.921875,-0.71875,-2.6328125,-1.4140625,0.4375,-2.408203125,2.8515625,-8.078125,0.1875,1.0
4402016,,,,,,,,3.10546875,0.984375,-3.078125,-1.31640625,0.494140625,-2.197265625,3.19921875,-6.43359375,-0.3515625,1.0
4402017,,,,,,,,3.37890625,3.0,-3.296875,-1.25390625,0.484375,-2.072265625,3.54296875,-4.44140625,-0.6171875,1.0
4402018,,,,,,,,3.26171875,4.171875,-3.51953125,-1.1953125,0.46484375,-1.95703125,3.50390625,-3.2890625,-0.88671875,1.0
4402019,,,,,,,,3.45703125,8.2890625,-3.2109375,-1.111328125,0.375,-1.744140625,3.84375,0.7734375,-0.65625,1.0
4402020,36.01258116666667,129.31940233333336,72.32984006672744,20.102412001633194,3.3000000000000003,52.0,,3.48046875,9.26171875,-3.05859375,-1.107421875,0.12109375,-2.5078125,3.2734375,-17.7265625,2.5625,1.0
4402021,,,,,,,,3.171875,10.90234375,-3.171875,-0.87890625,0.28125,-1.38671875,3.734375,3.33984375,-0.734375,1.0
4402022,,,,,,,,2.07421875,11.61328125,-3.765625,-0.73046875,0.25390625,-1.173828125,2.73828125,4.02734375,-1.3828125,1.0
4402023,,,,,,,,1.921875,11.515625,-4.01171875,-0.6328125,0.2109375,-1.068359375,2.625,3.9140625,-1.65234375,1.0
4402024,,,,,,,,2.01953125,10.84765625,-4.69140625,-0.533203125,0.078125,-0.85546875,2.81640625,3.22265625,-2.37890625,1.0
4402025,,,,,,,,3.44140625,7.90625,-5.3046875,-0.537109375,0.01953125,-0.724609375,4.3046875,0.2734375,-3.03125,1.0
4402026,,,,,,,,3.79296875,5.30078125,-3.609375,-0.49609375,0.380859375,-0.619140625,4.76953125,-2.37109375,-1.421875,1.0
4402027,,,,,,,,2.3515625,4.7890625,-2.26953125,-0.3203125,0.94921875,-0.443359375,3.39453125,-2.90625,-0.12109375,1.0
4402028,,,,,,,,0.41796875,4.75,-0.921875,-0.349609375,1.076171875,-0.267578125,1.47265625,-2.9453125,1.21875,1.0
4402029,,,,,,,,-2.0234375,5.07421875,2.28125,-0.42578125,1.068359375,0.16796875,-0.9765625,-2.63671875,4.3984375,1.0
4402030,36.012583,129.31940516666666,72.58526158201904,20.305839370563096,3.3000000000000003,52.0,,-4.19921875,6.8984375,4.0390625,-1.107421875,0.12109375,-2.5078125,3.2734375,-17.7265625,2.5625,1.0
4402031,,,,,,,,-4.4140625,8.84375,2.66796875,-0.75390625,0.05078125,0.990234375,-3.46875,1.078125,4.703125,1.0
4402032,,,,,,,,-3.171875,11.328125,-0.06640625,-0.818359375,-0.837890625,0.8125,-2.28125,3.53515625,1.91015625,1.0
4402033,,,,,,,,-2.234375,12.30859375,-1.21484375,-0.658203125,-1.640625,0.333984375,-1.359375,4.484375,0.68359375,1.0
4402034,,,,,,,,-1.578125,12.3984375,-2.33984375,-0.515625,-1.990234375,0.048828125,-0.671875,4.56640625,-0.50390625,1.0
4402035,,,,,,,,-1.39453125,10.60546875,-1.671875,-0.482421875,-1.90625,0.052734375,-0.44140625,2.76171875,0.109375,1.0
4402036,,,,,,,,-1.265625,6.37109375,1.37109375,-0.443359375,-1.4609375,0.267578125,-0.2890625,-1.48828125,3.09765625,1.0
4402037,,,,,,,,-0.71875,-0.44140625,2.30859375,-0.373046875,-0.697265625,0.5078125,0.25,-8.30859375,3.98046875,1.0
4402038,,,,,,,,-0.27734375,-30.234375,10.7890625,-0.2734375,0.244140625,0.5078125,0.66796875,-38.109375,12.4453125,1.0
4402039,,,,,,,,-9.16015625,-60.18359375,18.08984375,-0.197265625,1.03125,0.265625,-8.25390625,-68.06640625,19.72265625,1.0
4402040,36.01258533333333,129.31940833333334,72.87073241830393,20.564746611868305,3.2,50.0,,-8.42578125,-35.59765625,14.2578125,-0.22265625,1.888671875,-0.0625,-7.56640625,-43.5078125,15.890625,1.0
4402041,,,,,,,,1.44140625,-11.2265625,1.75390625,0.029296875,2.119140625,-1.125,2.31640625,-19.1484375,3.40234375,1.0
4402042,,,,,,,,10.828125,-12.7421875,-6.51953125,-0.3984375,0.74609375,1.02734375,11.703125,-20.6796875,-4.87109375,1.0
4402043,,,,,,,,13.05078125,-11.9609375,2.30859375,-0.029296875,-3.828125,0.4140625,13.84765625,-19.953125,3.90234375,1.0
4402044,,,,,,,,3.91796875,-13.75390625,6.375,0.486328125,-2.4609375,1.0390625,4.73046875,-21.75,7.9609375,1.0
4402045,,,,,,,,2.9765625,-11.96875,2.8515625,0.51171875,0.21484375,2.84765625,3.65625,-19.9921875,4.4765625,1.0
4402046,,,,,,,,2.65234375,-10.53515625,1.06640625,0.76953125,0.873046875,3.47265625,3.19921875,-18.5703125,2.71484375,1.0
4402047,,,,,,,,-0.3828125,-6.10546875,-1.6171875,0.837890625,0.623046875,3.474609375,-0.1328125,-14.16796875,0.109375,1.0
4402048,,,,,,,,-1.515625,-4.4140625,-0.84375,1.001953125,-0.12109375,3.123046875,-1.515625,-12.48828125,0.953125,1.0
4402049,,,,,,,,-2.91015625,-2.828125,0.24609375,1.794921875,-0.25390625,3.244140625,-3.27734375,-10.875,2.21484375,1.0
4402050,36.01258666666667,129.31941049999998,73.06605479623184,20.712693880946347,2.9000000000000004,51.0,,-5.4140625,2.50390625,-1.24609375,1.720703125,-0.0703125,2.859375,-6.265625,-5.47265625,1.02734375,1.0
4402051,,,,,,,,-6.04296875,6.2265625,-1.74609375,1.431640625,-0.173828125,2.671875,-7.22265625,-1.6796875,0.72265625,1.0
4402052,,,,,,,,-5.86328125,7.95703125,-1.50390625,1.318359375,-0.111328125,2.501953125,-7.140625,0.08203125,1.02734375,1.0
4402053,,,,,,,,-4.99609375,9.71875,-1.51953125,1.1015625,0.107421875,2.04296875,-6.45703125,1.8828125,1.10546875,1.0
4402054,,,,,,,,-3.66796875,11.43359375,-1.703125,0.8828125,0.298828125,1.5546875,-5.26953125,3.64453125,0.9921875,1.0
4402055,,,,,,,,-3.01171875,12.13671875,-1.99609375,0.650390625,0.34765625,1.166015625,-4.73046875,4.37109375,0.76171875,1.0
4402056,,,,,,,,-2.46875,11.77734375,-2.328125,0.57421875,0.33203125,1.001953125,-4.234375,4.02734375,0.453125,1.0
4402057,,,,,,,,-1.69921875,9.2265625,-2.375,0.56640625,0.267578125,0.6875,-3.54296875,1.5,0.453125,1.0
4402058,,,,,,,,-1.8046875,7.2578125,-1.76171875,0.53515625,0.25,0.384765625,-3.6953125,-0.453125,1.10546875,1.0
4402059,,,,,,,,-1.70703125,6.18359375,-1.39453125,0.46875,0.28125,0.244140625,-3.6171875,-1.52734375,1.48828125,1.0
4402060,36.01258883333333,129.31941283333333,73.27640129567035,20.953107305876593,3.3000000000000003,48.0,,-1.18359375,6.13671875,-1.1171875,0.34375,0.421875,0.015625,-3.1171875,-1.56640625,1.796875,1.0
4402061,,,,,,,,-0.71875,6.71875,-1.40234375,0.2421875,0.5078125,-0.234375,-2.66796875,-0.9921875,1.52734375,1.0
4402062,,,,,,,,-0.00390625,8.484375,-1.9375,0.12109375,0.35546875,-0.43359375,-1.93359375,0.7734375,0.9921875,1.0
4402063,,,,,,,,0.140625,9.33984375,-2.13671875,0.087890625,0.171875,-0.48046875,-1.78125,1.61328125,0.80078125,1.0
4402064,,,,,,,,1.1484375,10.95703125,-2.84375,0.166015625,-0.3984375,-0.55859375,-0.7109375,3.21875,0.109375,1.0
4402065,,,,,,,,2.046875,11.81640625,-3.21875,0.23828125,-0.5390625,-0.646484375,0.25,4.06640625,-0.234375,1.0
4402066,,,,,,,,2.39453125,11.77734375,-3.43359375,0.267578125,-0.537109375,-0.697265625,0.66796875,4.0234375,-0.42578125,1.0
4402067,,,,,,,,2.2421875,9.71875,-3.52734375,0.3203125,-0.302734375,-0.583984375,0.59375,1.96484375,-0.46484375,1.0
4402068,,,,,,,,1.8671875,9.06640625,-3.23828125,0.330078125,-0.185546875,-0.5390625,0.25,1.3046875,-0.16015625,1.0
4402069,,,,,,,,0.02734375,6.109375,-0.921875,0.31640625,0.103515625,-0.4453125,-1.55078125,-1.640625,2.18359375,1.0
4402070,36.01259066666667,129.319416,73.56187255272877,21.156534954515333,3.3000000000000003,50.0,,-2.87109375,1.6640625,3.99609375,0.265625,0.64453125,-0.328125,-4.42578125,-6.0859375,7.12109375,1.0
4402071,,,,,,,,-2.80078125,-6.9921875,0.80859375,0.22265625,0.919921875,-0.51171875,-4.34765625,-14.7421875,3.94140625,1.0
4402072,,,,,,,,-2.50390625,-9.67578125,-0.11328125,0.21484375,0.994140625,-0.78125,-4.04296875,-17.42578125,3.01953125,1.0
4402073,,,,,,,,6.13671875,-40.49609375,3.40625,0.2109375,0.87890625,-1.73828125,4.65234375,-48.26171875,6.546875,1.0
4402074,,,,,,,,13.078125,-49.3359375,10.30078125,0.267578125,0.806640625,-2.185546875,11.6640625,-57.109375,13.44140625,1.0
4402075,,,,,,,,17.05078125,-21.91796875,13.76171875,0.505859375,0.759765625,-2.150390625,15.80078125,-29.71875,16.92578125,1.0
4402076,,,,,,,,3.546875,-10.953125,0.1328125,-0.400390625,0.8671875,-2.12109375,2.546875,-18.8046875,3.328125,1.0
4402077,,,,,,,,-1.47265625,-11.46484375,-1.98828125,-0.724609375,-0.181640625,-2.11328125,-2.39453125,-19.3359375,1.18359375,1.0
4402078,,,,,,,,-1.37109375,-12.58203125,0.2109375,-0.66796875,-4.0625,-0.5234375,-2.01171875,-20.52734375,3.328125,1.0
4402079,,,,,,,,0.45703125,-13.5234375,1.21484375,-0.7578125,-3.4765625,-0.931640625,-0.09765625,-21.48828125,4.32421875,1.0
4402080,36.01259266666667,129.31941933333334,73.86236853250954,21.378455944524045,3.1,52.0,,2.5546875,-13.9765625,3.30078125,-0.736328125,-0.80859375,-2.470703125,2.203125,-21.984375,6.35546875,1.0
4402081,,,,,,,,3.046875,-8.15234375,1.078125,-1.240234375,0.619140625,-2.498046875,3.0078125,-16.23828125,4.015625,1.0
4402082,,,,,,,,2.72265625,-7.4765625,0.12890625,-1.23046875,0.26171875,-2.216796875,2.77734375,-15.58984375,3.01953125,1.0
4402083,,,,,,,,1.9296875,-7.16015625,-1.9140625,-1.390625,-0.408203125,-2.12890625,2.1640625,-15.3125,0.875,1.0
4402084,,,,,,,,1.734375,-6.2109375,-1.3515625,-1.482421875,-0.412109375,-2.185546875,2.0859375,-14.3984375,1.375,1.0
4402085,,,,,,,,1.6328125,-4.5,-0.58984375,-1.583984375,0.373046875,-2.19140625,2.2421875,-12.75,1.94921875,1.0
4402086,,,,,,,,1.66015625,-2.33984375,-0.53515625,-1.578125,0.66015625,-2.1171875,2.35546875,-10.6015625,1.94921875,1.0
4402087,,,,,,,,1.30859375,6.09765625,-1.7890625,-1.421875,0.8984375,-1.5390625,2.2734375,-2.25390625,0.453125,1.0
4402088,,,,,,,,1.19921875,7.65234375,-2.03125,-1.21484375,0.625,-1.294921875,2.27734375,-0.72265625,0.109375,1.0
4402089,,,,,,,,1.10546875,11.19921875,-3.01953125,-1.00390625,0.421875,-1.095703125,2.27734375,2.796875,-0.96484375,1.0
4402090,36.0125945,129.31942183333334,74.08774019489076,21.581883104020513,3.5,51.0,,1.05859375,11.8984375,-3.4765625,-0.912109375,0.359375,-1.056640625,2.27734375,3.4921875,-1.4609375,1.0
4402091,,,,,,,,0.515625,12.75,-3.60546875,-0.703125,0.28125,-1.083984375,1.8203125,4.33984375,-1.65234375,1.0
4402092,,,,,,,,0.64453125,11.9609375,-3.4453125,-0.50390625,0.208984375,-1.107421875,2.05078125,3.53125,-1.5390625,1.0
4402093,,,,,,,,0.87109375,11.5,-3.46484375,-0.443359375,0.2109375,-1.0703125,2.31640625,3.07421875,-1.57421875,1.0
4402094,,,,,,,,2.07421875,9.5,-3.8125,-0.423828125,0.291015625,-1.14453125,3.6171875,1.078125,-1.9609375,1.0
4402095,,,,,,,,4.51953125,5.27734375,-4.33984375,-0.380859375,0.279296875,-1.3828125,6.21875,-3.13671875,-2.53515625,1.0
4402096,,,,,,,,4.6953125,4.15234375,-4.26953125,-0.361328125,0.26953125,-1.48046875,6.53515625,-4.24609375,-2.49609375,1.0
4402097,,,,,,,,3.0078125,3.6015625,-3.32421875,-0.3203125,0.458984375,-1.20703125,4.9609375,-4.78125,-1.57421875,1.0
4402098,,,,,,,,0.66796875,4.51171875,-1.82421875,-0.26953125,0.5546875,-0.89453125,2.66015625,-3.86328125,-0.08203125,1.0
4402099,,,,,,,,-2.1796875,7.1328125,-1.00390625,-0.13671875,0.470703125,0.609375,-0.171875,-1.2578125,0.72265625,1.0
4402100,36.01259666666667,129.31942483333333,74.35818620653245,21.822297063212748,3.7,49.0,0.0,-4.046875,8.95703125,1.07421875,-0.142578125,0.041015625,1.625,2.27734375,3.4921875,-1.4609375,1.0
4402101,,,,,,,,-6.54296875,11.29296875,4.0078125,-0.21484375,-0.541015625,2.15234375,-4.76953125,2.83984375,5.70703125,1.0
4402102,,,,,,,,-5.91015625,12.75,1.546875,-0.26953125,-1.02734375,2.3203125,-4.3046875,4.2578125,3.2109375,1.0
4402103,,,,,,,,-3.88671875,13.44140625,-1.69921875,-0.271484375,-1.5859375,1.556640625,-2.43359375,4.90625,-0.08203125,1.0
4402104,,,,,,,,-2.68359375,12.34375,-2.76171875,-0.20703125,-1.974609375,0.517578125,-1.28515625,3.80078125,-1.19140625,1.0
4402105,,,,,,,,-2.1328125,10.19921875,-1.453125,-0.048828125,-1.92578125,0.07421875,-0.7109375,1.65234375,0.0703125,1.0
4402106,,,,,,,,-2.1015625,8.515625,-1.0625,0.017578125,-1.73046875,0.05859375,-0.67578125,-0.03125,0.453125,1.0
4402107,,,,,,,,-2.1484375,-2.36328125,2.171875,0.119140625,-1.0390625,0.30078125,-0.7109375,-10.90625,3.671875,1.0
4402108,,,,,,,,-0.19921875,-21.90234375,9.11328125,0.13671875,-0.0390625,0.5078125,1.20703125,-30.4453125,10.60546875,1.0
4402109,,,,,,,,-4.0546875,-63.45703125,25.8515625,0.095703125,1.740234375,0.25390625,-2.703125,-72.0078125,27.3828125,1.0
4402110,36.01259916666667,129.31942766666668,74.61360700360191,22.099697314417025,3.4000000000000004,46.0,,-5.79296875,-31.26953125,12.26171875,0.041015625,2.97265625,-0.712890625,-4.46484375,-39.828125,13.82421875,1.0
4402111,,,,,,,,-0.55078125,-14.39453125,1.80859375,0.556640625,2.958984375,-1.95703125,0.86328125,-22.9375,3.44140625,1.0
4402112,,,,,,,,2.44140625,-7.8125,-5.77734375,0.587890625,1.859375,-0.5078125,3.88671875,-16.35546875,-4.10546875,1.0
4402113,,,,,,,,6.8359375,-6.5703125,-8.95703125,0.279296875,-2.080078125,2.08984375,8.1796875,-15.12890625,-7.24609375,1.0
4402114,,,,,,,,11.41796875,-7.20703125,-3.76953125,0.14453125,-4.0703125,1.658203125,12.69921875,-15.77734375,-2.07421875,1.0
4402115,,,,,,,,5.765625,-11.56640625,6.21484375,0.095703125,-3.390625,1.546875,6.9921875,-20.18359375,7.84765625,1.0
4402116,,,,,,,,2.41796875,-11.87890625,6.0625,0.455078125,-0.189453125,3.607421875,3.46484375,-20.52734375,7.6953125,1.0
4402117,,,,,,,,1.9609375,-10.58984375,5.265625,0.7578125,1.126953125,4.203125,2.8515625,-19.26171875,6.9296875,1.0
4402118,,,,,,,,-0.4375,-5.2421875,0.23828125,0.953125,1.63671875,3.47265625,0.09375,-13.9375,1.98828125,1.0
4402119,,,,,,,,-1.67578125,-3.3203125,-0.41796875,1.330078125,0.09375,2.763671875,-1.55078125,-12.02734375,1.48828125,1.0
4402120,36.012601000000004,129.31943033333334,74.85400351757932,22.303124623050657,3.2,48.0,,-5.1328125,1.55078125,0.16796875,1.921875,-0.71875,3.0859375,-5.3828125,-7.12109375,2.29296875,1.0
4402121,,,,,,,,-6.125,2.953125,-0.59765625,1.890625,-0.67578125,3.123046875,-6.4921875,-5.703125,1.60546875,1.0
4402122,,,,,,,,-6.48046875,6.1015625,-3.80078125,1.654296875,-0.43359375,2.83984375,-7.21875,-2.484375,-1.34765625,1.0
4402123,,,,,,,,-6.40234375,6.921875,-4.08984375,1.53125,-0.396484375,2.74609375,-7.2578125,-1.640625,-1.57421875,1.0
4402124,,,,,,,,-5.4140625,9.40234375,-3.57421875,1.25390625,-0.291015625,2.671875,-6.4921875,0.88671875,-0.92578125,1.0
4402125,,,,,,,,-5.09765625,10.94140625,-3.12890625,1.15625,-0.107421875,2.62109375,-6.296875,2.45703125,-0.42578125,1.0
4402126,,,,,,,,-4.3984375,11.30859375,-2.87109375,0.869140625,0.380859375,2.439453125,-5.8046875,2.87890625,-0.08203125,1.0
4402127,,,,,,,,-1.82421875,11.95703125,-2.44921875,0.42578125,0.953125,1.451171875,-3.6171875,3.60546875,0.41796875,1.0
4402128,,,,,,,,-0.98828125,10.2109375,-3.15625,0.38671875,0.94140625,1.091796875,-2.85546875,1.8828125,-0.2734375,1.0
4402129,,,,,,,,-1.22265625,7.50390625,-2.875,0.337890625,0.52734375,0.111328125,-3.19921875,-0.80078125,0.03125,1.0
4402130,36.012603166666665,129.31943283333334,75.07937481727619,22.54353822001686,3.6,46.0,,-1.62890625,6.2421875,-1.921875,0.337890625,0.36328125,-0.078125,-3.6171875,-2.0625,0.9921875,1.0
4402131,,,,,,,,-1.8203125,5.4296875,-0.73828125,0.333984375,0.1953125,-0.203125,-3.8125,-2.8671875,2.21484375,1.0
4402132,,,,,,,,-0.9921875,6.46484375,-0.98828125,0.224609375,0.197265625,-0.451171875,-2.97265625,-1.83203125,1.98828125,1.0
4402133,,,,,,,,-0.3203125,7.16015625,-1.49609375,0.16015625,0.154296875,-0.599609375,-2.28515625,-1.14453125,1.48828125,1.0
4402134,,,,,,,,0.27734375,8.43359375,-2.1171875,0.111328125,-0.091796875,-0.8359375,-1.62890625,0.12109375,0.875,1.0
4402135,,,,,,,,1.07421875,10.31640625,-2.74609375,0.208984375,-0.408203125,-0.833984375,-0.74609375,1.99609375,0.26171875,1.0
4402136,,,,,,,,1.4609375,11.51171875,-2.8984375,0.357421875,-0.75,-0.6484375,-0.2890625,3.18359375,0.1484375,1.0
4402137,,,,,,,,2.1484375,12.6640625,-3.7578125,0.439453125,-0.927734375,-0.54296875,0.4765625,4.33984375,-0.65625,1.0
4402138,,,,,,,,2.08203125,12.625,-4.04296875,0.470703125,-0.970703125,-0.529296875,0.44140625,4.30078125,-0.92578125,1.0
4402139,,,,,,,,1.6640625,11.57421875,-4.2109375,0.513671875,-0.994140625,-0.57421875,0.09375,3.26171875,-1.0390625,1.0
4402140,36.01260516666667,129.31943600000002,75.36484582445667,22.765459134233797,3.4000000000000004,50.0,,-1.859375,8.1171875,0.78125,0.337890625,0.36328125,-0.078125,-3.6171875,-2.0625,0.9921875,1.0
4402141,,,,,,,,-5.578125,4.6171875,6.7578125,0.4453125,-0.615234375,-0.63671875,-6.9921875,-3.671875,10.03125,1.0
4402142,,,,,,,,-3.2109375,-5.46484375,3.1484375,0.3984375,-0.1640625,-0.4609375,-4.578125,-13.74609375,6.46875,1.0
4402143,,,,,,,,5.0546875,-27.30859375,3.4296875,0.314453125,0.263671875,-0.923828125,3.734375,-35.58203125,6.7734375,1.0
4402144,,,,,,,,24.3046875,-55.9453125,11.75,0.4296875,0.890625,-3.412109375,23.234375,-64.234375,15.125,1.0
4402145,,,,,,,,3.65625,-16.21484375,3.828125,-0.404296875,2.2109375,-1.763671875,2.96875,-24.55078125,7.234375,1.0
4402146,,,,,,,,-4.421875,-9.31640625,-0.74609375,-0.666015625,0.6953125,-1.021484375,-5.078125,-17.6875,2.59765625,1.0
4402147,,,,,,,,-2.78125,-10.04296875,-2.78125,-0.484375,-4.37109375,-0.4765625,-3.3125,-18.453125,0.53125,1.0
4402148,,,,,,,,1.1953125,-10.18359375,0.67578125,-0.314453125,-4.64453125,-1.56640625,0.8984375,-18.609375,3.98046875,1.0
4402149,,,,,,,,1.98046875,-10.03515625,2.421875,-0.494140625,-1.666015625,-3.462890625,2.01171875,-18.49609375,5.703125,1.0
4402150,36.01260683333333,129.319439,75.63529224021096,22.95039351452591,3.0,52.0,,2.0078125,-7.5390625,-0.1953125,-1.111328125,0.96875,-2.7265625,2.46875,-16.046875,2.984375,1.0
4402151,,,,,,,,3.87890625,-7.67578125,-2.5625,-1.244140625,0.787109375,-2.25,4.42578125,-16.1953125,0.5703125,1.0
4402152,,,,,,,,3.83203125,-4.71484375,-0.7578125,-1.455078125,-0.1015625,-2.591796875,4.76953125,-13.32421875,2.140625,1.0
4402153,,,,,,,,2.81640625,-2.74609375,-0.71875,-1.515625,0.455078125,-2.501953125,3.96484375,-11.37109375,2.0625,1.0
4402154,,,,,,,,2.515625,0.75390625,-2.1484375,-1.498046875,0.673828125,-2.220703125,3.7734375,-7.8828125,0.5703125,1.0
4402155,,,,,,,,2.28125,3.7421875,-3.203125,-1.375,0.61328125,-1.388671875,3.734375,-4.9375,-0.65625,1.0
4402156,,,,,,,,2.2265625,6.6640625,-3.68359375,-1.337890625,0.513671875,-1.341796875,3.73828125,-2.0234375,-1.19140625,1.0
4402157,,,,,,,,2.28515625,7.60546875,-3.484375,-1.275390625,0.458984375,-1.388671875,3.84375,-1.10546875,-1.0390625,1.0
4402158,,,,,,,,1.99609375,8.9453125,-3.19921875,-1.16015625,0.462890625,-1.4765625,3.6171875,0.234375,-0.80859375,1.0
4402159,,,,,,,,1.5390625,11.68359375,-1.58984375,-0.822265625,0.705078125,-1.384765625,3.3515625,2.95703125,0.68359375,1.0
4402160,36.012608500000006,129.31944116666668,75.83061420589377,23.135327256792625,3.3000000000000003,51.0,,0.9921875,12.5234375,-1.6171875,-0.65625,0.802734375,-1.1328125,2.890625,3.80078125,0.609375,1.0
4402161,,,,,,,,1.09765625,12.40234375,-2.56640625,-0.54296875,0.63671875,-0.94140625,3.08203125,3.6796875,-0.38671875,1.0
4402162,,,,,,,,1.01953125,12.36328125,-2.8984375,-0.498046875,0.48046875,-0.8671875,3.04296875,3.64453125,-0.734375,1.0
4402163,,,,,,,,0.73046875,11.48046875,-3.5859375,-0.541015625,0.185546875,-0.732421875,2.81640625,2.76171875,-1.4609375,1.0
4402164,,,,,,,,2.08203125,7.57421875,-3.73046875,-0.537109375,-0.0234375,-0.466796875,4.23046875,-1.14453125,-1.65234375,1.0
4402165,,,,,,,,2.16796875,6.50390625,-3.4140625,-0.4375,-0.060546875,-0.064453125,4.34765625,-2.21484375,-1.3828125,1.0
4402166,,,,,,,,2.015625,6.12890625,-2.94140625,-0.373046875,-0.001953125,0.1171875,4.1953125,-2.59765625,-0.92578125,1.0
4402167,,,,,,,,-0.0390625,5.64453125,-0.12109375,-0.263671875,0.234375,0.43359375,2.125,-3.09375,1.87109375,1.0
4402168,,,,,,,,-2.93359375,6.6328125,3.19140625,-0.16015625,0.62109375,0.75390625,-0.86328125,-2.140625,5.16796875,1.0
4402169,,,,,,,,-3.546875,7.4453125,3.3125,-0.240234375,0.646484375,0.845703125,-1.515625,-1.3359375,5.28515625,1.0
4402170,36.01261066666667,129.31944383333334,76.07101034592628,23.375741009415457,3.4000000000000004,49.0,,-4.109375,10.49609375,0.73046875,-0.65625,0.802734375,-1.1328125,-2.1640625,1.69140625,2.67578125,1.0
4402171,,,,,,,,-4.18359375,12.43359375,-1.2890625,-0.6875,-0.255859375,0.890625,-2.31640625,3.6015625,0.609375,1.0
4402172,,,,,,,,-4.0859375,14.45703125,-3.3515625,-0.734375,-1.046875,0.822265625,-2.28125,5.59765625,-1.5390625,1.0
4402173,,,,,,,,-4.2734375,13.9140625,-3.2265625,-0.5625,-1.43359375,1.00390625,-2.546875,5.0234375,-1.5390625,1.0
4402174,,,,,,,,-4.28125,11.40234375,-1.70703125,-0.53125,-1.19921875,1.173828125,-2.625,2.49609375,-0.08203125,1.0
4402175,,,,,,,,-3.4609375,6.90625,2.1796875,-0.41796875,-0.68359375,1.234375,-1.8984375,-2.0234375,3.75390625,1.0
4402176,,,,,,,,-2.4609375,4.078125,2.1328125,-0.337890625,-0.330078125,1.1328125,-0.9375,-4.859375,3.671875,1.0
4402177,,,,,,,,-0.9609375,-6.83203125,4.21875,-0.15625,0.458984375,0.564453125,0.4765625,-15.7734375,5.7421875,1.0
4402178,,,,,,,,-5.37109375,-59.3515625,18.296875,0.1015625,1.462890625,-0.955078125,-3.92578125,-68.30078125,19.8359375,1.0
4402179,,,,,,,,1.98046875,-10.234375,5.5546875,0.26953125,2.28125,-1.470703125,3.54296875,-19.15234375,7.15625,1.0
4402180,36.012613,129.3194466666667,76.32643120210051,23.634648104911186,3.2,46.0,,6.92578125,-3.5625,-7.9296875,0.34375,2.6796875,-1.630859375,8.59765625,-12.4453125,-6.25,1.0
4402181,,,,,,,,10.3359375,-6.3515625,-7.67578125,-0.4765625,-0.888671875,1.28125,12.0078125,-15.24609375,-5.98046875,1.0
4402182,,,,,,,,7.2421875,-13.0546875,3.43359375,-0.181640625,-4.796875,1.697265625,8.828125,-21.98828125,5.05078125,1.0
4402183,,,,,,,,2.9765625,-15.97265625,7.2734375,0.732421875,-3.556640625,2.263671875,4.4609375,-24.93359375,8.84375,1.0
4402184,,,,,,,,1.9921875,-11.87890625,2.5546875,0.544921875,0.5234375,3.0,3.2734375,-20.8671875,4.171875,1.0
4402185,,,,,,,,0.51171875,-8.046875,1.2109375,0.83203125,2.353515625,3.349609375,1.47265625,-17.08203125,2.90625,1.0
4402186,,,,,,,,-1.015625,-4.6328125,-0.03125,0.765625,1.984375,3.0859375,-0.2109375,-13.67578125,1.71875,1.0
4402187,,,,,,,,-1.84375,-2.546875,-0.953125,0.95703125,0.560546875,2.603515625,-1.3203125,-11.60546875,0.875,1.0
4402188,,,,,,,,-4.0234375,-0.9375,-2.2734375,1.486328125,-0.353515625,3.36328125,-3.890625,-9.9921875,-0.2734375,1.0
4402189,,,,,,,,-5.65625,0.07421875,-3.2265625,1.552734375,-0.228515625,3.751953125,-5.84375,-8.953125,-1.078125,1.0
4402190,36.012614666666664,129.319449,76.53677802078622,23.81958199273813,3.1,47.0,,-6.8125,1.91015625,-2.5546875,1.474609375,0.15625,3.81640625,8.59765625,-12.4453125,-6.25,1.0
4402191,,,,,,,,-5.50390625,3.89453125,-1.953125,1.318359375,0.6875,3.52734375,-6.37890625,-5.05078125,0.453125,1.0
4402192,,,,,,,,-5.00390625,5.3203125,-2.2734375,1.244140625,0.939453125,3.23828125,-6.03515625,-3.59375,0.1875,1.0
4402193,,,,,,,,-4.67578125,8.59765625,-2.015625,1.041015625,1.1015625,2.609375,-5.9921875,-0.26171875,0.53125,1.0
4402194,,,,,,,,-4.140625,11.16796875,-1.59765625,0.892578125,0.6796875,1.951171875,-5.80859375,2.37890625,1.06640625,1.0
4402195,,,,,,,,-2.78125,13.22265625,-2.46484375,0.71875,0.51171875,1.71875,-4.62109375,4.48828125,0.26171875,1.0
4402196,,,,,,,,-1.703125,12.1484375,-3.99609375,0.529296875,0.486328125,1.234375,-3.69921875,3.453125,-1.23046875,1.0
4402197,,,,,,,,-1.50390625,11.13671875,-4.2890625,0.4921875,0.46875,0.904296875,-3.5390625,2.45703125,-1.5,1.0
4402198,,,,,,,,-1.52734375,8.00390625,-4.11328125,0.544921875,0.392578125,0.21484375,-3.66015625,-0.64453125,-1.26953125,1.0
4402199,,,,,,,,-2.54296875,6.53125,-1.875,0.5390625,0.3984375,0.13671875,-4.6875,-2.1015625,0.9921875,1.0
4402200,36.012617,129.3194515,76.76214907636242,24.07848883982753,3.6,46.0,0.0,-2.26953125,5.05078125,-0.796875,0.408203125,0.6796875,0.103515625,-4.46484375,-3.55859375,2.1015625,1.0
4402201,,,,,,,,-0.94140625,4.77734375,-1.30859375,0.248046875,0.703125,-0.078125,-3.16015625,-3.82421875,1.60546875,1.0
4402202,,,,,,,,1.28125,6.5390625,-2.046875,0.1328125,0.353515625,-0.470703125,-0.9375,-2.0625,0.875,1.0
4402203,,,,,,,,2.2578125,8.0859375,-2.09375,0.17578125,-0.185546875,-0.89453125,0.09375,-0.53125,0.8359375,1.0
4402204,,,,,,,,2.94140625,10.546875,-1.65625,0.380859375,-0.5859375,-1.033203125,0.86328125,1.92578125,1.296875,1.0
4402205,,,,,,,,3.03125,12.65234375,-0.8359375,0.541015625,-0.87109375,-0.86328125,1.0546875,4.02734375,2.1796875,1.0
4402206,,,,,,,,2.75390625,12.921875,-0.8671875,0.55859375,-0.96484375,-0.751953125,0.82421875,4.30078125,2.1796875,1.0
4402207,,,,,,,,1.78515625,12.8359375,-1.46875,0.529296875,-1.109375,-0.56640625,-0.05859375,4.22265625,1.640625,1.0
4402208,,,,,,,,0.53515625,11.55859375,-1.98828125,0.50390625,-1.146484375,-0.2890625,-1.24609375,2.953125,1.18359375,1.0
4402209,,,,,,,,-1.07421875,9.5703125,-0.6953125,0.466796875,-0.869140625,-0.126953125,-2.77734375,1.0,2.5625,1.0
4402210,36.012618833333335,129.3194545,77.03259526207677,24.281916470755466,3.3000000000000003,49.0,,-1.94921875,3.234375,-0.0234375,0.357421875,-0.529296875,-0.32421875,-3.62109375,-5.32421875,3.2890625,1.0
4402211,,,,,,,,1.94921875,-10.9140625,-2.8828125,0.21484375,-0.2109375,-0.546875,0.32421875,-19.453125,0.453125,1.0
4402212,,,,,,,,1.91796875,-10.9140625,-2.8984375,0.10546875,0.03515625,-1.02734375,2.8515625,-28.0703125,3.09765625,1.0
4402213,,,,,,,,9.9765625,-45.72265625,12.9921875,0.197265625,0.275390625,-1.466796875,13.34765625,-66.65234375,26.08203125,1.0
4402214,,,,,,,,5.24609375,-7.59765625,2.13671875,0.443359375,1.19140625,-0.609375,3.92578125,-16.15625,5.55078125,1.0
4402215,,,,,,,,-1.51953125,-9.0,0.2265625,-0.373046875,0.720703125,-1.86328125,-2.77734375,-17.578125,3.6328125,1.0
4402216,,,,,,,,-4.78515625,-11.234375,-1.82421875,-0.556640625,-1.35546875,-1.75,-5.95703125,-19.8359375,1.56640625,1.0
4402217,,,,,,,,-3.1875,-12.58203125,-0.53125,0.056640625,-4.16015625,-0.6484375,-4.15625,-21.21484375,2.8671875,1.0
4402218,,,,,,,,1.2890625,-13.41796875,-1.296875,-0.171875,-2.8828125,-1.330078125,0.515625,-22.05859375,2.140625,1.0
4402219,,,,,,,,2.71484375,-12.63671875,-0.4453125,-0.46875,-1.259765625,-2.033203125,2.05078125,-21.2890625,2.984375,1.0
4402220,36.01262083333334,129.31945783333333,77.33309104519329,24.503837580331435,3.1,52.0,,4.37890625,-10.71484375,2.3359375,-0.869140625,0.48046875,-2.72265625,3.92578125,-19.41796875,5.703125,1.0
4402221,,,,,,,,2.51171875,-8.63671875,-0.57421875,-0.87109375,0.43359375,-2.8828125,2.31640625,-17.3828125,2.71484375,1.0
4402222,,,,,,,,2.3359375,-7.578125,-1.30859375,-0.951171875,0.25,-2.87890625,2.2421875,-16.35546875,1.94921875,1.0
4402223,,,,,,,,2.12890625,-3.625,-2.296875,-1.134765625,-0.2890625,-2.705078125,2.27734375,-12.4453125,0.875,1.0
4402224,,,,,,,,2.38671875,-2.6875,-2.5078125,-1.2578125,-0.46875,-2.52734375,2.66015625,-11.52734375,0.609375,1.0
4402225,,,,,,,,2.921875,-0.046875,-2.69140625,-1.421875,-0.53125,-2.259765625,3.4296875,-8.92578125,0.30078125,1.0
4402226,,,,,,,,2.828125,1.390625,-2.57421875,-1.431640625,-0.16015625,-2.341796875,3.65625,-7.5390625,0.22265625,1.0
4402227,,,,,,,,2.84765625,3.3359375,-2.21875,-1.314453125,0.142578125,-2.30859375,3.88671875,-5.62890625,0.453125,1.0
4402228,,,,,,,,2.4453125,6.69140625,-2.7890625,-1.115234375,0.388671875,-1.984375,3.77734375,-2.29296875,-0.2734375,1.0
4402229,,,,,,,,2.3203125,7.7265625,-2.89453125,-1.04296875,0.3828125,-1.845703125,3.73828125,-1.2578125,-0.42578125,1.0
4402230,36.0126225,129.3194601666667,77.54343782669045,24.688771492062415,3.5,52.0,,1.8671875,10.33984375,-3.23046875,-0.869140625,0.48046875,-2.72265625,3.4296875,1.34765625,-0.84765625,1.0
4402231,,,,,,,,1.2421875,12.015625,-3.27734375,-0.76171875,0.267578125,-1.427734375,2.9296875,3.03125,-0.96484375,1.0
4402232,,,,,,,,0.96484375,11.94140625,-3.46484375,-0.712890625,0.28515625,-1.349609375,2.73828125,2.95703125,-1.19140625,1.0
4402233,,,,,,,,0.28125,11.703125,-3.703125,-0.603515625,0.3046875,-1.169921875,2.203125,2.73046875,-1.5,1.0
4402234,,,,,,,,1.22265625,9.625,-4.30078125,-0.564453125,0.240234375,-1.01171875,3.234375,0.65625,-2.15234375,1.0
4402235,,,,,,,,2.24609375,7.01171875,-4.453125,-0.51171875,0.158203125,-0.771484375,4.34375,-1.94921875,-2.34375,1.0
4402236,,,,,,,,2.20703125,6.3984375,-4.265625,-0.486328125,0.255859375,-0.353515625,4.38671875,-2.5625,-2.2265625,1.0
4402237,,,,,,,,0.2734375,6.859375,-1.546875,-0.380859375,0.453125,-0.08984375,2.47265625,-2.1015625,0.453125,1.0
4402238,,,,,,,,-1.9765625,7.296875,1.46484375,-0.390625,0.607421875,0.21484375,0.2109375,-1.6796875,3.4375,1.0
4402239,,,,,,,,-2.95703125,7.56640625,2.70703125,-0.4453125,0.609375,0.4140625,-0.78515625,-1.41015625,4.6640625,1.0
4402240,36.01262466666667,129.31946299999998,77.79885876066484,24.929185425847596,3.5,49.0,,-4.3046875,9.59765625,2.8828125,-0.60546875,-0.001953125,1.021484375,-2.2421875,0.58203125,4.78515625,1.0
4402241,,,,,,,,-3.65234375,12.26171875,0.1953125,-0.6328125,-0.8515625,1.0078125,-1.66796875,3.22265625,2.0234375,1.0
4402242,,,,,,,,-2.8671875,13.3203125,-0.71484375,-0.52734375,-1.701171875,0.548828125,-0.9375,4.2578125,1.02734375,1.0
4402243,,,,,,,,-2.4921875,13.328125,-0.453125,-0.33203125,-2.03125,0.25390625,-0.5546875,4.26171875,1.21875,1.0
4402244,,,,,,,,-3.4609375,10.453125,2.37109375,-0.173828125,-1.798828125,0.310546875,-1.515625,1.3828125,3.98046875,1.0
4402245,,,,,,,,-5.7421875,0.953125,5.2109375,-0.087890625,-1.267578125,0.595703125,-3.8125,-8.1171875,6.7734375,1.0
4402246,,,,,,,,-6.90625,-6.1640625,9.3359375,-0.0703125,-0.951171875,0.765625,-5.0,-15.2421875,10.875,1.0
4402247,,,,,,,,-5.80859375,-29.140625,13.78515625,-0.0625,-0.22265625,0.853515625,-3.96484375,-38.23046875,15.31640625,1.0
4402248,,,,,,,,-10.60546875,-50.95703125,13.10546875,-0.09765625,0.65234375,0.5703125,-8.83203125,-60.05859375,14.62890625,1.0
4402249,,,,,,,,-3.0703125,-12.61328125,12.33203125,-0.25390625,1.3515625,-0.5703125,-1.3203125,-21.7109375,13.86328125,1.0
4402250,36.012626833333336,129.31946616666667,78.08432945723209,25.169599633307012,3.2,49.0,,3.34765625,-4.23828125,-6.21875,0.138671875,1.197265625,-1.419921875,5.19140625,-13.3203125,-4.6796875,1.0
4402251,,,,,,,,5.1015625,-6.69921875,-8.2109375,-0.05859375,-1.458984375,1.212890625,9.25,-18.3046875,-5.25390625,1.0
4402252,,,,,,,,7.4375,-9.21875,-6.82421875,0.08203125,-3.09765625,0.513671875,14.921875,-19.7578125,3.75,1.0
4402253,,,,,,,,13.27734375,-11.80078125,6.46875,0.537109375,-2.87890625,0.267578125,13.08203125,-22.5546875,9.9921875,1.0
4402254,,,,,,,,8.84765625,-15.05859375,7.81640625,0.4921875,-1.291015625,0.7890625,10.66796875,-24.16796875,9.33984375,1.0
4402255,,,,,,,,5.03515625,-14.7421875,5.11328125,0.390625,1.6171875,2.31640625,6.80078125,-23.859375,6.66015625,1.0
4402256,,,,,,,,1.31640625,-9.01171875,1.2109375,0.73046875,1.720703125,3.623046875,2.69921875,-18.19140625,2.8671875,1.0
4402257,,,,,,,,-0.9921875,-6.3125,-0.67578125,0.861328125,1.111328125,3.951171875,0.2109375,-15.51171875,1.02734375,1.0
4402258,,,,,,,,-3.01171875,-3.171875,0.1875,1.408203125,-0.162109375,3.609375,-2.35546875,-12.40625,2.0625,1.0
4402259,,,,,,,,-3.23828125,-2.10546875,-0.34375,1.732421875,0.060546875,3.337890625,-2.89453125,-11.328125,1.6796875,1.0
4402260,36.0126285,129.31946866666667,78.3097010868876,25.354533696892393,3.1,50.0,,-5.26953125,2.08984375,-1.828125,1.765625,0.53125,3.001953125,-5.53515625,-7.08203125,0.53125,1.0
4402261,,,,,,,,-6.0703125,4.80078125,-2.3671875,1.609375,0.4921875,2.912109375,-6.61328125,-4.32421875,0.1484375,1.0
4402262,,,,,,,,-5.87109375,6.73828125,-2.578125,1.326171875,0.505859375,2.7421875,-6.68359375,-2.33203125,0.0703125,1.0
4402263,,,,,,,,-5.40234375,7.51953125,-2.70703125,1.169921875,0.546875,2.625,-6.33984375,-1.52734375,-0.00390625,1.0
4402264,,,,,,,,-4.41796875,9.88671875,-2.609375,0.90234375,0.619140625,2.36328125,-5.609375,0.88671875,0.1875,1.0
4402265,,,,,,,,-3.43359375,12.21484375,-2.05859375,0.650390625,0.5546875,2.15625,-4.84765625,3.26171875,0.80078125,1.0
4402266,,,,,,,,-3.0078125,13.1640625,-2.18359375,0.587890625,0.51171875,1.943359375,-4.62109375,4.2578125,0.72265625,1.0
4402267,,,,,,,,-2.12890625,11.81640625,-3.53125,0.59375,0.423828125,1.623046875,-3.92578125,2.95703125,-0.578125,1.0
4402268,,,,,,,,-1.90625,10.640625,-3.703125,0.5859375,0.3203125,1.3515625,-3.77734375,1.8046875,-0.734375,1.0
4402269,,,,,,,,-1.5,6.80859375,-3.02734375,0.6015625,0.126953125,0.728515625,-3.47265625,-1.98828125,-0.00390625,1.0
4402270,36.012630666666674,129.31947133333333,78.55009709812089,25.594947519503293,3.6,49.0,,-1.71875,5.58984375,-2.46875,1.765625,0.53125,3.001953125,-5.53515625,-7.08203125,0.53125,1.0
4402271,,,,,,,,-1.421875,4.92578125,-1.7890625,0.40234375,0.6328125,-0.126953125,-3.46875,-3.8203125,1.3359375,1.0
4402272,,,,,,,,-0.1875,7.015625,-1.5078125,0.34375,0.7109375,-0.318359375,-2.2421875,-1.71875,1.640625,1.0
4402273,,,,,,,,0.80078125,8.34765625,-1.98046875,0.35546875,0.369140625,-0.37890625,-1.2421875,-0.37890625,1.18359375,1.0
4402274,,,,,,,,1.47265625,10.32421875,-2.49609375,0.498046875,-0.4296875,-0.51953125,-0.51953125,1.61328125,0.72265625,1.0
4402275,,,,,,,,1.6796875,11.88671875,-2.28125,0.50390625,-0.8671875,-0.576171875,-0.25,3.18359375,0.9921875,1.0
4402276,,,,,,,,1.6015625,12.2265625,-2.0078125,0.49609375,-1.0,-0.5390625,-0.2890625,3.53515625,1.296875,1.0
4402277,,,,,,,,1.4609375,12.0546875,-1.83203125,0.431640625,-1.140625,-0.36328125,-0.328125,3.37890625,1.56640625,1.0
4402278,,,,,,,,0.48046875,10.23046875,-1.21484375,0.396484375,-0.986328125,-0.458984375,-1.20703125,1.57421875,2.25390625,1.0
4402279,,,,,,,,-1.24609375,6.42578125,2.0703125,0.3671875,-0.66015625,-0.6171875,-2.85546875,-2.21484375,5.5859375,1.0
4402280,36.01263266666667,129.31947516666665,78.89566745273802,25.816869085817224,3.5,52.0,,1.02734375,-3.66796875,-1.7578125,0.361328125,-0.146484375,-0.693359375,-0.51953125,-12.29296875,1.796875,1.0
4402281,,,,,,,,1.734375,-16.4296875,-0.48046875,0.33203125,0.4296875,-1.060546875,0.25,-25.05078125,3.09765625,1.0
4402282,,,,,,,,4.0625,-25.81640625,1.80078125,0.37109375,0.70703125,-1.353515625,2.625,-34.43359375,5.39453125,1.0
4402283,,,,,,,,20.2265625,-55.7734375,20.00390625,0.658203125,1.38671875,-1.314453125,18.8671875,-64.39453125,23.62890625,1.0
4402284,,,,,,,,11.12109375,-25.75390625,20.38671875,0.681640625,1.58984375,-0.677734375,9.78515625,-34.3515625,24.05078125,1.0
4402285,,,,,,,,-4.0625,-9.375,-3.6015625,-0.18359375,-0.974609375,-1.234375,-5.3046875,-18.0,0.0703125,1.0
4402286,,,,,,,,-2.84765625,-10.66015625,-4.2890625,-0.294921875,-3.2109375,-1.00390625,-4.00390625,-19.296875,-0.6171875,1.0
4402287,,,,,,,,2.703125,-12.16796875,2.46484375,-0.25390625,-4.109375,-1.41796875,1.78125,-20.83203125,6.16015625,1.0
4402288,,,,,,,,3.38671875,-12.66796875,4.98828125,-0.23046875,-2.060546875,-2.94921875,2.77734375,-21.3671875,8.69140625,1.0
4402289,,,,,,,,3.8671875,-11.76953125,4.34375,-0.4921875,-0.818359375,-3.396484375,3.4296875,-20.484375,8.0390625,1.0
4402290,36.01263483333333,129.31947866666667,79.21118785718764,26.05728360009164,3.3000000000000003,53.0,,3.66015625,-9.078125,1.6171875,0.361328125,-0.146484375,-0.693359375,-0.51953125,-12.29296875,1.796875,1.0
4402291,,,,,,,,3.77734375,-7.76953125,-1.78125,-1.220703125,-0.109375,-2.2421875,3.84765625,-16.58203125,1.7578125,1.0
4402292,,,,,,,,3.609375,-7.40234375,-2.2265625,-1.375,-0.453125,-2.05078125,3.7734375,-16.234375,1.2578125,1.0
4402293,,,,,,,,3.08203125,-5.73828125,-1.35546875,-1.55078125,-0.642578125,-2.12109375,3.46484375,-14.625,1.98828125,1.0
4402294,,,,,,,,2.796875,-4.82421875,-0.796875,-1.603515625,-0.50390625,-2.23828125,3.2734375,-13.7421875,2.484375,1.0
4402295,,,,,,,,2.0546875,-2.15625,-0.1953125,-1.59375,0.166015625,-2.103515625,2.8515625,-11.140625,2.8671875,1.0
4402296,,,,,,,,1.625,1.4453125,-1.90234375,-1.4765625,0.38671875,-1.810546875,2.5859375,-7.578125,1.02734375,1.0
4402297,,,,,,,,1.5078125,2.42578125,-2.14453125,-1.412109375,0.36328125,-1.7421875,2.546875,-6.6171875,0.72265625,1.0
4402298,,,,,,,,1.0390625,4.890625,-2.1796875,-1.26953125,0.216796875,-1.78515625,2.2421875,-4.171875,0.5703125,1.0
4402299,,,,,,,,1.00390625,6.09375,-2.1640625,-1.17578125,0.169921875,-1.873046875,2.27734375,-2.984375,0.53125,1.0
4402300,36.01263616666667,129.31948083333333,79.40651001098955,26.2052310098403,3.5,53.0,0.0,0.77734375,10.9375,-4.13671875,-0.919921875,0.203125,-1.9765625,2.3125,1.84375,-1.57421875,1.0
4402301,,,,,,,,0.18359375,12.80078125,-4.03515625,-0.662109375,-0.029296875,-1.48828125,2.05078125,3.71875,-1.61328125,1.0
4402302,,,,,,,,0.1796875,13.28125,-3.7421875,-0.525390625,-0.2265625,-0.916015625,2.1640625,4.21875,-1.3828125,1.0
4402303,,,,,,,,0.75390625,13.09765625,-3.92578125,-0.4609375,-0.232421875,-0.53125,2.81640625,4.0234375,-1.61328125,1.0
4402304,,,,,,,,1.9921875,11.18359375,-4.8359375,-0.4296875,-0.203125,-0.6171875,4.1171875,2.11328125,-2.5703125,1.0
4402305,,,,,,,,2.53515625,8.37890625,-5.05859375,-0.451171875,-0.181640625,-0.888671875,4.73046875,-0.68359375,-2.83984375,1.0
4402306,,,,,,,,2.10546875,8.140625,-4.69140625,-0.48828125,-0.142578125,-0.955078125,4.34765625,-0.9140625,-2.49609375,1.0
4402307,,,,,,,,0.640625,7.62890625,-3.48828125,-0.546875,0.12109375,-0.681640625,2.97265625,-1.41015625,-1.34765625,1.0
4402308,,,,,,,,-0.76953125,7.25,-1.9453125,-0.478515625,0.5234375,0.01953125,1.58984375,-1.80078125,0.1484375,1.0
4402309,,,,,,,,-1.51953125,7.18359375,-1.44140625,-0.4453125,0.654296875,0.345703125,0.82421875,-1.8671875,0.64453125,1.0
4402310,36.012638333333335,129.31948383333332,79.67695573452433,26.445645135414154,3.6,51.0,,-4.62109375,7.67578125,2.58984375,-0.490234375,0.73046875,1.18359375,-2.39453125,-1.41015625,4.62890625,1.0
4402311,,,,,,,,-6.17578125,8.6640625,4.53125,-0.52734375,0.49609375,1.4765625,-4.08203125,-0.453125,6.546875,1.0
4402312,,,,,,,,-3.8046875,10.96875,0.140625,-0.568359375,0.115234375,1.38671875,-1.859375,1.8046875,2.10546875,1.0
4402313,,,,,,,,-2.0546875,11.40625,-1.53515625,-0.4921875,-0.845703125,0.267578125,-0.2109375,2.2265625,0.33984375,1.0
4402314,,,,,,,,-0.62109375,10.83984375,-1.58984375,-0.298828125,-1.287109375,-0.13671875,1.24609375,1.65234375,0.22265625,1.0
4402315,,,,,,,,-0.46875,8.83984375,-1.15625,-0.2109375,-1.287109375,-0.20703125,1.44140625,-0.33984375,0.609375,1.0
4402316,,,,,,,,-1.14453125,3.1640625,0.8203125,-0.208984375,-1.134765625,-0.171875,0.78515625,-6.0078125,2.5625,1.0
4402317,,,,,,,,1.66796875,-23.19921875,11.19921875,-0.232421875,-0.595703125,0.04296875,3.62109375,-32.359375,12.90234375,1.0
4402318,,,,,,,,-4.59375,-51.65625,22.72265625,-0.283203125,0.837890625,0.3359375,-2.6640625,-60.83203125,24.39453125,1.0
4402319,,,,,,,,-6.140625,-21.15234375,11.078125,-0.48046875,2.326171875,-0.603515625,-4.234375,-30.33203125,12.75,1.0
4402320,36.012640499999996,129.319487,79.96242632845357,26.686059403732152,3.3000000000000003,50.0,,0.296875,-4.61328125,-2.3671875,-0.490234375,0.73046875,1.18359375,2.2421875,-13.78515625,-0.65625,1.0
4402321,,,,,,,,7.125,-5.41015625,-7.984375,0.34375,0.228515625,1.90625,8.984375,-14.58984375,-6.2109375,1.0
4402322,,,,,,,,11.19140625,-5.5078125,-6.69140625,0.21875,-1.796875,1.939453125,12.96484375,-14.70703125,-4.91015625,1.0
4402323,,,,,,,,5.46484375,-11.921875,4.359375,0.232421875,-3.654296875,0.546875,7.18359375,-21.14453125,6.0859375,1.0
4402324,,,,,,,,0.37890625,-13.15234375,6.05859375,0.22265625,-0.76171875,2.77734375,2.01171875,-22.3984375,7.76953125,1.0
4402325,,,,,,,,0.86328125,-8.7109375,1.33203125,0.68359375,1.654296875,4.255859375,1.93359375,-18.04296875,3.13671875,1.0
4402326,,,,,,,,-1.0703125,-4.7109375,-0.73828125,0.814453125,1.322265625,3.947265625,-0.2109375,-14.0546875,1.10546875,1.0
4402327,,,,,,,,-3.8359375,-3.390625,0.390625,1.435546875,-0.37109375,2.66015625,-3.4296875,-12.75390625,2.40625,1.0
4402328,,,,,,,,-5.5859375,-1.109375,0.16796875,1.716796875,-0.515625,2.916015625,-5.421875,-10.453125,2.33203125,1.0
4402329,,,,,,,,-6.01953125,0.09375,-0.484375,1.71484375,-0.322265625,3.095703125,-5.99609375,-9.2265625,1.7578125,1.0
4402330,36.01264233333333,129.31948933333334,80.17277283128695,26.88948658537286,3.2,50.0,,-6.10546875,3.08984375,-1.98046875,1.490234375,0.125,3.326171875,-6.37890625,-6.19921875,0.41796875,1.0
4402331,,,,,,,,-5.5546875,5.1171875,-2.84375,1.25390625,0.26953125,3.271484375,-6.1484375,-4.1328125,-0.3125,1.0
4402332,,,,,,,,-4.59765625,6.3046875,-4.0625,1.005859375,0.228515625,3.142578125,-5.4921875,-2.90625,-1.421875,1.0
4402333,,,,,,,,-4.19140625,6.97265625,-4.1796875,0.822265625,0.203125,3.09375,-5.23046875,-2.21484375,-1.5,1.0
4402334,,,,,,,,-1.9453125,10.578125,-2.37890625,0.509765625,0.34765625,2.650390625,-3.390625,1.4609375,0.37890625,1.0
4402335,,,,,,,,-0.97265625,12.9140625,-2.01953125,0.478515625,0.859375,2.0078125,-2.77734375,3.87890625,0.80078125,1.0
4402336,,,,,,,,-0.5234375,13.52734375,-2.12890625,0.462890625,1.02734375,1.46875,-2.5078125,4.52734375,0.72265625,1.0
4402337,,,,,,,,-0.078125,11.953125,-3.4453125,0.49609375,0.859375,0.900390625,-2.203125,2.9921875,-0.578125,1.0
4402338,,,,,,,,-0.23046875,10.7890625,-3.73046875,0.50390625,0.716796875,0.66796875,-2.39453125,1.84375,-0.84765625,1.0
4402339,,,,,,,,-1.9921875,7.6953125,-2.8046875,0.46484375,0.435546875,0.34375,-4.234375,-1.21875,0.109375,1.0
4402340,36.0126445,129.31949183333333,80.39814386772079,27.129900321185225,3.6,48.0,,-2.56640625,6.18359375,-2.14453125,0.42578125,0.330078125,0.33203125,-6.37890625,-6.19921875,0.41796875,1.0
4402341,,,,,,,,-2.48046875,5.01171875,-1.56640625,0.451171875,0.5546875,0.435546875,-4.8046875,-3.86328125,1.41015625,1.0
4402342,,,,,,,,-1.8046875,4.75,-1.46484375,0.345703125,0.767578125,0.3671875,-4.1953125,-4.09375,1.52734375,1.0
4402343,,,,,,,,-0.74609375,6.0078125,-1.28125,0.302734375,0.794921875,0.2734375,-3.16015625,-2.828125,1.71875,1.0
4402344,,,,,,,,0.83203125,8.01953125,-1.51953125,0.3359375,0.630859375,0.087890625,-1.62890625,-0.80078125,1.48828125,1.0
4402345,,,,,,,,1.99609375,9.5703125,-1.828125,0.4921875,-0.04296875,-0.185546875,-0.48046875,0.7734375,1.21875,1.0
4402346,,,,,,,,2.1953125,10.3203125,-2.03515625,0.564453125,-0.603515625,-0.373046875,-0.25,1.5390625,1.06640625,1.0
4402347,,,,,,,,1.58984375,10.41796875,-1.40625,0.56640625,-1.00390625,-0.529296875,-0.78515625,1.65234375,1.76171875,1.0
4402348,,,,,,,,0.0859375,9.7578125,0.0,0.548828125,-1.150390625,-0.583984375,-2.2421875,1.0,3.21484375,1.0
4402349,,,,,,,,-2.86328125,8.2578125,3.2265625,0.490234375,-1.28125,-0.671875,-5.11328125,-0.4921875,6.5078125,1.0
4402350,36.01264616666666,129.31949516666666,80.69863980789552,27.31483513476601,3.4000000000000004,52.0,,-2.9296875,5.953125,2.42578125,0.42578125,0.330078125,0.33203125,-6.37890625,-6.19921875,0.41796875,1.0
4402351,,,,,,,,-1.3125,1.23046875,-0.69140625,0.365234375,-1.130859375,-0.953125,-3.3515625,-7.5,2.71484375,1.0
4402352,,,,,,,,0.26953125,-7.265625,-0.32421875,0.3515625,-0.8515625,-1.583984375,-1.62890625,-16.01171875,3.13671875,1.0
4402353,,,,,,,,14.4921875,-36.4375,8.33203125,0.513671875,-0.1171875,-2.10546875,12.7734375,-45.1953125,11.83203125,1.0
4402354,,,,,,,,9.75,-21.8359375,13.5546875,0.74609375,0.8515625,-1.580078125,8.1796875,-30.60546875,17.1171875,1.0
4402355,,,,,,,,-0.19921875,-7.53125,3.328125,-0.552734375,2.01953125,-0.47265625,-1.70703125,-16.3125,6.890625,1.0
4402356,,,,,,,,-4.34375,-9.35546875,-0.85546875,-0.58203125,0.5078125,-0.80078125,-5.84375,-18.1484375,2.67578125,1.0
4402357,,,,,,,,-0.42578125,-12.609375,0.625,-0.068359375,-4.341796875,-0.80859375,-1.70703125,-21.44921875,4.171875,1.0
4402358,,,,,,,,2.64453125,-13.28515625,2.76953125,0.033203125,-2.6796875,-2.419921875,1.62890625,-22.13671875,6.35546875,1.0
4402359,,,,,,,,2.74609375,-11.8125,2.90625,-0.123046875,-1.044921875,-3.25390625,1.89453125,-20.68359375,6.5078125,1.0
4402360,36.012648,129.31949883333334,81.02918533195762,27.5182634421001,3.3000000000000003,55.0,,2.97265625,-8.88671875,1.14453125,-0.71875,0.576171875,-3.45703125,2.43359375,-17.80859375,4.70703125,1.0
4402361,,,,,,,,4.3671875,-7.421875,-1.12109375,-0.982421875,0.228515625,-2.51171875,4.078125,-16.390625,2.37109375,1.0
4402362,,,,,,,,4.57421875,-7.4375,-1.45703125,-1.03125,-0.171875,-2.1875,4.38671875,-16.43359375,1.98828125,1.0
4402363,,,,,,,,4.5859375,-6.39453125,-0.98046875,-1.18359375,-0.505859375,-2.3203125,4.6171875,-15.4296875,2.37109375,1.0
4402364,,,,,,,,3.90625,-4.609375,-0.50390625,-1.24609375,-0.384765625,-2.462890625,4.078125,-13.67578125,2.79296875,1.0
4402365,,,,,,,,3.1640625,-1.17578125,-1.97265625,-1.4453125,0.203125,-2.259765625,3.65625,-10.296875,1.14453125,1.0
4402366,,,,,,,,2.546875,3.65234375,-3.8671875,-1.29296875,0.07421875,-1.82421875,3.390625,-5.546875,-1.0,1.0
4402367,,,,,,,,2.23828125,6.19921875,-3.390625,-1.2265625,0.041015625,-1.837890625,3.15625,-3.01953125,-0.578125,1.0
4402368,,,,,,,,1.56640625,9.203125,-2.25,-1.125,0.19921875,-1.857421875,2.65625,-0.03125,0.453125,1.0
4402369,,,,,,,,1.4453125,10.703125,-2.1328125,-1.078125,0.349609375,-1.814453125,2.625,1.4609375,0.53125,1.0
4402370,36.01264983333333,129.3195015,81.26958155148071,27.721690927626693,3.6,54.0,,1.1328125,11.9375,-2.34765625,-0.71875,0.576171875,-3.45703125,2.46875,2.69140625,0.22265625,1.0
4402371,,,,,,,,0.703125,14.08984375,-3.42578125,-0.80078125,0.544921875,-1.353515625,2.1640625,4.83203125,-0.92578125,1.0
4402372,,,,,,,,0.32421875,14.671875,-3.78515625,-0.7265625,0.33203125,-1.044921875,1.89453125,5.40625,-1.34765625,1.0
4402373,,,,,,,,0.59375,14.2890625,-3.8203125,-0.6796875,0.240234375,-0.9140625,2.203125,5.0234375,-1.421875,1.0
4402374,,,,,,,,1.94140625,12.375,-3.890625,-0.546875,0.1328125,-0.685546875,3.62109375,3.109375,-1.5390625,1.0
4402375,,,,,,,,4.2890625,8.08203125,-4.71484375,-0.46875,0.166015625,-0.509765625,6.03125,-1.18359375,-2.41796875,1.0
4402376,,,,,,,,5.58203125,5.39453125,-4.4765625,-0.310546875,0.41796875,-0.8984375,7.40625,-3.86328125,-2.2265625,1.0
4402377,,,,,,,,4.4921875,4.7265625,-3.85546875,-0.208984375,0.76171875,-1.140625,6.4140625,-4.515625,-1.61328125,1.0
4402378,,,,,,,,0.38671875,4.71875,-0.859375,-0.21875,0.962890625,-0.94921875,2.35546875,-4.515625,1.375,1.0
4402379,,,,,,,,-5.42578125,5.5234375,6.1484375,-0.26171875,1.013671875,1.201171875,-3.50390625,-3.7109375,8.3828125,1.0
4402380,36.012652,129.31950450000002,81.54002718226896,27.962105109604174,3.7,51.0,,-6.50390625,9.27734375,3.3671875,-0.478515625,0.50390625,2.4453125,-4.76953125,0.00390625,5.5859375,1.0
4402381,,,,,,,,-4.984375,13.34765625,-1.47265625,-0.736328125,-0.484375,2.150390625,-3.46875,4.0234375,0.68359375,1.0
4402382,,,,,,,,-3.515625,14.91015625,-3.30078125,-0.798828125,-1.544921875,1.103515625,-2.125,5.55859375,-1.23046875,1.0
4402383,,,,,,,,-2.09765625,15.546875,-4.39453125,-0.52734375,-2.052734375,0.572265625,-0.74609375,6.17578125,-2.41796875,1.0
4402384,,,,,,,,-1.9453125,14.66796875,-3.828125,-0.369140625,-1.919921875,0.439453125,-0.59375,5.29296875,-1.921875,1.0
4402385,,,,,,,,-2.20703125,10.94921875,-0.32421875,-0.345703125,-1.37890625,0.419921875,-0.86328125,1.57421875,1.52734375,1.0
4402386,,,,,,,,-1.9296875,8.421875,0.00390625,-0.32421875,-1.0,0.462890625,-0.59375,-0.953125,1.83203125,1.0
4402387,,,,,,,,-2.55078125,-24.75,9.734375,-0.21484375,-0.09765625,0.49609375,-1.24609375,-34.12890625,11.5234375,1.0
4402388,,,,,,,,-3.58203125,-56.1640625,17.12890625,-0.07421875,1.4765625,-0.1484375,-2.31640625,-65.5390625,18.91796875,1.0
4402389,,,,,,,,-11.10546875,-41.0703125,20.1015625,-0.123046875,2.341796875,-0.2421875,-9.86328125,-50.44921875,21.90625,1.0
4402390,36.01265433333333,129.3195075,81.81047261911829,28.22101250540124,3.4000000000000004,49.0,,0.09375,-13.15234375,8.80859375,0.041015625,3.275390625,-1.4921875,1.359375,-22.51953125,10.64453125,1.0
4402391,,,,,,,,6.17578125,-1.90625,-5.765625,-0.119140625,2.390625,-0.685546875,7.52734375,-11.2578125,-3.875,1.0
4402392,,,,,,,,12.13671875,-3.68359375,-7.08203125,-0.73828125,-3.123046875,1.373046875,13.421875,-13.05859375,-5.25390625,1.0
4402393,,,,,,,,12.88671875,-5.62109375,-3.08984375,-0.240234375,-4.763671875,1.46484375,14.15234375,-15.01171875,-1.30859375,1.0
4402394,,,,,,,,3.7265625,-12.8046875,6.7421875,0.814453125,-4.482421875,1.998046875,4.921875,-22.21484375,8.5,1.0
4402395,,,,,,,,2.6796875,-12.25390625,5.27734375,0.57421875,-0.67578125,2.7578125,3.6953125,-21.671875,7.08203125,1.0
4402396,,,,,,,,0.41796875,-7.2109375,2.10546875,0.794921875,2.18359375,3.166015625,1.12890625,-16.65625,3.98046875,1.0
4402397,,,,,,,,-1.7265625,-4.29296875,0.171875,0.794921875,1.533203125,2.41015625,-1.3203125,-13.7421875,2.140625,1.0
4402398,,,,,,,,-2.66015625,-3.13671875,-0.328125,0.978515625,0.796875,2.068359375,-2.35546875,-12.59765625,1.6796875,1.0
4402399,,,,,,,,-4.82421875,-0.75390625,-1.5859375,1.490234375,-0.744140625,2.923828125,-4.84765625,-10.18359375,0.609375,1.0
4402400,36.01265616666667,129.31950999999998,82.03584392215159,28.42443987327249,3.3000000000000003,49.0,0.0,-6.84375,3.22265625,-2.765625,1.439453125,-0.279296875,3.5,-7.296875,-6.16015625,-0.3515625,1.0
4402401,,,,,,,,-5.8671875,4.19921875,-1.51171875,1.30859375,0.328125,3.333984375,-6.6484375,-5.12890625,1.02734375,1.0
4402402,,,,,,,,-4.7578125,4.98828125,-1.7734375,1.171875,0.86328125,2.78125,-5.84765625,-4.28515625,0.875,1.0
4402403,,,,,,,,-3.3203125,7.5390625,-2.2109375,1.0,1.05078125,2.134765625,-4.66015625,-1.6796875,0.53125,1.0
4402404,,,,,,,,-2.6171875,10.90234375,-1.9453125,0.923828125,0.853515625,1.625,-4.15625,1.73046875,0.875,1.0
4402405,,,,,,,,-2.34765625,12.234375,-1.890625,0.837890625,0.6875,1.271484375,-4.0390625,3.109375,0.9921875,1.0
4402406,,,,,,,,-2.3671875,13.13671875,-1.9296875,0.7890625,0.640625,1.1171875,-4.1171875,4.02734375,0.9921875,1.0
4402407,,,,,,,,-2.51953125,13.17578125,-1.95703125,0.68359375,0.544921875,0.80859375,-4.38671875,4.10546875,1.02734375,1.0
4402408,,,,,,,,-2.87109375,11.53515625,-2.0390625,0.5703125,0.369140625,0.5,-4.8046875,2.49609375,0.9921875,1.0
4402409,,,,,,,,-3.4375,10.09375,-1.65234375,0.466796875,0.162109375,0.189453125,-5.421875,1.078125,1.41015625,1.0
4402410,36.012658,129.31951233333334,82.24619033521317,28.62786710502075,3.4000000000000004,48.0,,-1.5,7.6953125,-2.75390625,0.3203125,0.16796875,-0.412109375,-3.47265625,-1.296875,0.37890625,1.0
4402411,,,,,,,,0.23046875,7.03515625,-3.0078125,0.25390625,0.3671875,-0.7265625,-1.70703125,-1.9453125,0.1484375,1.0
4402412,,,,,,,,1.13671875,7.45703125,-3.0625,0.294921875,0.513671875,-0.69921875,-0.74609375,-1.52734375,0.109375,1.0
4402413,,,,,,,,2.375,8.1484375,-2.87890625,0.326171875,0.517578125,-0.68359375,0.515625,-0.83984375,0.30078125,1.0
4402414,,,,,,,,3.2578125,9.984375,-2.90234375,0.39453125,0.3828125,-0.748046875,1.44140625,1.0,0.30078125,1.0
4402415,,,,,,,,3.5390625,10.8203125,-2.625,0.453125,0.09765625,-0.853515625,1.78125,1.84375,0.609375,1.0
4402416,,,,,,,,2.578125,11.08984375,-1.90625,0.44921875,-0.224609375,-0.890625,0.8984375,2.11328125,1.375,1.0
4402417,,,,,,,,0.76953125,10.078125,-0.3515625,0.357421875,-0.681640625,-0.70703125,-0.78515625,1.1171875,2.984375,1.0
4402418,,,,,,,,0.109375,9.6484375,0.0,0.3515625,-0.791015625,-0.615234375,-1.3984375,0.6953125,3.3671875,1.0
4402419,,,,,,,,-1.078125,8.4921875,-0.1953125,0.31640625,-0.943359375,-0.474609375,-2.5078125,-0.453125,3.2109375,1.0
4402420,36.01265983333334,129.31951566666666,82.54668601421513,28.83129518856955,3.4000000000000004,52.0,,-1.2578125,4.140625,-0.1640625,0.2109375,-0.89453125,-0.521484375,-2.5859375,-4.78125,3.2890625,1.0
4402421,,,,,,,,3.67578125,-5.9453125,-4.01953125,0.140625,-0.56640625,-0.76953125,2.43359375,-14.859375,-0.54296875,1.0
4402422,,,,,,,,9.33984375,-24.5234375,1.47265625,0.029296875,0.09375,-1.466796875,8.25390625,-33.44140625,4.97265625,1.0
4402423,,,,,,,,15.484375,-52.36328125,16.18359375,0.044921875,0.287109375,-1.62890625,14.4609375,-61.28515625,19.68359375,1.0
4402424,,,,,,,,14.0703125,-47.375,23.00390625,0.20703125,0.75390625,-1.013671875,13.15625,-56.3046875,26.50390625,1.0
4402425,,,,,,,,4.83984375,-9.95703125,3.328125,0.408203125,1.447265625,-0.01953125,3.92578125,-18.87890625,6.8515625,1.0
4402426,,,,,,,,-4.5,-10.45703125,-0.89453125,0.0234375,0.96875,-1.091796875,-5.421875,-19.375,2.63671875,1.0
4402427,,,,,,,,-5.8359375,-12.46484375,-3.98828125,-0.37109375,-3.33984375,-1.115234375,-6.609375,-21.41015625,-0.46484375,1.0
4402428,,,,,,,,-4.4296875,-14.1015625,-2.953125,-0.0234375,-4.201171875,-1.056640625,-5.078125,-23.0546875,0.5703125,1.0
4402429,,,,,,,,-1.0078125,-15.96484375,0.30859375,0.107421875,-3.095703125,-2.080078125,-1.3984375,-24.93359375,3.86328125,1.0
4402430,36.012661666666666,129.31951866666668,82.81713192162131,29.034722997632407,3.0,52.0,,2.78515625,-11.3671875,3.19140625,-0.935546875,0.458984375,-2.76171875,2.81640625,-20.375,6.69921875,1.0
4402431,,,,,,,,3.36328125,-9.95703125,1.4375,-0.990234375,0.349609375,-2.544921875,3.62109375,-18.9921875,4.859375,1.0
4402432,,,,,,,,3.17578125,-9.12890625,0.18359375,-1.095703125,0.109375,-2.60546875,3.54296875,-18.1875,3.55859375,1.0
4402433,,,,,,,,1.86328125,-3.81640625,-2.72265625,-1.482421875,-0.572265625,-2.595703125,2.73828125,-12.9375,0.41796875,1.0
4402434,,,,,,,,2.37109375,0.015625,-2.15625,-1.576171875,-0.3046875,-2.451171875,3.50390625,-9.1484375,0.8359375,1.0
4402435,,,,,,,,2.56640625,1.41015625,-1.546875,-1.580078125,0.02734375,-2.359375,3.92578125,-7.76953125,1.296875,1.0
4402436,,,,,,,,2.46484375,2.15234375,-1.5546875,-1.52734375,0.19921875,-2.310546875,3.92578125,-7.04296875,1.21875,1.0
4402437,,,,,,,,2.40625,4.8046875,-2.5,-1.345703125,0.423828125,-2.1171875,4.078125,-4.3984375,0.1484375,1.0
4402438,,,,,,,,2.96484375,8.10546875,-2.7734375,-1.138671875,0.37109375,-1.85546875,4.80859375,-1.10546875,-0.234375,1.0
4402439,,,,,,,,3.046875,8.87109375,-2.734375,-1.048828125,0.2734375,-1.68359375,4.9609375,-0.33984375,-0.234375,1.0
4402440,36.01266333333333,129.31952116666668,83.04250335533645,29.219657183576043,3.5,53.0,,1.91015625,11.24609375,-2.79296875,-0.935546875,0.458984375,-2.76171875,3.96484375,2.03515625,-0.38671875,1.0
4402441,,,,,,,,0.55078125,12.3515625,-2.578125,-0.62890625,0.294921875,-1.0078125,2.77734375,3.1484375,-0.2734375,1.0
4402442,,,,,,,,0.12890625,12.3515625,-2.78515625,-0.53125,0.314453125,-0.8203125,2.39453125,3.15234375,-0.50390625,1.0
4402443,,,,,,,,0.38671875,10.43359375,-4.27734375,-0.466796875,0.251953125,-0.236328125,2.734375,1.23046875,-2.07421875,1.0
4402444,,,,,,,,0.76171875,9.78515625,-4.453125,-0.451171875,0.234375,-0.130859375,3.1171875,0.58203125,-2.265625,1.0
4402445,,,,,,,,1.59765625,8.3828125,-3.65625,-0.3828125,0.32421875,0.0078125,3.96484375,-0.8359375,-1.5,1.0
4402446,,,,,,,,1.328125,7.921875,-2.4140625,-0.298828125,0.45703125,0.078125,3.69921875,-1.296875,-0.2734375,1.0
4402447,,,,,,,,-0.37109375,7.65234375,0.08203125,-0.072265625,0.814453125,0.2890625,1.97265625,-1.56640625,2.2109375,1.0
4402448,,,,,,,,-1.16015625,7.59375,0.6796875,0.0546875,1.01171875,0.576171875,1.12890625,-1.640625,2.828125,1.0
4402449,,,,,,,,-4.03125,8.55859375,1.53125,-0.0234375,0.818359375,0.701171875,-1.8203125,-0.68359375,3.71484375,1.0
4402450,36.01266533333333,129.31952416666667,83.31294906209607,29.441578215259987,3.6,52.0,,-4.59765625,9.24609375,1.30078125,-0.10546875,0.568359375,0.69140625,-2.43359375,0.00390625,3.4765625,1.0
4402451,,,,,,,,-5.15625,11.5625,-0.828125,-0.232421875,-0.1953125,0.599609375,-3.046875,2.3046875,1.3359375,1.0
4402452,,,,,,,,-5.0859375,13.1484375,-1.9375,-0.341796875,-0.99609375,0.419921875,-3.0078125,3.875,0.1875,1.0
4402453,,,,,,,,-4.625,13.9921875,-2.75,-0.43359375,-1.51953125,0.185546875,-2.546875,4.71875,-0.6953125,1.0
4402454,,,,,,,,-3.9609375,13.5,-2.296875,-0.40625,-1.62109375,0.111328125,-1.859375,4.22265625,-0.3125,1.0
4402455,,,,,,,,-2.51953125,11.890625,-1.56640625,-0.369140625,-1.40625,0.232421875,-0.40234375,2.61328125,0.33984375,1.0
4402456,,,,,,,,-0.98046875,9.37109375,0.81640625,-0.357421875,-0.708984375,0.3125,1.12890625,0.08203125,2.63671875,1.0
4402457,,,,,,,,0.68359375,2.66796875,0.51171875,-0.3046875,-0.0625,0.07421875,2.77734375,-6.6171875,2.29296875,1.0
4402458,,,,,,,,-0.97265625,-22.32421875,11.53125,-0.19921875,0.576171875,-0.142578125,1.12890625,-31.59765625,13.2890625,1.0
4402459,,,,,,,,-2.53515625,-52.78515625,19.265625,-0.08203125,1.064453125,-0.19921875,-0.44140625,-62.05078125,21.0234375,1.0
4402460,36.0126675,129.319527,83.56836970190784,29.68199231849197,3.3000000000000003,49.0,,-10.33984375,-46.3515625,16.90625,-0.10546875,0.568359375,0.69140625,-2.43359375,0.00390625,3.4765625,1.0
4402461,,,,,,,,-2.90234375,-12.90234375,12.85546875,-0.0234375,1.603515625,-0.107421875,-0.86328125,-22.17578125,14.66796875,1.0
4402462,,,,,,,,3.92578125,-3.5234375,1.28515625,0.1796875,1.84375,-1.5859375,5.99609375,-12.7890625,3.13671875,1.0
4402463,,,,,,,,6.98828125,-4.265625,-7.16796875,-0.310546875,-0.005859375,0.669921875,9.09765625,-13.51953125,-5.29296875,1.0
4402464,,,,,,,,11.671875,-7.875,-2.27734375,0.580078125,-4.576171875,1.25390625,8.828125,-20.984375,4.8203125,1.0
4402465,,,,,,,,5.51171875,-13.26171875,4.46484375,0.53515625,-1.833984375,2.720703125,6.4921875,-22.13671875,5.703125,1.0
4402466,,,,,,,,4.5546875,-12.81640625,3.921875,0.34375,0.275390625,3.095703125,5.83984375,-21.14453125,4.9375,1.0
4402467,,,,,,,,1.92578125,-8.81640625,1.96484375,0.783203125,2.265625,3.021484375,2.203125,-16.4609375,3.2890625,1.0
4402468,,,,,,,,-0.33203125,-5.54296875,0.81640625,0.953125,0.73046875,2.677734375,-0.9375,-12.6328125,1.52734375,1.0
4402469,,,,,,,,-1.9921875,-3.19921875,-0.49609375,1.13671875,0.05859375,3.013671875,-1.66796875,-11.984375,0.9921875,1.0
4402470,36.01266916666667,129.31952983333335,83.82379086148703,29.866926812248142,3.1,50.0,,-10.33984375,-46.3515625,16.90625,-0.10546875,0.568359375,0.69140625,-4.38671875,-10.9453125,-0.38671875,1.0
4402471,,,,,,,,-6.71484375,0.82421875,-3.34375,1.62109375,-0.337890625,3.994140625,-6.45703125,-8.609375,-1.0,1.0
4402472,,,,,,,,-6.93359375,5.2890625,-1.96875,1.552734375,0.494140625,3.71484375,-7.21875,-4.09375,0.609375,1.0
4402473,,,,,,,,-6.62109375,6.15625,-1.7734375,1.421875,0.728515625,3.5234375,-7.1015625,-3.2109375,0.875,1.0
4402474,,,,,,,,-5.3125,7.234375,-2.46484375,1.0859375,1.05859375,2.677734375,-6.265625,-2.0625,0.33984375,1.0
4402475,,,,,,,,-4.40234375,8.55078125,-3.2109375,0.98046875,0.798828125,2.046875,-5.61328125,-0.68359375,-0.3125,1.0
4402476,,,,,,,,-2.98828125,12.6796875,-1.9765625,0.806640625,0.404296875,1.58984375,-4.3828125,3.4921875,0.9921875,1.0
4402477,,,,,,,,-2.1953125,14.9765625,-2.61328125,0.611328125,0.255859375,1.34375,-3.734375,5.828125,0.41796875,1.0
4402478,,,,,,,,-1.93359375,14.875,-3.4140625,0.525390625,0.2578125,1.271484375,-3.54296875,5.75,-0.3515625,1.0
4402479,,,,,,,,-1.01953125,12.125,-5.3203125,0.486328125,0.22265625,0.900390625,-2.73828125,3.03125,-2.2265625,1.0
4402480,36.01267083333333,129.31953149999998,83.97403786455394,30.051860305606652,3.2,48.0,,-1.02734375,8.921875,-4.6484375,-0.10546875,0.568359375,0.69140625,-4.38671875,-10.9453125,-0.38671875,1.0
4402481,,,,,,,,-2.3046875,5.60546875,-2.5703125,0.359375,0.083984375,0.169921875,-4.1171875,-3.44140625,0.609375,1.0
4402482,,,,,,,,-2.46484375,4.44921875,-1.4765625,0.259765625,0.677734375,0.201171875,-4.234375,-4.62890625,2.1796875,1.0
4402483,,,,,,,,-1.828125,5.23046875,-0.52734375,0.1796875,1.015625,0.263671875,-3.734375,-3.78515625,2.67578125,1.0
4402484,,,,,,,,0.1328125,7.55859375,-0.671875,0.04296875,0.916015625,0.05859375,-1.8203125,-1.44921875,2.5234375,1.0
4402485,,,,,,,,1.375,9.2421875,-1.5,0.080078125,0.416015625,-0.255859375,-0.59375,0.234375,1.6796875,1.0
4402486,,,,,,,,1.86328125,10.0859375,-1.9296875,0.138671875,0.068359375,-0.4453125,-0.09765625,1.078125,1.2578125,1.0
4402487,,,,,,,,2.4609375,12.765625,-2.88671875,0.28125,-0.884765625,-0.7890625,0.59375,3.76171875,0.33984375,1.0
4402488,,,,,,,,2.12109375,13.1796875,-2.88671875,0.326171875,-1.259765625,-0.73828125,0.36328125,4.1796875,0.37890625,1.0
4402489,,,,,,,,1.375,12.484375,-2.4921875,0.30078125,-1.322265625,-0.455078125,-0.2890625,3.4921875,0.8359375,1.0
4402490,36.01267266666667,129.319535,84.28955833276278,30.255288593796877,3.2,51.0,,0.53125,11.05859375,-1.52734375,-0.10546875,0.568359375,0.69140625,-4.38671875,-10.9453125,-0.38671875,1.0
4402491,,,,,,,,-1.1640625,8.28515625,1.23046875,0.267578125,-0.6484375,-0.328125,-2.703125,-0.68359375,4.62890625,1.0
4402492,,,,,,,,-1.35546875,5.3203125,2.43359375,0.3125,-0.12109375,-0.39453125,-2.85546875,-3.6328125,5.85546875,1.0
4402493,,,,,,,,0.94140625,-2.81640625,-2.1484375,0.29296875,0.43359375,-0.935546875,0.9375,-25.234375,2.5234375,1.0
4402494,,,,,,,,5.23046875,-26.8046875,2.76953125,0.279296875,0.654296875,-1.404296875,17.83203125,-63.1640625,20.7578125,1.0
4402495,,,,,,,,19.75,-61.43359375,21.41015625,0.474609375,1.037109375,-0.91796875,11.625,-55.765625,22.05859375,1.0
4402496,,,,,,,,12.890625,-46.83984375,18.55859375,0.43359375,1.123046875,-0.4375,2.43359375,-25.35546875,9.2265625,1.0
4402497,,,,,,,,1.390625,-11.55859375,3.98046875,-0.33203125,1.15625,-0.26953125,-2.01171875,-17.3828125,6.73828125,1.0
4402498,,,,,,,,-3.50390625,-8.2890625,1.296875,-0.498046875,0.513671875,-1.2578125,-7.18359375,-19.875,1.3359375,1.0
4402499,,,,,,,,-5.50390625,-11.4375,-2.5625,-0.669921875,-3.21484375,-0.890625,-5.11328125,-21.140625,0.875,1.0
4402500,36.01267433333333,129.31953783333333,84.54497945665291,30.440223106361977,2.9000000000000004,53.0,0.0,0.53125,11.05859375,-1.52734375,-0.43359375,-4.07421875,-1.4453125,-0.48046875,-21.21484375,4.32421875,1.0
4402501,,,,,,,,1.3359375,-11.82421875,2.3359375,-0.484375,-1.5,-3.294921875,1.12890625,-19.99609375,6.0859375,1.0
4402502,,,,,,,,1.69921875,-10.921875,2.6953125,-0.751953125,-0.333984375,-3.8203125,1.703125,-17.578125,3.86328125,1.0
4402503,,,,,,,,2.21875,-7.5625,-0.796875,-1.103515625,0.0078125,-2.666015625,3.62109375,-15.66796875,0.37890625,1.0
4402504,,,,,,,,3.96484375,-5.81640625,-2.171875,-1.54296875,-0.375,-2.52734375,4.34765625,-14.51171875,1.60546875,1.0
4402505,,,,,,,,3.4140625,-3.80078125,-0.16796875,-1.578125,0.1953125,-2.431640625,3.6953125,-12.328125,3.01953125,1.0
4402506,,,,,,,,2.515625,-2.05078125,0.1484375,-1.595703125,0.419921875,-2.234375,3.3125,-11.328125,2.984375,1.0
4402507,,,,,,,,2.3984375,0.8125,-1.4296875,-1.54296875,0.564453125,-1.740234375,3.390625,-8.5,1.2578125,1.0
4402508,,,,,,,,2.26953125,4.1875,-3.234375,-1.37109375,0.33203125,-1.57421875,3.46484375,-5.1640625,-0.734375,1.0
4402509,,,,,,,,2.30859375,5.34375,-3.5625,-1.296875,0.189453125,-1.642578125,3.58203125,-4.015625,-1.1171875,1.0
4402510,36.012675666666674,129.31954033333335,84.77035117668524,30.588170927139924,3.2,54.0,,2.05078125,8.421875,-2.9375,-0.951171875,0.099609375,-1.921875,3.58203125,-0.953125,-0.65625,1.0
4402511,,,,,,,,1.42578125,11.05859375,-2.36328125,-0.86328125,0.21875,-1.9921875,3.0390625,1.69140625,-0.12109375,1.0
4402512,,,,,,,,0.5,12.09765625,-2.98046875,-0.4375,0.53125,-1.779296875,2.46875,2.76171875,-0.84765625,1.0
4402513,,,,,,,,0.1953125,12.27734375,-3.1953125,-0.361328125,0.45703125,-1.65234375,2.2421875,2.953125,-1.078125,1.0
4402514,,,,,,,,-0.09375,12.328125,-3.59375,-0.30859375,0.244140625,-1.32421875,2.0859375,3.03125,-1.5,1.0
4402515,,,,,,,,-0.30078125,12.359375,-3.6171875,-0.310546875,0.1328125,-1.181640625,1.93359375,3.07421875,-1.5390625,1.0
4402516,,,,,,,,-0.05859375,11.453125,-3.66015625,-0.3359375,-0.068359375,-0.890625,2.2734375,2.1875,-1.61328125,1.0
4402517,,,,,,,,1.12890625,9.37890625,-3.9375,-0.306640625,-0.1796875,-0.68359375,3.5390625,0.12109375,-1.921875,1.0
4402518,,,,,,,,1.85546875,7.9921875,-3.68359375,-0.283203125,-0.18359375,-0.59375,4.30859375,-1.2578125,-1.69140625,1.0
4402519,,,,,,,,1.77734375,6.90234375,-3.0234375,-0.23046875,0.08203125,-0.470703125,4.3046875,-2.33203125,-1.078125,1.0
4402520,36.012677333333336,129.31954249999998,84.96567277312528,30.77310487344837,3.1,52.0,,0.57421875,7.24609375,-1.828125,-0.951171875,0.099609375,-1.921875,3.58203125,-0.953125,-0.65625,1.0
4402521,,,,,,,,-1.25,8.46484375,-0.38671875,-0.310546875,0.419921875,-0.07421875,1.3203125,-0.76171875,1.5234375,1.0
4402522,,,,,,,,-3.5234375,9.5390625,2.578125,-0.361328125,0.427734375,0.35546875,-0.9765625,0.3125,4.48046875,1.0
4402523,,,,,,,,-5.5078125,10.93359375,3.53515625,-0.462890625,0.205078125,0.818359375,-3.0078125,1.69140625,5.390625,1.0
4402524,,,,,,,,-4.82421875,12.19140625,0.94921875,-0.546875,-0.232421875,1.3671875,-2.43359375,2.91796875,2.75390625,1.0
4402525,,,,,,,,-4.0234375,12.87890625,-0.71484375,-0.53515625,-0.880859375,1.33984375,-1.7421875,3.56640625,1.02734375,1.0
4402526,,,,,,,,-3.47265625,11.79296875,-0.94921875,-0.44140625,-1.4453125,0.92578125,-1.28515625,2.45703125,0.72265625,1.0
4402527,,,,,,,,-3.1171875,9.46484375,-0.2265625,-0.2890625,-1.537109375,0.677734375,-0.9765625,0.12109375,1.375,1.0
4402528,,,,,,,,-3.8828125,-1.859375,4.0859375,-0.1875,-1.162109375,0.689453125,-1.78125,-11.21875,5.625,1.0
4402529,,,,,,,,-0.3515625,-22.8515625,12.66015625,-0.216796875,-0.37109375,0.626953125,1.703125,-32.21484375,14.16796875,1.0
4402530,36.0126795,129.3195455,85.23611820918092,31.013519169211747,3.2,49.0,,1.3828125,-48.890625,22.98046875,-0.951171875,0.099609375,-1.921875,3.58203125,-0.953125,-0.65625,1.0
4402531,,,,,,,,-6.73046875,-21.04296875,9.7109375,-0.333984375,2.736328125,-1.3125,-4.73046875,-30.41015625,11.21875,1.0
4402532,,,,,,,,-1.76953125,-7.0390625,1.3359375,-0.130859375,3.0078125,-1.951171875,0.28515625,-16.39453125,2.8671875,1.0
4402533,,,,,,,,1.51171875,-3.34765625,-5.390625,0.41015625,1.197265625,0.40625,3.62109375,-12.67578125,-3.796875,1.0
4402534,,,,,,,,8.0390625,-5.7265625,-6.87890625,0.248046875,-2.103515625,2.267578125,10.015625,-15.08984375,-5.25390625,1.0
4402535,,,,,,,,7.65234375,-11.94140625,4.4375,0.083984375,-3.908203125,1.025390625,9.51953125,-21.33203125,6.0078125,1.0
4402536,,,,,,,,7.66796875,-11.93359375,4.4609375,0.21875,-2.0625,1.25,7.02734375,-23.13671875,7.1953125,1.0
4402537,,,,,,,,3.31640625,-14.58984375,6.31640625,0.34765625,1.171875,3.599609375,3.04296875,-22.09765625,7.12109375,1.0
4402538,,,,,,,,1.265625,-6.69140625,-0.52734375,0.720703125,2.140625,4.2421875,2.46875,-16.19921875,1.10546875,1.0
4402539,,,,,,,,0.953125,-5.36328125,-1.125,0.9765625,1.083984375,3.599609375,1.7421875,-14.89453125,0.609375,1.0
4402540,36.01268116666667,129.31954816666666,85.47651441346933,31.1984535652889,3.1,50.0,,-2.08203125,-3.3203125,-0.36328125,-0.951171875,0.099609375,-1.921875,3.58203125,-0.953125,-0.65625,1.0
4402541,,,,,,,,-4.18359375,-2.421875,0.3203125,1.765625,-0.232421875,2.958984375,-4.08203125,-11.94921875,2.40625,1.0
4402542,,,,,,,,-5.0,-0.33203125,-0.98828125,1.71875,0.01953125,3.111328125,-5.0390625,-9.83984375,1.18359375,1.0
4402543,,,,,,,,-5.60546875,1.7734375,-2.296875,1.455078125,0.361328125,3.396484375,-5.95703125,-7.6953125,0.03125,1.0
4402544,,,,,,,,-5.32421875,5.59765625,-3.9609375,1.25390625,0.359375,3.51171875,-6.03125,-3.82421875,-1.5,1.0
4402545,,,,,,,,-4.14453125,8.3984375,-4.015625,0.701171875,0.294921875,3.375,-5.4921875,-0.9140625,-1.3828125,1.0
4402546,,,,,,,,-3.21484375,10.28125,-2.96875,0.587890625,0.341796875,3.2578125,-4.73046875,1.0,-0.3125,1.0
4402547,,,,,,,,-2.12109375,12.55859375,-2.2578125,0.4375,0.56640625,2.9140625,-3.96484375,3.33984375,0.453125,1.0
4402548,,,,,,,,-0.97265625,12.9296875,-2.59375,0.375,0.771484375,2.0859375,-3.19921875,3.80078125,0.1484375,1.0
4402549,,,,,,,,-0.703125,12.9453125,-3.29296875,0.416015625,0.75390625,1.697265625,-3.0078125,3.83984375,-0.54296875,1.0
4402550,36.01268316666667,129.3195505,85.68686050016274,31.420374085595892,3.4000000000000004,47.0,,-0.78515625,11.7109375,-4.3125,0.388671875,0.55078125,1.0,-3.23828125,2.6484375,-1.5390625,1.0
4402551,,,,,,,,-2.0859375,8.65234375,-3.9453125,0.365234375,0.29296875,0.552734375,-4.6171875,-0.37890625,-1.15625,1.0
4402552,,,,,,,,-3.1796875,5.86328125,-2.98046875,0.361328125,0.240234375,0.546875,-5.76953125,-3.13671875,-0.16015625,1.0
4402553,,,,,,,,-3.1796875,4.4140625,-1.26953125,0.310546875,0.509765625,0.59375,-5.84765625,-4.5546875,1.56640625,1.0
4402554,,,,,,,,-1.1328125,5.65625,-0.7421875,0.19921875,0.833984375,0.314453125,-3.89453125,-3.2890625,2.1015625,1.0
4402555,,,,,,,,1.3203125,7.9765625,-1.43359375,0.25,0.7421875,-0.052734375,-1.4765625,-0.953125,1.41015625,1.0
4402556,,,,,,,,2.5,9.65625,-1.81640625,0.314453125,0.173828125,-0.64453125,-0.2890625,0.734375,1.0234375,1.0
4402557,,,,,,,,3.44921875,11.46484375,-2.08984375,0.384765625,-0.587890625,-1.099609375,0.74609375,2.53125,0.80078125,1.0
4402558,,,,,,,,3.32421875,11.9765625,-1.76171875,0.412109375,-1.17578125,-1.091796875,0.74609375,3.03125,1.18359375,1.0
4402559,,,,,,,,1.1328125,11.33203125,0.6171875,0.30859375,-1.466796875,-0.9375,-1.3203125,2.37890625,3.6328125,1.0
4402560,36.012685166666664,129.31955366666668,85.97233095114557,31.642295346234654,3.3000000000000003,49.0,,-0.82421875,9.91796875,1.30078125,0.388671875,0.55078125,1.0,-3.16015625,0.96484375,4.36328125,1.0
4402561,,,,,,,,-1.36328125,7.42578125,1.47265625,0.224609375,-1.228515625,-0.36328125,-3.62109375,-1.52734375,4.58984375,1.0
4402562,,,,,,,,-1.65625,4.58203125,1.12109375,0.2890625,-0.82421875,-0.48046875,-3.8515625,-4.359375,4.28515625,1.0
4402563,,,,,,,,-1.546875,2.8046875,0.109375,0.34375,-0.53515625,-0.7109375,-3.6953125,-6.125,3.2890625,1.0
4402564,,,,,,,,-0.9765625,-5.96484375,-0.46484375,0.3671875,0.107421875,-1.072265625,-3.046875,-14.890625,2.75390625,1.0
4402565,,,,,,,,-0.2265625,-20.4296875,1.6171875,0.337890625,0.537109375,-1.470703125,-2.203125,-29.37890625,4.859375,1.0
4402566,,,,,,,,19.328125,-50.42578125,9.84375,0.689453125,0.892578125,-1.298828125,17.5234375,-59.37109375,13.1328125,1.0
4402567,,,,,,,,12.01953125,-19.17578125,4.54296875,0.861328125,1.078125,-1.21484375,10.28515625,-28.11328125,7.88671875,1.0
4402568,,,,,,,,6.41796875,-16.33203125,0.92578125,0.57421875,0.888671875,-1.572265625,4.73046875,-25.27734375,4.28515625,1.0
4402569,,,,,,,,-2.234375,-13.55078125,-0.72265625,-0.279296875,1.208984375,-2.203125,-3.7734375,-22.51953125,2.63671875,1.0
4402570,36.01268666666667,129.31955666666667,86.24277705378988,31.808736851210725,3.0,53.0,,-5.44921875,-13.79296875,-0.03125,0.388671875,0.55078125,1.0,-3.16015625,0.96484375,4.36328125,1.0
4402571,,,,,,,,1.3046875,-10.27734375,0.28125,-0.310546875,-2.568359375,-1.794921875,0.25,-19.3359375,3.6328125,1.0
4402572,,,,,,,,2.53125,-7.51171875,-0.3515625,-0.578125,-0.501953125,-3.53515625,1.78125,-16.6171875,2.984375,1.0
4402573,,,,,,,,2.42578125,-6.796875,-1.73828125,-0.986328125,0.203125,-3.404296875,2.01171875,-15.97265625,1.52734375,1.0
4402574,,,,,,,,3.32421875,-5.1953125,-4.02734375,-1.01953125,-0.38671875,-2.22265625,3.16015625,-14.3984375,-0.84765625,1.0
4402575,,,,,,,,3.7109375,-4.3359375,-3.14453125,-1.4453125,-0.7265625,-2.205078125,3.7734375,-13.59375,-0.08203125,1.0
4402576,,,,,,,,4.58203125,-2.54296875,-1.2734375,-1.5390625,-0.541015625,-2.3203125,4.76953125,-11.828125,1.71875,1.0
4402577,,,,,,,,4.35546875,-1.1640625,-0.7421875,-1.521484375,0.212890625,-2.31640625,4.76953125,-10.49609375,2.1015625,1.0
4402578,,,,,,,,4.26171875,-0.2578125,-0.83203125,-1.482421875,0.5390625,-2.146484375,4.76953125,-9.609375,1.94921875,1.0
4402579,,,,,,,,3.7265625,5.89453125,-2.61328125,-1.234375,0.353515625,-1.505859375,4.54296875,-3.51953125,-0.08203125,1.0
4402580,36.012688499999996,129.31955933333333,86.48317303549743,32.01216447985692,3.3000000000000003,53.0,,3.3125,8.890625,-2.52734375,0.388671875,0.55078125,1.0,-3.16015625,0.96484375,4.36328125,1.0
4402581,,,,,,,,2.92578125,11.51171875,-2.41015625,-0.921875,-0.037109375,-1.4921875,3.9609375,2.07421875,-0.04296875,1.0
4402582,,,,,,,,2.72265625,13.6328125,-2.00390625,-0.642578125,-0.076171875,-1.40625,3.88671875,4.1796875,0.30078125,1.0
4402583,,,,,,,,2.5390625,14.0546875,-2.04296875,-0.560546875,-0.09765625,-1.33984375,3.7734375,4.60546875,0.22265625,1.0
4402584,,,,,,,,1.609375,13.90234375,-2.421875,-0.43359375,-0.181640625,-1.138671875,2.96875,4.44921875,-0.1953125,1.0
4402585,,,,,,,,1.61328125,12.890625,-2.7578125,-0.353515625,-0.279296875,-0.87890625,3.08203125,3.453125,-0.578125,1.0
4402586,,,,,,,,2.75390625,9.86328125,-3.41015625,-0.333984375,-0.384765625,-0.611328125,4.30859375,0.42578125,-1.26953125,1.0
4402587,,,,,,,,3.50390625,8.82421875,-3.5625,-0.37890625,-0.42578125,-0.337890625,5.11328125,-0.60546875,-1.4609375,1.0
4402588,,,,,,,,3.86328125,8.24609375,-3.53125,-0.34375,-0.388671875,-0.224609375,5.4921875,-1.18359375,-1.4609375,1.0
4402589,,,,,,,,3.734375,7.6328125,-3.31640625,-0.193359375,-0.21875,0.00390625,5.3828125,-1.796875,-1.26953125,1.0
4402590,36.012690166666665,129.31956183333332,86.70854431543907,32.197098762211304,3.4000000000000004,51.0,,1.44921875,7.52734375,-2.2890625,-0.009765625,0.171875,0.48046875,3.08203125,-1.91015625,-0.2734375,1.0
4402591,,,,,,,,-4.68359375,9.14453125,3.37109375,-0.033203125,0.29296875,0.90234375,-3.12109375,-0.30078125,5.390625,1.0
4402592,,,,,,,,-6.64453125,10.125,4.8046875,-0.294921875,0.205078125,1.919921875,-5.26953125,0.65625,6.81640625,1.0
4402593,,,,,,,,-6.77734375,11.4453125,2.60546875,-0.384765625,0.1328125,2.24609375,-5.49609375,1.9609375,4.58984375,1.0
4402594,,,,,,,,-4.875,13.16015625,-1.1015625,-0.537109375,-0.171875,2.14453125,-3.81640625,3.64453125,0.8359375,1.0
4402595,,,,,,,,-3.4609375,13.875,-2.453125,-0.599609375,-0.7890625,1.12890625,-2.546875,4.33984375,-0.578125,1.0
4402596,,,,,,,,-2.96875,12.1953125,-2.5234375,-0.427734375,-1.283203125,0.71484375,-2.125,2.6484375,-0.734375,1.0
4402597,,,,,,,,-2.6875,9.78125,-0.3671875,-0.318359375,-1.197265625,0.892578125,-1.8984375,0.234375,1.375,1.0
4402598,,,,,,,,-1.58203125,5.33984375,0.078125,-0.283203125,-1.052734375,0.94921875,-0.82421875,-4.203125,1.796875,1.0
4402599,,,,,,,,-2.58203125,-15.203125,8.23828125,-0.14453125,-0.078125,0.74609375,-1.93359375,-24.74609375,9.91796875,1.0
4402600,36.0126925,129.31956466666668,86.96396460102298,32.45600617076457,3.2,47.0,0.0,-11.70703125,-57.453125,20.734375,0.03125,1.33203125,0.130859375,-11.12890625,-66.9921875,22.40625,1.0
4402601,,,,,,,,0.58984375,-9.5703125,5.921875,0.138671875,2.001953125,-0.80078125,1.16796875,-19.109375,7.6171875,1.0
4402602,,,,,,,,3.99609375,-4.30078125,-2.95703125,0.212890625,2.283203125,-2.25,4.69140625,-13.82421875,-1.23046875,1.0
4402603,,,,,,,,3.14453125,-5.41796875,-5.00390625,0.015625,2.044921875,-1.568359375,3.92578125,-14.93359375,-3.26171875,1.0
4402604,,,,,,,,9.01953125,-9.28125,-1.75390625,-0.595703125,-1.701171875,1.322265625,9.78515625,-18.8046875,-0.04296875,1.0
4402605,,,,,,,,9.32421875,-13.31640625,6.91015625,0.572265625,-3.3046875,1.70703125,9.94140625,-22.859375,8.57421875,1.0
4402606,,,,,,,,6.7890625,-13.34765625,4.99609375,0.33203125,-0.65625,1.396484375,7.296875,-22.8984375,6.69921875,1.0
4402607,,,,,,,,3.359375,-8.3203125,1.84375,0.806640625,1.44140625,2.58203125,2.625,-16.5,3.2890625,1.0
4402608,,,,,,,,2.40625,-6.94140625,1.5,0.826171875,1.091796875,2.814453125,1.78125,-15.55078125,2.9453125,1.0
4402609,,,,,,,,-0.109375,-4.84375,0.609375,1.087890625,0.2578125,2.8125,-1.015625,-13.98046875,2.21484375,1.0
4402610,36.012694333333336,129.3195675,87.21938542091141,32.65943396954091,3.1,49.0,,-1.98046875,-3.05859375,-0.80078125,1.33984375,-0.232421875,3.01171875,-2.31640625,-12.59375,1.18359375,1.0
4402611,,,,,,,,-4.08203125,0.3515625,-2.0078125,1.60546875,-0.333984375,3.333984375,-4.69140625,-9.1484375,0.109375,1.0
4402612,,,,,,,,-4.46484375,1.20703125,-1.92578125,1.65625,-0.25,3.359375,-5.23046875,-8.26953125,0.26171875,1.0
4402613,,,,,,,,-4.96484375,2.75390625,-1.23828125,1.576171875,0.11328125,3.087890625,-6.03515625,-6.65625,1.10546875,1.0
4402614,,,,,,,,-4.859375,4.1015625,-1.1640625,1.392578125,0.5546875,2.720703125,-6.2265625,-5.2421875,1.3359375,1.0
4402615,,,,,,,,-4.59375,6.375,-2.8203125,1.205078125,0.72265625,2.318359375,-6.23046875,-2.90625,-0.1953125,1.0
4402616,,,,,,,,-4.1875,8.95703125,-3.31640625,1.064453125,0.52734375,2.052734375,-6.1484375,-0.22265625,-0.54296875,1.0
4402617,,,,,,,,-3.6484375,12.83203125,-2.3203125,0.8984375,0.39453125,1.857421875,-5.8046875,3.72265625,0.53125,1.0
4402618,,,,,,,,-3.0859375,13.58203125,-2.16015625,0.72265625,0.53125,1.650390625,-5.421875,4.52734375,0.76171875,1.0
4402619,,,,,,,,-2.921875,13.625,-2.03125,0.6328125,0.609375,1.474609375,-5.34375,4.6015625,0.9140625,1.0
4402620,36.012696,129.31956933333333,87.38465718043996,32.84436767089193,3.3000000000000003,47.0,,-2.421875,11.9921875,-3.07421875,1.33984375,-0.232421875,3.01171875,-2.31640625,-12.59375,1.18359375,1.0
4402621,,,,,,,,-2.53515625,10.59765625,-2.67578125,0.431640625,0.533203125,-0.056640625,-5.15234375,1.65234375,0.33984375,1.0
4402622,,,,,,,,-2.07421875,8.24609375,-2.2109375,0.390625,0.478515625,-0.447265625,-4.6875,-0.68359375,0.8359375,1.0
4402623,,,,,,,,-1.234375,7.3359375,-2.76171875,0.30078125,0.48828125,-0.62109375,-3.81640625,-1.6015625,0.30078125,1.0
4402624,,,,,,,,0.56640625,6.68359375,-3.11328125,0.197265625,0.43359375,-0.802734375,-1.97265625,-2.25390625,-0.04296875,1.0
4402625,,,,,,,,2.6875,7.04296875,-3.0078125,0.173828125,0.28125,-0.99609375,0.2109375,-1.90625,0.0703125,1.0
4402626,,,,,,,,3.29296875,7.359375,-2.78515625,0.208984375,0.203125,-1.0625,0.86328125,-1.6015625,0.30078125,1.0
4402627,,,,,,,,4.0859375,8.24609375,-2.1484375,0.3203125,0.056640625,-1.216796875,1.7421875,-0.72265625,0.953125,1.0
4402628,,,,,,,,4.12109375,9.6796875,-0.49609375,0.41015625,-0.115234375,-1.3515625,1.89453125,0.6953125,2.6328125,1.0
4402629,,,,,,,,3.109375,10.65234375,0.60546875,0.427734375,-0.294921875,-1.322265625,1.015625,1.65234375,3.78125,1.0
4402630,36.01269783333333,129.31957233333333,87.65510285108043,33.04779563071893,3.1,50.0,,0.69140625,10.5,-0.3984375,1.33984375,-0.232421875,3.01171875,-2.31640625,-12.59375,1.18359375,1.0
4402631,,,,,,,,-0.64453125,9.37890625,-2.0703125,0.259765625,-0.90234375,-0.583984375,-2.47265625,0.38671875,1.21875,1.0
4402632,,,,,,,,-1.609375,8.26953125,-0.8984375,0.251953125,-0.9296875,-0.462890625,-3.390625,-0.72265625,2.40625,1.0
4402633,,,,,,,,0.51171875,1.6953125,-3.3359375,0.1328125,-0.458984375,-0.603515625,-1.12890625,-7.27734375,0.03125,1.0
4402634,,,,,,,,1.828125,-2.625,-4.109375,0.10546875,-0.2421875,-0.716796875,0.2109375,-11.6015625,-0.734375,1.0
4402635,,,,,,,,11.67578125,-41.890625,11.16796875,0.154296875,0.322265625,-1.416015625,10.20703125,-50.87109375,14.55078125,1.0
4402636,,,,,,,,10.41796875,-21.84765625,8.89453125,0.376953125,0.66796875,-1.25390625,9.05859375,-30.83203125,12.29296875,1.0
4402637,,,,,,,,7.63671875,-12.953125,3.8046875,0.404296875,1.376953125,-0.970703125,6.33984375,-21.9453125,7.234375,1.0
4402638,,,,,,,,-2.484375,-9.11328125,-0.0859375,-0.166015625,1.572265625,-1.56640625,-3.734375,-18.109375,3.328125,1.0
4402639,,,,,,,,-4.9140625,-11.01171875,-1.52734375,-0.28515625,0.029296875,-1.640625,-6.109375,-20.02734375,1.87109375,1.0
4402640,36.01269966666667,129.31957533333335,87.92554851032997,33.25122360009601,2.9000000000000004,51.0,,-3.578125,-14.73828125,0.57421875,-0.044921875,-3.732421875,-0.876953125,-4.578125,-23.78515625,3.98046875,1.0
4402641,,,,,,,,-0.2734375,-15.3125,1.56640625,0.123046875,-3.490234375,-1.333984375,-1.0546875,-24.359375,5.01171875,1.0
4402642,,,,,,,,0.93359375,-12.0078125,0.9375,-0.087890625,-1.951171875,-2.068359375,0.28515625,-21.06640625,4.3984375,1.0
4402643,,,,,,,,2.66015625,-8.58984375,1.55078125,-0.775390625,0.240234375,-2.875,2.27734375,-17.6875,4.97265625,1.0
4402644,,,,,,,,2.67578125,-8.16015625,1.171875,-0.92578125,0.283203125,-2.84375,2.39453125,-17.265625,4.5546875,1.0
4402645,,,,,,,,3.3828125,-7.2734375,-0.78125,-1.0390625,-0.3515625,-2.388671875,3.3515625,-16.4296875,2.5234375,1.0
4402646,,,,,,,,2.6640625,-4.4453125,-1.5,-1.3515625,-0.779296875,-2.529296875,3.0078125,-13.67578125,1.640625,1.0
4402647,,,,,,,,3.0234375,-0.98046875,-1.9375,-1.5078125,-0.51953125,-2.443359375,3.734375,-10.26171875,0.9921875,1.0
4402648,,,,,,,,3.46484375,2.8828125,-1.53125,-1.49609375,-0.33984375,-2.36328125,4.42578125,-6.43359375,1.2578125,1.0
4402649,,,,,,,,3.546875,3.54296875,-1.23046875,-1.474609375,-0.248046875,-2.306640625,4.6171875,-5.77734375,1.48828125,1.0
4402650,36.012701,129.31957766666667,88.1358952284889,33.3991713565091,2.9000000000000004,52.0,,2.63671875,5.78515625,-0.828125,-0.044921875,-3.732421875,-0.876953125,3.921875,-3.55859375,1.7578125,1.0
4402651,,,,,,,,1.34375,7.35546875,-0.3203125,-1.04296875,0.109375,-1.9140625,2.9296875,-1.98828125,2.1015625,1.0
4402652,,,,,,,,0.796875,9.34765625,-0.96484375,-0.947265625,0.083984375,-1.8046875,2.47265625,0.00390625,1.41015625,1.0
4402653,,,,,,,,1.0,12.68359375,-4.66796875,-0.830078125,-0.01171875,-1.625,2.8515625,3.3359375,-2.37890625,1.0
4402654,,,,,,,,0.66796875,13.47265625,-4.4140625,-0.763671875,-0.111328125,-1.66796875,2.66015625,4.14453125,-2.1875,1.0
4402655,,,,,,,,0.12109375,15.8671875,-3.6484375,-0.625,-0.138671875,-1.59765625,2.27734375,6.5546875,-1.5,1.0
4402656,,,,,,,,1.40625,11.9609375,-3.875,-0.322265625,0.337890625,-0.66796875,3.77734375,2.6875,-1.8046875,1.0
4402657,,,,,,,,2.0859375,9.5859375,-3.96875,-0.34375,0.376953125,-0.47265625,4.5,0.3125,-1.921875,1.0
4402658,,,,,,,,2.421875,6.88671875,-3.28515625,-0.349609375,0.53515625,-0.544921875,4.88671875,-2.37109375,-1.26953125,1.0
4402659,,,,,,,,2.21484375,6.3046875,-2.94140625,-0.36328125,0.72265625,-0.5703125,4.69140625,-2.9453125,-0.92578125,1.0
4402660,36.012702833333336,129.31958,88.34624138143363,33.60259873597583,3.2,50.0,,0.3359375,6.18359375,-1.58203125,-0.341796875,1.240234375,-0.51171875,2.8515625,-3.0546875,0.41796875,1.0
4402661,,,,,,,,-2.55859375,7.625,1.2890625,-0.345703125,1.671875,-0.28515625,-0.01953125,-1.6015625,3.29296875,1.0
4402662,,,,,,,,-4.44140625,8.8203125,2.69921875,-0.45703125,1.71875,0.244140625,-1.93359375,-0.4140625,4.70703125,1.0
4402663,,,,,,,,-5.1328125,9.4765625,2.546875,-0.560546875,1.548828125,0.67578125,-2.6640625,0.234375,4.5546875,1.0
4402664,,,,,,,,-5.92578125,12.09765625,-0.83984375,-0.712890625,0.244140625,1.705078125,-3.66015625,2.80078125,1.10546875,1.0
4402665,,,,,,,,-5.66015625,13.01953125,-2.01953125,-0.720703125,-0.951171875,1.54296875,-3.54296875,3.6796875,-0.16015625,1.0
4402666,,,,,,,,-5.03125,12.3984375,-2.78125,-0.5625,-1.716796875,1.2265625,-3.0078125,3.03125,-1.0,1.0
4402667,,,,,,,,-4.34765625,10.99609375,-2.62109375,-0.376953125,-1.87109375,0.98828125,-2.390625,1.61328125,-0.92578125,1.0
4402668,,,,,,,,-3.62109375,8.859375,-1.0546875,-0.291015625,-1.763671875,0.884765625,-1.70703125,-0.53125,0.609375,1.0
4402669,,,,,,,,-2.66796875,3.50390625,0.60546875,-0.18359375,-1.322265625,0.623046875,-0.78515625,-5.89453125,2.21484375,1.0
4402670,36.01270516666667,129.31958316666666,88.63171131649756,33.86150649614917,3.1,48.0,,-1.19140625,-17.02734375,6.30859375,-0.11328125,-0.6171875,0.216796875,0.66796875,-26.421875,7.88671875,1.0
4402671,,,,,,,,0.41015625,-39.0703125,11.80078125,-0.029296875,0.1484375,-0.34765625,2.27734375,-48.45703125,13.36328125,1.0
4402672,,,,,,,,-3.43359375,-55.7734375,19.5,0.013671875,0.482421875,-0.546875,-1.55078125,-65.15625,21.0625,1.0
4402673,,,,,,,,-4.0703125,-26.40625,18.7109375,0.06640625,1.126953125,-0.890625,-2.125,-35.77734375,20.296875,1.0
4402674,,,,,,,,0.1875,-7.4296875,1.46484375,0.265625,1.927734375,-0.9453125,2.203125,-16.77734375,3.09765625,1.0
4402675,,,,,,,,4.26953125,-7.55859375,-6.90234375,0.1328125,1.765625,0.08203125,6.30078125,-16.88671875,-5.21484375,1.0
4402676,,,,,,,,4.8984375,-9.54296875,-8.83203125,-0.01171875,0.525390625,1.51953125,6.875,-18.87890625,-7.12890625,1.0
4402677,,,,,,,,7.53125,-11.0390625,2.18359375,-0.099609375,-3.349609375,1.87890625,9.3671875,-20.41796875,3.86328125,1.0
4402678,,,,,,,,3.1328125,-14.140625,7.48046875,0.67578125,-2.083984375,1.47265625,4.84375,-23.55859375,9.11328125,1.0
4402679,,,,,,,,2.30859375,-13.08203125,5.1796875,0.439453125,0.79296875,2.501953125,3.84765625,-22.515625,6.8515625,1.0
4402680,36.01270716666667,129.31958633333335,88.91718161102045,34.083427853430656,3.2,49.0,,1.765625,-7.203125,-0.8515625,0.77734375,0.794921875,3.181640625,0.66796875,-26.421875,7.88671875,1.0
4402681,,,,,,,,-1.75,-3.47265625,-0.5234375,1.041015625,-0.171875,3.01171875,-0.9765625,-12.9765625,1.375,1.0
4402682,,,,,,,,-2.44140625,-3.01171875,0.015625,1.3984375,-0.40234375,3.09375,-1.93359375,-12.51953125,2.0234375,1.0
4402683,,,,,,,,-4.25390625,-0.453125,-0.24609375,1.69140625,-0.099609375,3.244140625,-4.04296875,-9.953125,1.91015625,1.0
4402684,,,,,,,,-5.52734375,2.1953125,-1.94140625,1.650390625,0.166015625,3.154296875,-5.61328125,-7.2734375,0.37890625,1.0
4402685,,,,,,,,-5.1796875,7.2421875,-2.21484375,1.330078125,0.177734375,2.71484375,-5.84375,-2.140625,0.37890625,1.0
4402686,,,,,,,,-4.82421875,7.91796875,-2.125,1.228515625,0.25390625,2.521484375,-5.609375,-1.44921875,0.53125,1.0
4402687,,,,,,,,-4.21484375,9.1640625,-2.11328125,1.029296875,0.53515625,2.05859375,-5.2265625,-0.1484375,0.64453125,1.0
4402688,,,,,,,,-3.10546875,10.703125,-1.84375,0.76953125,0.720703125,1.6015625,-4.30859375,1.421875,0.9921875,1.0
4402689,,,,,,,,-2.6015625,11.29296875,-2.15234375,0.65234375,0.720703125,1.388671875,-3.890625,2.03515625,0.72265625,1.0
4402690,36.01270916666667,129.31958833333334,89.09747780320649,34.30534815188418,3.3000000000000003,46.0,,-1.671875,12.640625,-2.8515625,0.5390625,0.6171875,0.994140625,-3.0859375,3.4140625,0.0703125,1.0
4402691,,,,,,,,-1.22265625,12.265625,-3.3125,0.47265625,0.404296875,0.7734375,-2.73828125,3.0703125,-0.3515625,1.0
4402692,,,,,,,,-1.56640625,8.9921875,-3.38671875,0.474609375,0.13671875,0.609375,-3.16015625,-0.1875,-0.38671875,1.0
4402693,,,,,,,,-1.89453125,7.9296875,-3.08203125,0.46875,-0.01953125,0.458984375,-3.5390625,-1.21875,-0.04296875,1.0
4402694,,,,,,,,-2.31640625,6.48828125,-2.01171875,0.396484375,0.015625,0.396484375,-4.00390625,-2.63671875,1.06640625,1.0
4402695,,,,,,,,-2.1171875,6.3203125,-1.66796875,0.330078125,0.298828125,0.333984375,-3.85546875,-2.7890625,1.44921875,1.0
4402696,,,,,,,,-1.38671875,6.984375,-1.4453125,0.21484375,0.5234375,0.185546875,-3.16015625,-2.1015625,1.6796875,1.0
4402697,,,,,,,,-0.28515625,9.61328125,-2.53125,0.228515625,0.392578125,0.087890625,-2.08984375,0.54296875,0.609375,1.0
4402698,,,,,,,,-0.23828125,10.484375,-2.77734375,0.3359375,0.009765625,-0.048828125,-2.05078125,1.421875,0.37890625,1.0
4402699,,,,,,,,0.28125,12.15625,-2.6640625,0.396484375,-0.4453125,-0.283203125,-1.515625,3.11328125,0.53125,1.0
4402700,36.01271133333333,129.3195918333333,89.41299761671975,34.54576303615951,3.5,49.0,0.0,0.85546875,12.29296875,-2.6484375,0.34375,-0.82421875,-0.50390625,-0.86328125,3.2578125,0.609375,1.0
4402701,,,,,,,,0.6171875,11.359375,-1.85546875,0.25,-0.91015625,-0.701171875,-1.015625,2.34765625,1.44921875,1.0
4402702,,,,,,,,-0.44140625,9.6328125,-0.16015625,0.21484375,-0.93359375,-0.904296875,-1.97265625,0.6171875,3.17578125,1.0
4402703,,,,,,,,-1.69921875,7.7578125,1.953125,0.17578125,-0.810546875,-1.03515625,-3.12109375,-1.2578125,5.3203125,1.0
4402704,,,,,,,,-0.859375,2.69921875,-0.4453125,0.126953125,-0.564453125,-1.177734375,-2.1640625,-6.31640625,2.9453125,1.0
4402705,,,,,,,,0.31640625,-15.91796875,0.79296875,0.119140625,0.041015625,-1.7734375,-0.78515625,-24.9296875,4.20703125,1.0
4402706,,,,,,,,8.1953125,-36.2890625,9.7109375,0.31640625,0.654296875,-2.12890625,7.2578125,-45.31640625,13.1328125,1.0
4402707,,,,,,,,17.41015625,-41.4609375,18.98828125,0.5625,1.408203125,-1.525390625,16.60546875,-50.48828125,22.44140625,1.0
4402708,,,,,,,,2.25390625,-15.11328125,1.26171875,0.298828125,1.794921875,-1.353515625,1.51171875,-24.12890625,4.74609375,1.0
4402709,,,,,,,,-2.328125,-9.734375,0.05859375,-0.630859375,1.576171875,-1.419921875,-3.0078125,-18.76953125,3.51953125,1.0
4402710,36.01271316666667,129.31959466666666,89.66841832372857,34.74919090682337,3.0,50.0,,-3.89453125,-9.15234375,-1.44140625,-0.326171875,-3.564453125,-0.908203125,-4.34765625,-18.2265625,1.94921875,1.0
4402711,,,,,,,,-0.77734375,-9.05859375,-1.12109375,-0.365234375,-4.109375,-0.96875,-1.12890625,-18.15234375,2.25390625,1.0
4402712,,,,,,,,3.984375,-11.48046875,1.81640625,-0.619140625,-1.794921875,-3.1875,4.078125,-20.6015625,5.12890625,1.0
4402713,,,,,,,,4.1953125,-10.7734375,1.87890625,-0.685546875,-0.646484375,-3.388671875,4.4609375,-19.9140625,5.16796875,1.0
4402714,,,,,,,,3.5859375,-8.7265625,0.375,-0.908203125,0.421875,-2.578125,4.1171875,-17.88671875,3.59375,1.0
4402715,,,,,,,,3.171875,-7.79296875,-1.0703125,-1.068359375,0.390625,-2.369140625,3.8125,-16.96484375,2.1015625,1.0
4402716,,,,,,,,2.87890625,-7.32421875,-1.484375,-1.251953125,0.1640625,-2.259765625,3.62109375,-16.5,1.640625,1.0
4402717,,,,,,,,2.375,-4.94140625,-0.921875,-1.357421875,-0.27734375,-2.341796875,3.4296875,-14.1640625,2.0234375,1.0
4402718,,,,,,,,2.2578125,-4.05078125,-0.62890625,-1.3359375,-0.1875,-2.44140625,3.4296875,-13.28515625,2.25390625,1.0
4402719,,,,,,,,1.359375,2.0625,-1.54296875,-1.119140625,0.2421875,-2.138671875,2.96875,-7.1953125,1.10546875,1.0
4402720,36.012714833333334,129.31959716666668,89.89378946868824,34.93412527028289,3.3000000000000003,52.0,,0.99609375,4.24609375,-2.30859375,-0.326171875,-3.564453125,-0.908203125,2.69921875,-5.0078125,0.30078125,1.0
4402721,,,,,,,,0.6640625,6.95703125,-2.40625,-0.8515625,-0.06640625,-1.689453125,2.625,-2.29296875,0.0703125,1.0
4402722,,,,,,,,0.4609375,10.2421875,-2.7890625,-0.78125,-0.09375,-1.677734375,2.5078125,1.0,-0.3515625,1.0
4402723,,,,,,,,-0.0390625,11.953125,-2.9609375,-0.5703125,0.08984375,-1.82421875,2.2421875,2.73046875,-0.6171875,1.0
4402724,,,,,,,,-0.546875,13.16015625,-2.9375,-0.51953125,0.15625,-1.8359375,1.8203125,3.94921875,-0.6171875,1.0
4402725,,,,,,,,-1.05078125,14.01171875,-2.859375,-0.421875,0.185546875,-1.689453125,1.47265625,4.828125,-0.578125,1.0
4402726,,,,,,,,-1.3984375,14.2109375,-3.59765625,-0.37109375,0.12109375,-1.482421875,1.28125,5.06640625,-1.34765625,1.0
4402727,,,,,,,,-0.69921875,13.0078125,-4.0390625,-0.392578125,0.068359375,-1.412109375,2.05078125,3.87890625,-1.8046875,1.0
4402728,,,,,,,,0.33203125,10.71484375,-4.8828125,-0.427734375,-0.107421875,-1.33203125,3.19921875,1.61328125,-2.6875,1.0
4402729,,,,,,,,0.95703125,9.55859375,-4.97265625,-0.509765625,-0.201171875,-1.28125,3.8828125,0.46484375,-2.80078125,1.0
4402730,36.01271666666666,129.31959983333334,90.13418528018447,35.1375529996607,3.5,51.0,,1.890625,6.29296875,-3.80078125,-0.69921875,-0.2109375,-1.2265625,5.0,-2.75390625,-1.73046875,1.0
4402731,,,,,,,,0.20703125,6.1875,-3.25390625,-0.5234375,0.306640625,-0.888671875,3.4609375,-2.828125,-1.26953125,1.0
4402732,,,,,,,,-2.10546875,7.234375,-1.57421875,-0.408203125,0.55078125,-0.369140625,1.20703125,-1.76171875,0.37890625,1.0
4402733,,,,,,,,-2.61328125,7.6953125,-1.0625,-0.392578125,0.53515625,-0.0625,0.70703125,-1.30078125,0.875,1.0
