time,latitude,longitude,enu_x,enu_y,speed,course,ecg,accX,accY,accZ,gyrX,gyrY,gyrZ,eulR,eulP,eulY,validity
4540790,36.01255033333334,129.3193435,67.02607856182529,16.681126898124358,3.1,50.0,,-1.20703125,-19.41796875,5.41015625,0.640625,-0.181640625,1.58984375,-2.70703125,-10.54296875,3.24609375,1.0
4540791,,,,,,,,0.9609375,-14.30859375,1.48828125,-0.416015625,-0.28515625,-3.662109375,2.8125,-16.32421875,4.39453125,1.0
4540792,,,,,,,,2.375,-12.546875,-0.0234375,-0.81640625,0.955078125,-2.9375,4.265625,-14.5625,2.8984375,1.0
4540793,,,,,,,,2.8359375,-12.30078125,-0.375,-0.990234375,0.9296875,-2.333984375,4.7265625,-14.328125,2.5546875,1.0
4540794,,,,,,,,2.7734375,-11.1796875,-0.91015625,-1.45703125,0.21484375,-2.01171875,4.6875,-13.2578125,2.01953125,1.0
4540795,,,,,,,,1.9296875,-9.5078125,-0.6484375,-1.880859375,-0.34375,-2.130859375,3.8828125,-11.6484375,2.25,1.0
4540796,,,,,,,,0.92578125,-5.96875,0.4921875,-2.001953125,-0.29296875,-2.11328125,2.92578125,-8.16796875,3.359375,1.0
4540797,,,,,,,,0.3125,-2.87890625,0.2265625,-2.005859375,0.083984375,-2.0546875,2.3515625,-5.1328125,3.0546875,1.0
4540798,,,,,,,,0.296875,-1.9296875,-0.140625,-1.896484375,0.2890625,-2.025390625,2.3515625,-4.22265625,2.671875,1.0
4540799,,,,,,,,0.296875,0.46484375,-1.7578125,-1.5625,0.701171875,-1.720703125,2.390625,-1.91796875,1.0234375,1.0
4540800,36.012552166666666,129.31934633333333,67.2815003020252,16.88455411008336,3.2,51.0,0.0,0.30859375,2.43359375,-2.859375,0.640625,-0.181640625,1.58984375,-2.70703125,-10.54296875,3.24609375,1.0
4540801,,,,,,,,0.2421875,3.890625,-3.19140625,-1.0546875,0.06640625,-1.8828125,2.390625,1.7578125,-0.43359375,1.0
4540802,,,,,,,,0.046875,4.6484375,-3.1953125,-0.919921875,-0.341796875,-1.78125,1.77734375,2.6015625,-0.890625,1.0
4540803,,,,,,,,-0.41796875,5.25390625,-3.6796875,-0.830078125,-0.548828125,-1.556640625,2.0078125,2.7109375,-1.12109375,1.0
4540804,,,,,,,,0.0546875,5.28515625,-3.91796875,-0.751953125,-0.595703125,-1.302734375,2.3515625,2.7109375,-1.23828125,1.0
4540805,,,,,,,,0.54296875,4.58984375,-4.19140625,-0.666015625,-0.583984375,-1.26953125,3.4609375,1.48828125,-2.00390625,1.0
4540806,,,,,,,,2.296875,2.0546875,-5.38671875,-0.626953125,-0.578125,-1.41015625,4.6875,-0.578125,-2.76953125,1.0
4540807,,,,,,,,3.390625,0.0078125,-5.5078125,-0.634765625,-0.533203125,-1.53515625,5.83984375,-2.6484375,-2.921875,1.0
4540808,,,,,,,,2.984375,-0.86328125,-4.296875,-0.623046875,-0.48046875,-1.619140625,5.4921875,-3.52734375,-1.734375,1.0
4540809,,,,,,,,1.62890625,-0.234375,-3.4609375,-0.6796875,-0.3046875,-1.43359375,4.19140625,-2.9140625,-0.9296875,1.0
4540810,36.0125545,129.319349,67.52189670412773,17.143460832317555,3.6,47.0,,0.30859375,2.43359375,-2.859375,-0.63671875,-0.001953125,-0.712890625,-2.70703125,-10.54296875,3.24609375,1.0
4540811,,,,,,,,-3.15625,4.5703125,-2.2265625,-0.451171875,0.2109375,0.14453125,-0.5234375,1.8359375,0.2578125,1.0
4540812,,,,,,,,-4.765625,6.9140625,-1.875,-0.341796875,0.130859375,0.892578125,-2.1328125,4.13671875,0.6015625,1.0
4540813,,,,,,,,-5.19921875,7.48046875,-1.58984375,-0.30078125,0.01953125,1.19921875,-2.58984375,4.625,0.87109375,1.0
4540814,,,,,,,,-6.08203125,7.17578125,-0.12890625,-0.23046875,-0.2578125,1.794921875,-3.51171875,4.2421875,2.32421875,1.0
4540815,,,,,,,,-10.23828125,-3.76953125,7.93359375,-0.134765625,-0.501953125,2.37109375,-7.72265625,-6.78515625,10.37109375,1.0
4540816,,,,,,,,-10.13671875,-19.44921875,17.45703125,-0.0390625,-0.646484375,2.765625,-7.68359375,-22.56640625,19.87109375,1.0
4540817,,,,,,,,-0.98046875,-48.26953125,24.2890625,0.037109375,-0.61328125,2.748046875,1.39453125,-51.48828125,26.6875,1.0
4540818,,,,,,,,-3.40234375,-51.1640625,19.39453125,0.099609375,-0.359375,2.125,-1.09765625,-54.4765625,21.78515625,1.0
4540819,,,,,,,,-1.9296875,-10.91015625,4.984375,0.037109375,0.509765625,0.6328125,0.3203125,-14.29296875,7.3828125,1.0
4540820,36.012556499999995,129.31935149999998,67.74726847980457,17.36538103444713,3.5,45.0,,0.31640625,-7.67578125,-1.84375,-0.63671875,-0.001953125,-0.712890625,2.54296875,-11.07421875,0.6015625,1.0
4540821,,,,,,,,0.1171875,-13.75390625,2.796875,0.455078125,2.49609375,-1.447265625,2.3515625,-17.125,5.3515625,1.0
4540822,,,,,,,,1.16796875,-18.9765625,8.265625,1.021484375,-1.83203125,1.287109375,3.38671875,-22.375,10.8671875,1.0
4540823,,,,,,,,3.52734375,-20.90625,6.8515625,0.412109375,-3.54296875,2.041015625,5.76171875,-24.3671875,9.4140625,1.0
4540824,,,,,,,,3.1953125,-16.4609375,2.9375,0.583984375,-0.85546875,2.166015625,5.4140625,-20.00390625,5.46875,1.0
4540825,,,,,,,,0.9140625,-12.67578125,0.98046875,0.6328125,1.82421875,2.015625,3.0390625,-16.28515625,3.55078125,1.0
4540826,,,,,,,,0.09765625,-11.91796875,0.484375,0.724609375,1.96484375,2.12890625,2.16015625,-15.55859375,3.09375,1.0
4540827,,,,,,,,-1.9609375,-9.5078125,-0.4609375,1.26953125,0.73828125,2.787109375,-0.1015625,-13.26171875,2.25,1.0
4540828,,,,,,,,-2.59375,-7.46875,-0.42578125,1.720703125,0.216796875,2.96875,-0.8671875,-11.265625,2.36328125,1.0
4540829,,,,,,,,-2.96484375,-6.3125,-0.65625,1.92578125,0.265625,2.900390625,-1.36328125,-10.16015625,2.2109375,1.0
4540830,36.012558166666665,129.319354,67.97264053218198,17.55031483125993,3.3000000000000003,47.0,,-3.484375,-4.06640625,-1.046875,2.11328125,0.455078125,2.72265625,-2.015625,-7.93359375,1.90625,1.0
4540831,,,,,,,,-4.0859375,-2.09765625,-1.12109375,2.205078125,0.642578125,2.564453125,-2.7421875,-5.9765625,1.94140625,1.0
4540832,,,,,,,,-4.8828125,1.04296875,-1.453125,2.162109375,0.716796875,2.37109375,-3.66796875,-2.83984375,1.7109375,1.0
4540833,,,,,,,,-5.68359375,5.02734375,-2.01171875,1.787109375,0.552734375,2.3046875,-4.65625,1.14453125,1.29296875,1.0
4540834,,,,,,,,-5.6796875,5.984375,-2.24609375,1.52734375,0.34375,2.25390625,-4.7734375,2.1015625,1.13671875,1.0
4540835,,,,,,,,-5.03515625,7.91015625,-3.49609375,1.234375,0.11328125,2.060546875,-4.23828125,4.01953125,-0.05078125,1.0
4540836,,,,,,,,-4.7578125,8.0703125,-3.9921875,1.099609375,0.013671875,1.943359375,-4.0078125,4.17578125,-0.5078125,1.0
4540837,,,,,,,,-4.55859375,7.76171875,-5.3359375,0.876953125,-0.134765625,1.703125,-3.89453125,3.86328125,-1.8125,1.0
4540838,,,,,,,,-4.32421875,6.40625,-6.0625,0.69921875,-0.294921875,1.376953125,-3.734375,2.484375,-2.5,1.0
4540839,,,,,,,,-4.31640625,2.9296875,-5.55859375,0.576171875,-0.421875,0.994140625,-3.77734375,-1.0,-1.96484375,1.0
4540840,36.01256033333333,129.3193566666667,68.21303704174558,17.79072836737357,3.4000000000000004,47.0,,-4.40234375,0.67578125,-5.08984375,0.583984375,-0.326171875,0.642578125,-2.015625,-7.93359375,1.90625,1.0
4540841,,,,,,,,-2.73046875,-0.6484375,-4.9375,0.525390625,0.271484375,0.1953125,-2.28515625,-4.60546875,-1.2734375,1.0
4540842,,,,,,,,-0.27734375,1.3125,-4.359375,0.404296875,0.802734375,-0.05859375,0.12890625,-2.6484375,-0.6640625,1.0
4540843,,,,,,,,0.2734375,2.0859375,-4.1796875,0.33203125,1.01953125,-0.193359375,0.6640625,-1.8828125,-0.46875,1.0
4540844,,,,,,,,1.08984375,3.62890625,-3.8125,0.166015625,1.146484375,-0.46484375,1.4296875,-0.34765625,-0.0859375,1.0
4540845,,,,,,,,1.15625,5.90234375,-3.484375,0.130859375,0.884765625,-0.705078125,1.46875,1.90625,0.2578125,1.0
4540846,,,,,,,,0.484375,7.34375,-2.6953125,0.224609375,0.34765625,-0.7421875,0.78125,3.328125,1.0625,1.0
4540847,,,,,,,,-0.828125,7.11328125,-2.13671875,0.314453125,-0.54296875,-0.544921875,-1.05859375,2.7109375,1.90625,1.0
4540848,,,,,,,,-1.37109375,6.74609375,-1.875,0.291015625,-0.787109375,-0.484375,-1.82421875,2.1796875,2.21484375,1.0
4540849,,,,,,,,-3.01171875,5.7109375,-1.04296875,0.220703125,-1.08203125,-0.32421875,-3.6640625,1.18359375,3.8203125,1.0
4540850,36.01256216666666,129.31935933333335,68.45343382489787,17.994155498961177,3.4000000000000004,48.0,,-4.40234375,0.67578125,-5.08984375,0.115234375,-1.087890625,-0.087890625,-2.015625,-7.93359375,1.90625,1.0
4540851,,,,,,,,-7.06640625,-2.00390625,7.25390625,0.06640625,-0.93359375,0.0625,-4.92578125,-9.54296875,7.84375,1.0
4540852,,,,,,,,6.328125,-22.90234375,3.72265625,0.001953125,-0.654296875,0.07421875,6.7578125,-26.96875,7.53515625,1.0
4540853,,,,,,,,13.7109375,-44.66796875,11.57421875,-0.0703125,-0.22265625,-0.15234375,15.375,-60.83984375,24.6953125,1.0
4540854,,,,,,,,9.30859375,-40.69921875,22.875,-0.06640625,0.41796875,-1.634765625,6.71875,-30.1484375,20.13671875,1.0
4540855,,,,,,,,3.484375,-17.4609375,9.109375,-0.00390625,0.970703125,-2.419921875,-0.67578125,-14.67578125,6.00390625,1.0
4540856,,,,,,,,-1.18359375,-10.51953125,2.16796875,-0.185546875,1.095703125,-1.95703125,-0.29296875,-17.12890625,3.12890625,1.0
4540857,,,,,,,,-0.33984375,-15.90625,-1.59375,-0.607421875,0.94921875,0.3203125,-1.74609375,-20.73046875,4.47265625,1.0
4540858,,,,,,,,-2.59375,-16.125,2.8203125,-0.607421875,-1.41015625,-1.080078125,-1.6328125,-20.921875,8.875,1.0
4540859,,,,,,,,-0.04296875,-15.6484375,3.8828125,-0.140625,-3.994140625,-1.615234375,0.51171875,-19.96484375,7.6875,1.0
4540860,36.01256383333334,129.31936216666665,68.70885563569293,18.179089549665942,3.3000000000000003,49.0,,1.5078125,-12.74609375,1.07421875,-0.455078125,-1.869140625,-2.46484375,2.2734375,-17.0859375,4.85546875,1.0
4540861,,,,,,,,1.734375,-10.4921875,-1.43359375,-0.90625,0.044921875,-2.5,2.65625,-14.8671875,2.32421875,1.0
4540862,,,,,,,,1.44140625,-10.62890625,-1.171875,-1.39453125,0.291015625,-2.37109375,2.46484375,-15.0546875,2.5546875,1.0
4540863,,,,,,,,1.35546875,-10.56640625,-0.87890625,-1.4609375,0.033203125,-2.36328125,2.42578125,-15.01953125,2.82421875,1.0
4540864,,,,,,,,0.82421875,-8.05078125,-0.02734375,-1.609375,-0.3828125,-2.333984375,2.04296875,-12.60546875,3.58984375,1.0
4540865,,,,,,,,0.86328125,-5.23828125,-0.6484375,-1.671875,-0.181640625,-2.388671875,2.19921875,-9.84375,2.8984375,1.0
4540866,,,,,,,,1.44921875,-2.296875,-2.1484375,-1.771484375,0.35546875,-2.28125,2.88671875,-6.98046875,1.328125,1.0
4540867,,,,,,,,2.24609375,0.82421875,-2.71875,-1.80859375,0.56640625,-2.10546875,3.80859375,-3.94921875,0.640625,1.0
4540868,,,,,,,,2.359375,2.01171875,-2.6875,-1.771484375,0.462890625,-2.060546875,3.96484375,-2.80078125,0.640625,1.0
4540869,,,,,,,,2.6484375,4.86328125,-2.92578125,-1.609375,0.138671875,-2.0,4.34375,-0.00390625,0.33203125,1.0
4540870,36.01256583333333,129.31936499999998,68.96427714765753,18.40101001829799,3.4000000000000004,50.0,,2.1796875,5.8671875,-2.9609375,-0.455078125,-1.869140625,-2.46484375,2.2734375,-17.0859375,4.85546875,1.0
4540871,,,,,,,,1.203125,7.1015625,-3.39453125,-1.201171875,-0.166015625,-1.71875,3.08203125,2.140625,-0.27734375,1.0
4540872,,,,,,,,0.4296875,8.0078125,-4.40625,-1.005859375,-0.236328125,-1.373046875,2.390625,3.02734375,-1.3515625,1.0
4540873,,,,,,,,0.43359375,8.08203125,-4.859375,-0.8203125,-0.244140625,-1.001953125,2.46484375,3.05859375,-1.8515625,1.0
4540874,,,,,,,,1.4921875,6.7734375,-5.73046875,-0.705078125,-0.255859375,-0.794921875,3.58203125,1.71875,-2.76953125,1.0
4540875,,,,,,,,2.625,5.3515625,-5.8046875,-0.65625,-0.22265625,-0.8125,4.765625,0.265625,-2.8828125,1.0
4540876,,,,,,,,3.25,4.0625,-5.63671875,-0.642578125,-0.1953125,-0.83984375,5.4140625,-1.0390625,-2.73046875,1.0
4540877,,,,,,,,2.62109375,3.85546875,-4.87109375,-0.609375,-0.08984375,-0.908203125,4.8359375,-1.26953125,-2.00390625,1.0
4540878,,,,,,,,0.15234375,4.484375,-3.4140625,-0.501953125,0.00390625,-0.837890625,2.421875,-0.65625,-0.5859375,1.0
4540879,,,,,,,,-2.54296875,5.28125,-1.8125,-0.298828125,0.134765625,-0.4453125,-0.21484375,0.109375,0.984375,1.0
4540880,36.012568,129.31936783333333,69.21969850354392,18.641423699353734,3.6,48.0,,-5.34765625,6.73046875,0.83984375,-0.455078125,-1.869140625,-2.46484375,2.2734375,-17.0859375,4.85546875,1.0
4540881,,,,,,,,-6.625,7.765625,2.28125,-0.380859375,-0.0078125,0.6953125,-4.3125,2.5234375,5.05078125,1.0
4540882,,,,,,,,-4.90234375,8.73828125,-0.0625,-0.5,-0.16796875,1.16796875,-2.62890625,3.44140625,2.671875,1.0
4540883,,,,,,,,-3.0,8.609375,-1.2578125,-0.529296875,-0.328125,1.470703125,-0.7890625,3.25390625,1.4453125,1.0
4540884,,,,,,,,-2.171875,7.640625,-1.06640625,-0.525390625,-0.494140625,1.208984375,-0.0234375,2.21875,1.59765625,1.0
4540885,,,,,,,,-0.80078125,2.1640625,-0.67578125,-0.51953125,-0.767578125,0.33203125,1.31640625,-3.30078125,1.94140625,1.0
4540886,,,,,,,,-0.578125,-1.421875,-1.41796875,-0.4609375,-0.853515625,0.080078125,1.546875,-6.90234375,1.17578125,1.0
4540887,,,,,,,,-2.5546875,-13.57421875,3.3046875,-0.294921875,-0.837890625,0.0078125,-0.40625,-19.078125,5.8515625,1.0
4540888,,,,,,,,-12.0703125,-50.6328125,21.4140625,-0.1796875,-0.603515625,0.16015625,-9.90625,-56.1640625,23.9296875,1.0
4540889,,,,,,,,-10.453125,-49.52734375,23.73046875,-0.107421875,-0.046875,0.34375,-8.296875,-55.08984375,26.23046875,1.0
4540890,36.01257016666667,129.3193705,69.46009494756196,18.881837270802148,3.5,46.0,,2.2109375,-12.62109375,9.45703125,-0.455078125,-1.869140625,-2.46484375,4.3046875,-18.234375,11.98046875,1.0
4540891,,,,,,,,3.66015625,-11.85546875,-3.02734375,0.400390625,2.478515625,-0.908203125,5.64453125,-17.5078125,-0.43359375,1.0
4540892,,,,,,,,6.34375,-17.02734375,6.05859375,0.28515625,1.626953125,-0.544921875,8.328125,-22.68359375,8.72265625,1.0
4540893,,,,,,,,4.34375,-19.0703125,9.62109375,0.37890625,-3.291015625,1.05078125,6.3359375,-24.75,12.28515625,1.0
4540894,,,,,,,,0.3671875,-16.83203125,4.14453125,0.267578125,-2.970703125,2.388671875,2.3515625,-22.56640625,6.76953125,1.0
4540895,,,,,,,,-1.41015625,-13.4296875,1.078125,0.625,0.19921875,2.23828125,0.47265625,-19.234375,3.703125,1.0
4540896,,,,,,,,-2.71484375,-9.28515625,0.17578125,0.96484375,1.369140625,2.279296875,-0.98046875,-15.1328125,2.86328125,1.0
4540897,,,,,,,,-2.62109375,-7.59765625,0.703125,1.2109375,0.6953125,2.484375,-1.05859375,-13.48828125,3.4765625,1.0
4540898,,,,,,,,-2.92578125,-6.37890625,0.64453125,1.552734375,-0.115234375,2.482421875,-1.51953125,-12.30078125,3.51171875,1.0
4540899,,,,,,,,-4.21484375,-3.52734375,-0.60546875,1.73046875,-0.017578125,2.76171875,-2.97265625,-9.46484375,2.36328125,1.0
4540900,36.01257216666667,129.31937299999998,69.685466629144,19.103757523614387,3.3000000000000003,47.0,0.0,-4.1953125,-1.71875,-1.16015625,1.896484375,0.529296875,2.546875,-3.3203125,-5.7109375,1.67578125,1.0
4540901,,,,,,,,-4.40234375,1.2578125,-1.63671875,1.8828125,0.57421875,2.4375,-3.51171875,-4.6796875,1.55859375,1.0
4540902,,,,,,,,-4.55078125,3.28125,-1.76171875,1.763671875,0.5703125,2.29296875,-3.8125,-2.6484375,1.55859375,1.0
4540903,,,,,,,,-4.6484375,5.18359375,-1.74609375,1.7109375,0.56640625,2.224609375,-4.01171875,-0.73046875,1.63671875,1.0
4540904,,,,,,,,-4.66015625,6.69140625,-1.89453125,1.494140625,0.552734375,2.0546875,-4.234375,0.80078125,1.63671875,1.0
4540905,,,,,,,,-4.7734375,8.13671875,-2.1328125,1.416015625,0.53515625,2.025390625,-4.4296875,2.25390625,1.4453125,1.0
4540906,,,,,,,,-4.6171875,8.0546875,-2.296875,1.33984375,0.4765625,2.009765625,-4.35546875,2.1796875,1.328125,1.0
4540907,,,,,,,,-3.34375,8.59765625,-4.51171875,1.0078125,0.14453125,1.94140625,-3.28515625,2.75390625,-0.77734375,1.0
4540908,,,,,,,,-3.2421875,8.51953125,-5.00390625,0.888671875,0.013671875,1.84765625,-3.2421875,2.67578125,-1.23828125,1.0
4540909,,,,,,,,-2.48046875,6.8203125,-5.74609375,0.697265625,-0.2109375,1.5703125,-2.5859375,0.9921875,-1.92578125,1.0
4540910,36.01257433333333,129.3193758333333,69.940887941975,19.344171225337572,3.6,47.0,,-2.140625,5.47265625,-5.76171875,0.5,-0.345703125,0.873046875,-2.36328125,-0.34765625,-1.88671875,1.0
4540911,,,,,,,,-2.1015625,3.73828125,-5.1875,0.501953125,-0.212890625,0.306640625,-2.359375,-2.07421875,-1.2734375,1.0
4540912,,,,,,,,-2.25,3.546875,-4.64453125,0.431640625,0.048828125,-0.134765625,-2.515625,-2.265625,-0.69921875,1.0
4540913,,,,,,,,-1.8203125,4.7421875,-3.75,0.302734375,0.318359375,-0.291015625,-2.09765625,-1.078125,0.21875,1.0
4540914,,,,,,,,-1.07421875,7.08203125,-2.9609375,0.234375,0.478515625,-0.23828125,-1.36328125,1.26171875,1.0234375,1.0
4540915,,,,,,,,0.71875,8.92578125,-2.640625,0.25390625,0.37109375,-0.10546875,0.3984375,3.09765625,1.3671875,1.0
4540916,,,,,,,,0.91796875,9.078125,-2.73046875,0.34375,0.05859375,-0.20703125,0.58984375,3.25390625,1.29296875,1.0
4540917,,,,,,,,0.48828125,7.76953125,-3.484375,0.40234375,-0.30078125,-0.384765625,0.16796875,1.9453125,0.5625,1.0
4540918,,,,,,,,0.07421875,6.66015625,-3.5546875,0.375,-0.58984375,-0.54296875,-0.21484375,0.8359375,0.5234375,1.0
4540919,,,,,,,,-1.16015625,4.20703125,-2.6484375,0.35546875,-0.728515625,-0.41015625,-1.40234375,-1.609375,1.4453125,1.0
4540920,36.01257616666667,129.31937866666667,70.19630953933597,19.54759852534764,3.5,48.0,,-3.19140625,1.5546875,1.04296875,0.5,-0.345703125,0.873046875,-2.36328125,-0.34765625,-1.88671875,1.0
4540921,,,,,,,,-3.140625,-5.4609375,1.13671875,0.33203125,-0.54296875,-0.154296875,-3.3203125,-11.26953125,5.27734375,1.0
4540922,,,,,,,,2.20703125,-15.61328125,2.64453125,0.302734375,-0.30078125,-0.23828125,2.04296875,-21.41796875,6.80859375,1.0
4540923,,,,,,,,6.7578125,-24.26953125,5.1640625,0.2734375,-0.212890625,-0.271484375,6.6015625,-30.07421875,9.3359375,1.0
4540924,,,,,,,,13.1796875,-41.09375,13.76953125,0.228515625,-0.0859375,-0.375,13.0390625,-46.890625,17.95703125,1.0
4540925,,,,,,,,6.7890625,-33.80078125,20.9140625,0.205078125,0.16015625,-1.107421875,6.6796875,-39.609375,25.1171875,1.0
4540926,,,,,,,,-1.40234375,-9.4296875,5.76953125,0.1640625,0.498046875,-1.92578125,-1.44140625,-15.25,9.98828125,1.0
4540927,,,,,,,,-2.21484375,-10.44140625,-1.48046875,-0.19140625,0.919921875,-0.75,-2.20703125,-16.28125,2.74609375,1.0
4540928,,,,,,,,-0.140625,-16.70703125,-1.39453125,-0.3984375,1.341796875,-0.01953125,-0.140625,-22.56640625,2.82421875,1.0
4540929,,,,,,,,0.0859375,-17.80859375,4.07421875,-0.640625,1.076171875,-0.21875,0.015625,-23.71484375,8.26171875,1.0
4540930,36.01257816666667,129.3193815,70.45173097629572,19.7695190376032,3.5,48.0,,0.94921875,-17.15234375,5.1328125,0.5,-0.345703125,0.873046875,0.93359375,-23.1015625,9.296875,1.0
4540931,,,,,,,,1.83984375,-14.24609375,3.00390625,-0.171875,-3.19921875,-1.9609375,2.04296875,-20.2265625,7.15234375,1.0
4540932,,,,,,,,3.4453125,-9.14453125,-0.02734375,-0.740234375,0.13671875,-2.97265625,3.9609375,-15.171875,4.08984375,1.0
4540933,,,,,,,,4.31640625,-6.8671875,-1.96484375,-1.140625,0.162109375,-2.740234375,4.99609375,-12.95703125,2.09765625,1.0
4540934,,,,,,,,3.875,-6.16015625,-1.734375,-1.474609375,-0.44921875,-2.546875,4.7265625,-12.30078125,2.25,1.0
4540935,,,,,,,,2.9375,-4.3359375,-0.25390625,-1.66015625,-0.7421875,-2.42578125,3.9609375,-10.54296875,3.62890625,1.0
4540936,,,,,,,,2.6484375,-2.55078125,-0.23046875,-1.6875,-0.486328125,-2.509765625,3.84375,-8.81640625,3.55078125,1.0
4540937,,,,,,,,2.60546875,1.13671875,-0.9375,-1.796875,0.30859375,-2.01953125,4.03515625,-5.21484375,2.671875,1.0
4540938,,,,,,,,2.12109375,5.14453125,-2.9921875,-1.80078125,0.55859375,-1.65234375,3.65234375,-1.26953125,0.5234375,1.0
4540939,,,,,,,,1.5703125,6.703125,-4.0625,-1.681640625,0.46875,-1.5703125,3.1953125,0.2265625,-0.6640625,1.0
4540940,36.01258033333333,129.3193845,70.72217714583162,20.00993288338949,3.5,50.0,,0.984375,7.90625,-4.16015625,0.5,-0.345703125,0.873046875,2.6953125,1.375,-0.85546875,1.0
4540941,,,,,,,,0.84375,8.28125,-4.1171875,-1.2734375,0.083984375,-1.576171875,2.66015625,1.71875,-0.890625,1.0
4540942,,,,,,,,0.60546875,8.44921875,-4.0703125,-1.19140625,-0.04296875,-1.498046875,2.46484375,1.87109375,-0.890625,1.0
4540943,,,,,,,,0.19921875,9.5625,-4.69140625,-0.921875,-0.392578125,-1.015625,2.19921875,2.9453125,-1.62109375,1.0
4540944,,,,,,,,0.16015625,9.80859375,-5.00390625,-0.859375,-0.44921875,-0.890625,2.19921875,3.171875,-1.96484375,1.0
4540945,,,,,,,,0.49609375,8.4140625,-5.9609375,-0.728515625,-0.494140625,-0.923828125,2.62109375,1.7578125,-3.0,1.0
4540946,,,,,,,,1.09765625,6.27734375,-5.8515625,-0.603515625,-0.4375,-1.30078125,3.34765625,-0.38671875,-2.9609375,1.0
4540947,,,,,,,,0.40625,3.640625,-4.1796875,-0.623046875,-0.37890625,-1.4453125,2.7734375,-3.03125,-1.3515625,1.0
4540948,,,,,,,,-1.3828125,4.0625,-2.41015625,-0.708984375,-0.15625,-0.9765625,1.125,-2.61328125,0.33203125,1.0
4540949,,,,,,,,-1.875,4.875,-2.078125,-0.728515625,-0.03125,-0.66796875,0.6640625,-1.8046875,0.640625,1.0
4540950,36.0125825,129.31938733333334,70.97759840425054,20.250346617083174,3.6,48.0,,-3.23046875,8.26953125,-1.76171875,0.5,-0.345703125,0.873046875,-0.67578125,1.5625,0.91015625,1.0
4540951,,,,,,,,-3.91015625,10.4765625,-1.2421875,-0.640625,0.443359375,1.2421875,-1.44140625,3.71484375,1.3671875,1.0
4540952,,,,,,,,-4.19921875,10.578125,-0.4375,-0.615234375,0.208984375,1.478515625,-1.82421875,3.75390625,2.1328125,1.0
4540953,,,,,,,,-4.453125,9.98828125,0.23046875,-0.544921875,0.04296875,1.494140625,-2.1328125,3.1328125,2.78515625,1.0
4540954,,,,,,,,-6.00390625,3.4140625,4.40625,-0.283203125,-0.291015625,1.505859375,-3.77734375,-3.4921875,6.92578125,1.0
4540955,,,,,,,,-7.98046875,-7.453125,12.09375,-0.03515625,-0.478515625,1.546875,-5.84765625,-14.40625,14.5859375,1.0
4540956,,,,,,,,0.58203125,-42.12109375,19.80859375,0.109375,-0.560546875,1.46484375,2.62109375,-49.11328125,22.28515625,1.0
4540957,,,,,,,,-8.56640625,-27.51171875,9.37890625,0.146484375,-0.25,0.978515625,-6.65234375,-34.55859375,11.86328125,1.0
4540958,,,,,,,,-4.671875,-12.87109375,8.19140625,0.138671875,0.240234375,0.55078125,-2.78125,-19.921875,10.67578125,1.0
4540959,,,,,,,,4.58984375,-7.98828125,-0.44921875,-0.19140625,2.2734375,-0.86328125,6.44921875,-15.0546875,2.05859375,1.0
4540960,36.0125845,129.31939,71.21799490576767,20.47226703102788,3.5,46.0,,3.5859375,-11.12890625,3.73046875,-0.107421875,2.1875,-1.654296875,5.4921875,-18.19921875,6.26953125,1.0
4540961,,,,,,,,3.0859375,-17.11328125,7.77734375,1.10546875,-1.60546875,0.36328125,5.03125,-24.171875,10.37109375,1.0
4540962,,,,,,,,2.51171875,-18.70703125,8.53515625,0.48046875,-2.978515625,1.37109375,4.45703125,-25.78515625,11.13671875,1.0
4540963,,,,,,,,0.72265625,-12.0390625,3.87109375,0.396484375,-1.6875,1.83203125,2.62109375,-19.16015625,6.46484375,1.0
4540964,,,,,,,,0.1015625,-8.546875,1.671875,0.46875,0.759765625,2.6015625,1.8515625,-15.71484375,4.28125,1.0
4540965,,,,,,,,-1.6484375,-5.6171875,-0.046875,0.615234375,1.3671875,3.064453125,-0.140625,-12.8359375,2.6328125,1.0
4540966,,,,,,,,-2.4609375,-4.5,-0.30859375,1.130859375,0.83203125,3.134765625,-1.2109375,-11.76953125,2.44140625,1.0
4540967,,,,,,,,-3.0390625,-3.265625,-0.76953125,1.564453125,0.16796875,2.91015625,-2.015625,-10.54296875,2.09765625,1.0
4540968,,,,,,,,-3.47265625,-2.0390625,-0.8671875,1.884765625,0.224609375,2.94921875,-2.66796875,-9.3125,2.1328125,1.0
4540969,,,,,,,,-3.7734375,-0.37109375,-1.4375,2.1171875,0.640625,2.91796875,-3.203125,-7.625,1.7109375,1.0
4540970,36.0125865,129.31939300000002,71.48844118263425,20.694187694854225,3.5,47.0,,-4.19921875,2.84765625,-2.2890625,2.189453125,1.009765625,2.548828125,-3.85546875,-4.3671875,1.0234375,1.0
4540971,,,,,,,,-4.234375,6.30078125,-2.79296875,1.94921875,1.23046875,2.103515625,-4.3125,-0.80859375,0.83203125,1.0
4540972,,,,,,,,-3.88671875,8.015625,-3.26953125,1.658203125,1.0625,2.056640625,-4.15625,0.953125,0.48828125,1.0
4540973,,,,,,,,-3.91015625,8.4921875,-3.47265625,1.49609375,0.921875,2.03125,-4.2734375,1.453125,0.33203125,1.0
4540974,,,,,,,,-3.4609375,8.21484375,-4.1484375,1.234375,0.5859375,1.916015625,-4.0078125,1.22265625,-0.2421875,1.0
4540975,,,,,,,,-2.9609375,6.44140625,-4.68359375,0.9609375,0.255859375,1.744140625,-3.6640625,-0.50390625,-0.69921875,1.0
4540976,,,,,,,,-2.64453125,5.453125,-4.9375,0.775390625,-0.03515625,1.478515625,-3.47265625,-1.4609375,-0.890625,1.0
4540977,,,,,,,,-2.3671875,4.5859375,-4.87890625,0.6796875,-0.25,1.255859375,-3.28515625,-2.3046875,-0.77734375,1.0
4540978,,,,,,,,-2.2421875,4.2265625,-4.86328125,0.626953125,-0.291015625,1.177734375,-3.20703125,-2.6484375,-0.73828125,1.0
4540979,,,,,,,,-1.8359375,3.26953125,-5.27734375,0.55859375,-0.251953125,1.001953125,-2.8984375,-3.56640625,-1.08203125,1.0
4540980,36.01258883333333,129.31939583333332,71.74386224718958,20.953094656292777,3.7,47.0,,-0.5078125,3.4375,-5.69921875,0.509765625,-0.091796875,0.541015625,-1.6328125,-3.375,-1.46484375,1.0
4540981,,,,,,,,0.703125,5.3671875,-6.046875,0.447265625,0.060546875,-0.1171875,-0.4453125,-1.421875,-1.7734375,1.0
4540982,,,,,,,,1.140625,7.90234375,-5.7265625,0.3984375,0.060546875,-0.75390625,0.015625,1.10546875,-1.43359375,1.0
4540983,,,,,,,,1.078125,8.5859375,-5.5859375,0.384765625,-0.025390625,-0.955078125,-0.0234375,1.796875,-1.2734375,1.0
4540984,,,,,,,,0.9296875,10.35546875,-5.16015625,0.41015625,-0.287109375,-1.099609375,-0.1015625,3.5546875,-0.81640625,1.0
4540985,,,,,,,,0.39453125,11.3125,-4.6171875,0.44921875,-0.599609375,-0.900390625,-0.55859375,4.515625,-0.2421875,1.0
4540986,,,,,,,,-0.13671875,11.06640625,-3.765625,0.388671875,-0.798828125,-0.3828125,-1.01953125,4.28515625,0.640625,1.0
4540987,,,,,,,,-0.55078125,9.87109375,-3.51953125,0.330078125,-0.814453125,0.189453125,-1.40234375,3.09765625,0.91015625,1.0
4540988,,,,,,,,-0.67578125,8.9453125,-3.421875,0.296875,-0.76953125,0.421875,-1.51953125,2.1796875,1.0234375,1.0
4540989,,,,,,,,-1.37890625,5.90234375,-2.21875,0.2890625,-0.58203125,0.71484375,-2.24609375,-0.84765625,2.25390625,1.0
4540990,36.01259066666667,129.319399,72.02933354181759,21.156522254988428,3.6,49.0,,-4.28125,-1.4375,4.26171875,0.509765625,-0.091796875,0.541015625,-5.1953125,-8.1640625,8.76171875,1.0
4540991,,,,,,,,5.37890625,-25.5390625,9.984375,0.201171875,0.205078125,-0.375,4.45703125,-32.2578125,14.5078125,1.0
4540992,,,,,,,,21.7578125,-46.6484375,18.39453125,0.212890625,0.43359375,-0.681640625,20.8515625,-53.3671875,22.93359375,1.0
4540993,,,,,,,,14.65625,-31.82421875,15.5625,0.21484375,0.52734375,-0.84375,13.765625,-38.54296875,20.1015625,1.0
4540994,,,,,,,,-4.94140625,-5.94921875,4.015625,0.2890625,0.884765625,-2.1328125,-5.76953125,-12.6796875,8.5703125,1.0
4540995,,,,,,,,-4.1484375,-6.8359375,-0.3828125,-0.544921875,2.091796875,-1.1015625,-4.890625,-13.60546875,4.1640625,1.0
4540996,,,,,,,,1.03515625,-13.48828125,-0.55078125,-0.94140625,0.416015625,0.248046875,0.24609375,-20.30859375,3.93359375,1.0
4540997,,,,,,,,1.98046875,-15.01171875,2.27734375,-0.1796875,-3.419921875,0.236328125,1.23828125,-21.875,6.73046875,1.0
4540998,,,,,,,,1.94140625,-16.765625,4.1015625,-0.06640625,-4.451171875,0.146484375,1.27734375,-23.64453125,8.5703125,1.0
4540999,,,,,,,,1.6328125,-14.58984375,3.13671875,-0.451171875,-2.931640625,-2.205078125,1.203125,-21.49609375,7.61328125,1.0
4541000,36.01259283333333,129.31940216666666,72.31480451462424,21.39693627366557,3.6,50.0,0.0,1.2578125,-8.98828125,-0.05859375,0.509765625,-0.091796875,0.541015625,-5.1953125,-8.1640625,8.76171875,1.0
4541001,,,,,,,,1.22265625,-6.71875,-1.5078125,-0.810546875,0.71484375,-2.591796875,1.23828125,-13.71875,2.8984375,1.0
4541002,,,,,,,,1.7890625,-6.15234375,-2.5,-0.96875,0.517578125,-2.369140625,1.890625,-13.18359375,1.8671875,1.0
4541003,,,,,,,,2.69140625,-5.4375,-2.46875,-1.4140625,-0.119140625,-2.275390625,2.92578125,-12.53125,1.828125,1.0
4541004,,,,,,,,3.1328125,-3.4453125,-1.69921875,-1.771484375,-0.46484375,-2.20703125,3.5390625,-10.6171875,2.48046875,1.0
4541005,,,,,,,,2.828125,-1.48046875,-1.61328125,-2.05078125,-0.21484375,-2.29296875,3.421875,-8.73828125,2.44140625,1.0
4541006,,,,,,,,2.55078125,-0.24609375,-1.48828125,-2.099609375,-0.02734375,-2.310546875,3.23046875,-7.546875,2.48046875,1.0
4541007,,,,,,,,1.734375,6.65234375,-1.7734375,-1.91015625,0.62109375,-1.75,2.69921875,-0.80859375,1.90625,1.0
4541008,,,,,,,,1.08984375,8.546875,-2.3984375,-1.46875,0.46875,-1.6015625,2.19921875,0.9921875,1.1015625,1.0
4541009,,,,,,,,0.87109375,9.0234375,-3.07421875,-1.333984375,0.3125,-1.59375,2.0390625,1.453125,0.37109375,1.0
4541010,36.01259466666667,129.31940500000002,72.57022599694074,21.600363643842773,3.5,50.0,,0.984375,9.17578125,-3.5625,-1.16796875,-0.09375,-1.5625,2.27734375,1.56640625,-0.203125,1.0
4541011,,,,,,,,0.93359375,9.21484375,-4.08203125,-0.91796875,-0.716796875,-1.53125,2.42578125,1.56640625,-0.85546875,1.0
4541012,,,,,,,,1.09375,9.21484375,-4.609375,-0.892578125,-0.888671875,-1.51171875,2.65625,1.56640625,-1.4296875,1.0
4541013,,,,,,,,1.90234375,9.4609375,-5.82421875,-0.8828125,-1.083984375,-1.53515625,4.109375,1.60546875,-3.07421875,1.0
4541014,,,,,,,,2.8984375,8.703125,-6.50390625,-0.85546875,-1.1171875,-1.62890625,4.69140625,1.03125,-3.45703125,1.0
4541015,,,,,,,,3.41015625,7.74609375,-6.91796875,-0.7578125,-1.12890625,-1.97265625,5.375,0.07421875,-3.95703125,1.0
4541016,,,,,,,,3.62109375,6.7421875,-6.76171875,-0.71484375,-1.1171875,-2.19140625,5.68359375,-0.921875,-3.83984375,1.0
4541017,,,,,,,,0.828125,6.515625,-4.69140625,-0.62890625,-0.71484375,-1.990234375,3.421875,-1.078125,-1.96484375,1.0
4541018,,,,,,,,-1.1640625,6.8828125,-3.9609375,-0.560546875,-0.54296875,-1.552734375,1.5078125,-0.6953125,-1.2734375,1.0
4541019,,,,,,,,-2.51953125,7.52734375,-3.1015625,-0.431640625,-0.189453125,-0.51171875,0.24609375,-0.04296875,-0.46875,1.0
4541020,36.012597,129.31940833333334,72.87072167983335,21.859271010717986,3.8000000000000003,49.0,,-4.29296875,9.94140625,-2.55078125,-1.16796875,-0.09375,-1.5625,-1.51953125,2.3671875,0.06640625,1.0
4541021,,,,,,,,-5.37109375,11.04296875,-2.13671875,-0.396484375,0.189453125,0.837890625,-2.62890625,3.4375,0.44921875,1.0
4541022,,,,,,,,-5.859375,11.58203125,-1.4921875,-0.451171875,0.33984375,1.505859375,-3.203125,3.9375,1.0625,1.0
4541023,,,,,,,,-6.01953125,11.61328125,-1.0859375,-0.53125,0.380859375,1.80078125,-3.43359375,3.9375,1.4453125,1.0
4541024,,,,,,,,-6.2578125,8.06640625,3.53515625,-0.54296875,0.486328125,2.267578125,-3.9296875,0.30078125,6.00390625,1.0
4541025,,,,,,,,-7.22265625,1.6953125,6.546875,-0.33203125,0.55078125,2.205078125,-5.08203125,-6.1328125,8.99609375,1.0
4541026,,,,,,,,-0.046875,-33.37890625,22.03125,-0.1796875,0.564453125,1.923828125,1.9296875,-41.2578125,24.46875,1.0
4541027,,,,,,,,-8.4921875,-44.8828125,8.8203125,-0.037109375,0.6171875,0.568359375,-6.765625,-52.828125,11.25,1.0
4541028,,,,,,,,-2.8828125,-11.59375,4.33203125,0.00390625,0.833984375,-0.1484375,-1.171875,-19.5390625,6.76953125,1.0
4541029,,,,,,,,3.63671875,-3.89453125,-1.4375,-0.326171875,2.083984375,-1.576171875,5.37890625,-11.8359375,1.0234375,1.0
4541030,36.01259916666667,129.31941133333333,73.14116771644593,22.09968493206286,3.6,47.0,,5.984375,-9.49609375,0.1796875,-0.587890625,2.521484375,-2.119140625,7.828125,-17.43359375,2.6328125,1.0
4541031,,,,,,,,3.59375,-13.34375,3.2421875,1.07421875,-1.125,0.44921875,5.4921875,-21.26953125,5.734375,1.0
4541032,,,,,,,,2.7578125,-15.375,4.94921875,1.052734375,-2.732421875,1.423828125,4.6484375,-23.296875,7.45703125,1.0
4541033,,,,,,,,1.86328125,-15.7265625,8.13671875,0.171875,-4.154296875,1.3671875,3.73046875,-23.6796875,10.63671875,1.0
4541034,,,,,,,,1.0078125,-11.21875,4.421875,0.287109375,-0.205078125,2.40625,2.7734375,-19.23828125,6.8828125,1.0
4541035,,,,,,,,-1.875,-5.3125,-0.14453125,0.583984375,1.087890625,3.365234375,-0.3671875,-13.375,2.36328125,1.0
4541036,,,,,,,,-2.76171875,-4.16796875,-0.6328125,0.79296875,0.9296875,3.564453125,-1.40234375,-12.2578125,1.90625,1.0
4541037,,,,,,,,-3.921875,-2.57421875,-0.9296875,1.705078125,-0.4140625,2.966796875,-4.390625,-9.16015625,2.36328125,1.0
4541038,,,,,,,,-5.5859375,-0.3984375,-0.296875,2.107421875,-0.697265625,2.888671875,-5.46484375,-7.20703125,2.5546875,1.0
4541039,,,,,,,,-6.08984375,0.88671875,-0.375,2.197265625,-0.626953125,2.962890625,-5.5390625,-6.515625,2.515625,1.0
4541040,36.012601499999995,129.31941416666666,73.39658869352138,22.35859194179748,3.6,47.0,,-5.75390625,3.0703125,-0.9765625,2.259765625,-0.232421875,2.845703125,-5.3046875,-4.1015625,1.8671875,1.0
4541041,,,,,,,,-5.25390625,4.78515625,-1.60546875,2.13671875,0.193359375,2.529296875,-5.04296875,-2.07421875,1.75,1.0
4541042,,,,,,,,-5.10546875,5.90234375,-1.625,2.0234375,0.34765625,2.330078125,-4.54296875,-0.04296875,2.6328125,1.0
4541043,,,,,,,,-4.203125,10.015625,-0.69140625,1.376953125,0.560546875,1.8125,-4.1171875,3.3671875,3.12890625,1.0
4541044,,,,,,,,-3.35546875,11.8671875,-1.31640625,1.091796875,0.5078125,1.81640625,-3.6640625,4.2109375,1.63671875,1.0
4541045,,,,,,,,-2.80859375,11.8984375,-4.0390625,0.890625,0.349609375,1.70703125,-3.43359375,3.98046875,-0.85546875,1.0
4541046,,,,,,,,-2.69921875,11.73828125,-4.76171875,0.826171875,0.193359375,1.560546875,-3.6640625,3.7109375,-1.3515625,1.0
4541047,,,,,,,,-3.0625,10.92578125,-5.44140625,0.6953125,-0.15625,1.20703125,-4.19921875,1.60546875,-1.734375,1.0
4541048,,,,,,,,-3.3515625,8.13671875,-5.7265625,0.611328125,-0.4765625,0.67578125,-4.4296875,-0.6953125,-1.62109375,1.0
4541049,,,,,,,,-3.4453125,6.9609375,-5.68359375,0.59765625,-0.576171875,0.42578125,-4.47265625,-1.57421875,-1.50390625,1.0
4541050,36.012604,129.3194175,73.69708417086443,22.63599254500248,3.9000000000000004,48.0,,-5.75390625,3.0703125,-0.9765625,0.61328125,-0.521484375,0.1171875,-3.7734375,-2.609375,-1.0078125,1.0
4541051,,,,,,,,-2.234375,5.12109375,-4.86328125,0.568359375,-0.244140625,0.025390625,-1.8984375,-1.84375,-0.05078125,1.0
4541052,,,,,,,,-0.05859375,6.1328125,-4.10546875,0.4296875,0.09375,-0.09375,-0.21484375,-1.0390625,0.21875,1.0
4541053,,,,,,,,1.63671875,6.921875,-3.91015625,0.296875,0.3515625,-0.166015625,2.1953125,0.265625,0.1796875,1.0
4541054,,,,,,,,3.64453125,8.1328125,-4.23828125,0.193359375,0.4921875,-0.390625,3.0390625,0.9921875,-0.125,1.0
4541055,,,,,,,,4.4375,9.20703125,-4.98046875,0.345703125,0.3515625,-1.453125,3.08203125,1.60546875,-0.5859375,1.0
4541056,,,,,,,,2.46875,8.69921875,-4.078125,0.431640625,0.14453125,-1.716796875,1.58984375,1.14453125,0.21875,1.0
4541057,,,,,,,,-0.78125,7.0078125,-2.39453125,0.470703125,-0.05859375,-1.517578125,-1.5546875,-0.5390625,1.94140625,1.0
4541058,,,,,,,,-4.453125,5.65625,1.453125,0.439453125,-0.21484375,-0.86328125,-5.1171875,-1.8828125,5.81640625,1.0
4541059,,,,,,,,-7.96484375,0.0859375,7.3203125,0.39453125,-0.25390625,0.171875,-8.56640625,-7.4375,11.7109375,1.0
4541060,36.01260583333333,129.31942083333334,73.99758025318302,22.83942033322489,3.7,50.0,,-5.75390625,3.0703125,-0.9765625,0.296875,-0.228515625,1.00390625,-3.7734375,-2.609375,-1.0078125,1.0
4541061,,,,,,,,20.33984375,-54.9765625,21.27734375,0.177734375,-0.18359375,1.0859375,19.62890625,-62.4453125,25.73046875,1.0
4541062,,,,,,,,13.78125,-46.94140625,24.02734375,0.111328125,-0.080078125,0.603515625,13.0390625,-54.40234375,28.48828125,1.0
4541063,,,,,,,,1.59765625,-17.50390625,13.2265625,-0.037109375,0.337890625,-2.169921875,0.89453125,-24.9765625,17.6875,1.0
4541064,,,,,,,,-3.58984375,-4.953125,-0.640625,-0.033203125,1.294921875,-2.892578125,-4.12109375,-12.45703125,3.8203125,1.0
4541065,,,,,,,,-0.18359375,-12.37890625,-0.35546875,-0.873046875,2.32421875,0.53515625,-0.71484375,-19.921875,4.05078125,1.0
4541066,,,,,,,,-0.7421875,-13.04296875,2.546875,-0.9375,1.43359375,0.552734375,-1.328125,-20.61328125,6.921875,1.0
4541067,,,,,,,,-1.5546875,-13.05078125,5.65234375,-0.251953125,-3.298828125,-1.0390625,-2.09375,-20.6484375,9.98828125,1.0
4541068,,,,,,,,2.2109375,-8.27734375,0.51953125,-0.427734375,-1.166015625,-3.265625,2.3125,-15.9375,4.85546875,1.0
4541069,,,,,,,,3.765625,-6.4296875,-1.60546875,-0.66796875,0.126953125,-3.140625,4.0,-14.1015625,2.70703125,1.0
4541070,36.01260816666667,129.31942416666666,74.29807585147775,23.098327750398333,3.7,50.0,,4.43359375,-6.91796875,-2.9140625,0.296875,-0.228515625,1.00390625,4.87890625,-14.63671875,1.328125,1.0
4541071,,,,,,,,3.91796875,-6.20703125,-2.03515625,-1.5625,-0.21875,-2.7421875,4.57421875,-13.98828125,2.09765625,1.0
4541072,,,,,,,,3.55078125,-2.89453125,-0.9921875,-1.658203125,-0.435546875,-2.595703125,4.41796875,-10.7265625,3.015625,1.0
4541073,,,,,,,,3.1328125,0.30859375,-1.84765625,-1.703125,-0.021484375,-2.52734375,4.2265625,-7.58984375,2.01953125,1.0
4541074,,,,,,,,2.6171875,3.95703125,-2.89453125,-1.783203125,0.630859375,-2.20703125,3.8828125,-3.98828125,0.83203125,1.0
4541075,,,,,,,,2.4453125,6.34765625,-3.27734375,-1.734375,0.91015625,-1.908203125,3.84765625,-1.65234375,0.33203125,1.0
4541076,,,,,,,,2.078125,8.625,-3.82421875,-1.6484375,0.890625,-1.830078125,3.5390625,0.609375,-0.27734375,1.0
4541077,,,,,,,,1.76953125,9.27734375,-3.9453125,-1.3046875,0.501953125,-1.6953125,2.77734375,1.64453125,-0.85546875,1.0
4541078,,,,,,,,0.65625,11.0234375,-4.92578125,-1.125,0.1953125,-1.5859375,2.3515625,2.94921875,-1.58203125,1.0
4541079,,,,,,,,0.30078125,11.31640625,-5.4921875,-0.912109375,-0.0390625,-1.4140625,2.0078125,3.171875,-2.5390625,1.0
4541080,36.01261016666667,129.319427,74.55349707896887,23.320248383045552,3.6,51.0,,0.67578125,10.328125,-6.828125,-0.677734375,-0.154296875,-1.095703125,3.1171875,1.60546875,-4.0703125,1.0
4541081,,,,,,,,2.1640625,7.73046875,-7.234375,-0.751953125,-0.123046875,-1.095703125,5.1484375,-2.80078125,-3.61328125,1.0
4541082,,,,,,,,3.01953125,4.55859375,-6.21484375,-0.912109375,0.072265625,-1.21875,4.53515625,-3.64453125,-2.04296875,1.0
4541083,,,,,,,,2.23828125,4.48046875,-4.98046875,-0.90625,0.138671875,-1.193359375,3.88671875,-3.453125,-1.390625,1.0
4541084,,,,,,,,0.84765625,4.90234375,-3.61328125,-0.806640625,0.318359375,-0.978515625,2.54296875,-2.95703125,-0.0859375,1.0
4541085,,,,,,,,-0.4921875,5.4765625,-2.48046875,-0.705078125,0.466796875,-0.541015625,0.8203125,-1.609375,0.71875,1.0
4541086,,,,,,,,-2.2109375,7.24609375,-2.0390625,-0.61328125,0.47265625,0.064453125,-0.1015625,1.41796875,0.79296875,1.0
4541087,,,,,,,,-3.16015625,11.37109375,-1.3515625,-0.53125,0.24609375,0.5234375,-0.67578125,3.2109375,1.3671875,1.0
4541088,,,,,,,,-3.3984375,12.2265625,-0.7890625,-0.51953125,0.04296875,0.658203125,-0.9453125,4.0546875,1.90625,1.0
4541089,,,,,,,,-4.57421875,13.140625,2.97265625,-0.486328125,-0.419921875,0.822265625,-2.16796875,4.9375,5.6171875,1.0
4541090,36.0126125,129.31943033333334,74.85399264465549,23.579155818492108,3.7,49.0,,-3.640625,12.40625,6.3515625,-0.443359375,-0.748046875,1.05078125,3.1171875,1.60546875,-4.0703125,1.0
4541091,,,,,,,,-3.30078125,7.609375,3.625,-0.2890625,-0.830078125,1.357421875,-1.01953125,-0.65625,6.15625,1.0
4541092,,,,,,,,-4.71875,-1.4375,3.625,-0.125,-0.763671875,1.52734375,-2.515625,-9.734375,6.1171875,1.0
4541093,,,,,,,,-8.9765625,-33.1640625,12.61328125,-0.109375,-0.748046875,0.76171875,-6.8828125,-41.49609375,15.08203125,1.0
4541094,,,,,,,,-11.87890625,-52.8359375,13.09765625,-0.095703125,-0.369140625,0.388671875,-9.83203125,-61.18359375,15.54296875,1.0
4541095,,,,,,,,2.703125,-15.46484375,15.1796875,-0.0234375,0.724609375,0.603515625,4.7265625,-23.83203125,17.609375,1.0
4541096,,,,,,,,4.48828125,-8.5625,10.26953125,-0.05859375,1.181640625,0.388671875,6.44921875,-16.9375,12.70703125,1.0
4541097,,,,,,,,5.5625,-4.80078125,-3.31640625,-0.013671875,1.150390625,-0.4296875,7.484375,-13.18359375,-0.85546875,1.0
4541098,,,,,,,,5.33203125,-11.40234375,-2.203125,0.458984375,0.76953125,-1.5546875,7.33203125,-19.76953125,0.296875,1.0
4541099,,,,,,,,7.3515625,-15.40234375,4.84375,0.1875,-0.4296875,0.314453125,9.3984375,-23.75390625,7.3828125,1.0
4541100,36.012614666666664,129.3194333333333,75.12443857434134,23.81956980151699,3.5,47.0,0.0,2.0078125,-14.68359375,5.77734375,-0.443359375,-0.748046875,1.05078125,4.0,-23.0625,8.30078125,1.0
4541101,,,,,,,,0.2265625,-12.3125,2.078125,0.310546875,0.240234375,2.625,1.96875,-20.765625,4.5859375,1.0
4541102,,,,,,,,-1.640625,-8.61328125,-0.44140625,0.49609375,1.115234375,2.498046875,-0.0234375,-17.08984375,2.09765625,1.0
4541103,,,,,,,,-3.66015625,-2.734375,0.04296875,1.375,0.5390625,3.109375,-2.58984375,-11.265625,2.78515625,1.0
4541104,,,,,,,,-3.9765625,-1.2421875,-0.08984375,1.68359375,-0.3828125,2.962890625,-3.1640625,-9.7734375,2.78515625,1.0
4541105,,,,,,,,-4.34765625,0.796875,-1.39453125,1.912109375,-0.34375,3.13671875,-3.77734375,-7.70703125,1.63671875,1.0
4541106,,,,,,,,-4.67578125,2.625,-2.125,1.962890625,-0.158203125,3.162109375,-4.23828125,-5.87109375,0.984375,1.0
4541107,,,,,,,,-4.79296875,4.3125,-2.6484375,1.97265625,0.12890625,2.955078125,-4.6171875,-4.140625,0.640625,1.0
4541108,,,,,,,,-4.80859375,7.13671875,-2.30859375,1.740234375,0.240234375,2.6796875,-5.0,-1.23046875,1.21484375,1.0
4541109,,,,,,,,-4.8828125,8.80078125,-1.734375,1.638671875,0.25390625,2.630859375,-5.19921875,0.45703125,1.8671875,1.0
4541110,36.012616666666666,129.31943583333333,75.34980998850537,24.04149020050756,3.4000000000000004,47.0,,-4.6875,10.4609375,-1.484375,1.435546875,0.3515625,2.54296875,4.0,-23.0625,8.30078125,1.0
4541111,,,,,,,,-2.94140625,11.59375,-3.85546875,1.0625,0.31640625,2.490234375,-3.8125,3.40625,0.02734375,1.0
4541112,,,,,,,,-1.78515625,11.32421875,-5.95703125,0.73828125,0.08203125,2.162109375,-2.97265625,3.21484375,-1.96484375,1.0
4541113,,,,,,,,-1.890625,9.99609375,-6.37109375,0.642578125,-0.009765625,1.904296875,-3.16796875,1.91015625,-2.34765625,1.0
4541114,,,,,,,,-2.21875,8.07421875,-6.65625,0.5390625,-0.189453125,1.2265625,-3.62890625,0.03515625,-2.578125,1.0
4541115,,,,,,,,-2.53125,4.703125,-5.9296875,0.56640625,-0.25390625,0.728515625,-4.0078125,-3.296875,-1.8125,1.0
4541116,,,,,,,,-2.484375,3.4140625,-5.33203125,0.5546875,-0.12109375,0.46484375,-4.0078125,-4.56640625,-1.16015625,1.0
4541117,,,,,,,,-1.1796875,3.8515625,-4.13671875,0.439453125,0.109375,0.3203125,-2.7421875,-4.1015625,0.06640625,1.0
4541118,,,,,,,,0.17578125,4.78515625,-3.5390625,0.35546875,0.234375,0.28125,-1.40234375,-3.140625,0.6796875,1.0
4541119,,,,,,,,1.41015625,6.0703125,-3.09765625,0.236328125,0.443359375,0.306640625,-0.21484375,-1.84375,1.13671875,1.0
4541120,36.012618833333335,129.31943883333332,75.62025588964197,24.281904200010356,3.6,48.0,,3.06640625,8.70703125,-3.03515625,0.19921875,0.5390625,0.259765625,1.390625,0.80078125,1.21484375,1.0
4541121,,,,,,,,3.91015625,10.18359375,-2.99609375,0.23828125,0.48046875,-0.052734375,2.19921875,2.29296875,1.25390625,1.0
4541122,,,,,,,,3.5625,11.36328125,-2.9375,0.359375,0.23046875,-0.474609375,1.8515625,3.48046875,1.328125,1.0
4541123,,,,,,,,0.26171875,11.07421875,-2.67578125,0.4921875,-0.26953125,-0.89453125,-1.36328125,3.21484375,1.63671875,1.0
4541124,,,,,,,,-1.65625,9.9921875,-1.64453125,0.46875,-0.572265625,-0.91796875,-3.20703125,2.140625,2.70703125,1.0
4541125,,,,,,,,-6.26171875,6.875,4.6328125,0.451171875,-0.7734375,-0.388671875,-7.72265625,-0.9609375,9.03125,1.0
4541126,,,,,,,,-7.3203125,5.171875,6.140625,0.458984375,-0.86328125,0.013671875,-8.7578125,-2.6484375,10.56640625,1.0
4541127,,,,,,,,-3.19140625,-2.97265625,-0.03515625,0.408203125,-0.9453125,0.546875,-4.62109375,-10.765625,4.43359375,1.0
4541128,,,,,,,,6.81640625,-18.25,-0.3515625,0.30078125,-0.8203125,0.576171875,5.37890625,-26.015625,4.1640625,1.0
4541129,,,,,,,,22.67578125,-55.0390625,16.25,0.236328125,-0.435546875,-0.20703125,21.23828125,-62.7890625,20.7890625,1.0
4541130,36.01262083333334,129.31944216666668,75.92075171108284,24.503825261049258,3.6,50.0,,7.03515625,-25.62109375,21.94140625,0.25390625,0.212890625,-2.068359375,5.68359375,-33.3671875,26.49609375,1.0
4541131,,,,,,,,-0.8359375,-8.81640625,4.296875,0.326171875,0.818359375,-2.865234375,-2.015625,-16.58984375,8.875,1.0
4541132,,,,,,,,-3.55859375,-4.3203125,-1.5625,0.0546875,0.822265625,-2.02734375,-4.66015625,-12.109375,3.015625,1.0
4541133,,,,,,,,-0.03515625,-12.02734375,-0.421875,-0.599609375,1.498046875,0.748046875,-1.13671875,-19.84765625,4.125,1.0
4541134,,,,,,,,-0.3125,-12.46484375,2.30078125,-0.703125,1.65625,0.923828125,-1.59375,-20.3046875,6.76953125,1.0
4541135,,,,,,,,-0.30078125,-13.50390625,5.2734375,-0.236328125,-3.611328125,-1.11328125,-1.51953125,-21.375,9.71875,1.0
4541136,,,,,,,,1.11328125,-10.37109375,1.6953125,-0.0234375,-3.49609375,-2.626953125,0.20703125,-18.2734375,6.1953125,1.0
4541137,,,,,,,,3.69921875,-7.28125,-0.06640625,-0.28515625,-2.23828125,-3.41796875,3.00390625,-15.21484375,4.43359375,1.0
4541138,,,,,,,,5.16796875,-5.5625,-2.46484375,-1.302734375,0.595703125,-2.814453125,4.99609375,-13.60546875,1.94140625,1.0
4541139,,,,,,,,4.52734375,-4.52734375,-2.609375,-1.453125,0.123046875,-2.568359375,4.45703125,-12.6015625,1.75,1.0
4541140,36.01262283333333,129.31944533333333,76.206222631065,24.725746201428883,3.5,52.0,,3.88671875,-1.5859375,-0.91796875,-1.697265625,-0.681640625,-2.451171875,4.15234375,-9.77734375,3.24609375,1.0
4541141,,,,,,,,3.60546875,0.37109375,-0.578125,-1.751953125,-0.34375,-2.478515625,4.11328125,-7.890625,3.4375,1.0
4541142,,,,,,,,3.3671875,1.234375,-0.74609375,-1.8203125,-0.052734375,-2.345703125,3.9609375,-7.05859375,3.20703125,1.0
4541143,,,,,,,,2.94140625,4.75390625,-1.5390625,-1.8203125,0.48828125,-2.00390625,3.7265625,-3.60546875,2.25,1.0
4541144,,,,,,,,2.77734375,6.6640625,-2.2890625,-1.791015625,0.646484375,-1.830078125,3.609375,-1.7265625,1.4453125,1.0
4541145,,,,,,,,2.140625,9.65234375,-2.9609375,-1.53515625,0.5546875,-1.529296875,3.15625,1.18359375,0.5625,1.0
4541146,,,,,,,,1.19140625,11.1796875,-4.47265625,-1.0703125,-0.103515625,-1.54296875,2.46484375,2.640625,-1.16015625,1.0
4541147,,,,,,,,0.76171875,11.1171875,-5.03125,-0.958984375,-0.248046875,-1.439453125,2.12109375,2.5625,-1.7734375,1.0
4541148,,,,,,,,0.4921875,11.23046875,-5.62109375,-0.71875,-0.455078125,-1.162109375,1.96875,2.671875,-2.42578125,1.0
4541149,,,,,,,,0.55078125,11.0859375,-5.7734375,-0.626953125,-0.501953125,-1.07421875,2.08203125,2.5234375,-2.62109375,1.0
4541150,36.012625,129.31944833333333,76.47666848764335,24.96616022732295,3.6,52.0,,1.0546875,10.25,-6.1015625,-1.697265625,-0.681640625,-2.451171875,4.15234375,-9.77734375,3.24609375,1.0
4541151,,,,,,,,3.78125,5.5,-6.27734375,-0.48046875,-0.466796875,-1.119140625,5.53125,-3.0703125,-3.23046875,1.0
4541152,,,,,,,,3.65625,4.56640625,-5.8828125,-0.509765625,-0.3046875,-1.318359375,5.53125,-3.98828125,-2.8828125,1.0
4541153,,,,,,,,3.26171875,4.55859375,-5.63671875,-0.595703125,-0.115234375,-1.375,5.26171875,-3.98828125,-2.69140625,1.0
4541154,,,,,,,,1.26953125,5.69921875,-4.08203125,-0.68359375,0.123046875,-1.3671875,3.3828125,-2.83984375,-1.19921875,1.0
4541155,,,,,,,,-1.4453125,8.11328125,-2.71484375,-0.693359375,0.36328125,-1.056640625,0.78515625,-0.42578125,0.10546875,1.0
4541156,,,,,,,,-3.41796875,11.4765625,-2.0546875,-0.5859375,0.486328125,-0.34375,-1.13671875,2.94921875,0.71875,1.0
4541157,,,,,,,,-4.81640625,13.20703125,-1.13671875,-0.52734375,0.3359375,0.548828125,-2.55078125,4.66796875,1.59765625,1.0
4541158,,,,,,,,-5.22265625,13.32421875,-0.71484375,-0.45703125,-0.01953125,1.34765625,-3.05078125,4.74609375,1.98046875,1.0
4541159,,,,,,,,-7.34765625,12.40625,3.9765625,-0.380859375,-0.44921875,1.990234375,-5.30859375,3.7890625,6.6171875,1.0
4541160,36.01262733333333,129.3194515,76.76213905784502,25.225067597052224,3.7,49.0,,-4.3125,9.38671875,5.125,-1.697265625,-0.681640625,-2.451171875,-2.4375,0.72265625,7.7265625,1.0
4541161,,,,,,,,-4.23046875,-3.21484375,8.8046875,-0.169921875,-0.865234375,2.515625,-2.55078125,-11.9140625,11.3671875,1.0
4541162,,,,,,,,-3.5078125,-23.32421875,17.75390625,0.01953125,-0.802734375,2.1328125,-2.015625,-32.06640625,20.29296875,1.0
4541163,,,,,,,,-5.125,-50.8984375,25.3359375,0.0859375,-0.71484375,1.5703125,-3.703125,-59.6484375,27.875,1.0
4541164,,,,,,,,-7.61328125,-51.46484375,11.5,0.173828125,-0.17578125,-0.12109375,-6.23046875,-60.21875,14.046875,1.0
4541165,,,,,,,,-0.5625,-7.3828125,5.47265625,0.107421875,1.71484375,-0.244140625,0.8203125,-16.1328125,8.03515625,1.0
4541166,,,,,,,,7.08984375,-4.43359375,-1.8828125,-0.11328125,3.75390625,-0.890625,8.44140625,-13.1796875,0.71875,1.0
4541167,,,,,,,,8.23046875,-7.55078125,-1.1796875,0.408203125,1.662109375,-1.853515625,9.62890625,-16.28515625,1.484375,1.0
4541168,,,,,,,,5.30859375,-10.1875,3.78125,0.9140625,-2.03515625,-0.375,6.83203125,-18.890625,6.5,1.0
4541169,,,,,,,,4.58984375,-16.1171875,5.4453125,0.2421875,-3.076171875,1.421875,6.10546875,-24.83203125,8.1875,1.0
4541170,36.0126295,129.3194545,77.0325848837469,25.465481641088086,3.5,46.0,,2.4140625,-11.07421875,3.4609375,-1.697265625,-0.681640625,-2.451171875,-2.4375,0.72265625,7.7265625,1.0
4541171,,,,,,,,1.27734375,-7.43359375,1.58203125,0.380859375,1.205078125,2.984375,2.46484375,-16.20703125,4.35546875,1.0
4541172,,,,,,,,-0.484375,-3.91796875,-0.01171875,0.650390625,1.017578125,3.345703125,0.3984375,-12.71875,2.82421875,1.0
4541173,,,,,,,,-1.109375,-3.18359375,-0.203125,1.025390625,0.69140625,3.322265625,-0.3671875,-11.99609375,2.671875,1.0
4541174,,,,,,,,-3.03515625,-1.19921875,-0.51953125,1.646484375,0.056640625,2.908203125,-2.58984375,-10.0,2.48046875,1.0
4541175,,,,,,,,-4.60546875,2.00390625,-1.1015625,2.244140625,-0.06640625,2.625,-4.62109375,-6.703125,2.25,1.0
4541176,,,,,,,,-4.609375,3.9609375,-2.29296875,2.314453125,0.166015625,2.416015625,-4.8515625,-4.6796875,1.25390625,1.0
4541177,,,,,,,,-4.3671875,7.2109375,-2.6875,2.185546875,0.373046875,2.0546875,-4.8125,-1.34375,1.0625,1.0
4541178,,,,,,,,-4.47265625,8.1953125,-2.55078125,2.109375,0.443359375,1.90234375,-5.0,-0.3125,1.29296875,1.0
4541179,,,,,,,,-4.0546875,10.2578125,-2.1484375,1.82421875,0.451171875,1.73046875,-4.77734375,1.8359375,1.8671875,1.0
4541180,36.01263166666667,129.31945683333333,77.24293115661692,25.705895164076505,3.5,47.0,,-3.5234375,10.65234375,-2.19921875,1.373046875,0.31640625,1.615234375,-4.390625,2.29296875,1.94140625,1.0
4541181,,,,,,,,-2.609375,11.05078125,-3.1796875,1.009765625,0.20703125,1.564453125,-3.62890625,2.75390625,1.0625,1.0
4541182,,,,,,,,-2.0546875,10.58203125,-4.25390625,0.79296875,0.1015625,1.5625,-3.203125,2.33203125,0.06640625,1.0
4541183,,,,,,,,-1.16015625,9.578125,-5.23828125,0.365234375,-0.361328125,1.27734375,-2.55078125,1.4140625,-0.81640625,1.0
4541184,,,,,,,,-1.3125,8.375,-5.67578125,0.3125,-0.48828125,1.14453125,-2.7421875,0.2265625,-1.23828125,1.0
4541185,,,,,,,,-2.09375,6.84765625,-5.55078125,0.255859375,-0.603515625,0.857421875,-3.5859375,-1.26953125,-1.08203125,1.0
4541186,,,,,,,,-2.140625,5.953125,-4.703125,0.205078125,-0.5,0.47265625,-3.66796875,-2.1484375,-0.203125,1.0
4541187,,,,,,,,-2.09375,5.828125,-4.18359375,0.1484375,-0.400390625,0.271484375,-3.62890625,-2.265625,0.33203125,1.0
4541188,,,,,,,,-0.9453125,7.27734375,-4.03515625,0.08203125,-0.1875,0.01953125,-2.48046875,-0.80859375,0.48828125,1.0
4541189,,,,,,,,-0.4453125,7.921875,-4.16015625,0.076171875,0.0625,-0.033203125,-1.98046875,-0.15625,0.37109375,1.0
4541190,36.01263383333333,129.31945983333333,77.51337695685157,25.946309220942407,3.6,48.0,,0.75,9.63671875,-4.625,1.373046875,0.31640625,1.615234375,-0.7890625,1.5625,-0.0859375,1.0
4541191,,,,,,,,1.8125,10.05078125,-4.92578125,0.07421875,0.109375,-0.296875,0.28125,1.984375,-0.39453125,1.0
4541192,,,,,,,,2.89453125,10.86328125,-5.61328125,0.068359375,-0.09765625,-0.787109375,1.39453125,2.7890625,-1.08203125,1.0
4541193,,,,,,,,2.83984375,10.6328125,-5.74609375,0.044921875,-0.23828125,-1.279296875,1.43359375,2.5625,-1.19921875,1.0
4541194,,,,,,,,2.1015625,9.421875,-5.46875,-0.005859375,-0.3203125,-1.494140625,0.8203125,1.33984375,-0.9296875,1.0
4541195,,,,,,,,0.59765625,6.94140625,-4.21484375,-0.009765625,-0.2890625,-1.4375,-0.55859375,-1.1484375,0.33203125,1.0
4541196,,,,,,,,0.07421875,5.796875,-3.5234375,0.0234375,-0.22265625,-1.318359375,-1.01953125,-2.30859375,1.0234375,1.0
4541197,,,,,,,,-4.89453125,-3.00390625,5.32421875,0.08984375,0.01953125,-0.9609375,-5.88671875,-11.11328125,9.87109375,1.0
4541198,,,,,,,,-2.13671875,-22.90234375,10.7265625,0.072265625,0.32421875,-0.466796875,-3.08984375,-30.9921875,15.2734375,1.0
4541199,,,,,,,,21.38671875,-53.31640625,21.796875,0.041015625,0.568359375,-0.060546875,20.43359375,-61.41015625,26.34375,1.0
4541200,36.0126355,129.31946266666668,77.76879835049319,26.131243536423245,3.3000000000000003,48.0,0.0,15.83203125,-38.30078125,16.7109375,1.373046875,0.31640625,1.615234375,14.83984375,-46.390625,21.25,1.0
4541201,,,,,,,,-4.1171875,-6.26953125,2.5078125,-0.03515625,0.853515625,-0.861328125,-5.1171875,-14.37109375,7.0390625,1.0
4541202,,,,,,,,-3.0625,-4.98828125,0.78125,0.142578125,1.984375,-2.58984375,-3.96875,-13.1015625,5.3125,1.0
4541203,,,,,,,,-0.0546875,-11.69140625,-1.359375,-1.380859375,1.98046875,-0.994140625,-0.90625,-19.8828125,3.0546875,1.0
4541204,,,,,,,,2.30859375,-12.73828125,2.5234375,-0.06640625,-4.828125,-0.521484375,1.66015625,-20.99609375,6.8828125,1.0
4541205,,,,,,,,2.93359375,-10.5703125,2.21875,-0.619140625,-3.40625,-2.3359375,2.58203125,-18.85546875,6.578125,1.0
4541206,,,,,,,,2.40625,-6.84765625,-0.9609375,-0.458984375,-0.111328125,-3.3203125,2.390625,-15.17578125,3.359375,1.0
4541207,,,,,,,,2.4765625,-5.55859375,-1.91015625,-0.8046875,0.7421875,-3.0234375,2.6953125,-13.90625,2.36328125,1.0
4541208,,,,,,,,3.09765625,-4.29296875,-2.49609375,-1.4609375,0.068359375,-2.55859375,3.65234375,-12.72265625,1.63671875,1.0
4541209,,,,,,,,3.578125,-1.89453125,-2.2421875,-1.86328125,-0.21875,-2.19140625,4.34375,-10.38671875,1.75,1.0
4541210,36.01263766666667,129.3194655,78.02421923830028,26.371657477729862,3.5,49.0,,2.9296875,0.3125,-1.953125,-2.08203125,-0.134765625,-2.205078125,3.8828125,-8.2421875,1.8671875,1.0
4541211,,,,,,,,1.890625,3.5625,-1.26953125,-2.087890625,0.12109375,-2.09765625,3.0390625,-5.06640625,2.36328125,1.0
4541212,,,,,,,,1.38671875,5.734375,-1.16015625,-2.01953125,0.2734375,-1.98828125,2.62109375,-2.9140625,2.40234375,1.0
4541213,,,,,,,,0.8359375,8.29296875,-1.890625,-1.5390625,0.716796875,-1.60546875,2.27734375,-0.42578125,1.4453125,1.0
4541214,,,,,,,,0.3359375,9.20703125,-2.65625,-1.248046875,0.724609375,-1.421875,1.89453125,0.45703125,0.5625,1.0
4541215,,,,,,,,-0.21875,10.84375,-3.171875,-0.90625,0.072265625,-1.2109375,1.546875,2.0625,-0.125,1.0
4541216,,,,,,,,-0.234375,10.84375,-3.40234375,-0.79296875,-0.125,-1.205078125,1.5859375,2.06640625,-0.39453125,1.0
4541217,,,,,,,,0.17578125,10.84375,-4.05078125,-0.65234375,-0.373046875,-1.2109375,2.1171875,2.0625,-1.12109375,1.0
4541218,,,,,,,,1.125,10.6171875,-4.953125,-0.60546875,-0.54296875,-1.302734375,3.1953125,1.8359375,-2.078125,1.0
4541219,,,,,,,,1.7890625,10.0703125,-5.48828125,-0.568359375,-0.634765625,-1.373046875,3.92578125,1.296875,-2.65234375,1.0
4541220,36.0126395,129.31946766666667,78.21954091074457,26.575084477406413,3.3000000000000003,48.0,,3.78515625,7.2578125,-6.73046875,-0.57421875,-0.798828125,-1.57421875,6.06640625,-1.5,-3.95703125,1.0
4541221,,,,,,,,3.68359375,5.359375,-6.19140625,-0.587890625,-0.900390625,-1.76953125,6.14453125,-3.375,-3.49609375,1.0
4541222,,,,,,,,1.359375,5.02734375,-3.890625,-0.521484375,-0.87109375,-1.783203125,4.00390625,-3.68359375,-1.2734375,1.0
4541223,,,,,,,,0.18359375,5.6484375,-3.35546875,-0.509765625,-0.775390625,-1.7421875,2.92578125,-3.03125,-0.77734375,1.0
4541224,,,,,,,,-2.43359375,8.453125,-2.41015625,-0.5234375,-0.40234375,-1.3828125,0.46875,-0.1953125,0.10546875,1.0
4541225,,,,,,,,-3.515625,10.62109375,-2.73828125,-0.443359375,-0.033203125,-0.533203125,-0.5234375,1.98828125,-0.27734375,1.0
4541226,,,,,,,,-5.0625,12.7734375,-2.43359375,-0.267578125,0.21875,0.908203125,-2.09375,4.1328125,-0.01171875,1.0
4541227,,,,,,,,-5.59375,11.81640625,-0.609375,-0.177734375,0.14453125,1.44921875,-2.7421875,3.13671875,1.7890625,1.0
4541228,,,,,,,,-5.578125,11.203125,-0.01953125,-0.208984375,0.00390625,1.7578125,-2.86328125,2.484375,2.36328125,1.0
4541229,,,,,,,,-6.4921875,7.57421875,3.56640625,-0.158203125,-0.0078125,2.056640625,-3.9296875,-1.19140625,5.921875,1.0
4541230,36.0126415,129.31947033333333,78.45993705638249,26.797005091857013,3.3000000000000003,46.0,,-10.12890625,-15.09375,18.1015625,-0.087890625,0.13671875,2.244140625,-7.76171875,-23.91015625,20.4453125,1.0
4541231,,,,,,,,-1.4375,-45.6171875,26.71875,0.048828125,0.36328125,1.939453125,0.7421875,-54.4765625,29.0625,1.0
4541232,,,,,,,,-5.48828125,-45.88671875,11.60546875,0.095703125,0.716796875,1.47265625,-3.47265625,-54.78125,13.97265625,1.0
4541233,,,,,,,,-0.88671875,-8.16796875,1.7734375,-0.083984375,1.41796875,0.27734375,1.01171875,-17.08984375,4.1640625,1.0
4541234,,,,,,,,4.49609375,-6.078125,-3.91796875,-0.26171875,2.880859375,-2.63671875,6.44921875,-14.984375,-1.50390625,1.0
4541235,,,,,,,,4.2109375,-11.21875,1.47265625,0.388671875,1.986328125,-2.04296875,6.3359375,-20.08203125,3.93359375,1.0
4541236,,,,,,,,4.32421875,-15.72265625,7.2109375,1.099609375,-0.041015625,-0.373046875,6.48828125,-24.5546875,9.71875,1.0
4541237,,,,,,,,3.92578125,-15.875,6.58984375,0.521484375,-3.1640625,1.3359375,6.06640625,-24.7109375,9.14453125,1.0
4541238,,,,,,,,3.4296875,-12.12890625,3.75390625,0.15234375,-3.005859375,1.78125,5.53125,-20.99609375,6.26953125,1.0
4541239,,,,,,,,2.0390625,-8.7578125,1.7734375,0.369140625,0.25390625,2.16796875,4.0,-17.66796875,4.28125,1.0
4541240,36.01264366666667,129.31947283333332,78.68530814231524,27.037418783420307,3.3000000000000003,45.0,,-1.12890625,-5.37109375,-0.20703125,-0.087890625,0.13671875,2.244140625,0.55078125,-14.328125,2.36328125,1.0
4541241,,,,,,,,-3.34375,-3.078125,-0.7578125,1.07421875,0.244140625,3.294921875,-1.9375,-12.07421875,1.90625,1.0
4541242,,,,,,,,-3.45703125,-2.44921875,-0.72265625,1.64453125,-0.51953125,2.962890625,-2.32421875,-11.45703125,2.05859375,1.0
4541243,,,,,,,,-4.82421875,1.87890625,-1.44140625,2.072265625,-0.41015625,3.021484375,-4.19921875,-7.08984375,1.67578125,1.0
4541244,,,,,,,,-4.8515625,2.96484375,-1.65234375,2.109375,-0.267578125,3.015625,-4.3515625,-5.98046875,1.55859375,1.0
4541245,,,,,,,,-5.046875,5.70703125,-1.87890625,2.0625,0.021484375,2.81640625,-4.8125,-3.18359375,1.51953125,1.0
4541246,,,,,,,,-5.08203125,7.22265625,-1.8359375,2.005859375,0.216796875,2.455078125,-5.078125,-1.61328125,1.75,1.0
4541247,,,,,,,,-4.69921875,8.84765625,-1.96875,1.732421875,0.255859375,2.337890625,-4.921875,0.07421875,1.7890625,1.0
4541248,,,,,,,,-4.37109375,10.68359375,-2.0,1.572265625,0.234375,2.3671875,-4.69921875,1.94921875,1.828125,1.0
4541249,,,,,,,,-3.421875,12.51171875,-2.75390625,1.134765625,0.142578125,2.4375,-4.0859375,3.86328125,1.25390625,1.0
4541250,36.01264566666667,129.31947533333332,78.91067937925513,27.259339275914915,3.4000000000000004,46.0,,-2.79296875,13.26953125,-4.91015625,0.818359375,0.025390625,2.146484375,-3.77734375,4.70703125,-0.77734375,1.0
4541251,,,,,,,,-3.1640625,12.41015625,-6.3515625,0.68359375,-0.06640625,1.75390625,-4.31640625,3.90234375,-2.15625,1.0
4541252,,,,,,,,-3.953125,8.6171875,-5.90625,0.625,-0.21484375,1.330078125,-5.23828125,0.1484375,-1.65625,1.0
4541253,,,,,,,,-3.90625,7.859375,-5.78515625,0.61328125,-0.259765625,1.083984375,-5.23828125,-0.578125,-1.50390625,1.0
4541254,,,,,,,,-3.34375,6.5234375,-5.57421875,0.55859375,-0.287109375,0.55859375,-4.73828125,-1.8828125,-1.23828125,1.0
4541255,,,,,,,,-2.171875,5.7265625,-4.96875,0.484375,-0.08203125,0.2421875,-3.58984375,-2.6484375,-0.5859375,1.0
4541256,,,,,,,,1.28515625,6.2265625,-3.8984375,0.294921875,0.359375,0.142578125,-0.17578125,-2.11328125,0.5234375,1.0
4541257,,,,,,,,2.80078125,7.2421875,-3.94140625,0.19140625,0.58984375,-0.048828125,1.3125,-1.078125,0.48828125,1.0
4541258,,,,,,,,3.58203125,7.6171875,-4.140625,0.1796875,0.6640625,-0.21484375,2.08203125,-0.6953125,0.296875,1.0
4541259,,,,,,,,4.6640625,9.21875,-4.5234375,0.203125,0.716796875,-0.654296875,3.15625,0.9140625,-0.0859375,1.0
4541260,36.012647666666666,129.31947833333334,79.18112525539597,27.48126017910591,3.4000000000000004,48.0,,4.1171875,10.0234375,-4.1875,0.291015625,0.578125,-1.138671875,2.65625,1.71875,0.2578125,1.0
4541261,,,,,,,,1.93359375,9.41015625,-3.09375,0.419921875,0.263671875,-1.451171875,0.55078125,1.10546875,1.37109375,1.0
4541262,,,,,,,,0.0546875,8.32421875,-2.17578125,0.46875,-0.08203125,-1.287109375,-1.2109375,0.03515625,2.3203125,1.0
4541263,,,,,,,,-4.4765625,5.85546875,4.69140625,0.5,-0.32421875,-0.6484375,-5.65625,-2.41796875,9.21875,1.0
4541264,,,,,,,,-5.5390625,2.875,6.3203125,0.509765625,-0.412109375,0.154296875,-6.6875,-5.3671875,10.91015625,1.0
4541265,,,,,,,,-1.38671875,-2.7578125,0.7265625,0.462890625,-0.423828125,0.62890625,-2.55078125,-10.96484375,5.3515625,1.0
4541266,,,,,,,,5.26171875,-13.26171875,1.046875,0.41796875,-0.3984375,0.68359375,4.07421875,-21.453125,5.6953125,1.0
4541267,,,,,,,,10.80078125,-35.7421875,7.8046875,0.30078125,-0.267578125,0.310546875,9.58984375,-43.90625,12.4765625,1.0
4541268,,,,,,,,9.8515625,-44.7109375,25.82421875,0.1953125,0.05078125,-1.21484375,8.671875,-52.8671875,30.51953125,1.0
4541269,,,,,,,,2.67578125,-10.1796875,5.4765625,0.072265625,0.458984375,-2.60546875,1.66015625,-18.3515625,10.1796875,1.0
4541270,36.01264983333333,129.3194816666667,79.48162070961914,27.721674568913652,3.6,49.0,,-0.86328125,-5.4375,-1.10546875,-0.302734375,1.25,-0.26953125,-1.74609375,-15.6328125,1.29296875,1.0
4541271,,,,,,,,-0.91015625,-10.6953125,-3.00390625,-0.537109375,1.6015625,0.0078125,-2.16796875,-19.0390625,6.34765625,1.0
4541272,,,,,,,,-0.0546875,-12.8984375,3.75390625,-0.349609375,-3.9453125,-1.810546875,-0.7890625,-21.1875,8.33984375,1.0
4541273,,,,,,,,2.46484375,-10.109375,-0.26953125,-0.248046875,-2.775390625,-2.337890625,2.04296875,-18.4296875,4.31640625,1.0
4541274,,,,,,,,3.83984375,-6.70703125,-2.3046875,-0.75390625,-0.2578125,-2.603515625,3.69140625,-15.05859375,2.25,1.0
4541275,,,,,,,,3.828125,-6.3828125,-2.640625,-1.197265625,0.689453125,-2.640625,3.8828125,-14.79296875,1.828125,1.0
4541276,,,,,,,,3.54296875,-6.57421875,-2.39453125,-1.30859375,0.5859375,-2.62890625,3.69140625,-15.01953125,2.01953125,1.0
4541277,,,,,,,,2.3046875,-3.6875,-1.40625,-1.427734375,0.021484375,-2.529296875,2.65625,-12.1875,2.8984375,1.0
4541278,,,,,,,,1.99609375,-1.25,-1.8828125,-1.490234375,-0.11328125,-2.44140625,2.58203125,-9.81640625,2.2890625,1.0
4541279,,,,,,,,2.484375,0.765625,-3.015625,-1.53515625,0.01953125,-2.458984375,3.15625,-7.82421875,1.1015625,1.0
4541280,36.01265133333333,129.31948433333335,79.72201729512393,27.888115599959992,3.3000000000000003,50.0,,2.81640625,2.96875,-3.8046875,-0.302734375,1.25,-0.26953125,3.69140625,-5.671875,0.1796875,1.0
4541281,,,,,,,,2.953125,6.4609375,-3.9609375,-1.646484375,0.705078125,-2.068359375,4.00390625,-2.2265625,-0.125,1.0
4541282,,,,,,,,2.734375,7.46484375,-3.98828125,-1.541015625,0.55859375,-1.90625,3.921875,-1.26953125,-0.27734375,1.0
4541283,,,,,,,,1.6640625,11.3984375,-3.9375,-1.201171875,0.044921875,-1.666015625,3.15625,2.6015625,-0.46875,1.0
4541284,,,,,,,,1.31640625,11.86328125,-4.390625,-1.11328125,-0.009765625,-1.505859375,2.88671875,3.05859375,-0.96875,1.0
4541285,,,,,,,,1.27734375,11.3515625,-5.4765625,-0.9453125,-0.04296875,-1.099609375,2.9609375,2.5234375,-2.15625,1.0
4541286,,,,,,,,2.1796875,9.63671875,-6.35546875,-0.822265625,-0.013671875,-0.837890625,3.96484375,0.80078125,-3.11328125,1.0
4541287,,,,,,,,2.4453125,8.87890625,-6.5078125,-0.78125,0.0078125,-0.77734375,4.265625,0.03515625,-3.3046875,1.0
4541288,,,,,,,,3.21875,6.59375,-6.4765625,-0.765625,0.015625,-0.9765625,5.1484375,-2.265625,-3.3828125,1.0
4541289,,,,,,,,3.01953125,6.25,-6.1015625,-0.755859375,0.00390625,-1.06640625,4.9921875,-2.609375,-3.0390625,1.0
4541290,36.012653166666674,129.31948683333334,79.94738865505,28.091542913810713,3.3000000000000003,50.0,,-0.30078125,6.75,-3.76953125,-0.685546875,-0.021484375,-1.052734375,1.77734375,-2.11328125,-0.77734375,1.0
4541291,,,,,,,,-2.33984375,7.1328125,-2.44140625,-0.44140625,-0.052734375,-0.568359375,-1.09765625,-1.5,1.13671875,1.0
4541292,,,,,,,,-3.29296875,7.3515625,-1.76953125,-0.373046875,-0.064453125,-0.291015625,-2.51953125,-0.73046875,2.44140625,1.0
4541293,,,,,,,,-5.5078125,9.0078125,0.8359375,-0.2890625,-0.056640625,0.2890625,-4.3515625,2.1015625,6.0390625,1.0
4541294,,,,,,,,-6.578125,10.9609375,3.19140625,-0.42578125,-0.12109375,0.916015625,-3.35546875,3.59765625,5.73828125,1.0
4541295,,,,,,,,-2.09375,12.734375,0.625,-0.45703125,-0.228515625,1.1875,0.7421875,3.55859375,2.671875,1.0
4541296,,,,,,,,-0.67578125,11.96875,-0.4375,-0.443359375,-0.642578125,0.9609375,1.890625,1.48828125,2.63671875,1.0
4541297,,,,,,,,-0.0234375,10.44140625,-0.03125,-0.40625,-0.83203125,0.4609375,2.234375,-0.04296875,2.98046875,1.0
4541298,,,,,,,,-0.3046875,3.75390625,-0.703125,-0.345703125,-1.060546875,-0.1796875,1.35546875,-9.0390625,1.25390625,1.0
4541299,,,,,,,,-0.55859375,-0.06640625,-1.32421875,-0.265625,-1.005859375,-0.1171875,1.46875,-14.828125,2.40234375,1.0
4541300,36.0126555,129.31948966666667,80.20280925718723,28.350450123322066,3.4000000000000004,46.0,0.0,-0.30078125,6.75,-3.76953125,-0.142578125,-0.568359375,0.330078125,-0.9453125,-51.10546875,20.0234375,1.0
4541301,,,,,,,,-11.1640625,-48.7890625,23.19140625,-0.064453125,0.04296875,0.751953125,-9.2578125,-57.7734375,25.69140625,1.0
4541302,,,,,,,,-6.328125,-23.91796875,18.015625,0.0234375,0.75390625,0.87890625,-4.5078125,-32.91015625,20.5234375,1.0
4541303,,,,,,,,2.68359375,-3.984375,-0.734375,0.083984375,1.08984375,0.58984375,4.41796875,-12.9921875,1.7890625,1.0
4541304,,,,,,,,4.625,-7.96484375,-5.76171875,0.232421875,1.927734375,-0.220703125,6.296875,-16.97265625,-3.19140625,1.0
4541305,,,,,,,,6.32421875,-13.52734375,1.640625,0.625,2.396484375,-0.6328125,7.98046875,-22.52734375,4.28125,1.0
4541306,,,,,,,,6.01953125,-14.6953125,7.15234375,0.361328125,0.458984375,0.02734375,7.67578125,-23.68359375,9.83203125,1.0
4541307,,,,,,,,3.96484375,-13.68359375,7.1328125,0.11328125,-3.474609375,1.328125,5.60546875,-22.6796875,9.796875,1.0
4541308,,,,,,,,2.11328125,-11.50390625,2.3671875,0.31640625,-1.595703125,2.6640625,3.65234375,-20.53515625,5.0078125,1.0
4541309,,,,,,,,-0.78515625,-6.83984375,-1.87890625,0.60546875,1.009765625,2.89453125,0.51171875,-15.90234375,0.79296875,1.0
4541310,36.01265733333333,129.31949266666666,80.47325523460643,28.553877860926292,3.4000000000000004,48.0,,-2.6484375,-3.59765625,-1.671875,-0.142578125,-0.568359375,0.330078125,-0.9453125,-51.10546875,20.0234375,1.0
4541311,,,,,,,,-2.7109375,-1.68359375,-0.40234375,1.298828125,0.314453125,2.873046875,-2.015625,-10.765625,2.48046875,1.0
4541312,,,,,,,,-2.62109375,-1.19921875,-0.53515625,1.583984375,-0.30859375,2.7109375,-2.16796875,-10.26953125,2.48046875,1.0
4541313,,,,,,,,-3.13671875,1.94140625,-2.1875,1.75390625,-0.013671875,2.93359375,-2.93359375,-7.0859375,0.984375,1.0
4541314,,,,,,,,-3.65234375,5.04296875,-3.38671875,1.880859375,0.43359375,2.814453125,-3.85546875,-3.91015625,0.02734375,1.0
4541315,,,,,,,,-4.38671875,8.34765625,-3.140625,1.775390625,0.36328125,2.46484375,-4.96484375,-0.50390625,0.5234375,1.0
4541316,,,,,,,,-4.484375,9.6796875,-2.8046875,1.693359375,0.3125,2.41796875,-5.19921875,0.875,0.9453125,1.0
4541317,,,,,,,,-4.10546875,11.41015625,-2.78125,1.525390625,0.26171875,2.38671875,-5.04296875,2.67578125,1.1015625,1.0
4541318,,,,,,,,-3.5625,11.79296875,-3.7578125,1.1953125,0.130859375,2.404296875,-4.81640625,3.17578125,0.296875,1.0
4541319,,,,,,,,-3.03125,11.984375,-4.53515625,1.05078125,0.044921875,2.361328125,-4.39453125,3.40625,-0.43359375,1.0
4541320,36.01265933333333,129.31949516666666,80.69862638710973,28.77579839855024,3.4000000000000004,48.0,,-2.1484375,11.23046875,-5.64453125,0.77734375,-0.138671875,2.138671875,-3.70703125,2.71484375,-1.46484375,1.0
4541321,,,,,,,,-1.453125,7.94921875,-6.16796875,0.6015625,-0.2890625,1.6640625,-3.1640625,-0.50390625,-1.92578125,1.0
4541322,,,,,,,,-1.24609375,6.34765625,-5.89453125,0.505859375,-0.39453125,0.765625,-3.0859375,-2.03515625,-1.58203125,1.0
4541323,,,,,,,,-0.75390625,4.625,-5.3359375,0.466796875,-0.216796875,0.27734375,-2.62890625,-3.71875,-0.96875,1.0
4541324,,,,,,,,0.51953125,5.22265625,-4.06640625,0.34375,0.037109375,-0.08203125,-1.36328125,-3.1015625,0.33203125,1.0
4541325,,,,,,,,1.09375,6.546875,-3.23046875,0.244140625,0.291015625,-0.1875,-0.7890625,-1.76953125,1.17578125,1.0
4541326,,,,,,,,1.28515625,7.3046875,-3.0078125,0.189453125,0.380859375,-0.189453125,-0.59765625,-1.0,1.41015625,1.0
4541327,,,,,,,,1.828125,9.78515625,-2.73828125,0.095703125,0.423828125,-0.2109375,-0.0625,1.48828125,1.67578125,1.0
4541328,,,,,,,,2.171875,11.5390625,-3.046875,0.083984375,0.228515625,-0.162109375,0.28125,3.25390625,1.3671875,1.0
4541329,,,,,,,,2.09765625,11.76953125,-3.0859375,0.125,0.0625,-0.125,0.20703125,3.4765625,1.328125,1.0
4541330,36.0126615,129.31949866666668,81.0141466367877,29.0162129807437,3.6,49.0,,1.3828125,11.640625,-3.14453125,0.265625,-0.509765625,-0.1484375,-0.484375,3.37109375,1.29296875,1.0
4541331,,,,,,,,-1.53515625,9.31640625,-0.9921875,0.30859375,-0.830078125,-0.30078125,-3.35546875,1.06640625,3.4765625,1.0
4541332,,,,,,,,-3.60546875,7.171875,2.35546875,0.318359375,-0.94140625,-0.30859375,-5.38671875,-1.078125,6.84765625,1.0
4541333,,,,,,,,-4.55859375,4.22265625,4.25390625,0.345703125,-0.958984375,0.1171875,-6.26953125,-3.98828125,8.796875,1.0
4541334,,,,,,,,6.03125,-12.234375,-0.8828125,0.3046875,-0.751953125,0.25,4.34375,-20.42578125,3.703125,1.0
4541335,,,,,,,,15.828125,-34.16796875,4.6484375,0.21484375,-0.388671875,-0.119140625,14.1484375,-42.328125,9.2578125,1.0
4541336,,,,,,,,20.74609375,-55.73828125,22.71484375,0.193359375,-0.14453125,-0.529296875,19.08984375,-63.90234375,27.33984375,1.0
4541337,,,,,,,,6.1953125,-30.9375,26.33984375,0.234375,0.76171875,-2.29296875,4.6875,-39.1171875,30.98046875,1.0
4541338,,,,,,,,-4.9375,-5.24609375,3.69140625,0.091796875,1.0078125,-1.931640625,-6.3046875,-13.4453125,8.33984375,1.0
4541339,,,,,,,,-5.96484375,-3.24609375,0.13671875,-0.142578125,1.0625,-0.572265625,-7.30078125,-11.453125,4.77734375,1.0
4541340,36.0126635,129.31950216666667,81.32966703786735,29.238134366201344,3.7,50.0,,-1.16796875,-10.46484375,-2.875,0.265625,-0.509765625,-0.1484375,-2.62890625,-18.6953125,1.7109375,1.0
4541341,,,,,,,,0.55078125,-12.671875,3.11328125,-0.61328125,0.1953125,-0.166015625,-1.05859375,-20.921875,7.61328125,1.0
4541342,,,,,,,,-0.08984375,-12.82421875,3.609375,-0.099609375,-4.10546875,-1.689453125,-1.51953125,-21.109375,8.109375,1.0
4541343,,,,,,,,3.1796875,-7.45703125,-0.14453125,-0.373046875,-1.30078125,-4.02734375,2.3515625,-15.82421875,4.39453125,1.0
4541344,,,,,,,,5.05859375,-4.9140625,-1.75390625,-0.734375,0.71484375,-3.671875,4.57421875,-13.33984375,2.74609375,1.0
4541345,,,,,,,,5.828125,-3.84765625,-3.66015625,-1.318359375,0.39453125,-2.6015625,5.5703125,-12.33984375,0.75390625,1.0
4541346,,,,,,,,4.97265625,-2.8125,-3.34375,-1.69921875,-0.435546875,-2.236328125,4.91796875,-11.3828125,0.9453125,1.0
4541347,,,,,,,,3.94921875,-1.125,-2.45703125,-1.830078125,-0.64453125,-2.23828125,4.11328125,-9.77734375,1.67578125,1.0
4541348,,,,,,,,3.0859375,1.7109375,-1.10546875,-1.900390625,-0.306640625,-2.271484375,3.4609375,-7.01953125,2.86328125,1.0
4541349,,,,,,,,2.6171875,3.8515625,-0.66796875,-1.873046875,0.314453125,-2.08203125,3.1953125,-4.9453125,3.12890625,1.0
4541350,36.012665,129.31950450000002,81.54001379360726,29.40457516866523,3.4000000000000004,52.0,,1.62890625,7.8828125,-1.90234375,-1.681640625,0.8828125,-1.623046875,2.42578125,-1.0,1.67578125,1.0
4541351,,,,,,,,1.19140625,10.17578125,-3.65234375,-1.3046875,0.751953125,-1.580078125,2.16015625,1.22265625,-0.27734375,1.0
4541352,,,,,,,,1.01953125,10.71875,-4.18359375,-1.17578125,0.548828125,-1.6171875,2.04296875,1.7578125,-0.85546875,1.0
4541353,,,,,,,,0.43359375,10.6796875,-4.80859375,-0.9140625,-0.193359375,-1.494140625,1.66015625,1.6796875,-1.62109375,1.0
4541354,,,,,,,,0.5859375,10.64453125,-5.06640625,-0.84375,-0.38671875,-1.435546875,1.890625,1.64453125,-1.921875,1.0
4541355,,,,,,,,0.8125,10.60546875,-5.83203125,-0.74609375,-0.640625,-1.37109375,2.2734375,1.60546875,-2.76953125,1.0
4541356,,,,,,,,1.2421875,10.15234375,-5.9453125,-0.693359375,-0.70703125,-1.369140625,2.7734375,1.14453125,-2.921875,1.0
4541357,,,,,,,,3.96484375,6.62109375,-6.83203125,-0.650390625,-0.744140625,-1.541015625,5.72265625,-2.37890625,-3.91796875,1.0
4541358,,,,,,,,4.1484375,6.0390625,-6.79296875,-0.658203125,-0.708984375,-1.658203125,5.9921875,-2.953125,-3.91796875,1.0
4541359,,,,,,,,3.8125,5.484375,-6.4453125,-0.673828125,-0.58203125,-1.86328125,5.83984375,-3.4921875,-3.6484375,1.0
4541360,36.01266733333333,129.319508,81.85553382027891,29.663482986246525,3.7,51.0,,0.27734375,6.7890625,-3.984375,-1.681640625,0.8828125,-1.623046875,2.578125,-2.1484375,-1.3125,1.0
4541361,,,,,,,,-2.5625,9.828125,-2.421875,-0.736328125,0.064453125,-1.271484375,-0.1015625,0.9140625,0.1796875,1.0
4541362,,,,,,,,-3.8515625,11.73828125,-1.74609375,-0.615234375,0.240234375,-0.19921875,-1.328125,2.83203125,0.79296875,1.0
4541363,,,,,,,,-5.08984375,13.9453125,-0.88671875,-0.48828125,0.12109375,1.4296875,-2.58984375,4.66796875,2.6328125,1.0
4541364,,,,,,,,-4.91015625,13.25390625,0.84765625,-0.388671875,-0.06640625,2.06640625,-1.90234375,2.67578125,7.1875,1.0
4541365,,,,,,,,-2.44140625,10.57421875,6.203125,-0.2265625,-0.294921875,2.359375,0.62890625,-0.34765625,8.49609375,1.0
4541366,,,,,,,,-1.46484375,8.69140625,6.109375,-0.15625,-0.369140625,2.373046875,-1.671875,-9.12109375,9.828125,1.0
4541367,,,,,,,,-4.17578125,-4.02734375,11.23046875,-0.029296875,-0.421875,2.17578125,-3.01171875,-21.95703125,16.65234375,1.0
4541368,,,,,,,,-5.40625,-24.8046875,17.296875,0.111328125,-0.32421875,1.625,-3.05078125,-57.0390625,24.19921875,1.0
4541369,,,,,,,,-6.796875,-51.40625,17.09765625,0.126953125,0.09765625,0.576171875,-4.890625,-57.6171875,10.484375,1.0
4541370,36.0126695,129.31951116666667,82.14100424968217,29.90389732830048,3.6,48.0,,-4.8125,-15.76171875,7.359375,-0.154296875,2.109375,0.5859375,-0.67578125,-16.625,7.84375,1.0
4541371,,,,,,,,1.94140625,-4.6484375,1.78125,-0.171875,3.705078125,-0.90234375,6.2578125,-14.02734375,0.83203125,1.0
4541372,,,,,,,,4.8671875,-4.875,-1.56640625,0.0234375,2.94921875,-1.697265625,7.9453125,-17.81640625,0.1796875,1.0
4541373,,,,,,,,5.5625,-9.796875,0.40234375,0.794921875,-2.447265625,-0.830078125,6.18359375,-21.69140625,6.84765625,1.0
4541374,,,,,,,,3.734375,-15.51953125,5.65625,0.498046875,-2.650390625,1.880859375,4.6484375,-24.37109375,8.53125,1.0
4541375,,,,,,,,2.3125,-14.1640625,5.6171875,0.09765625,-2.1796875,2.015625,2.734375,-19.65625,6.04296875,1.0
4541376,,,,,,,,1.1953125,-10.53125,3.56640625,0.19140625,-0.89453125,2.392578125,2.3125,-17.58984375,4.890625,1.0
4541377,,,,,,,,0.91796875,-6.61328125,1.359375,0.33984375,1.302734375,3.5390625,1.203125,-13.1015625,2.515625,1.0
4541378,,,,,,,,-0.453125,-3.08984375,-0.4140625,1.16796875,0.453125,3.396484375,-1.05859375,-10.96484375,1.75,1.0
4541379,,,,,,,,-1.55859375,-1.7421875,-0.8828125,1.478515625,0.154296875,3.0703125,-2.28515625,-10.04296875,1.75,1.0
4541380,36.0126715,129.319514,82.39642508174848,30.125818190944443,3.5,48.0,,-4.8125,-15.76171875,7.359375,1.849609375,-0.111328125,2.833984375,-3.625,-8.16796875,2.25,1.0
4541381,,,,,,,,-4.0,1.8359375,-0.83984375,2.123046875,-0.005859375,2.83203125,-4.8515625,-5.63671875,1.55859375,1.0
4541382,,,,,,,,-4.46484375,5.06640625,-2.3515625,2.11328125,0.4140625,2.326171875,-5.38671875,-1.95703125,0.75390625,1.0
4541383,,,,,,,,-4.72265625,7.01953125,-2.68359375,2.046875,0.48828125,2.16796875,-5.65625,-0.1953125,0.71875,1.0
4541384,,,,,,,,-4.51953125,9.34765625,-2.69921875,1.84765625,0.5,1.853515625,-4.96484375,1.14453125,1.0234375,1.0
4541385,,,,,,,,-3.375,10.46484375,-2.359375,1.4453125,0.388671875,1.623046875,-4.43359375,1.64453125,1.40625,1.0
4541386,,,,,,,,-2.90234375,11.2265625,-3.51953125,1.076171875,0.24609375,1.515625,-4.12109375,2.484375,0.37109375,1.0
4541387,,,,,,,,-2.37890625,10.28515625,-4.30859375,0.73828125,0.087890625,1.5,-3.734375,1.60546875,-0.31640625,1.0
4541388,,,,,,,,-2.0859375,9.578125,-4.515625,0.59375,-0.00390625,1.560546875,-3.58984375,0.953125,-0.46875,1.0
4541389,,,,,,,,-1.80078125,7.921875,-4.87109375,0.48046875,-0.26953125,1.626953125,-3.43359375,-0.65625,-0.77734375,1.0
4541390,36.0126735,129.31951633333335,82.60677127399279,30.34773863782665,3.4000000000000004,47.0,,-1.68359375,6.3828125,-5.0390625,0.494140625,-0.53125,1.45703125,-3.43359375,-2.1484375,-0.890625,1.0
4541391,,,,,,,,-1.390625,4.94140625,-5.33984375,0.388671875,-0.537109375,1.15625,-3.28125,-3.5234375,-1.12109375,1.0
4541392,,,,,,,,-0.36328125,5.375,-5.1640625,0.369140625,-0.44921875,0.982421875,-2.28515625,-3.0703125,-0.9296875,1.0
4541393,,,,,,,,0.734375,7.59765625,-4.9140625,0.341796875,-0.138671875,0.072265625,-1.25390625,-0.80859375,-0.625,1.0
4541394,,,,,,,,1.9375,9.88671875,-4.74609375,0.28515625,-0.029296875,-0.53125,-0.0234375,1.48828125,-0.43359375,1.0
4541395,,,,,,,,2.1875,12.02734375,-4.4609375,0.23828125,-0.080078125,-0.82421875,0.28125,3.6328125,-0.125,1.0
4541396,,,,,,,,2.1875,12.67578125,-4.36328125,0.328125,-0.244140625,-0.91796875,0.359375,4.28125,-0.01171875,1.0
4541397,,,,,,,,1.98046875,13.703125,-4.27734375,0.3046875,-0.419921875,-0.830078125,0.24609375,5.3203125,0.10546875,1.0
4541398,,,,,,,,1.296875,12.62109375,-4.2265625,0.216796875,-0.521484375,-0.578125,-0.3671875,4.24609375,0.1796875,1.0
4541399,,,,,,,,1.02734375,11.703125,-4.08984375,0.20703125,-0.513671875,-0.44140625,-0.59765625,3.328125,0.33203125,1.0
4541400,36.01267533333333,129.31951933333332,82.8772171297526,30.55116644986796,3.4000000000000004,49.0,0.0,-0.1484375,8.73046875,-3.0390625,0.146484375,-0.3984375,-0.22265625,-1.7109375,0.37890625,1.40625,1.0
4541401,,,,,,,,-3.3125,2.01171875,2.796875,0.2109375,-0.228515625,-0.154296875,-4.8515625,-6.32421875,7.26953125,1.0
4541402,,,,,,,,-6.58984375,-9.0390625,7.04296875,0.255859375,0.03125,-0.203125,-8.10546875,-17.359375,11.51953125,1.0
4541403,,,,,,,,-1.41796875,-21.91796875,7.83984375,0.275390625,0.162109375,-0.201171875,-2.93359375,-30.23046875,12.32421875,1.0
4541404,,,,,,,,14.96875,-42.80859375,12.14453125,0.296875,0.3828125,-0.212890625,13.4609375,-51.10546875,16.65234375,1.0
4541405,,,,,,,,18.98828125,-40.56640625,20.90234375,0.318359375,0.66015625,-0.498046875,17.48046875,-48.84375,25.42578125,1.0
4541406,,,,,,,,-6.05078125,-3.16796875,2.58984375,0.62109375,1.6484375,-3.0078125,-7.41796875,-11.453125,7.15234375,1.0
4541407,,,,,,,,-4.13671875,-4.921875,-1.21875,-0.666015625,2.05859375,-2.26953125,-5.34765625,-13.26171875,3.3203125,1.0
4541408,,,,,,,,-2.1328125,-7.34375,-2.5859375,-1.1875,1.640625,-1.072265625,-3.3203125,-15.71484375,1.90625,1.0
4541409,,,,,,,,0.7421875,-11.01171875,0.01953125,-0.419921875,-1.587890625,-0.279296875,-0.40625,-19.42578125,4.43359375,1.0
4541410,36.01267716666667,129.3195225,83.16268785220822,30.75459441380852,3.4000000000000004,50.0,,3.62109375,-13.07421875,3.16796875,-0.046875,-4.927734375,-0.0390625,2.62109375,-21.49609375,7.61328125,1.0
4541411,,,,,,,,3.1875,-9.1015625,1.6796875,-0.48046875,-1.1796875,-3.525390625,2.65625,-17.5859375,6.1171875,1.0
4541412,,,,,,,,3.68359375,-6.98046875,-0.05859375,-0.48828125,0.095703125,-3.45703125,3.30859375,-15.48046875,4.35546875,1.0
4541413,,,,,,,,4.6328125,-4.87109375,-3.08984375,-1.14453125,0.419921875,-2.662109375,4.609375,-13.4453125,1.21484375,1.0
4541414,,,,,,,,4.5,-3.8515625,-3.25,-1.599609375,0.041015625,-2.330078125,4.6875,-12.49609375,0.9453125,1.0
4541415,,,,,,,,3.5234375,-0.91015625,-2.5859375,-1.962890625,-0.123046875,-2.13671875,3.921875,-9.62109375,1.4453125,1.0
4541416,,,,,,,,2.9609375,0.203125,-2.03125,-2.0703125,0.05859375,-2.189453125,3.5390625,-8.5859375,1.828125,1.0
4541417,,,,,,,,1.890625,3.38671875,-0.93359375,-2.015625,0.384765625,-2.091796875,2.65625,-5.4765625,2.74609375,1.0
4541418,,,,,,,,1.8828125,4.40625,-0.73828125,-1.865234375,0.55859375,-2.015625,2.734375,-4.484375,2.86328125,1.0
4541419,,,,,,,,0.33203125,8.61328125,-2.64453125,-1.357421875,0.990234375,-1.587890625,1.390625,-0.34765625,0.75390625,1.0
4541420,36.01267866666667,129.31952483333333,83.37303453464507,30.921035261050815,3.2,51.0,,0.11328125,8.97265625,-3.1171875,-1.189453125,1.03125,-1.474609375,1.234375,-0.00390625,0.21875,1.0
4541421,,,,,,,,0.6171875,11.26953125,-3.265625,-0.814453125,0.09765625,-1.32421875,2.0078125,2.25,-0.125,1.0
4541422,,,,,,,,0.4765625,11.05078125,-4.25390625,-0.78515625,-0.125,-1.263671875,1.9296875,2.02734375,-1.16015625,1.0
4541423,,,,,,,,0.8203125,10.90234375,-5.140625,-0.828125,-0.396484375,-1.19921875,2.39453125,1.87109375,-2.1171875,1.0
4541424,,,,,,,,1.25390625,10.59765625,-5.515625,-0.830078125,-0.47265625,-1.23828125,2.8828125,1.56640625,-2.5390625,1.0
4541425,,,,,,,,3.06640625,7.87890625,-6.6171875,-0.70703125,-0.595703125,-1.505859375,4.83984375,-1.15234375,-3.7265625,1.0
4541426,,,,,,,,3.76171875,6.1015625,-6.35546875,-0.607421875,-0.716796875,-1.994140625,5.71875,-2.9140625,-3.53515625,1.0
4541427,,,,,,,,3.9296875,5.43359375,-6.171875,-0.603515625,-0.755859375,-2.1953125,5.99609375,-3.56640625,-3.3828125,1.0
4541428,,,,,,,,1.984375,5.5078125,-4.16015625,-0.716796875,-0.72265625,-2.365234375,4.30859375,-3.453125,-1.46484375,1.0
4541429,,,,,,,,0.81640625,6.06640625,-3.86328125,-0.7578125,-0.6640625,-2.28125,3.2265625,-2.87890625,-1.19921875,1.0
4541430,36.012680833333334,129.31952783333332,83.64348000457167,31.161449508869502,3.5,50.0,,-1.1484375,7.4921875,-2.7734375,-1.189453125,1.03125,-1.474609375,1.47265625,-1.421875,-0.203125,1.0
4541431,,,,,,,,-2.796875,11.0625,-2.671875,-0.6171875,-0.05078125,-0.8359375,-0.0625,2.1796875,-0.1640625,1.0
4541432,,,,,,,,-3.41015625,12.171875,-2.49609375,-0.51171875,0.060546875,0.158203125,-0.63671875,3.2890625,-0.05078125,1.0
4541433,,,,,,,,-4.83203125,14.265625,-0.76171875,-0.4453125,-0.224609375,1.537109375,-2.20703125,5.32421875,1.59765625,1.0
4541434,,,,,,,,-4.80078125,14.01171875,-0.00390625,-0.4609375,-0.302734375,1.7265625,-2.24609375,5.05078125,2.32421875,1.0
4541435,,,,,,,,-3.80078125,10.23828125,5.25390625,-0.369140625,-0.33984375,2.0703125,-1.40234375,1.22265625,7.53515625,1.0
4541436,,,,,,,,-3.22265625,2.1640625,7.8671875,-0.265625,-0.3203125,2.26953125,-1.01953125,-6.8984375,10.10546875,1.0
4541437,,,,,,,,-4.2421875,-8.81640625,14.88671875,-0.193359375,-0.29296875,2.212890625,-2.1328125,-17.890625,17.11328125,1.0
4541438,,,,,,,,-4.7890625,-31.03125,20.65625,-0.115234375,-0.173828125,1.806640625,-2.859375,-40.1484375,22.859375,1.0
4541439,,,,,,,,-7.69921875,-50.25390625,20.1640625,-0.1328125,-0.080078125,1.56640625,-5.84765625,-59.37890625,22.359375,1.0
4541440,36.01268316666667,129.31953083333335,83.9139252852803,31.420356971636803,3.5,47.0,,-0.90625,-12.63671875,6.58984375,-1.189453125,1.03125,-1.474609375,0.78125,-21.80078125,8.76171875,1.0
4541441,,,,,,,,2.02734375,-3.84765625,-0.11328125,-0.515625,3.55859375,-0.533203125,3.65234375,-13.02734375,2.05859375,1.0
4541442,,,,,,,,5.7421875,-8.5,-2.8515625,-0.08203125,2.3984375,-1.654296875,7.40625,-17.66796875,-0.6640625,1.0
4541443,,,,,,,,5.6171875,-13.04296875,4.4140625,0.880859375,-1.60546875,-1.1015625,7.40625,-22.18359375,6.65625,1.0
4541444,,,,,,,,4.4609375,-15.77734375,6.87890625,0.455078125,-2.611328125,1.20703125,6.296875,-24.90234375,9.14453125,1.0
4541445,,,,,,,,3.62890625,-12.8359375,5.5234375,-0.083984375,-2.431640625,1.896484375,5.37890625,-21.99609375,7.765625,1.0
4541446,,,,,,,,3.19921875,-11.05859375,4.28125,-0.1015625,-1.43359375,2.19140625,4.87890625,-20.23046875,6.5,1.0
4541447,,,,,,,,0.83203125,-6.0078125,0.49609375,0.34375,1.283203125,3.515625,2.12109375,-15.25,2.74609375,1.0
4541448,,,,,,,,-1.8671875,-3.25,-1.75,0.865234375,0.74609375,3.9140625,-0.9453125,-12.53125,0.5625,1.0
4541449,,,,,,,,-4.4453125,0.53515625,-1.9453125,1.720703125,-0.431640625,3.166015625,-4.0078125,-8.73828125,0.5625,1.0
4541450,36.01268466666667,129.31953366666667,84.16934656193779,31.586798269456867,3.2,49.0,,-5.609375,3.3515625,-1.7578125,2.068359375,-0.53125,3.30078125,-5.6171875,-5.8671875,1.0234375,1.0
4541451,,,,,,,,-5.40625,4.140625,-1.953125,2.154296875,-0.162109375,3.22265625,-5.69921875,-5.0234375,1.0234375,1.0
4541452,,,,,,,,-5.4375,7.09765625,-1.86328125,2.111328125,0.26953125,2.861328125,-6.00390625,-1.99609375,1.29296875,1.0
4541453,,,,,,,,-5.34375,7.9375,-1.8515625,2.083984375,0.45703125,2.638671875,-6.0390625,-1.1171875,1.40625,1.0
4541454,,,,,,,,-4.43359375,10.52734375,-1.609375,1.818359375,0.6953125,2.37890625,-5.3828125,1.56640625,1.828125,1.0
4541455,,,,,,,,-3.82421875,11.375,-1.59765625,1.431640625,0.67578125,2.384765625,-5.00390625,2.484375,1.98046875,1.0
4541456,,,,,,,,-3.26953125,13.05078125,-2.55078125,1.138671875,0.544921875,2.439453125,-4.6953125,4.24609375,1.13671875,1.0
4541457,,,,,,,,-2.8203125,12.796875,-4.3125,0.900390625,0.376953125,2.333984375,-4.46875,4.0546875,-0.546875,1.0
4541458,,,,,,,,-2.7421875,11.6484375,-5.34765625,0.818359375,0.251953125,2.21875,-4.51171875,2.9453125,-1.54296875,1.0
4541459,,,,,,,,-2.60546875,9.9375,-6.1328125,0.716796875,-0.119140625,1.578125,-4.62109375,1.3359375,-2.234375,1.0
4541460,36.01268683333333,129.31953616666667,84.3947173665331,31.827212109050347,3.3000000000000003,47.0,,-2.55078125,7.6484375,-6.23828125,2.068359375,-0.53125,3.30078125,-5.6171875,-5.8671875,1.0234375,1.0
4541461,,,,,,,,-2.51953125,5.64453125,-6.0703125,0.623046875,-0.3359375,0.62890625,-4.65625,-2.87890625,-2.078125,1.0
4541462,,,,,,,,-1.4140625,3.77734375,-5.4765625,0.56640625,-0.236328125,0.087890625,-3.5859375,-4.71484375,-1.4296875,1.0
4541463,,,,,,,,0.9375,4.80859375,-5.0390625,0.427734375,0.1953125,-0.27734375,-1.2109375,-3.640625,-0.9296875,1.0
4541464,,,,,,,,3.734375,6.9375,-4.296875,0.294921875,0.44140625,-0.40234375,1.5859375,-1.5,-0.1640625,1.0
4541465,,,,,,,,5.34765625,9.0859375,-3.953125,0.14453125,0.525390625,-0.662109375,3.23046875,0.6484375,0.1796875,1.0
4541466,,,,,,,,5.44921875,9.734375,-3.9140625,0.125,0.490234375,-0.865234375,3.34765625,1.296875,0.21875,1.0
4541467,,,,,,,,4.8046875,10.78515625,-3.69140625,0.2109375,0.326171875,-1.30859375,2.77734375,2.33203125,0.44921875,1.0
4541468,,,,,,,,3.125,10.91015625,-3.203125,0.361328125,0.017578125,-1.4609375,1.203125,2.44921875,0.9453125,1.0
4541469,,,,,,,,-0.37109375,10.06640625,-2.09765625,0.4765625,-0.326171875,-1.279296875,-2.1640625,1.60546875,2.09765625,1.0
4541470,36.01268866666667,129.31954,84.74028750577243,32.03064070167709,3.6,52.0,,-6.6015625,7.7890625,5.9453125,0.505859375,-0.65234375,-0.669921875,-8.296875,-0.65625,10.1796875,1.0
4541471,,,,,,,,-8.11328125,5.390625,7.69140625,0.45703125,-0.828125,0.140625,-9.75390625,-3.03125,11.9765625,1.0
4541472,,,,,,,,0.55859375,-2.65234375,-2.38671875,0.373046875,-0.8515625,0.90625,-1.09765625,-11.03125,1.94140625,1.0
4541473,,,,,,,,7.80859375,-16.3671875,0.21875,0.279296875,-0.6796875,1.03515625,6.10546875,-24.71484375,4.5859375,1.0
4541474,,,,,,,,15.9296875,-51.328125,16.7734375,0.208984375,-0.3046875,-0.095703125,14.1875,-59.65234375,21.171875,1.0
4541475,,,,,,,,6.89453125,-16.78125,9.9765625,0.125,0.2421875,-3.08984375,5.37890625,-25.13671875,14.390625,1.0
4541476,,,,,,,,-1.1015625,-5.7578125,-2.05859375,0.0546875,0.74609375,-2.0078125,-2.3984375,-14.140625,2.36328125,1.0
4541477,,,,,,,,-0.7578125,-10.72265625,-3.56640625,-0.353515625,1.6328125,0.501953125,-2.0546875,-19.12109375,0.83203125,1.0
4541478,,,,,,,,-1.0625,-10.96484375,2.91796875,-0.71484375,1.994140625,-0.087890625,-2.4765625,-19.3828125,7.23046875,1.0
4541479,,,,,,,,0.078125,-12.8359375,4.52734375,-0.37109375,-3.25390625,-1.546875,-1.25,-21.3046875,8.80078125,1.0
4541480,36.0126905,129.31954333333334,85.04078301304673,32.23406887121949,3.6,52.0,,2.81640625,-9.203125,-0.1875,0.505859375,-0.65234375,-0.669921875,-8.296875,-0.65625,10.1796875,1.0
4541481,,,,,,,,3.19921875,-7.70703125,-1.3359375,-0.576171875,-1.064453125,-3.06640625,2.54296875,-16.24609375,2.9765625,1.0
4541482,,,,,,,,4.8125,-5.390625,-2.796875,-1.482421875,0.40234375,-2.84765625,4.6484375,-14.06640625,1.328125,1.0
4541483,,,,,,,,4.45703125,-3.66796875,-1.8828125,-1.5703125,-0.033203125,-2.7265625,4.41796875,-12.37890625,2.171875,1.0
4541484,,,,,,,,3.87109375,-0.03515625,-1.55859375,-1.619140625,-0.32421875,-2.625,4.07421875,-8.81640625,2.36328125,1.0
4541485,,,,,,,,3.6640625,0.94921875,-1.82421875,-1.62890625,-0.1875,-2.689453125,4.0,-7.85546875,2.01953125,1.0
4541486,,,,,,,,3.3125,1.9609375,-2.05859375,-1.74609375,0.33203125,-2.66796875,3.8828125,-6.8984375,1.63671875,1.0
4541487,,,,,,,,3.02734375,5.77734375,-3.015625,-1.802734375,0.701171875,-2.37109375,3.8046875,-3.14453125,0.5234375,1.0
4541488,,,,,,,,2.8828125,6.8515625,-3.05078125,-1.685546875,0.69140625,-2.09375,3.84375,-2.109375,0.33203125,1.0
4541489,,,,,,,,1.76171875,10.6953125,-3.92578125,-1.423828125,0.2890625,-1.861328125,2.96484375,1.6796875,-0.73828125,1.0
4541490,36.0126925,129.31954616666664,85.29620370184529,32.455989819712016,3.6,52.0,,1.06640625,11.33203125,-4.4609375,-1.21875,0.064453125,-1.744140625,2.421875,2.29296875,-1.390625,1.0
4541491,,,,,,,,0.87890625,11.30859375,-4.765625,-0.943359375,-0.041015625,-1.376953125,2.4609375,2.25390625,-1.8515625,1.0
4541492,,,,,,,,1.4453125,10.28515625,-6.140625,-0.82421875,-0.05859375,-1.138671875,3.15625,1.22265625,-3.30859375,1.0
4541493,,,,,,,,1.88671875,8.7421875,-6.484375,-0.80859375,-0.0625,-1.080078125,3.65234375,-0.3125,-3.69140625,1.0
4541494,,,,,,,,2.46875,6.7578125,-6.09375,-0.833984375,-0.0078125,-1.146484375,4.34765625,-2.3046875,-3.3828125,1.0
4541495,,,,,,,,2.51171875,5.44921875,-5.28515625,-0.833984375,0.01953125,-1.263671875,4.49609375,-3.60546875,-2.65234375,1.0
4541496,,,,,,,,1.12890625,5.44140625,-3.53125,-0.76171875,0.01953125,-1.1640625,3.23046875,-3.60546875,-0.96875,1.0
4541497,,,,,,,,-0.6484375,6.3515625,-2.34375,-0.642578125,0.0859375,-0.7578125,1.546875,-2.6875,0.140625,1.0
4541498,,,,,,,,-1.24609375,6.9375,-2.08984375,-0.587890625,0.10546875,-0.494140625,0.97265625,-2.109375,0.37109375,1.0
4541499,,,,,,,,-2.2734375,8.31640625,-1.46875,-0.443359375,0.11328125,-0.017578125,-0.0234375,-0.73046875,0.9453125,1.0
4541500,36.01269483333333,129.3195495,85.59669863825096,32.71489762624199,3.8000000000000003,50.0,0.0,-2.984375,12.65234375,-0.546875,-1.21875,0.064453125,-1.744140625,-0.75,3.59375,1.828125,1.0
4541501,,,,,,,,-3.046875,15.38671875,5.64453125,-0.48828125,-0.55078125,0.23828125,-0.828125,6.31640625,7.91796875,1.0
4541502,,,,,,,,-2.83984375,14.75,5.29296875,-0.447265625,-0.8359375,0.67578125,-0.63671875,5.6640625,7.49609375,1.0
4541503,,,,,,,,-3.27734375,10.69921875,4.15234375,-0.263671875,-1.03125,1.25390625,-1.13671875,1.60546875,6.3046875,1.0
4541504,,,,,,,,-3.3671875,4.66796875,1.59375,-0.1328125,-1.0703125,1.392578125,-1.328125,-4.4453125,3.703125,1.0
4541505,,,,,,,,-7.73828125,-31.40234375,13.1171875,-0.15234375,-0.951171875,0.8828125,-5.76953125,-40.53515625,15.1953125,1.0
4541506,,,,,,,,-9.5390625,-47.3671875,16.3984375,-0.130859375,-0.619140625,0.853515625,-7.609375,-56.51171875,18.453125,1.0
4541507,,,,,,,,-10.2265625,-34.39453125,23.75390625,-0.0234375,0.798828125,0.7109375,-8.4140625,-43.55859375,25.80859375,1.0
4541508,,,,,,,,2.8984375,-7.03515625,6.375,0.03125,1.111328125,0.251953125,4.6484375,-16.20703125,8.453125,1.0
4541509,,,,,,,,3.84375,-3.89453125,0.73828125,0.046875,0.951171875,0.1015625,5.5703125,-13.06640625,2.82421875,1.0
4541510,36.01269716666666,129.31955266666668,85.88216868737135,32.973805296040354,3.7,47.0,,4.1953125,-8.8046875,-1.90625,0.2265625,1.14453125,-1.447265625,5.953125,-17.96875,0.21875,1.0
4541511,,,,,,,,6.3984375,-10.63671875,2.1015625,0.341796875,2.119140625,-0.705078125,8.25,-19.765625,4.28125,1.0
4541512,,,,,,,,5.42578125,-13.88671875,6.64453125,-0.00390625,-2.5546875,1.17578125,7.25390625,-23.02734375,8.83984375,1.0
4541513,,,,,,,,3.96484375,-13.44921875,6.8203125,0.099609375,-3.384765625,1.833984375,5.76171875,-22.6015625,8.9921875,1.0
4541514,,,,,,,,-0.5859375,-8.890625,1.21875,0.140625,-1.291015625,2.66796875,1.046875,-18.08984375,3.359375,1.0
4541515,,,,,,,,-1.35546875,-6.3515625,-0.34375,0.482421875,0.9140625,2.310546875,0.05078125,-15.59375,1.828125,1.0
4541516,,,,,,,,-1.72265625,-3.46484375,-0.0859375,0.986328125,1.2890625,2.587890625,-0.55859375,-12.72265625,2.171875,1.0
4541517,,,,,,,,-2.1015625,-2.1171875,-0.01171875,1.2890625,0.50390625,2.68359375,-1.2109375,-11.38671875,2.36328125,1.0
4541518,,,,,,,,-2.4609375,-1.3125,-0.203125,1.443359375,0.09765625,2.572265625,-1.7109375,-10.58203125,2.25,1.0
4541519,,,,,,,,-3.62890625,2.234375,-1.37109375,1.6484375,-0.08203125,2.615234375,-3.08984375,-7.015625,1.21484375,1.0
4541520,36.012699,129.3195555,86.13758951713439,33.177233063371915,3.5,48.0,,-5.1796875,7.46484375,-2.10546875,1.859375,0.28125,2.513671875,-5.2734375,-1.69140625,0.91015625,1.0
4541521,,,,,,,,-5.40234375,9.55859375,-2.37890625,1.67578125,0.1875,2.453125,-5.73046875,0.45703125,0.79296875,1.0
4541522,,,,,,,,-5.25,10.015625,-2.578125,1.5859375,0.1171875,2.431640625,-5.6953125,0.953125,0.6796875,1.0
4541523,,,,,,,,-4.72265625,11.75390625,-3.171875,1.435546875,0.072265625,2.341796875,-5.3828125,2.75390625,0.21875,1.0
4541524,,,,,,,,-4.61328125,11.73046875,-3.234375,1.337890625,0.0859375,2.26171875,-5.078125,2.984375,0.10546875,1.0
4541525,,,,,,,,-3.5390625,12.51171875,-3.58203125,1.091796875,0.080078125,2.07421875,-4.5078125,3.59765625,-0.01171875,1.0
4541526,,,,,,,,-3.21484375,12.59375,-3.734375,0.955078125,0.072265625,1.9765625,-4.27734375,3.7109375,-0.125,1.0
4541527,,,,,,,,-2.6640625,11.25390625,-4.44921875,0.5859375,0.080078125,1.53515625,-3.96875,2.44921875,-0.73828125,1.0
4541528,,,,,,,,-2.64453125,7.90234375,-5.046875,0.421875,0.12109375,0.921875,-4.12109375,-0.84765625,-1.2734375,1.0
4541529,,,,,,,,-2.0703125,6.0703125,-4.4296875,0.3984375,0.140625,0.46484375,-3.62890625,-2.6484375,-0.625,1.0
4541530,36.01270116666667,129.31955816666667,86.37798509953554,33.417647102846345,3.5,48.0,,-1.75,5.91015625,-4.18359375,1.859375,0.28125,2.513671875,-3.32421875,-2.80078125,-0.35546875,1.0
4541531,,,,,,,,-0.61328125,6.26953125,-3.09765625,0.306640625,0.244140625,-0.103515625,-2.20703125,-2.4140625,0.75390625,1.0
4541532,,,,,,,,0.375,6.875,-2.421875,0.150390625,0.404296875,-0.296875,-1.2109375,-1.8046875,1.4453125,1.0
4541533,,,,,,,,2.28125,8.40625,-2.18359375,0.05859375,0.529296875,-0.361328125,0.703125,-0.2734375,1.671875,1.0
4541534,,,,,,,,3.5625,10.5078125,-2.22265625,0.171875,0.474609375,-0.626953125,2.01171875,1.8359375,1.63671875,1.0
4541535,,,,,,,,2.96875,11.11328125,-2.66796875,0.25,0.2578125,-1.0,1.46875,2.44921875,1.21484375,1.0
4541536,,,,,,,,1.765625,10.65234375,-3.71875,0.310546875,-0.048828125,-1.2421875,0.359375,1.98828125,0.1796875,1.0
4541537,,,,,,,,0.62890625,9.91796875,-3.78125,0.3515625,-0.298828125,-1.005859375,-0.67578125,1.26171875,0.140625,1.0
4541538,,,,,,,,-0.25390625,8.51953125,-3.12890625,0.380859375,-0.4765625,-0.52734375,-1.4765625,-0.12109375,0.83203125,1.0
4541539,,,,,,,,-3.59375,4.78125,2.0859375,0.35546875,-0.623046875,-0.29296875,-4.7734375,-3.8359375,6.08203125,1.0
4541540,36.012703,129.3195615,86.67848051929904,33.62107532809647,3.5,50.0,,-3.984375,-0.48828125,0.32421875,0.2890625,-0.62109375,-0.20703125,-5.1171875,-9.08203125,4.35546875,1.0
4541541,,,,,,,,3.55859375,-19.23046875,0.41796875,0.2578125,-0.478515625,-0.267578125,2.46484375,-27.8125,4.47265625,1.0
4541542,,,,,,,,11.02734375,-38.8203125,7.59375,0.201171875,-0.333984375,-0.36328125,9.97265625,-47.39453125,11.671875,1.0
4541543,,,,,,,,12.9296875,-39.86328125,26.55078125,0.146484375,-0.060546875,-0.98828125,11.9296875,-48.42578125,30.63671875,1.0
4541544,,,,,,,,0.11328125,-10.04296875,3.234375,0.080078125,0.80078125,-1.990234375,-0.67578125,-18.62109375,7.34375,1.0
4541545,,,,,,,,-2.79296875,-9.875,-6.2109375,-0.30078125,1.45703125,-0.607421875,-3.51171875,-18.46875,-2.1171875,1.0
4541546,,,,,,,,-2.30859375,-12.625,-4.83984375,-0.580078125,1.734375,-0.029296875,-3.05078125,-21.23046875,-0.77734375,1.0
4541547,,,,,,,,0.94921875,-14.31640625,4.140625,-0.615234375,0.076171875,-0.55859375,0.16796875,-22.9453125,8.1484375,1.0
4541548,,,,,,,,0.75390625,-12.875,4.38671875,0.009765625,-4.20703125,-0.998046875,0.12890625,-21.53515625,8.37890625,1.0
4541549,,,,,,,,1.33984375,-9.796875,1.48828125,-0.0625,-2.853515625,-2.466796875,1.01171875,-18.47265625,5.50390625,1.0
4541550,36.012705,129.31956466666668,86.96395087077317,33.842996621306206,3.5,50.0,,2.90234375,-5.18359375,-1.94921875,-0.271484375,0.04296875,-3.42578125,2.88671875,-13.8671875,2.05859375,1.0
4541551,,,,,,,,4.5078125,-4.71484375,-3.421875,-0.544921875,0.5234375,-3.275390625,4.6484375,-13.41015625,0.5625,1.0
4541552,,,,,,,,4.6484375,-4.5390625,-3.08984375,-1.21484375,-0.568359375,-2.001953125,5.109375,-13.30078125,0.79296875,1.0
4541553,,,,,,,,4.078125,-4.1015625,-1.87890625,-1.40234375,-0.921875,-1.923828125,4.6484375,-12.875,1.94140625,1.0
4541554,,,,,,,,2.09375,0.6328125,-0.1171875,-1.73828125,-0.419921875,-2.4296875,3.1171875,-8.24609375,3.3984375,1.0
4541555,,,,,,,,1.80078125,1.6171875,-0.421875,-1.7578125,-0.01171875,-2.3203125,2.92578125,-7.28125,3.015625,1.0
4541556,,,,,,,,1.5703125,2.7421875,-0.65234375,-1.736328125,0.375,-2.115234375,2.8125,-6.171875,2.70703125,1.0
4541557,,,,,,,,1.10546875,7.05078125,-1.59765625,-1.556640625,0.8125,-1.412109375,2.5390625,-1.91796875,1.55859375,1.0
4541558,,,,,,,,0.98046875,8.0703125,-1.87890625,-1.43359375,0.7421875,-1.326171875,2.4609375,-0.921875,1.21484375,1.0
4541559,,,,,,,,0.578125,10.08203125,-3.25390625,-1.1015625,0.1953125,-1.400390625,2.234375,1.06640625,-0.31640625,1.0
4541560,36.012706666666666,129.31956716666667,87.18932209413114,34.0279309155814,3.3000000000000003,51.0,,0.05859375,11.203125,-4.00390625,-0.271484375,0.04296875,-3.42578125,2.88671875,-13.8671875,2.05859375,1.0
4541561,,,,,,,,-0.03515625,12.08984375,-4.1953125,-0.76953125,-0.36328125,-1.2734375,1.81640625,3.05859375,-1.390625,1.0
4541562,,,,,,,,0.23828125,11.78515625,-4.34765625,-0.658203125,-0.529296875,-1.142578125,2.16015625,2.75,-1.58203125,1.0
4541563,,,,,,,,1.50390625,10.66796875,-5.09375,-0.490234375,-0.775390625,-0.671875,3.609375,1.64453125,-2.4609375,1.0
4541564,,,,,,,,3.7890625,7.44921875,-5.76171875,-0.513671875,-0.724609375,-0.75,5.99609375,-1.57421875,-3.19140625,1.0
4541565,,,,,,,,2.828125,6.8125,-4.1640625,-0.52734375,-0.65625,-1.134765625,5.19140625,-2.1875,-1.6953125,1.0
4541566,,,,,,,,1.0546875,7.9140625,-2.9921875,-0.5078125,-0.60546875,-1.21875,3.54296875,-1.078125,-0.5859375,1.0
4541567,,,,,,,,-1.53515625,9.5390625,-1.6953125,-0.498046875,-0.541015625,-1.125,1.01171875,0.5703125,0.6796875,1.0
4541568,,,,,,,,-2.3515625,9.921875,-1.3359375,-0.33984375,-0.25390625,0.0390625,-0.828125,1.80078125,1.21484375,1.0
4541569,,,,,,,,-3.4765625,10.75,-1.08203125,-0.248046875,-0.197265625,0.525390625,-1.2109375,2.37109375,1.25390625,1.0
4541570,36.012708833333335,129.31957066666666,87.50484197225703,34.26834573225494,3.7,51.0,,0.05859375,11.203125,-4.00390625,-0.189453125,-0.265625,1.203125,-1.9765625,3.515625,1.59765625,1.0
4541571,,,,,,,,-5.2578125,13.171875,0.0546875,-0.16015625,-0.46484375,1.61328125,-3.01171875,4.28515625,3.3203125,1.0
4541572,,,,,,,,-5.43359375,13.1640625,1.84765625,-0.134765625,-0.609375,1.890625,-2.7421875,3.7109375,4.2421875,1.0
4541573,,,,,,,,-3.59765625,11.6328125,1.6015625,-0.052734375,-0.658203125,2.017578125,-0.59765625,1.8359375,4.08984375,1.0
4541574,,,,,,,,-1.97265625,10.0625,2.54296875,0.056640625,-0.580078125,1.93359375,0.51171875,-3.18359375,4.8515625,1.0
4541575,,,,,,,,-1.9296875,1.87890625,2.8671875,0.068359375,-0.345703125,1.369140625,-0.17578125,-13.1796875,6.38671875,1.0
4541576,,,,,,,,-2.578125,-21.2734375,10.22265625,0.078125,0.169921875,0.6328125,-3.43359375,-43.48828125,18.375,1.0
4541577,,,,,,,,-8.68359375,-47.20703125,23.57421875,0.142578125,1.119140625,0.59765625,-10.0234375,-62.25,29.5234375,1.0
4541578,,,,,,,,-4.375,-22.328125,12.7265625,0.103515625,2.09765625,0.751953125,-2.78125,-31.49609375,14.9296875,1.0
4541579,,,,,,,,-2.28125,-6.96875,1.83984375,0.138671875,2.416015625,0.255859375,-0.7890625,-16.13671875,4.08984375,1.0
4541580,36.0127115,129.31957366666666,87.77528667402632,34.564239726541814,3.7,46.0,,6.4375,-5.20703125,-4.015625,0.73046875,1.060546875,-0.96484375,7.90625,-14.3671875,-1.6953125,1.0
4541581,,,,,,,,6.16015625,-9.12890625,1.78125,1.197265625,-0.0078125,-1.357421875,7.75390625,-18.23828125,4.203125,1.0
4541582,,,,,,,,2.54296875,-13.3125,6.60546875,0.740234375,-2.09375,1.318359375,4.15234375,-22.41796875,9.10546875,1.0
4541583,,,,,,,,3.21875,-13.6015625,4.8046875,0.208984375,-3.3125,1.55859375,4.765625,-22.71875,7.3046875,1.0
4541584,,,,,,,,1.3828125,-7.21484375,1.94140625,0.365234375,-0.75390625,2.3125,2.8125,-16.359375,4.43359375,1.0
4541585,,,,,,,,-0.75,-3.3125,0.20703125,0.37109375,1.173828125,3.359375,0.3984375,-12.49609375,2.74609375,1.0
4541586,,,,,,,,-1.9375,-2.68359375,0.3359375,0.5,1.10546875,3.603515625,-0.9453125,-11.875,2.8984375,1.0
4541587,,,,,,,,-3.5078125,-1.98046875,0.734375,0.748046875,0.3671875,3.34375,-2.859375,-11.19140625,3.359375,1.0
4541588,,,,,,,,-3.9140625,-0.8359375,0.93359375,1.78515625,-0.29296875,2.689453125,-3.703125,-9.39453125,3.55078125,1.0
4541589,,,,,,,,-4.2109375,1.31640625,0.125,2.03515625,-0.236328125,2.685546875,-4.0859375,-7.85546875,3.015625,1.0
4541590,36.012713500000004,129.31957683333334,88.06075696752015,34.786161056339886,3.6,48.0,,-4.54296875,3.09765625,-0.796875,2.146484375,0.09765625,2.44921875,-4.69921875,-5.2109375,1.90625,1.0
4541591,,,,,,,,-4.1640625,5.87109375,-2.10546875,1.86328125,0.34375,1.82421875,-4.578125,-2.265625,1.1015625,1.0
4541592,,,,,,,,-4.04296875,6.71875,-2.3515625,1.787109375,0.333984375,1.6953125,-4.51171875,-0.1953125,0.87109375,1.0
4541593,,,,,,,,-3.53125,10.5546875,-2.75,1.310546875,0.12890625,1.623046875,-4.1953125,2.484375,1.1015625,1.0
4541594,,,,,,,,-3.33984375,11.328125,-2.65625,1.111328125,0.025390625,1.705078125,-4.23828125,2.83203125,1.0234375,1.0
4541595,,,,,,,,-2.953125,11.7734375,-3.01953125,0.83984375,-0.154296875,1.87890625,-3.77734375,3.13671875,0.640625,1.0
4541596,,,,,,,,-2.13671875,11.6953125,-3.90234375,0.63671875,-0.28515625,1.947265625,-3.35546875,2.6015625,-0.27734375,1.0
4541597,,,,,,,,-1.9921875,10.78125,-4.73046875,0.5546875,-0.349609375,1.92578125,-3.3203125,2.1015625,-0.73828125,1.0
4541598,,,,,,,,-1.7578125,9.01953125,-5.51171875,0.46875,-0.48046875,1.763671875,-3.2421875,0.37890625,-1.46484375,1.0
4541599,,,,,,,,-1.80859375,8.23046875,-5.57421875,0.4375,-0.564453125,1.599609375,-3.35546875,-0.38671875,-1.50390625,1.0
4541600,36.0127155,129.3195798333333,88.3312023741817,35.008082244701335,3.7,48.0,0.0,-2.328125,5.96875,-5.5078125,2.146484375,0.09765625,2.44921875,-4.69921875,-5.2109375,1.90625,1.0
4541601,,,,,,,,-2.16015625,5.625,-4.6328125,0.3671875,-0.662109375,0.560546875,-3.85546875,-2.9140625,-0.46875,1.0
4541602,,,,,,,,-1.5078125,6.88671875,-4.34375,0.34765625,-0.26953125,-0.134765625,-3.203125,-1.61328125,-0.125,1.0
4541603,,,,,,,,1.04296875,10.36328125,-3.6953125,0.22265625,0.21875,-0.580078125,-0.59765625,1.8671875,0.5625,1.0
4541604,,,,,,,,1.921875,11.46875,-3.81640625,0.119140625,0.29296875,-0.744140625,0.3203125,2.984375,0.44921875,1.0
4541605,,,,,,,,2.7578125,12.00390625,-3.85546875,0.06640625,0.126953125,-0.923828125,1.203125,3.51953125,0.41015625,1.0
4541606,,,,,,,,3.62890625,12.35546875,-4.015625,0.05859375,0.00390625,-0.986328125,2.12109375,3.86328125,0.2578125,1.0
4541607,,,,,,,,3.47265625,11.93359375,-4.16796875,0.044921875,-0.259765625,-1.00390625,2.04296875,3.44140625,0.10546875,1.0
4541608,,,,,,,,1.7578125,9.953125,-3.44921875,0.076171875,-0.42578125,-1.107421875,0.4375,1.453125,0.83203125,1.0
4541609,,,,,,,,1.171875,9.0625,-2.796875,0.0859375,-0.458984375,-1.15625,-0.1015625,0.5703125,1.48828125,1.0
4541610,36.0127175,129.319583,88.61667264168236,35.23000359226926,3.5,50.0,,-3.08984375,2.51171875,3.3828125,0.162109375,-0.36328125,-0.974609375,-4.19921875,-5.98046875,7.69140625,1.0
4541611,,,,,,,,-2.31640625,-12.3671875,6.1640625,0.22265625,-0.111328125,-0.552734375,-3.35546875,-20.84375,10.484375,1.0
4541612,,,,,,,,2.37109375,-21.40625,8.07421875,0.234375,0.068359375,-0.322265625,1.35546875,-29.88671875,12.40234375,1.0
4541613,,,,,,,,19.5859375,-51.578125,21.5234375,0.28515625,0.71484375,0.0703125,18.5546875,-60.03125,25.8828125,1.0
4541614,,,,,,,,-0.65625,-12.0234375,8.64453125,0.40625,1.53125,-0.9296875,-1.7109375,-20.4609375,13.01171875,1.0
4541615,,,,,,,,-6.73828125,-3.375,2.609375,0.3671875,2.671875,-1.833984375,-7.76171875,-11.8046875,7.0,1.0
4541616,,,,,,,,-5.0625,-4.8515625,-0.03515625,-0.08984375,2.828125,-1.642578125,-6.078125,-13.30078125,4.35546875,1.0
4541617,,,,,,,,1.66015625,-12.16015625,0.734375,-0.87109375,0.01953125,0.1640625,0.58984375,-20.65234375,5.0078125,1.0
4541618,,,,,,,,1.3046875,-14.2734375,3.8671875,-0.00390625,-4.419921875,-0.87109375,0.4375,-22.80078125,8.1484375,1.0
4541619,,,,,,,,2.609375,-12.19921875,3.09375,-0.236328125,-3.484375,-2.060546875,1.890625,-20.73046875,7.3828125,1.0
4541620,36.01271933333333,129.31958633333335,88.91716794646995,35.433431894582526,3.4000000000000004,51.0,,2.7109375,-9.0234375,1.5234375,-0.306640625,-0.43359375,-3.509765625,-4.19921875,-5.98046875,7.69140625,1.0
4541621,,,,,,,,2.890625,-6.34375,-0.57421875,-0.69921875,0.736328125,-2.685546875,2.7734375,-14.9453125,3.66796875,1.0
4541622,,,,,,,,3.765625,-5.26171875,-2.07421875,-1.09375,0.345703125,-2.515625,3.84375,-13.90625,2.09765625,1.0
4541623,,,,,,,,3.78125,-0.8828125,-1.90234375,-1.875,-0.0390625,-2.18359375,4.265625,-9.65625,2.01953125,1.0
4541624,,,,,,,,2.70703125,1.20703125,-1.41796875,-2.04296875,0.1796875,-2.25390625,3.38671875,-7.62890625,2.32421875,1.0
4541625,,,,,,,,1.890625,3.1953125,-0.81640625,-1.982421875,0.458984375,-2.23828125,2.7734375,-5.7109375,2.74609375,1.0
4541626,,,,,,,,1.765625,4.17578125,-0.77734375,-1.86328125,0.607421875,-2.16015625,2.734375,-4.75,2.70703125,1.0
4541627,,,,,,,,1.84765625,6.78125,-1.01953125,-1.5625,0.849609375,-1.833984375,2.96484375,-2.1875,2.32421875,1.0
4541628,,,,,,,,1.64453125,8.92578125,-1.96484375,-1.328125,0.908203125,-1.5390625,2.8828125,-0.08203125,1.25390625,1.0
4541629,,,,,,,,1.8359375,10.21484375,-2.70703125,-1.23828125,0.697265625,-1.3984375,3.19921875,1.18359375,0.41015625,1.0
4541630,36.012721000000006,129.31958883333334,89.14253908798165,35.6183662407987,3.5,52.0,,1.49609375,10.890625,-3.36328125,-0.306640625,-0.43359375,-3.509765625,2.96484375,1.8359375,-0.35546875,1.0
4541631,,,,,,,,0.58203125,11.90234375,-4.41796875,-1.05078125,-0.244140625,-1.1015625,2.16015625,2.828125,-1.50390625,1.0
4541632,,,,,,,,0.56640625,12.015625,-4.640625,-0.96484375,-0.4453125,-1.033203125,2.19921875,2.94921875,-1.7734375,1.0
4541633,,,,,,,,0.80859375,11.87890625,-5.53515625,-0.8359375,-0.7109375,-0.91796875,2.54296875,2.79296875,-2.76953125,1.0
4541634,,,,,,,,1.74609375,10.99609375,-6.59765625,-0.671875,-0.85546875,-1.125,3.65234375,1.91015625,-3.953125,1.0
4541635,,,,,,,,2.27734375,6.18359375,-5.484375,-0.681640625,-0.73828125,-1.6328125,4.49609375,-2.87890625,-3.0,1.0
4541636,,,,,,,,1.08984375,5.78515625,-4.1875,-0.6640625,-0.66015625,-1.630859375,3.3828125,-3.26171875,-1.734375,1.0
4541637,,,,,,,,-1.6640625,5.7265625,-2.625,-0.591796875,-0.40234375,-1.345703125,0.78125,-3.296875,-0.2421875,1.0
4541638,,,,,,,,-3.10546875,6.390625,-1.98046875,-0.55859375,-0.0703125,-0.6640625,-0.55859375,-2.609375,0.33203125,1.0
4541639,,,,,,,,-3.359375,7.1640625,-1.91796875,-0.52734375,0.103515625,-0.21484375,-0.7890625,-1.84765625,0.37109375,1.0
4541640,36.012723333333334,129.319592,89.42800893565504,35.877274026908545,3.6,49.0,,-4.1484375,11.73046875,-1.49609375,-0.306640625,-0.43359375,-3.509765625,-1.59375,2.71484375,0.75390625,1.0
4541641,,,,,,,,-4.0703125,12.51171875,-1.2421875,-0.37890625,0.30859375,1.1640625,-1.671875,3.94140625,1.328125,1.0
4541642,,,,,,,,-4.62109375,13.34765625,0.1015625,-0.44140625,0.11328125,1.33984375,-2.3984375,4.2421875,2.59375,1.0
4541643,,,,,,,,-5.21484375,12.921875,1.83203125,-0.361328125,-0.119140625,1.564453125,-4.5078125,2.9453125,8.1484375,1.0
4541644,,,,,,,,-6.69140625,7.359375,8.4140625,-0.22265625,-0.267578125,1.794921875,-4.54296875,-7.28125,11.671875,1.0
4541645,,,,,,,,-5.578125,-10.76953125,15.41015625,-0.052734375,-0.32421875,1.873046875,-3.625,-19.921875,17.49609375,1.0
4541646,,,,,,,,-4.6796875,-33.8515625,22.50390625,0.017578125,-0.302734375,1.7890625,-2.8203125,-43.02734375,24.58203125,1.0
4541647,,,,,,,,-9.43359375,-53.05078125,20.62890625,0.0078125,-0.04296875,1.26171875,-7.72265625,-62.25,22.70703125,1.0
4541648,,,,,,,,0.51953125,-17.484375,9.74609375,-0.095703125,1.115234375,-0.29296875,2.12109375,-26.703125,11.82421875,1.0
4541649,,,,,,,,1.5625,-1.625,3.10546875,-0.216796875,3.490234375,-1.25,3.15625,-10.84765625,5.19921875,1.0
4541650,36.0127255,129.319595,89.69845408774863,36.11768846251413,3.5,47.0,,5.53515625,-9.2109375,-1.71484375,0.400390625,2.59375,-1.634765625,-1.59375,2.71484375,0.75390625,1.0
4541651,,,,,,,,5.49609375,-12.68359375,5.59375,0.935546875,-1.04296875,-0.09375,7.25390625,-21.83984375,7.84375,1.0
4541652,,,,,,,,4.578125,-13.94921875,7.30859375,0.19140625,-2.962890625,1.732421875,6.296875,-23.10546875,9.56640625,1.0
4541653,,,,,,,,2.87109375,-11.44921875,4.04296875,-0.103515625,-2.068359375,2.287109375,4.45703125,-20.6484375,6.26953125,1.0
4541654,,,,,,,,0.5390625,-7.42578125,0.3671875,0.21484375,0.869140625,2.57421875,1.9296875,-16.6640625,2.59375,1.0
4541655,,,,,,,,-2.27734375,-3.74609375,-1.52734375,0.861328125,1.14453125,3.521484375,-1.36328125,-13.0234375,0.79296875,1.0
4541656,,,,,,,,-2.8046875,-2.96484375,-1.671875,1.109375,0.6484375,3.4609375,-2.09375,-12.26171875,0.71875,1.0
4541657,,,,,,,,-3.44140625,-1.328125,-1.4453125,1.5546875,-0.060546875,3.0703125,-3.01171875,-10.6171875,1.0625,1.0
4541658,,,,,,,,-4.43359375,1.171875,-1.41015625,1.779296875,-0.25390625,3.09765625,-4.27734375,-8.0859375,1.25390625,1.0
4541659,,,,,,,,-4.87109375,2.80859375,-1.54296875,1.9765625,-0.060546875,3.1171875,-5.00390625,-6.40234375,1.29296875,1.0
4541660,36.01272733333334,129.31959766666665,89.9388498713751,36.32111618831724,3.3000000000000003,48.0,,-5.5546875,6.5,-1.88671875,1.962890625,0.3671875,2.810546875,-5.9609375,-2.6484375,1.13671875,1.0
4541661,,,,,,,,-5.2890625,10.34375,-1.796875,1.8515625,0.779296875,2.330078125,-6.078125,1.296875,1.484375,1.0
4541662,,,,,,,,-4.5859375,10.83984375,-2.18359375,1.58984375,0.69140625,2.28515625,-5.6171875,1.87109375,1.25390625,1.0
4541663,,,,,,,,-3.4765625,12.37890625,-3.3046875,1.3203125,0.466796875,2.27734375,-4.734375,3.48046875,0.2578125,1.0
4541664,,,,,,,,-3.22265625,12.5703125,-3.8203125,1.201171875,0.37109375,2.22265625,-4.58203125,3.7109375,-0.203125,1.0
4541665,,,,,,,,-2.51953125,12.078125,-4.8046875,0.876953125,0.11328125,1.740234375,-4.15625,3.328125,-1.046875,1.0
4541666,,,,,,,,-2.10546875,9.6953125,-5.6796875,0.708984375,-0.09765625,1.255859375,-3.890625,0.9921875,-1.8515625,1.0
4541667,,,,,,,,-2.09375,8.74609375,-5.86328125,0.666015625,-0.181640625,0.974609375,-3.9296875,0.07421875,-2.00390625,1.0
4541668,,,,,,,,-1.78125,5.83203125,-5.92578125,0.6796875,-0.234375,0.34375,-3.66796875,-2.80078125,-2.00390625,1.0
4541669,,,,,,,,-1.19140625,4.734375,-5.609375,0.685546875,-0.205078125,0.078125,-3.08984375,-3.87890625,-1.65625,1.0
4541670,36.0127295,129.31960066666667,90.20929499747548,36.56153063980935,3.5,48.0,,0.81640625,5.02734375,-4.9375,1.962890625,0.3671875,2.810546875,-5.9609375,-2.6484375,1.13671875,1.0
4541671,,,,,,,,2.1640625,5.953125,-4.2578125,0.517578125,0.240234375,-0.755859375,0.3203125,-2.609375,-0.203125,1.0
4541672,,,,,,,,4.171875,8.05859375,-3.3671875,0.361328125,0.54296875,-0.98828125,2.390625,-0.50390625,0.71875,1.0
4541673,,,,,,,,4.99609375,9.66796875,-2.6484375,0.189453125,0.703125,-1.103515625,3.265625,1.10546875,1.4453125,1.0
4541674,,,,,,,,3.69921875,10.98046875,-1.9609375,0.1796875,0.6484375,-1.109375,2.04296875,2.41015625,2.1328125,1.0
4541675,,,,,,,,1.9140625,11.171875,-2.3984375,0.2890625,0.3984375,-1.06640625,0.3203125,2.60546875,1.7109375,1.0
4541676,,,,,,,,-0.0859375,11.0546875,-3.30078125,0.380859375,0.07421875,-0.9921875,-1.59375,2.48828125,0.83203125,1.0
4541677,,,,,,,,-1.3125,10.10546875,-3.5390625,0.369140625,-0.408203125,-0.11328125,-2.74609375,1.56640625,0.640625,1.0
4541678,,,,,,,,-3.16796875,7.515625,-0.92578125,0.3046875,-0.763671875,0.333984375,-4.578125,-1.0,3.28515625,1.0
4541679,,,,,,,,-4.43359375,1.8984375,1.2265625,0.19140625,-0.95703125,0.271484375,-5.84765625,-6.59375,5.46875,1.0
4541680,36.012731333333335,129.319604,90.50979022068097,36.76495899905038,3.4000000000000004,51.0,,1.48828125,-12.3359375,0.015625,0.0703125,-0.80078125,-0.341796875,0.12890625,-20.80859375,4.28125,1.0
4541681,,,,,,,,13.0234375,-32.21875,6.04296875,0.017578125,-0.533203125,-0.689453125,11.734375,-40.69140625,10.33203125,1.0
4541682,,,,,,,,19.375,-46.57421875,18.64453125,-0.01171875,-0.3984375,-0.896484375,18.1328125,-55.05078125,22.93359375,1.0
4541683,,,,,,,,6.0625,-19.125,13.62890625,-0.046875,0.1796875,-2.35546875,5.03125,-27.62890625,17.91796875,1.0
4541684,,,,,,,,-3.26953125,-4.0625,-1.08203125,-0.08203125,0.41796875,-2.333984375,-4.19921875,-12.57421875,3.20703125,1.0
4541685,,,,,,,,-1.05078125,-11.63671875,-2.23828125,-0.44921875,1.5625,-0.080078125,-1.90234375,-20.1875,1.98046875,1.0
4541686,,,,,,,,-0.0625,-15.12890625,5.42578125,-0.404296875,-2.369140625,-0.888671875,-0.8671875,-23.7109375,9.60546875,1.0
4541687,,,,,,,,0.171875,-15.3125,4.7734375,-0.041015625,-3.978515625,-1.154296875,-0.5234375,-23.91015625,8.953125,1.0
4541688,,,,,,,,1.32421875,-12.73046875,0.99609375,-0.015625,-2.849609375,-2.423828125,0.93359375,-21.33984375,5.19921875,1.0
4541689,,,,,,,,2.1015625,-11.19140625,-0.57421875,-0.224609375,-1.46484375,-2.998046875,1.890625,-19.8046875,3.62890625,1.0
4541690,36.01273316666666,129.31960733333332,90.81028542725306,36.96838736602815,3.4000000000000004,52.0,,4.12890625,-7.03125,-2.63671875,-0.78125,0.328125,-3.1015625,4.19140625,-15.67578125,1.51953125,1.0
4541691,,,,,,,,4.125,-6.81640625,-2.4140625,-0.986328125,0.609375,-2.927734375,4.3046875,-15.4765625,1.7109375,1.0
4541692,,,,,,,,3.125,-5.3125,-1.3984375,-1.275390625,0.119140625,-2.798828125,3.5390625,-14.02734375,2.6328125,1.0
4541693,,,,,,,,2.4921875,-4.546875,-1.16796875,-1.505859375,-0.513671875,-2.712890625,3.15625,-13.30078125,2.74609375,1.0
4541694,,,,,,,,1.62109375,-2.1171875,-1.6328125,-1.6171875,-0.298828125,-2.701171875,2.54296875,-10.92578125,2.1328125,1.0
4541695,,,,,,,,1.5,0.06640625,-2.48828125,-1.732421875,0.21875,-2.59375,2.65625,-8.7734375,1.13671875,1.0
4541696,,,,,,,,2.30078125,4.06640625,-3.43359375,-1.767578125,0.5078125,-2.275390625,3.76953125,-4.83203125,-0.05078125,1.0
4541697,,,,,,,,2.33203125,8.05078125,-3.0,-1.59375,0.291015625,-2.103515625,4.07421875,-0.88671875,0.1796875,1.0
4541698,,,,,,,,2.09375,8.94140625,-2.9765625,-1.509765625,0.22265625,-2.08203125,3.921875,-0.00390625,0.140625,1.0
4541699,,,,,,,,1.0625,11.79296875,-3.28515625,-1.208984375,0.17578125,-1.884765625,3.16015625,2.83203125,-0.35546875,1.0
4541700,36.01273483333333,129.31961,91.05068135607091,37.15332191676214,3.4000000000000004,53.0,0.0,0.71484375,12.2421875,-3.5078125,-0.78125,0.328125,-3.1015625,4.19140625,-15.67578125,1.51953125,1.0
4541701,,,,,,,,0.19921875,12.89453125,-4.484375,-0.94921875,0.19140625,-1.30078125,2.50390625,3.9375,-1.6953125,1.0
4541702,,,,,,,,0.375,12.55078125,-4.79296875,-0.880859375,0.1328125,-1.1015625,2.734375,3.59765625,-2.04296875,1.0
4541703,,,,,,,,1.4375,10.12890625,-6.21484375,-0.796875,-0.037109375,-0.8125,3.88671875,1.18359375,-3.53515625,1.0
4541704,,,,,,,,2.125,8.671875,-6.66796875,-0.771484375,-0.12109375,-0.765625,4.61328125,-0.2734375,-4.03515625,1.0
4541705,,,,,,,,1.83984375,5.5234375,-6.01171875,-0.75390625,-0.275390625,-0.958984375,4.453125,-3.4140625,-3.49609375,1.0
4541706,,,,,,,,-2.73828125,6.41015625,-2.27734375,-0.541015625,-0.208984375,-1.095703125,0.08984375,-2.49609375,0.10546875,1.0
4541707,,,,,,,,-5.04296875,7.09375,-0.640625,-0.4921875,-0.115234375,-0.87890625,-2.1640625,-1.8046875,1.7109375,1.0
4541708,,,,,,,,-6.890625,8.84765625,1.35546875,-0.326171875,0.087890625,-0.03515625,-3.96875,-0.04296875,3.66796875,1.0
4541709,,,,,,,,-7.6796875,9.66015625,3.32421875,-0.3046875,0.15625,0.474609375,-4.7734375,0.76171875,5.6171875,1.0
4541710,36.012737333333334,129.31961366666667,91.38122549832059,37.43072344008554,3.6,50.0,,-6.63671875,11.140625,5.921875,-0.78125,0.328125,-3.1015625,4.19140625,-15.67578125,1.51953125,1.0
4541711,,,,,,,,-0.98828125,11.8359375,4.89453125,-0.451171875,-0.080078125,1.763671875,1.69921875,2.8671875,7.11328125,1.0
4541712,,,,,,,,3.57421875,10.734375,4.21484375,-0.384765625,-0.39453125,1.6875,6.10546875,1.71875,6.38671875,1.0
4541713,,,,,,,,1.0,6.1015625,0.61328125,-0.291015625,-0.646484375,1.044921875,3.421875,-2.953125,2.74609375,1.0
4541714,,,,,,,,-3.55078125,-7.53515625,2.99609375,-0.283203125,-0.88671875,-0.587890625,-1.13671875,-16.5859375,5.08203125,1.0
4541715,,,,,,,,-10.04296875,-43.5859375,16.359375,-0.09375,-0.705078125,-0.6015625,-7.45703125,-52.60546875,18.375,1.0
4541716,,,,,,,,-12.2421875,-47.578125,17.86328125,-0.064453125,-0.2734375,0.13671875,-9.640625,-56.58984375,19.87109375,1.0
4541717,,,,,,,,2.1875,-11.3203125,10.8515625,-0.095703125,0.548828125,0.904296875,4.7265625,-20.34765625,12.859375,1.0
4541718,,,,,,,,5.18359375,-5.921875,-3.49609375,0.126953125,0.34765625,0.419921875,7.59765625,-14.98828125,-1.46484375,1.0
4541719,,,,,,,,5.52734375,-11.7265625,-1.62109375,0.505859375,1.021484375,-1.5234375,7.98046875,-20.76953125,0.44921875,1.0
4541720,36.012739499999995,129.31961683333333,91.66669541178895,37.671138094455564,3.5,48.0,,5.92578125,-12.72265625,2.91015625,0.494140625,1.603515625,-0.14453125,8.44140625,-21.72265625,5.08203125,1.0
4541721,,,,,,,,2.81640625,-13.62890625,6.62109375,0.11328125,-2.767578125,1.150390625,5.30078125,-22.640625,8.80078125,1.0
4541722,,,,,,,,-0.0234375,-12.65234375,2.921875,0.087890625,-1.994140625,2.533203125,2.3515625,-21.72265625,5.046875,1.0
4541723,,,,,,,,-2.515625,-8.4921875,-0.48828125,0.416015625,0.353515625,2.822265625,-0.3671875,-17.62890625,1.63671875,1.0
4541724,,,,,,,,-3.4921875,-6.26171875,0.0,0.953125,0.94140625,3.16796875,-1.6328125,-15.44140625,2.2109375,1.0
4541725,,,,,,,,-3.87109375,-4.19140625,0.52734375,1.228515625,0.33984375,3.140625,-2.32421875,-13.40625,2.86328125,1.0
4541726,,,,,,,,-3.94140625,-3.41015625,0.65625,1.37109375,-0.03515625,3.009765625,-2.55078125,-12.64453125,3.0546875,1.0
4541727,,,,,,,,-5.421875,-0.38671875,0.0546875,1.76953125,-0.185546875,3.142578125,-4.4296875,-9.6171875,2.671875,1.0
4541728,,,,,,,,-5.78515625,2.85546875,-1.56640625,1.919921875,0.099609375,3.11328125,-5.08203125,-6.36328125,1.21484375,1.0
4541729,,,,,,,,-5.6796875,5.078125,-1.9453125,1.861328125,0.142578125,2.88671875,-5.27734375,-4.1015625,1.0234375,1.0
4541730,36.01274133333333,129.31961933333332,91.89206624454714,37.87456571583886,3.4000000000000004,48.0,,-5.19921875,7.95703125,-1.6484375,1.693359375,0.115234375,2.755859375,-5.04296875,-1.19140625,1.484375,1.0
4541731,,,,,,,,-4.2109375,11.6484375,-2.05859375,1.361328125,0.076171875,2.53515625,-4.4296875,2.5625,1.29296875,1.0
4541732,,,,,,,,-3.66015625,12.62890625,-2.75,1.18359375,0.09375,2.380859375,-4.1171875,3.59765625,0.71875,1.0
4541733,,,,,,,,-2.9140625,13.0390625,-4.453125,0.978515625,0.02734375,2.2578125,-3.5859375,4.0546875,-0.890625,1.0
4541734,,,,,,,,-2.5,12.43359375,-5.49609375,0.890625,-0.0546875,2.181640625,-3.28125,3.4765625,-1.88671875,1.0
4541735,,,,,,,,-2.359375,9.97265625,-6.2265625,0.77734375,-0.173828125,1.89453125,-3.3203125,1.06640625,-2.5390625,1.0
4541736,,,,,,,,-2.62109375,6.46484375,-5.5625,0.666015625,-0.169921875,1.14453125,-3.7734375,-2.37890625,-1.7734375,1.0
4541737,,,,,,,,-2.69140625,5.55859375,-5.35546875,0.630859375,-0.138671875,0.8984375,-3.89453125,-3.26171875,-1.54296875,1.0
4541738,,,,,,,,-2.3125,4.6484375,-4.9140625,0.5625,-0.009765625,0.52734375,-3.5859375,-4.14453125,-1.046875,1.0
4541739,,,,,,,,-1.41796875,4.82421875,-4.20703125,0.521484375,0.09375,0.40625,-2.70703125,-3.94921875,-0.31640625,1.0
4541740,36.012743500000006,129.31962233333334,92.16251127210606,38.114980230908614,3.6,48.0,,-0.375,5.48046875,-3.56640625,1.693359375,0.115234375,2.755859375,-5.04296875,-1.19140625,1.484375,1.0
4541741,,,,,,,,1.3125,6.9140625,-2.81640625,0.32421875,0.5859375,0.140625,-0.0625,-1.80859375,1.13671875,1.0
4541742,,,,,,,,2.8828125,9.08203125,-2.5234375,0.25390625,0.654296875,0.015625,1.46875,0.37890625,1.4453125,1.0
4541743,,,,,,,,2.8984375,9.07421875,-2.53125,0.25390625,0.62109375,-0.072265625,1.5859375,1.71875,1.75,1.0
4541744,,,,,,,,1.7421875,11.6484375,-2.45703125,0.423828125,0.0625,-0.404296875,0.3203125,2.984375,1.55859375,1.0
