time,latitude,longitude,enu_x,enu_y,speed,course,ecg,accX,accY,accZ,gyrX,gyrY,gyrZ,eulR,eulP,eulY,validity
4502860,36.01306016666667,129.32012966666667,137.89764348140545,73.25267171597149,3.0,228.0,,-3.984375,-2.2421875,0.3125,1.6015625,0.453125,3.001953125,-2.84375,-11.5078125,2.2734375,1.0
4502861,,,,,,,,-4.8203125,-0.25,-1.0078125,1.810546875,0.638671875,3.0703125,-3.9921875,-9.515625,1.125,1.0
4502862,,,,,,,,-4.86328125,0.96875,-1.4453125,1.80078125,0.85546875,3.134765625,-4.18359375,-8.29296875,0.78125,1.0
4502863,,,,,,,,-5.5234375,5.96875,-2.0,1.6953125,1.1484375,3.06640625,-5.14453125,-3.2734375,0.3984375,1.0
4502864,,,,,,,,-5.3515625,6.95703125,-2.203125,1.619140625,1.15234375,2.96875,-5.140625,-2.27734375,0.28125,1.0
4502865,,,,,,,,-4.78125,10.90234375,-1.625,1.173828125,0.91796875,2.509765625,-5.14453125,1.74609375,1.125,1.0
4502866,,,,,,,,-3.578125,12.15625,-1.4140625,0.7578125,0.994140625,2.193359375,-4.30078125,3.046875,1.46875,1.0
4502867,,,,,,,,-3.1640625,12.21875,-1.7421875,0.625,1.021484375,2.095703125,-3.99609375,3.125,1.1640625,1.0
4502868,,,,,,,,-2.21484375,12.1015625,-2.6015625,0.4453125,1.0546875,1.87890625,-3.2578125,3.046875,0.359375,1.0
4502869,,,,,,,,-1.6640625,11.4375,-3.4140625,0.380859375,1.044921875,1.740234375,-2.80859375,2.3984375,-0.4453125,1.0
4502870,36.01305816666666,129.32012716666668,137.67227491182172,73.03074969430067,3.1,228.0,,-1.21484375,9.94921875,-4.203125,1.6015625,0.453125,3.001953125,-2.84375,-11.5078125,2.2734375,1.0
4502871,,,,,,,,-1.04296875,6.46875,-4.46484375,0.4921875,0.72265625,0.876953125,-2.49609375,-2.5078125,-1.44140625,1.0
4502872,,,,,,,,-0.8046875,4.67578125,-4.08984375,0.5546875,0.55859375,0.40625,-2.34375,-4.26953125,-1.01953125,1.0
4502873,,,,,,,,-0.91796875,4.73046875,-3.66796875,0.490234375,0.6640625,-0.130859375,-2.421875,-3.8046875,-0.484375,1.0
4502874,,,,,,,,-0.3203125,6.66796875,-3.5859375,0.373046875,0.798828125,-0.318359375,-1.46484375,-1.39453125,-0.55859375,1.0
4502875,,,,,,,,0.55859375,8.33984375,-3.72265625,0.27734375,0.703125,-0.318359375,-0.66015625,0.2890625,-0.59765625,1.0
4502876,,,,,,,,0.94140625,9.1796875,-3.76953125,0.279296875,0.529296875,-0.30859375,-0.4296875,1.17578125,-0.67578125,1.0
4502877,,,,,,,,1.43359375,11.43359375,-3.78515625,0.330078125,0.0078125,-0.43359375,-0.046875,3.08984375,-0.484375,1.0
4502878,,,,,,,,1.6328125,12.64453125,-3.43359375,0.3515625,-0.6171875,-0.681640625,0.0703125,3.77734375,-0.21484375,1.0
4502879,,,,,,,,1.27734375,12.58984375,-3.23046875,0.326171875,-1.1015625,-0.76953125,-0.16015625,3.734375,0.05078125,1.0
4502880,36.01305633333333,129.32012433333333,137.41685643221462,72.82732041663556,3.2,229.0,,-0.3203125,10.3984375,-2.1640625,0.31640625,-1.396484375,-0.65234375,-1.65625,1.5546875,1.1640625,1.0
4502881,,,,,,,,-1.66796875,7.8984375,-0.44140625,0.2421875,-1.515625,-0.4921875,-2.91796875,-0.9375,2.92578125,1.0
4502882,,,,,,,,-3.09375,3.1328125,3.09765625,0.19921875,-1.53125,-0.47265625,-4.296875,-5.6875,6.484375,1.0
4502883,,,,,,,,-2.53125,-3.81640625,2.015625,0.134765625,-1.283203125,-0.474609375,-3.609375,-12.62109375,5.453125,1.0
4502884,,,,,,,,-1.44921875,-8.03515625,2.046875,0.126953125,-1.07421875,-0.470703125,-2.49609375,-16.828125,5.4921875,1.0
4502885,,,,,,,,18.66796875,-45.34765625,7.27734375,0.05859375,-0.52734375,-0.5859375,17.69140625,-54.140625,10.73828125,1.0
4502886,,,,,,,,21.22265625,-31.96875,14.55078125,-0.0234375,0.072265625,-1.0703125,20.33203125,-40.77734375,18.01953125,1.0
4502887,,,,,,,,13.33203125,-19.28125,6.58203125,0.201171875,0.759765625,-2.287109375,12.55859375,-28.09765625,10.05078125,1.0
4502888,,,,,,,,0.265625,-6.14453125,2.52734375,0.646484375,1.76171875,-3.041015625,-0.3125,-14.953125,6.02734375,1.0
4502889,,,,,,,,-5.046875,-9.70703125,-0.796875,0.642578125,1.728515625,-3.181640625,-5.5234375,-18.515625,2.734375,1.0
4502890,36.013054499999996,129.3201215,137.1614379435085,72.62389114670907,3.2,230.0,,-4.6328125,-11.55859375,-0.0234375,-0.48828125,-1.384765625,-0.798828125,-4.796875,-20.39453125,3.5,1.0
4502891,,,,,,,,2.8125,-11.12890625,1.6875,-0.45703125,-3.51953125,0.181640625,2.7109375,-19.96875,5.1875,1.0
4502892,,,,,,,,4.05859375,-9.21484375,2.96484375,-0.53515625,-2.830078125,-1.4765625,4.24609375,-18.09375,6.41015625,1.0
4502893,,,,,,,,3.5,-7.4296875,-0.34375,-0.978515625,0.2421875,-3.193359375,3.9375,-16.3359375,3.0390625,1.0
4502894,,,,,,,,3.6484375,-4.29296875,-2.34765625,-1.419921875,0.998046875,-3.298828125,4.359375,-13.23046875,0.93359375,1.0
4502895,,,,,,,,3.5625,-3.13671875,-2.37890625,-1.365234375,0.763671875,-2.8515625,4.3984375,-12.078125,0.85546875,1.0
4502896,,,,,,,,3.4921875,-2.203125,-2.27734375,-1.271484375,0.3125,-2.365234375,4.4375,-11.16796875,0.89453125,1.0
4502897,,,,,,,,3.48828125,-0.71484375,-2.0,-1.5078125,-0.44921875,-1.970703125,4.62890625,-9.703125,1.046875,1.0
4502898,,,,,,,,3.5078125,-0.09375,-2.00390625,-1.583984375,-0.537109375,-1.8828125,4.7421875,-9.09375,0.97265625,1.0
4502899,,,,,,,,3.08984375,3.8125,-2.4765625,-1.54296875,-0.11328125,-1.84375,4.58984375,-5.23046875,0.28125,1.0
4502900,36.01305266666667,129.32011849999998,136.8909946334235,72.42046165005601,3.3000000000000003,231.0,0.0,2.234375,7.66796875,-1.546875,-0.48828125,-1.384765625,-0.798828125,3.90234375,-1.39453125,1.0859375,1.0
4502901,,,,,,,,1.44921875,9.015625,-0.9609375,-1.1640625,0.404296875,-1.94921875,3.36328125,-0.0546875,1.5078125,1.0
4502902,,,,,,,,0.8203125,9.7734375,-0.953125,-1.095703125,0.427734375,-1.93359375,2.83203125,0.7109375,1.46875,1.0
4502903,,,,,,,,-0.37109375,11.55859375,-2.015625,-0.900390625,0.525390625,-1.65234375,1.87109375,2.51171875,0.28125,1.0
4502904,,,,,,,,-0.3984375,12.2421875,-3.0546875,-0.84375,0.501953125,-1.53125,1.90625,3.20703125,-0.7890625,1.0
4502905,,,,,,,,-0.12890625,13.296875,-3.8359375,-0.720703125,0.29296875,-1.251953125,2.29296875,4.27734375,-1.6328125,1.0
4502906,,,,,,,,0.04296875,13.328125,-4.08203125,-0.662109375,0.126953125,-1.123046875,2.51953125,4.31640625,-1.90234375,1.0
4502907,,,,,,,,0.91015625,12.4375,-4.05859375,-0.6171875,-0.21875,-0.849609375,3.48046875,3.4296875,-1.94140625,1.0
4502908,,,,,,,,1.7578125,10.40234375,-4.23046875,-0.576171875,-0.40625,-0.640625,4.40234375,1.40234375,-2.16796875,1.0
4502909,,,,,,,,1.06640625,7.19921875,-3.33203125,-0.203125,-0.173828125,-0.376953125,3.82421875,-1.77734375,-1.36328125,1.0
4502910,36.01305083333333,129.32011566666668,136.63557612275216,72.2170323963591,3.3000000000000003,231.0,,-1.44140625,7.07421875,-1.59375,-0.48828125,-1.384765625,-0.798828125,1.33203125,-1.890625,0.359375,1.0
4502911,,,,,,,,-4.421875,8.2109375,1.5546875,-0.181640625,0.494140625,-0.2421875,-1.6171875,-0.7421875,3.50390625,1.0
4502912,,,,,,,,-5.68359375,9.09765625,2.17578125,-0.296875,0.697265625,0.375,-2.87890625,0.13671875,4.109375,1.0
4502913,,,,,,,,-5.90625,10.8359375,0.84375,-0.390625,0.654296875,1.271484375,-3.19140625,1.859375,2.7734375,1.0
4502914,,,,,,,,-5.2734375,11.84375,-0.390625,-0.484375,0.3984375,2.015625,-2.7265625,2.82421875,1.5078125,1.0
4502915,,,,,,,,-4.44140625,12.2421875,-2.11328125,-0.49609375,-0.087890625,2.08203125,-2.07421875,3.16796875,-0.25390625,1.0
4502916,,,,,,,,-3.08984375,10.36328125,-1.90625,-0.439453125,-0.72265625,1.541015625,-0.88671875,1.24609375,-0.1015625,1.0
4502917,,,,,,,,-1.7734375,5.5546875,-1.19921875,-0.287109375,-1.23046875,0.984375,0.3359375,-3.578125,0.55078125,1.0
4502918,,,,,,,,-1.41015625,-2.78125,1.18359375,-0.10546875,-1.408203125,0.619140625,0.64453125,-11.93359375,2.88671875,1.0
4502919,,,,,,,,-0.96484375,-30.39453125,11.06640625,-0.005859375,-1.21484375,0.330078125,1.06640625,-39.55078125,12.73046875,1.0
4502920,36.01304866666667,129.32011300000002,136.39518297699712,71.97661696787407,3.3000000000000003,229.0,,-8.16796875,-53.30859375,15.796875,0.03515625,-0.65625,0.125,-6.13671875,-62.45703125,17.4453125,1.0
4502921,,,,,,,,1.9765625,-16.6484375,13.328125,0.1328125,0.513671875,-0.265625,4.015625,-25.80078125,14.9921875,1.0
4502922,,,,,,,,3.578125,-12.17578125,8.1875,0.134765625,1.0078125,-0.40234375,5.625,-21.31640625,9.859375,1.0
4502923,,,,,,,,5.64453125,-7.2109375,-0.9375,0.17578125,2.068359375,-1.06640625,7.73046875,-16.3359375,0.78125,1.0
4502924,,,,,,,,8.5625,-7.9296875,-4.2734375,0.388671875,2.197265625,-1.990234375,10.7578125,-17.02734375,-2.4765625,1.0
4502925,,,,,,,,5.16796875,-11.70703125,3.11328125,-0.166015625,-1.833984375,1.0546875,7.42578125,-20.77734375,4.95703125,1.0
4502926,,,,,,,,2.5546875,-14.03125,5.171875,0.0,-3.556640625,1.38671875,4.78125,-23.1171875,6.984375,1.0
4502927,,,,,,,,1.375,-11.0703125,3.51171875,0.33203125,-3.763671875,2.169921875,3.515625,-20.20703125,5.26171875,1.0
4502928,,,,,,,,-0.234375,-6.05078125,0.5703125,0.73046875,0.736328125,3.259765625,1.5625,-15.2578125,2.3515625,1.0
4502929,,,,,,,,-0.57421875,-5.15625,-0.08984375,0.779296875,1.67578125,3.119140625,1.06640625,-14.3828125,1.73828125,1.0
4502930,36.013046833333334,129.32011033333336,136.15478924500613,71.77318796164971,3.2,228.0,,-2.69140625,-3.7734375,-0.66015625,0.03515625,-0.65625,0.125,-6.13671875,-62.45703125,17.4453125,1.0
4502931,,,,,,,,-3.30859375,-2.9921875,-0.9765625,1.18359375,1.103515625,2.525390625,-2.23046875,-12.27734375,1.0859375,1.0
4502932,,,,,,,,-4.09375,-1.453125,-1.4609375,1.330078125,0.75,2.685546875,-3.1484375,-10.7421875,0.6640625,1.0
4502933,,,,,,,,-4.5625,-0.15234375,-2.44140625,1.53515625,0.40625,3.333984375,-3.9140625,-9.4375,-0.17578125,1.0
4502934,,,,,,,,-5.4921875,2.4375,-2.75390625,1.64453125,0.544921875,3.6328125,-5.1796875,-6.8359375,-0.33203125,1.0
4502935,,,,,,,,-5.1171875,6.62890625,-1.83984375,1.328125,0.890625,3.142578125,-5.48828125,-2.58203125,0.85546875,1.0
4502936,,,,,,,,-4.36328125,10.265625,-1.08203125,1.2109375,1.048828125,2.75,-5.02734375,1.09375,1.73828125,1.0
4502937,,,,,,,,-3.8359375,11.19140625,-1.08984375,1.126953125,1.193359375,2.52734375,-4.640625,2.05078125,1.77734375,1.0
4502938,,,,,,,,-2.70703125,12.6484375,-1.78125,0.890625,1.408203125,2.0078125,-3.7578125,3.546875,1.1640625,1.0
4502939,,,,,,,,-2.4140625,12.9296875,-2.12109375,0.76953125,1.451171875,1.740234375,-3.5703125,3.85546875,0.85546875,1.0
4502940,36.01304483333333,129.32010766666664,135.9143957833274,71.55126575379442,3.3000000000000003,229.0,,-1.875,12.69140625,-3.125,0.03515625,-0.65625,0.125,-6.13671875,-62.45703125,17.4453125,1.0
4502941,,,,,,,,-1.3125,10.33984375,-4.15234375,0.396484375,1.00390625,1.087890625,-2.80859375,1.32421875,-1.09765625,1.0
4502942,,,,,,,,-1.30078125,9.07421875,-4.12890625,0.375,0.5703125,0.880859375,-2.9140625,0.09765625,-1.05859375,1.0
4502943,,,,,,,,-1.3515625,5.87890625,-2.7890625,0.517578125,0.06640625,0.44921875,-3.11328125,-3.04296875,0.359375,1.0
4502944,,,,,,,,-0.546875,6.96875,-2.9453125,0.376953125,0.24609375,0.189453125,-2.34765625,-1.9296875,0.2421875,1.0
4502945,,,,,,,,0.328125,8.4453125,-2.96875,0.251953125,0.48828125,0.048828125,-1.50390625,-0.4375,0.2421875,1.0
4502946,,,,,,,,1.17578125,10.015625,-3.05078125,0.197265625,0.5234375,-0.001953125,-0.66015625,1.13671875,0.16796875,1.0
4502947,,,,,,,,1.9140625,10.95703125,-3.16796875,0.15234375,0.33984375,-0.20703125,0.0703125,2.0859375,0.05078125,1.0
4502948,,,,,,,,2.51171875,11.75390625,-3.296875,0.25,-0.1328125,-0.53125,0.68359375,2.890625,-0.0625,1.0
4502949,,,,,,,,2.66796875,12.17578125,-3.55859375,0.365234375,-0.60546875,-0.806640625,0.91015625,3.31640625,-0.29296875,1.0
4502950,36.013043,129.32010466666668,135.6439524186724,71.34783629591205,3.3000000000000003,230.0,,2.0,12.015625,-3.56640625,0.396484375,-0.912109375,-0.943359375,0.3359375,3.16796875,-0.25390625,1.0
4502951,,,,,,,,0.46875,9.6328125,-2.3125,0.349609375,-1.0703125,-0.962890625,-1.078125,0.7890625,1.046875,1.0
4502952,,,,,,,,-1.7578125,6.55859375,1.2890625,0.322265625,-1.130859375,-0.822265625,-3.1875,-2.27734375,4.69140625,1.0
4502953,,,,,,,,-1.890625,-0.96484375,1.703125,0.361328125,-1.0546875,-0.470703125,-3.2265625,-9.78515625,5.1484375,1.0
4502954,,,,,,,,0.28515625,-9.16796875,1.39453125,0.30859375,-0.822265625,-0.099609375,-1.00390625,-17.9765625,4.87890625,1.0
4502955,,,,,,,,7.703125,-33.2109375,2.62890625,0.20703125,-0.447265625,0.076171875,6.4296875,-42.00390625,6.14453125,1.0
4502956,,,,,,,,24.953125,-57.15234375,11.765625,0.166015625,-0.115234375,-0.451171875,23.703125,-65.9375,15.296875,1.0
4502957,,,,,,,,13.140625,-17.27734375,8.6796875,0.427734375,0.265625,-1.619140625,11.984375,-26.06640625,12.234375,1.0
4502958,,,,,,,,6.05078125,-9.421875,2.37890625,0.88671875,0.716796875,-2.333984375,5.05078125,-18.21484375,5.98828125,1.0
4502959,,,,,,,,-3.80078125,-8.03515625,-1.671875,0.62109375,0.2265625,-2.625,-4.60546875,-16.828125,2.0078125,1.0
4502960,36.01304116666667,129.3201015,135.35848423038095,71.14440661449095,3.4000000000000004,232.0,,-4.15625,-9.30078125,-2.1875,-0.017578125,0.548828125,-2.158203125,-4.7578125,-18.09765625,1.5078125,1.0
4502961,,,,,,,,-1.31640625,-10.34765625,-1.3671875,-0.51953125,-2.9609375,-0.388671875,-1.76953125,-19.16796875,2.3125,1.0
4502962,,,,,,,,0.328125,-10.79296875,-1.0546875,-0.4375,-4.27734375,0.169921875,-0.046875,-19.625,2.6171875,1.0
4502963,,,,,,,,4.15625,-8.7109375,2.11328125,-0.376953125,-4.4765625,-0.234375,3.9375,-17.5625,5.76171875,1.0
4502964,,,,,,,,4.4296875,-8.3046875,1.4765625,-0.638671875,-3.376953125,-1.078125,4.3203125,-17.1796875,5.109375,1.0
4502965,,,,,,,,4.5625,-6.30859375,-1.6953125,-1.0,-0.287109375,-2.78125,4.703125,-15.21875,1.8515625,1.0
4502966,,,,,,,,4.08984375,-3.11328125,-2.46484375,-1.35546875,0.99609375,-3.04296875,4.58984375,-12.078125,0.93359375,1.0
4502967,,,,,,,,3.7109375,-2.0390625,-2.4609375,-1.318359375,0.33984375,-2.609375,4.4375,-11.05078125,0.8203125,1.0
4502968,,,,,,,,3.421875,1.4765625,-2.25390625,-1.486328125,-0.388671875,-2.33984375,4.3984375,-7.56640625,0.89453125,1.0
4502969,,,,,,,,3.1640625,2.1953125,-2.1796875,-1.666015625,-0.388671875,-2.037109375,4.359375,-6.875,0.8203125,1.0
4502970,36.0130395,129.32009866666667,135.10306536021227,70.95947061170156,3.2,233.0,,2.64453125,5.61328125,-1.9609375,-1.572265625,0.134765625,-1.818359375,4.0859375,-3.50390625,0.8203125,1.0
4502971,,,,,,,,2.17578125,7.859375,-1.984375,-1.455078125,0.3515625,-1.830078125,3.78515625,-1.28125,0.6640625,1.0
4502972,,,,,,,,1.69921875,9.0078125,-2.21875,-1.396484375,0.3828125,-1.818359375,3.3984375,-0.1328125,0.359375,1.0
4502973,,,,,,,,0.78125,10.2421875,-2.58984375,-1.1328125,0.33984375,-1.75,2.7109375,1.09375,-0.17578125,1.0
4502974,,,,,,,,-0.2421875,11.9140625,-3.1171875,-0.810546875,0.169921875,-1.482421875,1.984375,2.78515625,-0.8671875,1.0
4502975,,,,,,,,0.22265625,11.0859375,-3.66015625,-0.703125,-0.078125,-1.173828125,2.6328125,1.9765625,-1.51953125,1.0
4502976,,,,,,,,0.81640625,10.42578125,-3.703125,-0.66796875,-0.162109375,-1.052734375,3.28125,1.32421875,-1.59375,1.0
4502977,,,,,,,,1.68359375,8.953125,-4.1328125,-0.607421875,-0.310546875,-0.7734375,4.24609375,-0.1328125,-2.09375,1.0
4502978,,,,,,,,1.7265625,7.4921875,-4.30078125,-0.490234375,-0.39453125,-0.4921875,4.36328125,-1.5859375,-2.32421875,1.0
4502979,,,,,,,,1.2421875,7.33984375,-3.9296875,-0.404296875,-0.419921875,-0.37890625,3.8984375,-1.73828125,-1.9765625,1.0
4502980,36.01303766666667,129.3200955,134.81759714694317,70.75604094866853,3.4000000000000004,234.0,,-1.046875,7.59765625,-2.54296875,-0.248046875,-0.3984375,-0.126953125,1.64453125,-1.47265625,-0.63671875,1.0
4502981,,,,,,,,-3.32421875,8.75390625,0.33203125,-0.193359375,-0.255859375,0.08203125,-0.62109375,-0.32421875,2.19921875,1.0
4502982,,,,,,,,-5.46875,10.1640625,3.82421875,-0.19140625,-0.1484375,0.201171875,-2.765625,1.09375,5.68359375,1.0
4502983,,,,,,,,-5.90234375,10.9921875,4.0234375,-0.3203125,0.11328125,0.955078125,-3.26171875,1.8984375,5.8359375,1.0
4502984,,,,,,,,-5.84765625,11.62109375,2.546875,-0.3671875,0.154296875,1.296875,-3.26171875,2.51171875,4.34375,1.0
4502985,,,,,,,,-4.703125,12.6953125,-0.1796875,-0.45703125,0.1640625,1.921875,-2.265625,3.546875,1.5859375,1.0
4502986,,,,,,,,-3.51953125,12.359375,-0.82421875,-0.521484375,-0.02734375,2.00390625,-1.26953125,3.1640625,0.89453125,1.0
4502987,,,,,,,,-2.37890625,10.265625,-0.953125,-0.51171875,-0.2890625,1.681640625,-0.19921875,1.0546875,0.7421875,1.0
4502988,,,,,,,,-1.609375,0.72265625,0.2109375,-0.322265625,-0.90625,1.017578125,0.453125,-8.515625,1.8515625,1.0
4502989,,,,,,,,-1.35546875,-6.13671875,2.90234375,-0.029296875,-1.203125,0.736328125,0.64453125,-15.37890625,4.49609375,1.0
4502990,36.01303516666667,129.32009266666668,134.56217967074267,70.47863892668457,3.5,229.0,,-1.203125,-36.4296875,13.8359375,0.173828125,-1.001953125,0.544921875,0.7578125,-45.68359375,15.4140625,1.0
4502991,,,,,,,,-8.984375,-52.31640625,14.05859375,0.17578125,-0.416015625,0.369140625,-7.0546875,-61.5703125,15.64453125,1.0
4502992,,,,,,,,-7.71484375,-20.75390625,15.16796875,0.150390625,0.00390625,0.291015625,-5.79296875,-30.0078125,16.75390625,1.0
4502993,,,,,,,,4.59765625,-6.609375,-2.578125,-0.11328125,2.2734375,-0.525390625,6.46484375,-15.875,-0.9453125,1.0
4502994,,,,,,,,12.41796875,-9.94921875,0.73046875,0.291015625,0.509765625,0.787109375,14.39453125,-19.16796875,2.50390625,1.0
4502995,,,,,,,,6.56640625,-11.89453125,3.3125,-0.107421875,-3.86328125,0.830078125,8.45703125,-21.16015625,5.03125,1.0
4502996,,,,,,,,2.390625,-10.5859375,4.80859375,-0.025390625,-3.65625,0.765625,4.28125,-19.859375,6.48828125,1.0
4502997,,,,,,,,0.234375,-8.9921875,3.0,0.34375,-0.98828125,1.490234375,2.0625,-18.29296875,4.6484375,1.0
4502998,,,,,,,,-2.18359375,-5.92578125,-0.30859375,0.626953125,1.513671875,2.7421875,-0.54296875,-15.2578125,1.39453125,1.0
4502999,,,,,,,,-2.640625,-4.640625,-0.35546875,0.78515625,1.787109375,3.158203125,-1.15625,-14.0,1.39453125,1.0
4503000,36.01303333333333,129.32009000000002,134.32178585493946,70.27520996927285,3.2,229.0,0.0,-3.8984375,-1.7265625,0.61328125,0.173828125,-1.001953125,0.544921875,-2.765625,-11.125,2.46484375,1.0
4503001,,,,,,,,-4.734375,-1.13671875,0.90234375,1.109375,0.154296875,3.166015625,-3.9140625,-10.55078125,2.84765625,1.0
4503002,,,,,,,,-5.03125,-0.67578125,0.57421875,1.33984375,-0.099609375,3.05078125,-4.375,-10.0859375,2.58203125,1.0
4503003,,,,,,,,-5.109375,2.234375,-0.6796875,1.697265625,-0.06640625,3.095703125,-4.71875,-7.1796875,1.46875,1.0
4503004,,,,,,,,-5.078125,3.4453125,-0.99609375,1.73828125,0.078125,3.029296875,-4.8359375,-5.95703125,1.23828125,1.0
4503005,,,,,,,,-5.1484375,6.515625,-1.9921875,1.638671875,0.279296875,2.68359375,-5.1796875,-2.8515625,0.3984375,1.0
4503006,,,,,,,,-4.62109375,10.8671875,-2.48828125,1.255859375,0.173828125,2.423828125,-5.02734375,1.5546875,0.12890625,1.0
4503007,,,,,,,,-3.47265625,11.2265625,-2.3984375,0.927734375,0.15625,2.33984375,-4.21875,1.9765625,0.359375,1.0
4503008,,,,,,,,-2.46484375,12.57421875,-2.20703125,0.759765625,0.166015625,2.244140625,-3.41796875,3.35546875,0.62890625,1.0
4503009,,,,,,,,-1.86328125,12.86328125,-2.546875,0.677734375,0.2265625,2.1875,-2.91796875,3.65625,0.3203125,1.0
4503010,36.01303133333333,129.32008716666667,134.0663674995668,70.05328758348053,3.4000000000000004,230.0,,-3.8984375,-1.7265625,0.61328125,0.513671875,0.552734375,1.77734375,-2.69140625,2.08984375,-1.09765625,1.0
4503011,,,,,,,,-1.42578125,10.546875,-4.2890625,0.51171875,0.681640625,1.26171875,-3.30078125,-0.66796875,-1.09765625,1.0
4503012,,,,,,,,-1.76953125,8.42578125,-4.07421875,0.546875,0.693359375,0.966796875,-3.453125,-1.51171875,-0.71484375,1.0
4503013,,,,,,,,-2.05078125,7.1171875,-3.5234375,0.54296875,0.53515625,0.2109375,-3.72265625,-2.46875,0.05078125,1.0
4503014,,,,,,,,-1.97265625,6.515625,-2.796875,0.4765625,0.5,-0.04296875,-3.5703125,-2.3515625,0.359375,1.0
4503015,,,,,,,,-1.15234375,7.53515625,-2.7578125,0.408203125,0.6015625,-0.044921875,-2.38671875,-0.8984375,0.16796875,1.0
4503016,,,,,,,,-0.6484375,8.09375,-2.95703125,0.373046875,0.640625,-0.04296875,-1.8046875,-0.4765625,0.05078125,1.0
4503017,,,,,,,,0.5234375,8.921875,-3.28125,0.310546875,0.5703125,-0.2265625,-0.66015625,0.2890625,-0.29296875,1.0
4503018,,,,,,,,2.5390625,10.171875,-3.546875,0.33984375,0.134765625,-1.025390625,0.8359375,1.21484375,-0.3671875,1.0
4503019,,,,,,,,2.90625,10.63671875,-3.10546875,0.357421875,-0.05859375,-1.2890625,1.2578125,1.6640625,0.08984375,1.0
4503020,36.01302933333333,129.32008416666667,133.79592432566972,69.83136497598004,3.3000000000000003,230.0,,2.19921875,10.5625,-1.83984375,0.513671875,0.552734375,1.77734375,-2.69140625,2.08984375,-1.09765625,1.0
4503021,,,,,,,,-0.83984375,8.5703125,3.13671875,0.369140625,-0.591796875,-1.6328125,-2.19140625,-0.3984375,6.40625,1.0
4503022,,,,,,,,-3.73046875,6.6171875,6.77734375,0.29296875,-0.73828125,-1.41796875,-4.91015625,-2.3515625,10.0859375,1.0
4503023,,,,,,,,-2.67578125,2.44140625,3.19921875,0.26171875,-0.802734375,-1.24609375,-3.80078125,-6.52734375,6.5234375,1.0
4503024,,,,,,,,0.84765625,-2.9296875,-2.5703125,0.205078125,-0.8828125,-0.80859375,-0.16015625,-11.89453125,0.78125,1.0
4503025,,,,,,,,9.6484375,-26.0390625,-1.9140625,0.037109375,-0.9140625,-0.693359375,8.765625,-34.99609375,1.46875,1.0
4503026,,,,,,,,21.6015625,-47.98046875,31.875,-0.037109375,-0.375,-2.390625,20.9453125,-56.94140625,35.2578125,1.0
4503027,,,,,,,,7.80859375,-19.45703125,9.10546875,0.30859375,1.076171875,-2.689453125,7.38671875,-28.44140625,12.50390625,1.0
4503028,,,,,,,,-2.015625,-6.9296875,0.546875,0.3046875,1.681640625,-2.0390625,-2.34375,-15.9140625,3.9609375,1.0
4503029,,,,,,,,-3.65625,-7.96484375,-3.7890625,0.048828125,1.802734375,-1.138671875,-3.9140625,-16.94921875,-0.3671875,1.0
4503030,36.0130275,129.32008116666665,133.5254808521221,69.62793558380605,3.3000000000000003,231.0,,-3.56640625,-9.44921875,-4.2421875,0.513671875,0.552734375,1.77734375,-2.69140625,2.08984375,-1.09765625,1.0
4503031,,,,,,,,-2.08984375,-9.25,-1.16796875,-0.5625,-4.078125,-1.330078125,-2.07421875,-18.29296875,2.16015625,1.0
4503032,,,,,,,,2.19921875,-7.6484375,1.62890625,-0.62890625,-3.56640625,-1.96875,2.63671875,-16.72265625,4.87890625,1.0
4503033,,,,,,,,4.6875,-6.015625,-0.23046875,-1.19921875,0.298828125,-2.28515625,5.5078125,-15.109375,2.88671875,1.0
4503034,,,,,,,,4.6015625,-4.53515625,-1.125,-1.4765625,0.798828125,-2.173828125,5.5078125,-13.65234375,1.9296875,1.0
4503035,,,,,,,,4.078125,-2.703125,-1.22265625,-1.62109375,0.73828125,-2.169921875,5.1640625,-11.85546875,1.69921875,1.0
4503036,,,,,,,,2.7265625,0.99609375,-1.16796875,-1.568359375,0.095703125,-2.5,4.015625,-8.171875,1.62109375,1.0
4503037,,,,,,,,2.4921875,1.73046875,-1.31640625,-1.642578125,-0.17578125,-2.5078125,3.8984375,-7.44921875,1.39453125,1.0
4503038,,,,,,,,1.90625,4.7421875,-1.0390625,-1.6640625,-0.2578125,-1.755859375,3.6328125,-4.4609375,1.4296875,1.0
4503039,,,,,,,,1.796875,5.87109375,-1.16015625,-1.615234375,-0.10546875,-1.51953125,3.59375,-3.34765625,1.23828125,1.0
4503040,36.01302583333334,129.32007833333333,133.2700618992563,69.44299963558186,3.3000000000000003,233.0,,1.234375,8.64453125,-1.36328125,-1.431640625,0.17578125,-1.31640625,3.171875,-0.58984375,0.89453125,1.0
4503041,,,,,,,,0.47265625,10.91015625,-1.4140625,-1.189453125,0.349609375,-1.443359375,2.59765625,1.66796875,0.6640625,1.0
4503042,,,,,,,,-0.0390625,12.83984375,-2.62890625,-0.77734375,0.216796875,-1.560546875,2.3671875,3.62109375,-0.71484375,1.0
4503043,,,,,,,,-0.33984375,13.59375,-3.36328125,-0.70703125,0.1484375,-1.48046875,2.13671875,4.390625,-1.48046875,1.0
4503044,,,,,,,,-0.265625,13.38671875,-3.64453125,-0.650390625,-0.0703125,-1.1484375,2.328125,4.1953125,-1.82421875,1.0
4503045,,,,,,,,-0.08984375,12.6484375,-3.765625,-0.63671875,-0.171875,-0.98828125,2.55859375,3.47265625,-1.9765625,1.0
4503046,,,,,,,,0.28515625,11.5234375,-4.00390625,-0.61328125,-0.2578125,-0.837890625,2.98046875,2.359375,-2.24609375,1.0
4503047,,,,,,,,1.44921875,8.48828125,-4.4765625,-0.513671875,-0.34375,-0.533203125,4.203125,-0.66796875,-2.78125,1.0
4503048,,,,,,,,1.140625,7.63671875,-4.0625,-0.451171875,-0.345703125,-0.408203125,3.94140625,-1.51171875,-2.3984375,1.0
4503049,,,,,,,,-0.0390625,7.59375,-3.12890625,-0.25,-0.1484375,-0.013671875,2.7890625,-1.546875,-1.51953125,1.0
4503050,36.013023833333335,129.3200755,133.0146434954312,69.22107728008844,3.2,232.0,,-1.11328125,7.74609375,-1.92578125,-1.431640625,0.17578125,-1.31640625,1.7109375,-1.39453125,-0.33203125,1.0
4503051,,,,,,,,-3.44140625,8.75,0.08203125,-0.146484375,0.287109375,0.21875,-0.62109375,-0.3984375,1.65625,1.0
4503052,,,,,,,,-4.97265625,9.8203125,1.80859375,-0.154296875,0.712890625,0.955078125,-2.8046875,1.2109375,3.73046875,1.0
4503053,,,,,,,,-5.90625,10.7265625,2.2734375,-0.232421875,0.787109375,1.587890625,-3.61328125,2.12890625,3.30859375,1.0
4503054,,,,,,,,-6.20703125,11.53125,1.234375,-0.296875,0.681640625,2.021484375,-3.53515625,2.51171875,2.19921875,1.0
4503055,,,,,,,,-5.63671875,11.73046875,-0.3984375,-0.337890625,0.357421875,2.171875,-2.95703125,1.9765625,1.046875,1.0
4503056,,,,,,,,-5.19921875,11.2578125,-0.5078125,-0.3359375,0.126953125,2.037109375,-2.57421875,1.4375,1.203125,1.0
4503057,,,,,,,,-4.0546875,9.640625,-0.046875,-0.291015625,-0.3828125,1.548828125,-1.38671875,-1.12890625,1.55078125,1.0
4503058,,,,,,,,-2.2265625,3.19140625,-0.55078125,-0.1328125,-0.740234375,1.046875,0.0703125,-10.5859375,1.546875,1.0
4503059,,,,,,,,-0.6875,-8.40234375,0.19921875,0.0703125,-0.767578125,0.630859375,1.48828125,-40.5078125,7.3671875,1.0
4503060,36.01302166666667,129.32007266666668,132.75922535857995,68.98066172554232,3.3000000000000003,229.0,,-1.11328125,7.74609375,-1.92578125,0.279296875,-0.26171875,-0.095703125,1.140625,-38.55859375,26.29296875,1.0
4503061,,,,,,,,1.7265625,-13.58984375,6.58203125,0.17578125,1.439453125,-1.00390625,9.03125,-16.87109375,-0.90625,1.0
4503062,,,,,,,,10.3515625,-7.67578125,-5.265625,0.744140625,3.033203125,-2.474609375,13.78515625,-17.94921875,-5.15625,1.0
4503063,,,,,,,,11.80859375,-8.65625,-6.78125,0.791015625,3.52734375,-3.18359375,13.28515625,-19.1328125,-4.890625,1.0
4503064,,,,,,,,8.41796875,-11.3984375,0.78515625,0.0,0.037109375,0.228515625,10.60546875,-20.625,2.54296875,1.0
4503065,,,,,,,,3.359375,-11.32421875,5.296875,-0.232421875,-4.08203125,1.626953125,5.546875,-20.546875,7.0625,1.0
4503066,,,,,,,,1.40625,-10.96875,5.46875,0.12890625,-3.5234375,2.861328125,3.515625,-20.24609375,7.140625,1.0
4503067,,,,,,,,0.4921875,-8.234375,1.61328125,0.876953125,-0.234375,3.591796875,2.40625,-17.56640625,3.23046875,1.0
4503068,,,,,,,,-1.3203125,-5.55859375,-1.01953125,0.953125,1.236328125,3.564453125,0.4140625,-14.91796875,0.62890625,1.0
4503069,,,,,,,,-2.46484375,-4.32421875,-1.55078125,1.259765625,1.9765625,3.076171875,-1.04296875,-13.7265625,0.20703125,1.0
4503070,36.01301983333334,129.32007000000002,132.51883146040558,68.7772328185093,3.2,229.0,,-4.609375,-2.33984375,-0.75,0.990234375,0.9453125,2.349609375,-3.6484375,-11.77734375,1.203125,1.0
4503071,,,,,,,,-5.8359375,-0.5703125,-0.44140625,1.376953125,-0.08984375,2.431640625,-5.1015625,-10.015625,1.62109375,1.0
4503072,,,,,,,,-6.59375,0.9921875,-0.51953125,1.658203125,-0.30078125,2.8203125,-5.984375,-8.44921875,1.62109375,1.0
4503073,,,,,,,,-7.03125,2.43359375,-1.29296875,1.8515625,-0.19921875,3.431640625,-6.7109375,-6.984375,1.01171875,1.0
4503074,,,,,,,,-6.8515625,4.2109375,-2.26953125,1.783203125,-0.060546875,3.53125,-6.7109375,-5.1875,0.12890625,1.0
4503075,,,,,,,,-6.33203125,6.32421875,-3.078125,1.501953125,0.119140625,3.509765625,-6.515625,-3.04296875,-0.5234375,1.0
4503076,,,,,,,,-5.41796875,12.1015625,-0.7890625,1.130859375,0.166015625,2.79296875,-6.21484375,2.8203125,2.0078125,1.0
4503077,,,,,,,,-3.60546875,13.33984375,-1.4140625,1.060546875,0.244140625,2.44140625,-4.52734375,4.08203125,1.4296875,1.0
4503078,,,,,,,,-2.12109375,13.61328125,-3.0,0.875,0.70703125,1.453125,-3.33984375,4.42578125,-0.0234375,1.0
4503079,,,,,,,,-1.46875,13.29296875,-4.10546875,0.765625,0.8359375,1.25,-2.765625,4.1171875,-1.09765625,1.0
4503080,36.013017833333336,129.32006733333336,132.27843782963055,68.55531071148815,3.3000000000000003,228.0,,-1.08203125,12.10546875,-4.50390625,0.990234375,0.9453125,2.349609375,-2.49609375,2.96875,-1.44140625,1.0
4503081,,,,,,,,-1.2109375,10.00390625,-4.2734375,0.54296875,0.453125,0.173828125,-2.69140625,0.90234375,-1.171875,1.0
4503082,,,,,,,,-1.6953125,6.9453125,-4.19921875,0.751953125,-0.017578125,-0.072265625,-3.19140625,-2.125,-1.01953125,1.0
4503083,,,,,,,,-1.1953125,6.08203125,-3.84765625,0.71484375,-0.025390625,-0.099609375,-2.6875,-2.96484375,-0.59765625,1.0
4503084,,,,,,,,-0.21484375,7.7109375,-3.2890625,0.5234375,0.087890625,-0.3203125,-1.69140625,-1.3203125,0.015625,1.0
4503085,,,,,,,,1.24609375,9.0390625,-2.984375,0.31640625,0.095703125,-0.63671875,-0.19921875,0.0234375,0.36328125,1.0
4503086,,,,,,,,1.67578125,9.48828125,-2.87890625,0.232421875,0.072265625,-0.822265625,0.26171875,0.4765625,0.47265625,1.0
4503087,,,,,,,,2.1953125,10.41796875,-2.73828125,0.212890625,-0.01953125,-1.205078125,0.875,1.3984375,0.62890625,1.0
4503088,,,,,,,,1.96875,11.44140625,-2.07421875,0.37109375,-0.248046875,-1.361328125,0.7578125,2.43359375,1.31640625,1.0
4503089,,,,,,,,1.64453125,11.51953125,-2.03515625,0.41015625,-0.619140625,-1.326171875,0.56640625,2.5078125,1.39453125,1.0
4503090,36.01301616666667,129.32006433333333,132.00799400566046,68.37037457278063,3.3000000000000003,231.0,,0.73828125,10.6328125,-1.9296875,0.990234375,0.9453125,2.349609375,-0.19921875,1.6328125,1.546875,1.0
4503091,,,,,,,,-0.62890625,7.85546875,0.22265625,0.248046875,-1.322265625,-1.0078125,-1.42578125,-1.12890625,3.7265625,1.0
4503092,,,,,,,,-0.72265625,6.203125,0.62890625,0.203125,-1.44140625,-0.935546875,-1.46484375,-2.7734375,4.1484375,1.0
4503093,,,,,,,,1.70703125,-3.0390625,-1.1484375,0.095703125,-1.505859375,-1.00390625,1.10546875,-12.0078125,2.390625,1.0
4503094,,,,,,,,5.6484375,-15.41796875,0.13671875,-0.009765625,-1.314453125,-1.142578125,5.203125,-24.37890625,3.69140625,1.0
4503095,,,,,,,,18.546875,-42.07421875,9.63671875,-0.060546875,-0.8671875,-1.169921875,18.2265625,-51.04296875,13.19140625,1.0
4503096,,,,,,,,21.1953125,-47.703125,14.2421875,-0.0859375,-0.56640625,-1.263671875,20.9453125,-56.67578125,17.7890625,1.0
4503097,,,,,,,,13.05078125,-22.6875,15.16015625,-0.06640625,0.18359375,-1.66796875,12.94140625,-31.66015625,18.70703125,1.0
4503098,,,,,,,,-2.73046875,-7.13671875,0.296875,0.107421875,1.15625,-1.451171875,-2.65234375,-16.1015625,3.84375,1.0
4503099,,,,,,,,-4.5859375,-11.53515625,-2.66015625,-0.1640625,1.4453125,-1.857421875,-4.375,-20.5078125,0.89453125,1.0
4503100,36.013014500000004,129.32006133333334,131.73755017062544,68.18543844358004,3.3000000000000003,232.0,0.0,0.50390625,-16.4609375,3.37890625,-0.595703125,-3.794921875,-0.07421875,0.91015625,-25.45703125,6.87109375,1.0
4503101,,,,,,,,2.01953125,-12.796875,3.5546875,-0.31640625,-4.109375,0.048828125,2.55859375,-21.8125,6.984375,1.0
4503102,,,,,,,,2.8515625,-10.375,1.2578125,-0.361328125,-1.251953125,-1.787109375,3.5546875,-19.3984375,4.6484375,1.0
4503103,,,,,,,,3.05078125,-8.23046875,-0.328125,-0.6796875,0.1640625,-2.51171875,3.86328125,-17.25390625,3.0390625,1.0
4503104,,,,,,,,2.65234375,-6.30078125,-1.62109375,-1.185546875,0.9921875,-2.818359375,3.70703125,-15.33984375,1.66015625,1.0
4503105,,,,,,,,2.75,-3.86328125,-1.90234375,-1.271484375,-0.0078125,-2.359375,4.015625,-12.921875,1.27734375,1.0
4503106,,,,,,,,3.15234375,-2.15625,-1.8515625,-1.4765625,-0.646484375,-2.203125,4.62890625,-11.24609375,1.203125,1.0
4503107,,,,,,,,3.20703125,-0.53125,-2.546875,-1.6171875,-0.521484375,-2.029296875,4.89453125,-9.63671875,0.359375,1.0
4503108,,,,,,,,3.3046875,0.359375,-2.69921875,-1.6640625,-0.3359375,-1.984375,5.0859375,-8.75,0.12890625,1.0
4503109,,,,,,,,3.42578125,2.7109375,-2.16015625,-1.748046875,0.08203125,-1.9453125,5.39453125,-6.4140625,0.51171875,1.0
4503110,36.01301266666667,129.3200585,131.48213141287144,67.98200934038765,3.4000000000000004,232.0,,1.7578125,7.36328125,-0.5234375,-1.54296875,0.33984375,-1.85546875,3.98046875,-1.77734375,1.9296875,1.0
4503111,,,,,,,,0.2578125,9.4140625,-0.44921875,-1.166015625,0.544921875,-1.630859375,2.79296875,0.2890625,1.77734375,1.0
4503112,,,,,,,,-0.1953125,10.48046875,-1.24609375,-1.08984375,0.57421875,-1.53515625,2.41015625,1.36328125,0.93359375,1.0
4503113,,,,,,,,-0.63671875,12.04296875,-3.49609375,-0.904296875,0.435546875,-1.28125,2.09765625,2.93359375,-1.40234375,1.0
4503114,,,,,,,,-0.70703125,12.70703125,-4.26953125,-0.79296875,-0.09765625,-0.970703125,2.17578125,3.6171875,-2.28515625,1.0
4503115,,,,,,,,-0.4765625,12.6640625,-4.88671875,-0.73046875,-0.46484375,-0.822265625,2.484375,3.58984375,-2.97265625,1.0
4503116,,,,,,,,-0.21875,12.08203125,-4.91796875,-0.689453125,-0.58203125,-0.693359375,2.7890625,3.01171875,-3.046875,1.0
4503117,,,,,,,,0.9765625,9.12109375,-3.65234375,-0.5625,-0.615234375,-0.40234375,4.05859375,0.05859375,-1.86328125,1.0
4503118,,,,,,,,-0.05078125,7.32421875,-1.57421875,-0.3203125,-0.240234375,0.083984375,3.0546875,-1.73828125,0.12890625,1.0
4503119,,,,,,,,-0.81640625,7.1015625,-0.45703125,-0.23046875,-0.005859375,0.203125,2.2890625,-1.96875,1.23828125,1.0
4503120,36.01301083333333,129.3200555,131.21168783348458,67.77858001941583,3.3000000000000003,232.0,,-3.62890625,7.5,2.578125,-0.099609375,0.67578125,0.587890625,3.98046875,-1.77734375,1.9296875,1.0
4503121,,,,,,,,-5.3515625,9.46875,1.95703125,-0.15234375,0.91015625,0.939453125,-2.3828125,0.3671875,3.65234375,1.0
4503122,,,,,,,,-5.41796875,10.48046875,1.4140625,-0.228515625,0.919921875,1.185546875,-2.49609375,1.36328125,3.1171875,1.0
4503123,,,,,,,,-5.39453125,12.55078125,-0.9921875,-0.40234375,0.6875,1.609375,-2.61328125,3.39453125,0.703125,1.0
4503124,,,,,,,,-5.27734375,13.203125,-1.7265625,-0.513671875,0.099609375,1.662109375,-2.65234375,4.0078125,-0.0625,1.0
4503125,,,,,,,,-4.98046875,12.8203125,-2.0859375,-0.51171875,-0.607421875,1.40625,-2.49609375,3.58984375,-0.484375,1.0
4503126,,,,,,,,-3.8828125,10.51171875,-1.02734375,-0.4453125,-1.083984375,1.0859375,-1.5,1.24609375,0.51171875,1.0
4503127,,,,,,,,-3.421875,9.21875,-0.421875,-0.375,-1.20703125,0.955078125,-1.078125,-0.0546875,1.0859375,1.0
4503128,,,,,,,,-1.859375,2.67578125,-0.16796875,-0.265625,-1.2265625,0.794921875,0.4140625,-6.60546875,1.27734375,1.0
4503129,,,,,,,,-1.56640625,-1.72265625,1.3984375,-0.23828125,-1.134765625,0.72265625,0.68359375,-11.0078125,2.8125,1.0
4503130,36.0130085,129.32005233333334,130.9262202553483,67.51967086263225,3.5,230.0,,-1.3828125,-30.3203125,10.40625,-0.169921875,-0.43359375,0.46875,0.796875,-39.62890625,11.7734375,1.0
4503131,,,,,,,,-1.25390625,-17.03515625,14.09375,-0.0234375,0.9921875,-0.25390625,0.91015625,-26.33203125,15.453125,1.0
4503132,,,,,,,,4.86328125,-4.921875,0.35546875,-0.033203125,1.6015625,-0.568359375,7.04296875,-14.23046875,1.73828125,1.0
4503133,,,,,,,,8.24609375,-5.0859375,-3.62109375,0.033203125,1.970703125,-1.044921875,10.44921875,-14.3828125,-2.20703125,1.0
4503134,,,,,,,,11.37109375,-9.375,-3.47265625,0.2109375,2.3828125,-1.63671875,13.78515625,-18.59765625,-1.94140625,1.0
4503135,,,,,,,,2.7734375,-13.16015625,5.73046875,-0.431640625,-1.841796875,0.703125,5.203125,-22.38671875,7.25390625,1.0
4503136,,,,,,,,0.8203125,-12.1015625,5.9296875,0.01953125,-4.021484375,1.365234375,3.2109375,-21.3515625,7.3671875,1.0
4503137,,,,,,,,0.00390625,-9.55859375,3.265625,0.498046875,-2.306640625,2.78125,2.25390625,-18.859375,4.6484375,1.0
4503138,,,,,,,,-1.46875,-6.66015625,0.98828125,0.7421875,1.189453125,3.47265625,0.4921875,-16.0234375,2.42578125,1.0
4503139,,,,,,,,-3.38671875,-4.23046875,-0.46875,0.978515625,2.2734375,3.146484375,-1.76953125,-13.65234375,1.0859375,1.0
4503140,36.01300666666667,129.32004966666668,130.68582627467237,67.31624200637187,3.3000000000000003,229.0,,-4.765625,-3.04296875,-0.71484375,1.01171875,1.2890625,2.4609375,0.796875,-39.62890625,11.7734375,1.0
4503141,,,,,,,,-6.515625,-0.0859375,-1.20703125,1.2890625,0.1484375,2.54296875,-5.4453125,-9.55859375,0.58984375,1.0
4503142,,,,,,,,-7.01171875,0.8046875,-1.69140625,1.474609375,-0.15625,2.884765625,-6.05859375,-8.671875,0.16796875,1.0
4503143,,,,,,,,-7.2734375,2.296875,-2.3828125,1.623046875,-0.337890625,3.619140625,-6.6328125,-7.1796875,-0.3671875,1.0
4503144,,,,,,,,-6.94921875,2.94921875,-2.37890625,1.595703125,-0.263671875,3.7890625,-6.48046875,-6.5234375,-0.29296875,1.0
4503145,,,,,,,,-5.5390625,7.12890625,-1.5546875,1.318359375,0.15625,3.591796875,-5.6015625,-2.31640625,0.7421875,1.0
4503146,,,,,,,,-3.78125,11.03125,-0.77734375,1.068359375,0.59765625,2.693359375,-4.33984375,1.6328125,1.69921875,1.0
4503147,,,,,,,,-2.9453125,12.578125,-0.89453125,0.97265625,0.767578125,2.365234375,-3.61328125,3.203125,1.62109375,1.0
4503148,,,,,,,,-1.55859375,13.6484375,-2.2734375,0.810546875,0.99609375,1.720703125,-2.45703125,4.31640625,0.3203125,1.0
4503149,,,,,,,,-1.14453125,13.5546875,-2.87890625,0.748046875,1.01953125,1.416015625,-2.11328125,4.23828125,-0.25390625,1.0
4503150,36.01300466666667,129.32004683333335,130.4304077419519,67.09431972678011,3.5,229.0,,-0.94140625,11.984375,-4.19140625,1.01171875,1.2890625,2.4609375,0.796875,-39.62890625,11.7734375,1.0
4503151,,,,,,,,-1.515625,9.6953125,-4.12890625,0.65234375,0.24609375,0.50390625,-2.765625,0.4453125,-1.36328125,1.0
4503152,,,,,,,,-2.2109375,7.6796875,-3.50390625,0.6484375,-0.138671875,0.259765625,-3.49609375,-1.546875,-0.67578125,1.0
4503153,,,,,,,,-2.1953125,7.546875,-3.07421875,0.638671875,-0.255859375,0.201171875,-3.49609375,-1.6640625,-0.21484375,1.0
4503154,,,,,,,,-1.7578125,7.2578125,-1.875,0.572265625,-0.23828125,0.205078125,-3.0703125,-1.9296875,1.046875,1.0
4503155,,,,,,,,-0.78515625,7.80859375,-1.98828125,0.42578125,0.001953125,0.279296875,-2.11328125,-1.35546875,0.97265625,1.0
4503156,,,,,,,,1.15234375,9.30859375,-2.2265625,0.3203125,0.380859375,0.275390625,-0.23828125,0.17578125,0.78125,1.0
4503157,,,,,,,,2.53515625,10.546875,-2.6328125,0.416015625,0.36328125,0.1328125,1.10546875,1.44140625,0.3984375,1.0
4503158,,,,,,,,2.80859375,10.6171875,-2.7265625,0.474609375,0.267578125,-0.044921875,1.37109375,1.515625,0.3203125,1.0
4503159,,,,,,,,2.59375,11.0546875,-2.3515625,0.55859375,0.0,-0.576171875,1.1796875,1.98046875,0.7421875,1.0
4503160,36.013002666666665,129.32004366666666,130.14493956825416,66.87239700969337,3.5,230.0,,0.4765625,10.46484375,-0.16796875,1.01171875,1.2890625,2.4609375,0.796875,-39.62890625,11.7734375,1.0
4503161,,,,,,,,-2.89453125,8.07421875,3.33984375,0.51171875,-0.705078125,-1.126953125,-4.06640625,-0.97265625,6.56640625,1.0
4503162,,,,,,,,-2.8828125,6.73046875,3.34375,0.4609375,-0.802734375,-0.9609375,-3.9921875,-2.31640625,6.6015625,1.0
4503163,,,,,,,,-0.44921875,2.6484375,0.4921875,0.376953125,-0.927734375,-0.478515625,-1.46484375,-6.37890625,3.8046875,1.0
4503164,,,,,,,,2.671875,-4.75390625,-1.09375,0.318359375,-0.935546875,-0.28125,1.6796875,-13.765625,2.234375,1.0
4503165,,,,,,,,10.98046875,-29.24609375,3.359375,0.2109375,-0.779296875,-0.154296875,10.02734375,-38.24609375,6.71875,1.0
4503166,,,,,,,,19.546875,-53.42578125,14.13671875,0.130859375,-0.470703125,-0.759765625,18.6484375,-62.41796875,17.51953125,1.0
4503167,,,,,,,,10.7578125,-28.14453125,19.73046875,0.123046875,-0.2734375,-1.18359375,9.9140625,-37.1328125,23.11328125,1.0
4503168,,,,,,,,0.02734375,-6.34765625,4.015625,0.564453125,0.46875,-1.626953125,-0.62109375,-15.3359375,7.4453125,1.0
4503169,,,,,,,,-3.34375,-8.26953125,-0.94140625,0.447265625,0.4765625,-1.36328125,-3.875,-17.25390625,2.54296875,1.0
4503170,36.01300083333333,129.32004083333334,129.8895207381166,66.66896795253784,3.3000000000000003,230.0,,0.3203125,-13.00390625,1.00390625,1.01171875,1.2890625,2.4609375,0.03125,-22.0,4.49609375,1.0
4503171,,,,,,,,4.15625,-12.72265625,2.7109375,-0.220703125,-4.1328125,-0.802734375,4.0546875,-21.734375,6.1796875,1.0
4503172,,,,,,,,5.20703125,-9.1796875,1.5703125,-0.265625,-2.65234375,-1.361328125,5.31640625,-18.2109375,5.03125,1.0
4503173,,,,,,,,4.46875,-7.3203125,0.515625,-0.845703125,0.162109375,-2.15234375,4.78125,-16.375,3.921875,1.0
4503174,,,,,,,,3.46875,-4.8359375,-1.50390625,-1.130859375,1.04296875,-2.580078125,3.9765625,-13.921875,1.81640625,1.0
4503175,,,,,,,,2.97265625,-1.65625,-2.27734375,-1.251953125,0.169921875,-2.68359375,3.82421875,-10.78125,0.89453125,1.0
4503176,,,,,,,,3.0078125,-0.94921875,-2.48828125,-1.33203125,-0.08203125,-2.537109375,3.9765625,-10.0859375,0.62890625,1.0
4503177,,,,,,,,3.05859375,0.63671875,-2.94140625,-1.4296875,-0.259765625,-2.21484375,4.24609375,-8.51953125,0.05078125,1.0
4503178,,,,,,,,3.078125,3.234375,-2.72265625,-1.521484375,-0.1953125,-2.09375,4.4765625,-5.95703125,0.12890625,1.0
4503179,,,,,,,,2.6796875,5.31640625,-1.9296875,-1.486328125,0.025390625,-2.044921875,4.28515625,-3.88671875,0.78125,1.0
4503180,36.012999,129.32003799999998,129.63410189327726,66.46553890336438,3.4000000000000004,231.0,,1.92578125,7.74609375,-1.0703125,1.01171875,1.2890625,2.4609375,3.703125,-1.47265625,1.5078125,1.0
4503181,,,,,,,,0.32421875,11.03515625,-1.23046875,-1.21484375,0.421875,-1.96484375,2.2890625,1.82421875,1.23828125,1.0
4503182,,,,,,,,-0.1796875,11.453125,-1.90234375,-1.1015625,0.60546875,-1.861328125,1.9453125,2.2421875,0.47265625,1.0
4503183,,,,,,,,-0.765625,12.625,-3.84375,-0.984375,0.615234375,-1.693359375,1.5234375,3.43359375,-1.5546875,1.0
4503184,,,,,,,,-0.578125,13.140625,-4.65625,-0.900390625,0.095703125,-1.345703125,1.90625,3.97265625,-2.4765625,1.0
4503185,,,,,,,,0.9921875,11.171875,-4.79296875,-0.880859375,-0.376953125,-1.048828125,3.59765625,2.015625,-2.70703125,1.0
4503186,,,,,,,,1.671875,10.2109375,-4.828125,-0.87109375,-0.53515625,-0.890625,4.3203125,1.0546875,-2.78125,1.0
4503187,,,,,,,,3.15625,7.37109375,-5.42578125,-0.775390625,-0.58984375,-0.619140625,5.89453125,-1.77734375,-3.47265625,1.0
4503188,,,,,,,,2.328125,6.52734375,-4.95703125,-0.6484375,-0.419921875,-0.544921875,5.125,-2.62109375,-3.08984375,1.0
4503189,,,,,,,,1.5703125,6.55859375,-4.46484375,-0.546875,-0.28125,-0.556640625,4.3984375,-2.58203125,-2.62890625,1.0
4503190,36.012997166666665,129.32003516666666,129.37868303897866,66.26210986247966,3.3000000000000003,231.0,,-1.51953125,7.23046875,-2.50390625,1.01171875,1.2890625,2.4609375,3.703125,-1.47265625,1.5078125,1.0
4503191,,,,,,,,-4.171875,8.14453125,0.77734375,-0.29296875,0.466796875,-0.390625,-1.234375,-0.97265625,2.5390625,1.0
4503192,,,,,,,,-7.12109375,10.43359375,4.77734375,-0.35546875,0.751953125,0.33984375,-4.18359375,1.32421875,6.5234375,1.0
4503193,,,,,,,,-6.796875,12.1796875,2.37109375,-0.46875,0.7890625,1.4140625,-3.953125,3.046875,4.109375,1.0
4503194,,,,,,,,-4.921875,13.125,-0.04296875,-0.560546875,0.59375,2.349609375,-2.265625,3.9296875,1.66015625,1.0
4503195,,,,,,,,-3.41015625,12.95703125,-0.76171875,-0.5859375,0.1796875,2.6328125,-1.00390625,3.69921875,0.89453125,1.0
4503196,,,,,,,,-1.796875,9.984375,-0.24609375,-0.568359375,-0.552734375,1.541015625,0.4140625,0.671875,1.35546875,1.0
4503197,,,,,,,,-1.11328125,1.0390625,-0.453125,-0.34375,-1.35546875,0.09765625,1.02734375,-8.2890625,1.046875,1.0
4503198,,,,,,,,-0.875,-13.6796875,4.7734375,-0.09765625,-1.37890625,-0.2578125,1.296875,-23.0,6.21875,1.0
4503199,,,,,,,,-3.4140625,-44.1484375,12.0,0.064453125,-0.9296875,-0.28125,-1.1953125,-53.453125,13.421875,1.0
4503200,36.01299466666667,129.32003166666667,129.0631659963776,65.98470711746467,3.8000000000000003,229.0,0.0,-14.515625,-51.8671875,16.51953125,1.01171875,1.2890625,2.4609375,-12.265625,-61.16015625,17.94140625,1.0
4503201,,,,,,,,-0.91796875,-10.953125,7.9921875,0.103515625,1.08203125,0.193359375,1.33203125,-20.2421875,9.4375,1.0
4503202,,,,,,,,9.95703125,-7.68359375,-4.6796875,0.16796875,2.306640625,-0.115234375,12.13671875,-16.984375,-3.1640625,1.0
4503203,,,,,,,,13.13671875,-8.109375,-5.75390625,0.439453125,2.28515625,-0.60546875,15.31640625,-17.40625,-4.19921875,1.0
4503204,,,,,,,,13.04296875,-10.2421875,-2.29296875,0.322265625,1.748046875,-0.19140625,15.23828125,-19.51953125,-0.63671875,1.0
4503205,,,,,,,,5.359375,-12.6484375,3.3515625,-0.3984375,-2.330078125,-0.4921875,7.578125,-21.9296875,4.9921875,1.0
4503206,,,,,,,,1.625,-12.1796875,5.5,0.12890625,-3.5390625,-0.048828125,3.9375,-21.47265625,7.0625,1.0
4503207,,,,,,,,-0.3515625,-8.5625,2.7734375,0.37890625,-1.052734375,2.169921875,1.90625,-17.8671875,4.3046875,1.0
4503208,,,,,,,,-1.7265625,-5.8125,-0.421875,0.490234375,0.63671875,3.107421875,0.4140625,-15.1484375,1.125,1.0
4503209,,,,,,,,-3.015625,-2.953125,-1.01953125,0.80078125,2.09375,3.669921875,-1.234375,-12.3515625,0.62890625,1.0
4503210,36.012992833333335,129.32002883333334,128.80774711562606,65.78127809240226,3.4000000000000004,229.0,,-5.33984375,0.02734375,-0.11328125,0.8984375,0.841796875,2.98828125,-4.06640625,-9.44140625,1.69921875,1.0
4503211,,,,,,,,-6.32421875,1.15625,-0.22265625,1.330078125,-0.087890625,2.87890625,-5.33203125,-8.328125,1.69921875,1.0
4503212,,,,,,,,-6.61328125,2.07421875,-0.4140625,1.517578125,-0.2265625,3.05078125,-5.79296875,-7.40625,1.5859375,1.0
4503213,,,,,,,,-6.64453125,5.17578125,-1.7421875,1.587890625,-0.033203125,3.40625,-6.09765625,-4.30859375,0.3984375,1.0
4503214,,,,,,,,-6.2109375,7.921875,-3.234375,1.486328125,0.16015625,3.396484375,-5.98828125,-1.546875,-0.9453125,1.0
4503215,,,,,,,,-5.61328125,9.62109375,-3.48046875,1.333984375,0.208984375,3.177734375,-5.7109375,0.17578125,-1.05859375,1.0
4503216,,,,,,,,-5.359375,10.9453125,-3.24609375,1.24609375,0.23046875,3.001953125,-5.60546875,1.515625,-0.75390625,1.0
4503217,,,,,,,,-4.47265625,12.828125,-1.921875,0.994140625,0.267578125,2.5859375,-4.98828125,3.4296875,0.6640625,1.0
4503218,,,,,,,,-1.65234375,12.484375,-2.7734375,0.728515625,0.59765625,1.921875,-2.61328125,3.16796875,-0.0234375,1.0
4503219,,,,,,,,-1.21875,12.0625,-3.2890625,0.619140625,0.85546875,1.734375,-2.3828125,2.78515625,-0.484375,1.0
4503220,36.01299083333333,129.3200265,128.59740294068538,65.55935652684933,3.3000000000000003,227.0,,-0.77734375,9.87890625,-4.36328125,0.541015625,0.908203125,1.349609375,-4.06640625,-9.44140625,1.69921875,1.0
4503221,,,,,,,,-0.9609375,6.8203125,-4.40234375,0.546875,0.732421875,0.791015625,-2.42578125,-2.390625,-1.51953125,1.0
4503222,,,,,,,,-0.69921875,5.6015625,-4.28515625,0.6171875,0.533203125,0.30859375,-2.23046875,-3.58203125,-1.36328125,1.0
4503223,,,,,,,,-0.60546875,5.69921875,-4.04296875,0.626953125,0.484375,0.119140625,-2.15234375,-3.46484375,-1.09765625,1.0
4503224,,,,,,,,-0.16796875,6.44140625,-3.75390625,0.5703125,0.546875,-0.197265625,-1.73046875,-2.69921875,-0.75390625,1.0
4503225,,,,,,,,0.75,8.1875,-3.09375,0.421875,0.69921875,-0.34375,-0.8125,-0.9375,-0.0625,1.0
4503226,,,,,,,,1.2109375,9.375,-2.6875,0.279296875,0.728515625,-0.427734375,-0.3515625,0.25,0.359375,1.0
4503227,,,,,,,,1.609375,10.89453125,-1.74609375,0.287109375,0.552734375,-0.4453125,0.0703125,1.78515625,1.31640625,1.0
4503228,,,,,,,,1.37109375,11.19921875,-1.5234375,0.33203125,0.400390625,-0.443359375,-0.16015625,2.0859375,1.546875,1.0
4503229,,,,,,,,0.3203125,11.94921875,-1.15625,0.443359375,-0.146484375,-0.416015625,-1.15625,2.8515625,1.96875,1.0
4503230,36.01298883333333,129.32002316666666,128.29690985244014,65.33743364953976,3.5,229.0,,-1.8125,10.4921875,0.65625,0.42578125,-0.833984375,-0.341796875,-3.2265625,1.4375,3.84375,1.0
4503231,,,,,,,,-3.94140625,7.60546875,3.828125,0.33203125,-1.33203125,-0.373046875,-5.29296875,-1.43359375,7.06640625,1.0
4503232,,,,,,,,-0.3125,1.5,-0.27734375,0.2109375,-1.62890625,-0.564453125,-1.578125,-7.52734375,3.00390625,1.0
4503233,,,,,,,,1.328125,-0.37890625,-1.63671875,0.15234375,-1.685546875,-0.6953125,0.109375,-9.3984375,1.66015625,1.0
4503234,,,,,,,,8.47265625,-23.28515625,-0.89453125,0.068359375,-1.650390625,-1.115234375,7.38671875,-32.30859375,2.42578125,1.0
4503235,,,,,,,,21.69921875,-51.78515625,10.921875,0.00390625,-1.3046875,-1.802734375,20.79296875,-60.8046875,14.265625,1.0
4503236,,,,,,,,11.71875,-27.90625,19.984375,0.087890625,-0.501953125,-2.66796875,11.0625,-36.94921875,23.34375,1.0
4503237,,,,,,,,2.17578125,-9.04296875,2.70703125,0.48828125,1.416015625,-2.01171875,1.83203125,-18.09375,6.10546875,1.0
4503238,,,,,,,,-3.54296875,-7.74609375,-3.37109375,0.4765625,1.74609375,-1.47265625,-3.83984375,-16.7890625,0.05078125,1.0
4503239,,,,,,,,-3.96484375,-8.92578125,-2.94921875,-0.322265625,2.07421875,-1.20703125,-4.22265625,-17.98046875,0.47265625,1.0
4503240,36.012986999999995,129.32002033333336,128.04149093705274,65.13400464766542,3.4000000000000004,230.0,,-1.1171875,-11.546875,-1.03125,-0.6171875,-3.45703125,-1.154296875,-3.2265625,1.4375,3.84375,1.0
4503241,,,,,,,,2.06640625,-10.7578125,1.92578125,-0.32421875,-4.955078125,-1.2265625,2.21484375,-19.86328125,5.26171875,1.0
4503242,,,,,,,,2.70703125,-10.296875,2.28515625,-0.376953125,-4.4140625,-1.4921875,2.98046875,-19.40234375,5.60546875,1.0
4503243,,,,,,,,3.66015625,-8.328125,0.38671875,-0.513671875,-1.046875,-2.3046875,4.20703125,-17.4453125,3.65234375,1.0
4503244,,,,,,,,3.55078125,-8.3125,0.41015625,-0.763671875,0.4296875,-2.494140625,4.55078125,-16.71875,2.84765625,1.0
4503245,,,,,,,,4.19921875,-4.7265625,-1.1796875,-1.318359375,1.470703125,-2.478515625,5.05078125,-13.88671875,1.96875,1.0
4503246,,,,,,,,3.6875,-1.25,-1.25390625,-1.318359375,0.974609375,-2.4609375,4.7421875,-10.44140625,1.77734375,1.0
4503247,,,,,,,,3.453125,-0.3984375,-1.421875,-1.279296875,0.048828125,-2.509765625,4.703125,-9.59765625,1.5078125,1.0
4503248,,,,,,,,3.18359375,2.828125,-2.29296875,-1.455078125,-0.337890625,-2.212890625,4.66796875,-6.37890625,0.51171875,1.0
4503249,,,,,,,,2.6796875,4.69921875,-2.47265625,-1.298828125,-0.130859375,-1.59375,4.4375,-4.53515625,0.12890625,1.0
4503250,36.01298516666667,129.32001766666664,127.80109681936035,64.93057587152586,3.3000000000000003,230.0,,1.80859375,8.57421875,-2.25,-0.6171875,-3.45703125,-1.154296875,3.703125,-0.66796875,0.2421875,1.0
4503251,,,,,,,,1.24609375,10.60546875,-2.26953125,-0.978515625,0.154296875,-1.5,3.28515625,1.36328125,0.12890625,1.0
4503252,,,,,,,,0.37890625,11.5234375,-2.3828125,-0.82421875,0.28515625,-1.474609375,2.55859375,2.28125,-0.0625,1.0
4503253,,,,,,,,-0.02734375,12.015625,-2.99609375,-0.755859375,0.357421875,-1.41015625,2.21484375,2.78515625,-0.71484375,1.0
4503254,,,,,,,,-0.46875,12.48828125,-3.4140625,-0.650390625,0.4375,-1.11328125,1.9453125,3.27734375,-1.2109375,1.0
4503255,,,,,,,,-0.36328125,12.51953125,-3.59765625,-0.615234375,0.357421875,-0.98046875,2.13671875,3.31640625,-1.44140625,1.0
4503256,,,,,,,,1.34375,10.3671875,-4.31640625,-0.5546875,0.189453125,-0.8359375,3.94140625,1.171875,-2.20703125,1.0
4503257,,,,,,,,1.93359375,9.46875,-4.828125,-0.54296875,-0.046875,-0.603515625,4.5859375,0.2890625,-2.78125,1.0
4503258,,,,,,,,1.71875,9.34765625,-5.00390625,-0.533203125,-0.138671875,-0.486328125,4.40234375,0.17578125,-2.97265625,1.0
4503259,,,,,,,,0.33203125,8.97265625,-4.68359375,-0.42578125,-0.267578125,-0.271484375,3.05859375,-0.20703125,-2.70703125,1.0
4503260,36.01298333333333,129.32001516666665,127.57572751315539,64.72714731903443,3.1,229.0,,-3.453125,8.84765625,-1.5859375,-0.140625,-0.19921875,0.126953125,-0.6953125,-0.32421875,0.3203125,1.0
4503261,,,,,,,,-6.5859375,9.27734375,4.10546875,-0.134765625,0.20703125,0.662109375,-3.875,0.09765625,5.984375,1.0
4503262,,,,,,,,-7.3359375,9.68359375,3.73046875,-0.26953125,0.494140625,1.337890625,-4.71875,0.48046875,5.60546875,1.0
4503263,,,,,,,,-6.51953125,9.953125,2.21484375,-0.337890625,0.677734375,2.0078125,-4.06640625,0.7109375,4.0703125,1.0
4503264,,,,,,,,-4.47265625,9.39453125,0.74609375,-0.34765625,0.634765625,2.34375,-2.23046875,0.09765625,2.578125,1.0
4503265,,,,,,,,-2.8515625,7.48046875,-0.57421875,-0.33984375,0.18359375,1.666015625,-0.8125,-1.85546875,1.23828125,1.0
4503266,,,,,,,,1.2109375,-10.00390625,0.1328125,-0.177734375,-0.81640625,0.33203125,3.1328125,-19.359375,1.890625,1.0
4503267,,,,,,,,0.015625,-29.81640625,6.859375,0.03125,-1.03125,-0.197265625,1.9453125,-39.1640625,8.59375,1.0
4503268,,,,,,,,-9.34765625,-51.51171875,18.62890625,0.1484375,-0.765625,-0.587890625,-7.36328125,-60.84375,20.35546875,1.0
4503269,,,,,,,,-6.92578125,-22.4921875,17.05859375,0.099609375,-0.125,-0.515625,-4.87109375,-31.81640625,18.78515625,1.0
4503270,36.01298083333334,129.32001200000002,127.29025999890942,64.44974507570944,3.5,226.0,,-1.2421875,-8.81640625,0.609375,-0.05078125,0.873046875,-0.251953125,0.8359375,-18.13671875,2.3515625,1.0
4503271,,,,,,,,9.12890625,-9.58984375,-4.72265625,0.306640625,2.2734375,-0.626953125,11.21484375,-18.90234375,-2.93359375,1.0
4503272,,,,,,,,11.99609375,-10.37890625,-1.5078125,0.248046875,2.365234375,0.1484375,14.08984375,-19.6640625,0.359375,1.0
4503273,,,,,,,,8.6640625,-11.44921875,2.1171875,-0.052734375,-1.86328125,1.50390625,10.640625,-20.7734375,4.0,1.0
4503274,,,,,,,,1.7421875,-11.7265625,5.203125,-0.212890625,-3.556640625,0.97265625,3.671875,-21.08984375,7.0234375,1.0
4503275,,,,,,,,-0.54296875,-8.20703125,2.2109375,0.01171875,-2.060546875,1.537109375,1.33203125,-17.59375,3.9609375,1.0
4503276,,,,,,,,-1.0390625,-6.46875,1.09765625,0.291015625,-0.5625,2.3046875,0.7578125,-15.875,2.84765625,1.0
4503277,,,,,,,,-2.40234375,-3.28125,-0.83203125,0.814453125,1.412109375,3.4375,-0.88671875,-12.734375,0.97265625,1.0
4503278,,,,,,,,-3.37890625,-2.09375,-0.71875,0.97265625,1.30078125,3.287109375,-2.23046875,-11.5859375,1.203125,1.0
4503279,,,,,,,,-5.03515625,-0.19921875,0.25,1.0078125,0.419921875,2.708984375,-4.18359375,-9.70703125,2.2734375,1.0
4503280,36.012979,129.32000966666666,127.07991548418242,64.24631675492688,3.2,227.0,,-5.94140625,0.44921875,0.36328125,1.470703125,-0.078125,2.587890625,-5.33203125,-9.0546875,2.50390625,1.0
4503281,,,,,,,,-6.06640625,3.4921875,-0.875,1.759765625,-0.09765625,2.74609375,-5.71484375,-5.9921875,1.4296875,1.0
4503282,,,,,,,,-5.94140625,3.484375,-0.953125,1.654296875,0.171875,2.845703125,-5.75,-4.7265625,0.8203125,1.0
4503283,,,,,,,,-5.67578125,6.5625,-2.640625,1.4921875,0.294921875,2.794921875,-5.71484375,-2.890625,-0.1015625,1.0
4503284,,,,,,,,-5.1328125,8.625,-3.43359375,1.28515625,0.203125,2.603515625,-5.328125,-0.24609375,-0.828125,1.0
4503285,,,,,,,,-4.19140625,12.125,-3.07421875,1.009765625,0.078125,2.314453125,-4.8671875,2.78125,-0.21484375,1.0
4503286,,,,,,,,-3.59765625,12.31640625,-3.046875,0.82421875,0.10546875,2.0,-4.48828125,3.01171875,-0.1015625,1.0
4503287,,,,,,,,-1.71484375,12.48046875,-2.94921875,0.65234375,0.478515625,1.611328125,-2.87890625,3.234375,0.08984375,1.0
4503288,,,,,,,,-1.0703125,11.8671875,-3.38671875,0.62890625,0.763671875,1.31640625,-2.3828125,2.6640625,-0.29296875,1.0
4503289,,,,,,,,-0.68359375,11.1171875,-3.6328125,0.62109375,0.876953125,1.11328125,-2.0703125,1.9375,-0.5234375,1.0
4503290,36.012977,129.32000733333334,126.8695712314201,64.02439523136333,3.2,226.0,,-0.546875,9.20703125,-3.75390625,0.68359375,0.9765625,0.5703125,-2.04296875,0.05859375,-0.59765625,1.0
4503291,,,,,,,,-0.55078125,6.609375,-3.46484375,0.751953125,0.953125,-0.001953125,-2.11328125,-2.5078125,-0.25390625,1.0
4503292,,,,,,,,-0.12109375,6.39453125,-2.4375,0.767578125,0.87890625,-0.421875,-1.69140625,-2.6953125,0.8203125,1.0
4503293,,,,,,,,0.859375,7.9140625,-2.4921875,0.63671875,0.869140625,-0.70703125,-0.6953125,-1.1640625,0.8203125,1.0
4503294,,,,,,,,1.69140625,9.5078125,-2.953125,0.494140625,0.818359375,-0.888671875,0.18359375,0.44921875,0.3984375,1.0
4503295,,,,,,,,1.98046875,10.46484375,-3.19921875,0.275390625,0.677734375,-1.125,0.52734375,1.3984375,0.16796875,1.0
4503296,,,,,,,,2.203125,11.078125,-3.32421875,0.23046875,0.4453125,-1.162109375,0.796875,2.015625,0.05078125,1.0
4503297,,,,,,,,2.25390625,11.8046875,-3.30078125,0.20703125,-0.291015625,-1.3359375,0.94921875,2.74609375,0.08984375,1.0
4503298,,,,,,,,1.8828125,11.84375,-2.98828125,0.271484375,-1.015625,-1.275390625,0.71875,2.78515625,0.43359375,1.0
4503299,,,,,,,,1.32421875,10.609375,-2.22265625,0.26953125,-1.53515625,-1.033203125,0.30078125,1.55859375,1.23828125,1.0
4503300,36.01297533333333,129.32000433333332,126.59912715199223,63.83945926122327,3.2,229.0,0.0,-0.80859375,6.3125,0.890625,0.68359375,0.9765625,0.5703125,-1.69140625,-2.734375,4.38671875,1.0
4503301,,,,,,,,-1.03515625,0.94140625,0.25390625,-0.015625,-1.71484375,-0.658203125,-1.73046875,-8.09375,3.76953125,1.0
4503302,,,,,,,,0.59375,-8.0234375,1.01953125,-0.072265625,-1.60546875,-0.64453125,-0.046875,-17.0625,4.53515625,1.0
4503303,,,,,,,,22.9296875,-57.01171875,20.41796875,-0.189453125,-0.87890625,-1.068359375,22.515625,-66.05859375,23.91796875,1.0
4503304,,,,,,,,8.9921875,-24.09765625,11.26953125,-0.1328125,-0.517578125,-1.466796875,8.6484375,-33.15234375,14.76171875,1.0
4503305,,,,,,,,0.1015625,-7.73828125,2.52734375,0.20703125,1.662109375,-2.29296875,-0.0078125,-16.79296875,6.02734375,1.0
4503306,,,,,,,,-2.0,-5.44140625,0.7578125,0.06640625,2.234375,-2.384765625,-2.0390625,-14.49609375,4.265625,1.0
4503307,,,,,,,,-4.7265625,-9.140625,-4.50390625,-0.525390625,2.28515625,-2.09765625,-4.640625,-18.21484375,-1.01953125,1.0
4503308,,,,,,,,-3.51953125,-10.78125,-3.1484375,-0.44921875,1.3671875,-1.576171875,-3.37890625,-19.859375,0.3203125,1.0
4503309,,,,,,,,0.71484375,-14.640625,0.60546875,-0.4921875,-3.494140625,-0.591796875,0.98828125,-23.7265625,4.03515625,1.0
4503310,36.012973333333335,129.32000150000002,126.34370841917305,63.61753710215727,3.3000000000000003,228.0,,1.65234375,-14.46484375,1.93359375,0.68359375,0.9765625,0.5703125,-1.69140625,-2.734375,4.38671875,1.0
4503311,,,,,,,,2.8046875,-10.96484375,2.1875,-0.34375,-3.060546875,-1.9140625,3.5546875,-20.0859375,5.4921875,1.0
4503312,,,,,,,,2.7890625,-8.7890625,0.2265625,-0.513671875,-1.224609375,-2.3984375,3.671875,-17.90625,3.5,1.0
4503313,,,,,,,,2.4765625,-6.8203125,-1.265625,-1.146484375,1.228515625,-2.85546875,3.59375,-15.953125,1.9296875,1.0
4503314,,,,,,,,2.28515625,-4.18359375,-1.875,-1.466796875,0.830078125,-2.23828125,3.70703125,-13.34375,1.1640625,1.0
4503315,,,,,,,,2.7109375,-1.8984375,-1.6953125,-1.66015625,-0.27734375,-2.01171875,4.3203125,-11.08984375,1.203125,1.0
4503316,,,,,,,,2.765625,-1.43359375,-1.80078125,-1.734375,-0.583984375,-1.951171875,4.4765625,-10.625,1.01171875,1.0
4503317,,,,,,,,2.765625,1.85546875,-1.62890625,-1.693359375,-0.482421875,-1.611328125,4.7421875,-7.3671875,0.93359375,1.0
4503318,,,,,,,,2.01171875,6.93359375,-1.10546875,-1.4609375,0.177734375,-1.546875,4.203125,-2.31640625,1.23828125,1.0
4503319,,,,,,,,1.625,8.57421875,-1.03515625,-1.341796875,0.322265625,-1.599609375,3.8984375,-0.66796875,1.23828125,1.0
4503320,36.012971666666665,129.31999883333336,126.10331396022917,63.43260157951955,3.1,230.0,,1.21875,10.10546875,-1.27734375,0.68359375,0.9765625,0.5703125,-1.69140625,-2.734375,4.38671875,1.0
4503321,,,,,,,,0.2421875,11.31640625,-2.2265625,-0.9296875,0.55859375,-1.505859375,2.7890625,2.08984375,-0.140625,1.0
4503322,,,,,,,,-0.54296875,12.22265625,-2.66015625,-0.69140625,0.45703125,-1.3203125,2.13671875,3.01171875,-0.63671875,1.0
4503323,,,,,,,,-1.01953125,12.90234375,-2.9375,-0.64453125,0.37109375,-1.208984375,1.71484375,3.69921875,-0.9453125,1.0
4503324,,,,,,,,-1.5234375,13.76953125,-3.28125,-0.5859375,0.125,-0.892578125,1.296875,4.578125,-1.328125,1.0
4503325,,,,,,,,-1.58984375,13.21484375,-3.26953125,-0.4296875,-0.080078125,-0.53125,1.33203125,4.04296875,-1.40234375,1.0
4503326,,,,,,,,-0.140625,9.953125,-3.77734375,-0.357421875,-0.142578125,-0.38671875,2.83203125,0.7890625,-1.94140625,1.0
4503327,,,,,,,,0.8984375,7.0703125,-4.234375,-0.326171875,-0.16796875,-0.21484375,3.8984375,-2.0859375,-2.4375,1.0
4503328,,,,,,,,0.80859375,6.375,-4.05859375,-0.287109375,-0.171875,-0.125,3.8203125,-2.7734375,-2.28515625,1.0
4503329,,,,,,,,-1.421875,6.3828125,-2.1484375,-0.1875,-0.11328125,0.04296875,1.6015625,-2.77734375,-0.40625,1.0
4503330,36.01296966666666,129.319996,125.847895198727,63.21067943381074,3.4000000000000004,229.0,,-2.73828125,8.15234375,-0.890625,0.68359375,0.9765625,0.5703125,-1.69140625,-2.734375,4.38671875,1.0
4503331,,,,,,,,-4.8359375,10.57421875,1.4609375,-0.310546875,0.576171875,0.65625,-1.8828125,1.40234375,3.15625,1.0
4503332,,,,,,,,-6.0390625,11.62890625,3.4296875,-0.359375,0.818359375,1.25,-3.1875,2.43359375,5.109375,1.0
4503333,,,,,,,,-6.08984375,11.74609375,1.828125,-0.376953125,0.751953125,1.828125,-3.37890625,2.51171875,3.5,1.0
4503334,,,,,,,,-5.52734375,12.03125,0.48046875,-0.2890625,0.365234375,2.216796875,-3.03515625,2.7421875,2.12109375,1.0
4503335,,,,,,,,-4.47265625,10.23828125,-0.1171875,-0.1953125,-0.2890625,2.212890625,-2.19140625,0.90234375,1.5078125,1.0
4503336,,,,,,,,-3.3203125,3.4609375,-0.34765625,-0.177734375,-1.09765625,1.51953125,-1.1953125,-5.91796875,1.23828125,1.0
4503337,,,,,,,,-0.3671875,-19.625,4.0234375,-0.08984375,-1.580078125,0.79296875,1.6796875,-29.01953125,5.5703125,1.0
4503338,,,,,,,,-9.63671875,-51.21875,17.921875,0.10546875,-1.478515625,0.515625,-7.62890625,-60.6171875,19.4375,1.0
4503339,,,,,,,,-11.4609375,-54.140625,15.62890625,0.255859375,-0.419921875,0.142578125,-2.8046875,-37.86328125,20.2421875,1.0
4503340,36.012967333333336,129.31999283333334,125.56242731460837,62.95177045344488,3.5,227.0,,-2.55859375,-18.8125,11.0546875,0.158203125,0.73046875,-0.091796875,1.984375,-19.44140625,3.8828125,1.0
4503341,,,,,,,,1.921875,-8.23828125,-0.84375,0.294921875,2.26953125,-0.921875,7.6171875,-18.33203125,-1.78515625,1.0
4503342,,,,,,,,5.625,-8.9453125,-3.37109375,0.638671875,2.93359375,-2.021484375,9.03125,-18.75390625,-1.01953125,1.0
4503343,,,,,,,,8.2578125,-9.328125,-0.65625,0.587890625,2.427734375,-0.994140625,11.4453125,-19.40234375,2.88671875,1.0
4503344,,,,,,,,7.60546875,-11.4140625,2.73828125,-0.095703125,-2.25390625,1.115234375,7.8828125,-20.62890625,4.9921875,1.0
4503345,,,,,,,,4.328125,-11.00390625,3.78125,-0.142578125,-4.212890625,1.103515625,5.6640625,-19.9375,5.796875,1.0
4503346,,,,,,,,3.578125,-10.5703125,4.109375,0.390625,-2.46484375,1.693359375,3.78515625,-17.37109375,4.7265625,1.0
4503347,,,,,,,,-0.265625,-5.87890625,0.55078125,0.6640625,0.513671875,2.400390625,1.6796875,-15.30078125,2.19921875,1.0
4503348,,,,,,,,-1.9453125,-3.2890625,-0.80078125,1.0390625,1.576171875,2.634765625,-0.3515625,-12.7734375,0.97265625,1.0
4503349,,,,,,,,-2.35546875,-2.32421875,-0.6796875,1.05078125,1.435546875,2.708984375,-0.92578125,-11.81640625,1.1640625,1.0
4503350,36.0129655,129.31999016666666,125.32203308210136,62.748341745809554,3.4000000000000004,227.0,,-5.546875,0.96484375,-0.1875,1.4765625,-0.017578125,2.90234375,-4.640625,-8.5546875,1.890625,1.0
4503351,,,,,,,,-6.1328125,3.76171875,-1.37109375,1.65234375,-0.021484375,3.228515625,-5.5234375,-5.76171875,0.85546875,1.0
4503352,,,,,,,,-6.16796875,4.60546875,-1.80078125,1.62109375,0.064453125,3.2265625,-5.7109375,-4.91796875,0.51171875,1.0
4503353,,,,,,,,-5.984375,7.953125,-1.98046875,1.447265625,0.173828125,3.033203125,-5.828125,-1.546875,0.47265625,1.0
4503354,,,,,,,,-5.30078125,9.46875,-1.7421875,1.341796875,0.181640625,2.923828125,-5.2890625,-0.015625,0.78125,1.0
4503355,,,,,,,,-4.453125,11.0859375,-1.4375,1.091796875,0.1484375,2.6796875,-4.71875,1.6328125,1.203125,1.0
4503356,,,,,,,,-3.7421875,12.73046875,-1.71484375,0.853515625,0.22265625,2.435546875,-4.26171875,3.31640625,1.01171875,1.0
4503357,,,,,,,,-3.08203125,12.953125,-1.75390625,0.76953125,0.322265625,2.30078125,-3.72265625,3.546875,1.01171875,1.0
4503358,,,,,,,,-2.1640625,11.04296875,-3.21484375,0.53515625,0.607421875,1.28515625,-3.19140625,1.70703125,-0.33203125,1.0
4503359,,,,,,,,-2.12890625,10.3984375,-3.25390625,0.53125,0.55859375,0.689453125,-3.2578125,1.09375,-0.33203125,1.0
4503360,36.01296333333333,129.3199875,125.08163936785235,62.50792663010313,3.4000000000000004,227.0,,-2.4296875,7.91796875,-2.85546875,0.486328125,0.33203125,0.25390625,-3.65234375,-1.35546875,0.12890625,1.0
4503361,,,,,,,,-2.3515625,7.51171875,-2.7109375,0.494140625,0.26171875,0.169921875,-3.609375,-1.73828125,0.3203125,1.0
4503362,,,,,,,,-1.59765625,7.76171875,-2.59765625,0.44921875,0.3984375,0.013671875,-2.87890625,-1.47265625,0.47265625,1.0
4503363,,,,,,,,0.1328125,9.46875,-2.93359375,0.36328125,0.59375,-0.27734375,-1.15625,0.25,0.16796875,1.0
4503364,,,,,,,,1.12109375,10.45703125,-3.484375,0.306640625,0.60546875,-0.587890625,-0.16015625,1.2421875,-0.3671875,1.0
4503365,,,,,,,,2.484375,11.1796875,-4.0078125,0.330078125,0.404296875,-0.876953125,1.2578125,1.98046875,-0.8671875,1.0
4503366,,,,,,,,2.68359375,11.5625,-4.0234375,0.369140625,0.244140625,-1.0234375,1.48828125,2.359375,-0.8671875,1.0
4503367,,,,,,,,2.734375,11.8515625,-3.9765625,0.46875,-0.158203125,-1.287109375,1.640625,2.66796875,-0.7890625,1.0
4503368,,,,,,,,1.64453125,10.84765625,-3.56640625,0.533203125,-0.5078125,-1.462890625,0.68359375,1.66796875,-0.33203125,1.0
4503369,,,,,,,,0.453125,9.30859375,-3.12109375,0.501953125,-0.716796875,-1.400390625,-0.3515625,0.13671875,0.16796875,1.0
4503370,36.01296183333333,129.31998433333334,124.79617012223599,62.34148370792675,3.4000000000000004,231.0,,-1.55078125,5.73046875,-0.44921875,0.486328125,0.33203125,0.25390625,-2.23046875,-3.42578125,2.88671875,1.0
4503371,,,,,,,,-2.79296875,0.23046875,3.15234375,0.37890625,-0.76953125,-0.560546875,-3.37890625,-8.90234375,6.52734375,1.0
4503372,,,,,,,,-1.828125,-8.75,3.44140625,0.330078125,-0.74609375,-0.35546875,-2.3828125,-17.8671875,6.83203125,1.0
4503373,,,,,,,,12.3359375,-34.69921875,9.07421875,0.08984375,-0.54296875,-0.056640625,11.828125,-43.80078125,12.50390625,1.0
4503374,,,,,,,,14.96484375,-25.19921875,8.26953125,-0.08203125,-0.421875,-0.736328125,14.51171875,-34.30078125,11.69921875,1.0
4503375,,,,,,,,8.07421875,-10.52734375,1.48828125,0.140625,-0.169921875,-2.294921875,7.76953125,-19.625,4.91796875,1.0
4503376,,,,,,,,2.05859375,-6.19921875,0.3984375,0.36328125,0.3203125,-2.8984375,1.87109375,-15.296875,3.84375,1.0
4503377,,,,,,,,-3.76171875,-9.875,0.03125,0.005859375,1.90625,-2.673828125,-3.72265625,-18.98046875,3.5,1.0
4503378,,,,,,,,-2.5234375,-12.234375,2.55078125,-0.3828125,-0.982421875,-1.30078125,-2.265625,-21.3515625,5.98828125,1.0
4503379,,,,,,,,-0.52734375,-12.8125,2.26953125,-0.474609375,-3.236328125,-0.439453125,-0.19921875,-21.9296875,5.68359375,1.0
4503380,36.01295983333333,129.31998133333335,124.52572647595008,62.11956138924747,3.3000000000000003,231.0,,2.42578125,-10.95703125,0.984375,0.486328125,0.33203125,0.25390625,-2.23046875,-3.42578125,2.88671875,1.0
4503381,,,,,,,,3.6875,-8.34375,0.171875,-0.29296875,-2.255859375,-1.16015625,4.3203125,-17.48828125,3.5,1.0
4503382,,,,,,,,3.5625,-7.63671875,-0.03515625,-0.548828125,-0.642578125,-2.0625,4.28125,-16.7890625,3.26953125,1.0
4503383,,,,,,,,3.109375,-5.5234375,-0.4609375,-1.1015625,0.9609375,-2.876953125,4.0546875,-14.6875,2.7734375,1.0
4503384,,,,,,,,2.765625,-4.75,-0.29296875,-1.1484375,0.705078125,-2.564453125,3.9375,-13.92578125,2.84765625,1.0
4503385,,,,,,,,2.484375,-1.65234375,-1.1171875,-1.302734375,-0.16015625,-2.005859375,3.9765625,-10.85546875,1.8515625,1.0
4503386,,,,,,,,2.58984375,0.890625,-2.4921875,-1.390625,-0.203125,-1.76953125,4.24609375,-8.328125,0.359375,1.0
4503387,,,,,,,,2.47265625,2.9296875,-2.890625,-1.423828125,-0.1015625,-1.693359375,4.20703125,-6.30078125,-0.1015625,1.0
4503388,,,,,,,,1.73828125,6.3515625,-2.00390625,-1.345703125,0.171875,-1.708984375,3.70703125,-2.890625,0.58984375,1.0
4503389,,,,,,,,0.89453125,8.5078125,-1.52734375,-1.291015625,0.212890625,-1.728515625,2.94140625,-0.7421875,1.01171875,1.0
4503390,36.012958000000005,129.31997850000002,124.27030737725529,61.91613249788197,3.5,231.0,,0.2109375,10.91015625,-1.74609375,-1.109375,0.41015625,-1.576171875,-2.23046875,-3.42578125,2.88671875,1.0
4503391,,,,,,,,-0.26171875,11.75390625,-2.3203125,-0.99609375,0.62109375,-1.3828125,2.13671875,2.5078125,-0.0234375,1.0
4503392,,,,,,,,-0.88671875,13.68359375,-3.91015625,-0.828125,0.46875,-1.0625,1.71484375,4.46484375,-1.74609375,1.0
4503393,,,,,,,,-0.85546875,13.828125,-4.03515625,-0.794921875,0.310546875,-0.984375,1.79296875,4.62109375,-1.90234375,1.0
4503394,,,,,,,,-0.3671875,13.01953125,-4.578125,-0.703125,0.0546875,-0.88671875,2.3671875,3.8125,-2.515625,1.0
4503395,,,,,,,,0.59765625,10.703125,-4.7421875,-0.626953125,-0.080078125,-0.771484375,3.40234375,1.515625,-2.7421875,1.0
4503396,,,,,,,,1.71484375,7.66796875,-4.65234375,-0.509765625,-0.064453125,-0.62890625,4.58984375,-1.51171875,-2.70703125,1.0
4503397,,,,,,,,0.85546875,5.73828125,-3.5234375,-0.41015625,0.087890625,-0.43359375,3.78515625,-3.42578125,-1.6328125,1.0
4503398,,,,,,,,-0.625,5.66015625,-2.703125,-0.369140625,0.2109375,-0.31640625,2.328125,-3.5,-0.828125,1.0
4503399,,,,,,,,-2.35546875,6.45703125,-1.5703125,-0.337890625,0.525390625,0.0078125,0.60546875,-2.6953125,0.28125,1.0
4503400,36.01295616666666,129.31997566666666,124.01488826451406,61.712703612653556,3.3000000000000003,231.0,0.0,-4.61328125,8.19921875,-0.13671875,-0.416015625,0.88671875,0.453125,-1.69140625,-0.97265625,1.6953125,1.0
4503401,,,,,,,,-6.0625,9.66796875,1.71875,-0.478515625,1.103515625,1.06640625,-3.2265625,0.48046875,3.54296875,1.0
4503402,,,,,,,,-6.9453125,10.859375,3.03515625,-0.533203125,1.03515625,1.7734375,-4.2578125,1.6328125,4.8359375,1.0
4503403,,,,,,,,-6.0546875,10.8359375,2.0703125,-0.560546875,0.728515625,2.26171875,-3.5703125,1.5546875,3.84765625,1.0
4503404,,,,,,,,-4.6796875,9.17578125,0.65625,-0.427734375,0.1640625,2.322265625,-2.42578125,-0.16796875,2.390625,1.0
4503405,,,,,,,,-3.83203125,5.3046875,-0.1875,-0.19921875,-0.54296875,1.9453125,-1.76953125,-4.08203125,1.5078125,1.0
4503406,,,,,,,,-2.22265625,-6.24609375,3.19140625,-0.13671875,-0.96484375,1.51171875,-0.23828125,-15.640625,4.87890625,1.0
4503407,,,,,,,,-1.1328125,-25.62109375,9.46875,-0.005859375,-1.947265625,-0.03125,0.796875,-35.02734375,11.0859375,1.0
4503408,,,,,,,,-4.3046875,-26.48828125,15.88671875,0.29296875,-1.025390625,-0.296875,-2.265625,-35.8671875,17.48046875,1.0
4503409,,,,,,,,1.76171875,-10.1015625,1.125,0.140625,0.5234375,-0.373046875,3.82421875,-19.4765625,2.734375,1.0
4503410,36.01295366666667,129.3199725,123.72942053513154,61.43530148545233,3.6,227.0,,4.43359375,-10.046875,-4.32421875,0.37890625,2.177734375,-1.185546875,6.54296875,-19.40234375,-2.66796875,1.0
4503411,,,,,,,,8.40234375,-10.875,1.97265625,0.4765625,2.30859375,-0.296875,10.56640625,-20.203125,3.73046875,1.0
4503412,,,,,,,,7.0625,-11.97265625,3.81640625,-0.109375,-1.173828125,1.205078125,9.1484375,-21.3125,5.60546875,1.0
4503413,,,,,,,,5.8359375,-12.484375,3.94921875,-0.123046875,-2.748046875,1.041015625,7.8828125,-21.8515625,5.72265625,1.0
4503414,,,,,,,,1.44140625,-8.62890625,1.13671875,0.25,-3.029296875,1.392578125,3.44140625,-18.015625,2.84765625,1.0
4503415,,,,,,,,-0.453125,-6.8046875,-0.49609375,0.552734375,0.419921875,2.583984375,1.296875,-16.26171875,1.23828125,1.0
4503416,,,,,,,,-2.42578125,-4.0859375,-0.3203125,0.875,1.435546875,2.904296875,-0.96484375,-13.58203125,1.5078125,1.0
4503417,,,,,,,,-3.890625,-1.1796875,0.15234375,0.9140625,1.115234375,2.845703125,-2.7265625,-10.70703125,2.08203125,1.0
4503418,,,,,,,,-4.25,-0.53125,-0.09375,0.994140625,0.802734375,2.85546875,-3.2265625,-10.0546875,1.890625,1.0
4503419,,,,,,,,-5.05859375,1.81640625,-1.765625,1.384765625,0.375,3.388671875,-4.48828125,-7.7109375,0.3984375,1.0
4503420,36.012952000000006,129.31996983333332,123.48902595898167,61.25036603552931,3.3000000000000003,228.0,,-5.89453125,4.98828125,-3.06640625,1.501953125,0.359375,3.455078125,6.54296875,-19.40234375,-2.66796875,1.0
4503421,,,,,,,,-5.94921875,8.1796875,-2.203125,1.408203125,0.193359375,3.20703125,-6.0546875,-1.3203125,0.2421875,1.0
4503422,,,,,,,,-5.55078125,9.69921875,-1.53515625,1.328125,0.095703125,3.052734375,-5.79296875,0.21484375,0.97265625,1.0
4503423,,,,,,,,-3.890625,11.44921875,-1.33984375,1.013671875,0.265625,2.4921875,-4.6796875,2.05078125,1.39453125,1.0
4503424,,,,,,,,-3.58203125,11.50390625,-1.1953125,0.908203125,0.44140625,2.330078125,-4.48828125,2.12890625,1.5859375,1.0
4503425,,,,,,,,-2.93359375,12.94921875,-1.640625,0.65234375,0.6875,1.953125,-4.06640625,3.62109375,1.203125,1.0
4503426,,,,,,,,-1.94921875,12.34375,-2.71484375,0.482421875,0.626953125,1.462890625,-3.26171875,3.046875,0.16796875,1.0
4503427,,,,,,,,-1.75,10.56640625,-3.12109375,0.4609375,0.5390625,1.2578125,-3.1484375,1.28515625,-0.21484375,1.0
4503428,,,,,,,,-1.9375,8.0703125,-2.91015625,0.525390625,0.216796875,0.78515625,-3.49609375,-1.1640625,0.05078125,1.0
4503429,,,,,,,,-2.12890625,6.13671875,-2.5859375,0.560546875,0.099609375,0.595703125,-3.72265625,-3.08203125,0.3984375,1.0
4503430,36.012950000000004,129.31996716666666,123.24863189388476,61.028444177991474,3.3000000000000003,228.0,,-1.859375,5.44921875,-2.2734375,0.498046875,-0.01953125,-0.017578125,-3.4921875,-3.7265625,0.78125,1.0
4503431,,,,,,,,-0.6328125,8.03515625,-2.16796875,0.44140625,0.138671875,-0.267578125,-2.265625,-1.12890625,0.93359375,1.0
4503432,,,,,,,,0.63671875,9.984375,-2.70703125,0.357421875,0.30078125,-0.58984375,-0.96484375,0.828125,0.43359375,1.0
4503433,,,,,,,,1.04296875,10.55859375,-2.9140625,0.27734375,0.220703125,-1.013671875,-0.50390625,1.40234375,0.2421875,1.0
4503434,,,,,,,,2.01171875,11.58203125,-3.3203125,0.26953125,-0.078125,-1.375,0.56640625,2.4296875,-0.140625,1.0
4503435,,,,,,,,2.21484375,12.05078125,-3.6953125,0.328125,-0.484375,-1.5859375,0.91015625,2.89453125,-0.484375,1.0
4503436,,,,,,,,2.20703125,11.70703125,-4.15625,0.30078125,-0.8359375,-1.6171875,1.06640625,2.546875,-0.90625,1.0
4503437,,,,,,,,1.62109375,10.75,-4.21875,0.234375,-1.041015625,-1.447265625,0.64453125,1.59375,-0.9453125,1.0
4503438,,,,,,,,1.265625,10.05078125,-4.00390625,0.220703125,-1.0703125,-1.328125,0.375,0.90234375,-0.71484375,1.0
4503439,,,,,,,,-1.25,6.4140625,0.2265625,0.1953125,-1.04296875,-1.064453125,-2.0,-2.734375,3.5390625,1.0
4503440,36.0129485,129.31996366666667,122.93311292002366,60.8620008965935,3.5,232.0,,-2.1640625,-1.2265625,0.890625,0.498046875,-0.01953125,-0.017578125,-3.4921875,-3.7265625,0.78125,1.0
4503441,,,,,,,,2.625,-18.01171875,0.6484375,0.095703125,-0.685546875,-0.455078125,2.0625,-27.13671875,4.0,1.0
4503442,,,,,,,,12.67578125,-36.859375,8.0,0.0703125,-0.533203125,-0.34375,12.13671875,-45.984375,11.3515625,1.0
4503443,,,,,,,,23.0625,-51.69921875,19.06640625,0.078125,-0.02734375,-0.8046875,22.59375,-60.8046875,22.42578125,1.0
4503444,,,,,,,,9.68359375,-14.734375,3.390625,0.1171875,0.15234375,-1.427734375,9.26171875,-23.84765625,6.7578125,1.0
4503445,,,,,,,,-2.06640625,-9.66796875,-0.71875,0.197265625,1.201171875,-2.15234375,-2.15234375,-18.78515625,2.6953125,1.0
4503446,,,,,,,,-4.19140625,-9.9765625,-0.2109375,-0.197265625,1.490234375,-1.732421875,-4.14453125,-19.09765625,3.1953125,1.0
4503447,,,,,,,,-1.375,-11.4921875,0.84375,-0.38671875,-1.412109375,-1.2265625,-1.1953125,-20.62890625,4.2265625,1.0
4503448,,,,,,,,2.26171875,-11.1796875,2.25390625,-0.1796875,-4.0625,-0.162109375,2.59765625,-20.3203125,5.60546875,1.0
4503449,,,,,,,,2.60546875,-10.05078125,2.00390625,-0.119140625,-4.15234375,-0.42578125,3.01953125,-19.203125,5.33984375,1.0
4503450,36.01294683333333,129.319961,122.69271831375653,60.67706546699752,3.3000000000000003,232.0,,3.16015625,-7.4765625,-0.83203125,0.498046875,-0.01953125,-0.017578125,3.78515625,-16.640625,2.46484375,1.0
4503451,,,,,,,,3.19140625,-6.59765625,-2.1875,-0.876953125,0.3203125,-3.10546875,4.08984375,-15.7578125,1.046875,1.0
4503452,,,,,,,,3.25390625,-4.55078125,-1.74609375,-1.140625,0.412109375,-2.37890625,4.51171875,-13.73046875,1.35546875,1.0
4503453,,,,,,,,3.16796875,-2.4296875,-1.1328125,-1.353515625,-0.189453125,-2.103515625,4.62890625,-11.62890625,1.8515625,1.0
4503454,,,,,,,,3.3359375,0.8984375,-2.22265625,-1.634765625,0.005859375,-1.921875,5.0859375,-8.33203125,0.55078125,1.0
4503455,,,,,,,,3.35546875,3.25,-2.6484375,-1.60546875,0.38671875,-1.744140625,5.27734375,-5.9921875,-0.0234375,1.0
4503456,,,,,,,,2.91015625,6.33203125,-2.66796875,-1.533203125,0.43359375,-1.595703125,4.97265625,-2.92578125,-0.17578125,1.0
4503457,,,,,,,,1.61328125,9.40234375,-2.53515625,-1.400390625,0.251953125,-1.5390625,3.82421875,0.13671875,-0.17578125,1.0
4503458,,,,,,,,0.73828125,10.4765625,-2.51953125,-1.287109375,0.193359375,-1.533203125,3.015625,1.2109375,-0.21484375,1.0
4503459,,,,,,,,-0.99609375,12.765625,-2.5859375,-0.94921875,0.19140625,-1.427734375,1.48828125,3.51171875,-0.4453125,1.0
4503460,36.012944833333336,129.31995783333332,122.40724973390172,60.45514300280395,3.6,232.0,,-1.65234375,13.1328125,-3.20703125,0.498046875,-0.01953125,-0.017578125,0.94921875,3.89453125,-1.13671875,1.0
4503461,,,,,,,,-2.12890625,12.96484375,-3.6484375,-0.62890625,0.2578125,-0.923828125,0.56640625,3.734375,-1.6328125,1.0
4503462,,,,,,,,-1.44140625,12.14453125,-4.25390625,-0.703125,0.080078125,-0.7734375,1.37109375,2.9296875,-2.32421875,1.0
4503463,,,,,,,,1.59375,8.15234375,-4.296875,-0.66796875,-0.107421875,-0.529296875,4.48046875,-1.05078125,-2.4375,1.0
4503464,,,,,,,,1.9609375,7.6171875,-4.2734375,-0.607421875,-0.19140625,-0.380859375,4.859375,-1.5859375,-2.4375,1.0
4503465,,,,,,,,1.9296875,6.50390625,-3.98046875,-0.482421875,-0.265625,-0.076171875,4.86328125,-2.69921875,-2.20703125,1.0
4503466,,,,,,,,0.08203125,5.203125,-2.82421875,-0.326171875,-0.2265625,0.212890625,3.01953125,-4.00390625,-1.09765625,1.0
4503467,,,,,,,,-0.70703125,5.515625,-2.2265625,-0.228515625,-0.13671875,0.291015625,2.21484375,-3.6953125,-0.5234375,1.0
4503468,,,,,,,,-2.515625,7.2109375,-1.0234375,-0.095703125,0.0859375,0.39453125,0.375,-2.01171875,0.6640625,1.0
4503469,,,,,,,,-4.55859375,9.515625,1.734375,-0.09765625,0.166015625,0.498046875,-1.69140625,0.2890625,3.421875,1.0
4503470,36.012942833333334,129.319955,122.1518307945954,60.23322096636946,3.4000000000000004,231.0,,-7.140625,12.015625,5.8515625,-0.220703125,0.26171875,0.869140625,-4.3359375,2.78125,7.5234375,1.0
4503471,,,,,,,,-6.88671875,12.4296875,3.890625,-0.4296875,0.16015625,1.421875,-4.18359375,3.1640625,5.53515625,1.0
4503472,,,,,,,,-5.1328125,10.36328125,1.43359375,-0.501953125,-0.279296875,2.169921875,-2.6875,1.01953125,3.0,1.0
4503473,,,,,,,,-4.28125,8.421875,0.07421875,-0.44921875,-0.544921875,2.27734375,-1.921875,-0.9375,1.62109375,1.0
4503474,,,,,,,,-2.890625,1.14453125,0.359375,-0.306640625,-1.322265625,1.486328125,-0.6953125,-8.25390625,1.8515625,1.0
4503475,,,,,,,,-2.24609375,-24.234375,7.74609375,-0.052734375,-1.96484375,-0.005859375,-2.23046875,-50.47265625,14.37890625,1.0
4503476,,,,,,,,-6.859375,-44.27734375,14.92578125,0.2109375,-0.787109375,-0.53515625,-4.2578125,-35.40625,21.50390625,1.0
4503477,,,,,,,,-4.03515625,-18.046875,14.58203125,0.03125,0.87109375,-0.240234375,0.875,-19.74609375,4.95703125,1.0
4503478,,,,,,,,-1.3671875,-10.34765625,3.57421875,-0.001953125,2.001953125,-0.333984375,3.8984375,-18.59765625,1.5078125,1.0
4503479,,,,,,,,5.17578125,-9.47265625,-2.7578125,0.34765625,3.841796875,-0.66015625,10.48828125,-19.94140625,-2.70703125,1.0
4503480,36.01294033333333,129.319952,121.88138778705552,59.95581910863871,3.6,227.0,,10.09375,-12.63671875,-3.171875,0.287109375,2.720703125,0.880859375,11.37109375,-21.58203125,0.85546875,1.0
4503481,,,,,,,,7.58984375,-12.4609375,1.5703125,0.005859375,-1.84375,0.623046875,5.203125,-22.46484375,6.41015625,1.0
4503482,,,,,,,,1.5703125,-12.40625,5.5078125,-0.08984375,-3.146484375,0.85546875,2.67578125,-20.7734375,6.71875,1.0
4503483,,,,,,,,0.58203125,-11.35546875,5.15625,0.056640625,-2.43359375,1.48828125,2.25390625,-19.55859375,5.60546875,1.0
4503484,,,,,,,,-0.57421875,-7.48828125,1.37109375,0.37890625,0.29296875,2.900390625,1.06640625,-15.76171875,2.0078125,1.0
4503485,,,,,,,,-0.9921875,-5.1328125,-0.16796875,0.609375,1.7421875,3.427734375,0.4921875,-13.921875,1.0859375,1.0
4503486,,,,,,,,-2.33984375,-3.2109375,0.1953125,0.9453125,1.171875,2.951171875,-1.00390625,-12.77734375,1.8515625,1.0
4503487,,,,,,,,-3.52734375,-1.42578125,0.44140625,1.2734375,0.19140625,2.353515625,-2.45703125,-11.0078125,2.19921875,1.0
4503488,,,,,,,,-4.1484375,-0.11328125,0.40625,1.412109375,-0.05859375,2.306640625,-3.2265625,-9.703125,2.234375,1.0
4503489,,,,,,,,-5.859375,2.26171875,-0.28515625,1.5859375,-0.0625,2.546875,-5.140625,-7.33203125,1.66015625,1.0
4503490,36.012938500000004,129.31994916666665,121.62596855910512,59.752390294855005,3.3000000000000003,228.0,,-5.91015625,6.453125,-2.51171875,1.560546875,0.255859375,2.9296875,11.37109375,-21.58203125,0.85546875,1.0
4503491,,,,,,,,-5.3671875,10.25,-3.55078125,1.31640625,0.228515625,2.9453125,-5.48828125,0.7109375,-1.13671875,1.0
4503492,,,,,,,,-5.0625,11.29296875,-3.390625,1.04296875,0.044921875,2.861328125,-5.44921875,1.78515625,-0.8671875,1.0
4503493,,,,,,,,-3.40234375,13.765625,-1.74609375,0.69140625,-0.033203125,2.66796875,-4.18359375,4.31640625,0.89453125,1.0
4503494,,,,,,,,-2.47265625,14.203125,-2.04296875,0.62890625,0.044921875,2.564453125,-3.37890625,4.7734375,0.62890625,1.0
4503495,,,,,,,,-0.8203125,12.78515625,-3.01953125,0.580078125,0.3125,2.349609375,-1.9609375,3.39453125,-0.29296875,1.0
4503496,,,,,,,,-0.7109375,12.76171875,-3.04296875,0.537109375,0.521484375,2.001953125,-1.84765625,2.74609375,-0.63671875,1.0
4503497,,,,,,,,-0.30859375,9.7265625,-3.671875,0.580078125,0.48046875,0.82421875,-1.9609375,-2.35546875,-0.7890625,1.0
4503498,,,,,,,,-0.359375,6.9296875,-3.640625,0.60546875,0.40625,0.427734375,-1.84765625,-4.57421875,-0.828125,1.0
4503499,,,,,,,,-0.03515625,4.72265625,-3.57421875,0.591796875,0.37890625,-0.318359375,-1.65625,-4.1875,-0.484375,1.0
4503500,36.0129365,129.31994616666668,121.35552475547748,59.53046807343763,3.6,228.0,0.0,-5.91015625,6.453125,-2.51171875,1.560546875,0.255859375,2.9296875,-1.76953125,-2.62109375,0.015625,1.0
4503501,,,,,,,,-0.16796875,7.5234375,-2.6640625,0.40234375,0.640625,-0.662109375,-1.84375,-0.8984375,0.78125,1.0
4503502,,,,,,,,-0.20703125,9.01171875,-1.9296875,0.1875,0.66015625,-0.73046875,-1.6171875,1.24609375,1.31640625,1.0
4503503,,,,,,,,-0.0234375,11.01171875,-1.70703125,0.14453125,0.4453125,-0.576171875,-1.46484375,2.66796875,1.203125,1.0
4503504,,,,,,,,0.23828125,12.44921875,-2.09765625,0.2578125,-0.015625,-0.271484375,-1.26953125,3.23828125,0.93359375,1.0
4503505,,,,,,,,0.44921875,12.43359375,-2.47265625,0.333984375,-0.490234375,-0.140625,-1.04296875,3.23828125,0.58984375,1.0
4503506,,,,,,,,0.59375,11.421875,-2.51953125,0.359375,-0.896484375,-0.369140625,-0.8515625,2.2421875,0.58984375,1.0
4503507,,,,,,,,-0.171875,9.72265625,-1.1484375,0.345703125,-1.16796875,-0.669921875,-1.5390625,0.55859375,2.01171875,1.0
4503508,,,,,,,,-1.73046875,4.96484375,2.296875,0.3203125,-1.251953125,-0.912109375,-2.99609375,-4.19140625,5.4921875,1.0
4503509,,,,,,,,-0.16015625,-4.3125,0.49609375,0.310546875,-1.154296875,-0.982421875,-1.30859375,-13.4609375,3.73046875,1.0
4503510,36.01293483333333,129.31994283333333,121.05503077115003,59.34553185972585,3.5,232.0,,2.85546875,-18.04296875,1.453125,0.28125,-0.908203125,-0.86328125,1.83203125,-27.171875,4.7265625,1.0
4503511,,,,,,,,27.8125,-55.62109375,19.42578125,0.2109375,-0.5546875,-0.96875,26.8828125,-64.75390625,22.73046875,1.0
4503512,,,,,,,,9.33203125,-21.13671875,10.36328125,0.21875,-0.181640625,-1.65625,8.53515625,-30.27734375,13.69140625,1.0
4503513,,,,,,,,-2.33203125,-7.4609375,3.359375,0.62890625,0.748046875,-2.24609375,-2.95703125,-16.60546875,6.71875,1.0
4503514,,,,,,,,-6.08203125,-6.71875,-0.328125,0.166015625,1.89453125,-2.068359375,-6.48046875,-15.83984375,3.1171875,1.0
4503515,,,,,,,,-4.94140625,-8.265625,-3.5546875,-0.5859375,1.716796875,-1.5390625,-5.25390625,-17.40625,-0.140625,1.0
4503516,,,,,,,,-3.46484375,-9.66796875,-3.3671875,-0.630859375,-0.986328125,-0.81640625,-3.72265625,-18.8203125,0.015625,1.0
4503517,,,,,,,,1.49609375,-11.18359375,-0.71875,-0.455078125,-4.599609375,-0.2734375,1.37109375,-20.35546875,2.6171875,1.0
4503518,,,,,,,,5.26171875,-9.58203125,2.42578125,-0.4609375,-4.33203125,-1.291015625,5.35546875,-18.78125,5.72265625,1.0
4503519,,,,,,,,6.08203125,-8.1875,1.859375,-0.52734375,-1.263671875,-3.009765625,6.46484375,-17.41015625,5.109375,1.0
4503520,36.01293283333334,129.31994,120.79961176548153,59.12360986300336,3.4000000000000004,230.0,,5.43359375,-6.87890625,-0.25390625,-1.056640625,0.892578125,-3.255859375,6.12109375,-16.10546875,2.92578125,1.0
4503521,,,,,,,,3.3359375,-2.16015625,-1.8828125,-1.38671875,0.865234375,-2.537109375,4.4765625,-11.4296875,1.0859375,1.0
4503522,,,,,,,,2.58203125,-0.2421875,-1.89453125,-1.458984375,0.45703125,-2.42578125,3.82421875,-9.51953125,1.01171875,1.0
4503523,,,,,,,,2.33984375,1.08203125,-2.0234375,-1.6171875,-0.109375,-2.044921875,3.78515625,-8.2109375,0.7421875,1.0
4503524,,,,,,,,1.96875,2.82421875,-2.12890625,-1.619140625,-0.171875,-1.830078125,3.515625,-6.484375,0.55078125,1.0
4503525,,,,,,,,1.73046875,4.9453125,-1.94921875,-1.484375,0.0078125,-1.517578125,3.44140625,-4.38671875,0.58984375,1.0
4503526,,,,,,,,1.375,7.98828125,-1.94140625,-1.283203125,0.259765625,-1.427734375,3.2109375,-1.35546875,0.47265625,1.0
4503527,,,,,,,,1.265625,8.40625,-1.92578125,-1.21484375,0.345703125,-1.466796875,3.171875,-0.9375,0.43359375,1.0
4503528,,,,,,,,0.85546875,11.17578125,-2.46484375,-1.1015625,0.490234375,-1.560546875,2.90234375,1.82421875,-0.21484375,1.0
4503529,,,,,,,,0.7265625,11.6640625,-2.51171875,-1.029296875,0.537109375,-1.59375,2.83203125,2.3203125,-0.29296875,1.0
4503530,36.01293116666667,129.319937,120.52916740951922,58.93867408068043,3.4000000000000004,233.0,,-0.30078125,12.69921875,-3.11328125,-0.599609375,0.33203125,-1.318359375,2.13671875,3.39453125,-1.05859375,1.0
4503531,,,,,,,,0.1484375,11.140625,-3.59375,-0.52734375,0.181640625,-1.150390625,2.71484375,1.859375,-1.59375,1.0
4503532,,,,,,,,1.3671875,9.1640625,-3.90234375,-0.47265625,0.048828125,-1.0078125,4.015625,-0.09375,-1.94140625,1.0
4503533,,,,,,,,2.15625,7.77734375,-4.56640625,-0.455078125,-0.033203125,-0.916015625,4.86328125,-1.47265625,-2.62890625,1.0
4503534,,,,,,,,2.50390625,7.00390625,-4.71875,-0.451171875,-0.158203125,-0.783203125,5.27734375,-2.23828125,-2.8203125,1.0
4503535,,,,,,,,0.44921875,7.32421875,-3.9140625,-0.314453125,-0.177734375,-0.416015625,3.32421875,-1.89453125,-2.09375,1.0
4503536,,,,,,,,-3.06640625,9.1484375,-1.78125,-0.236328125,-0.099609375,-0.20703125,-0.15625,-0.0546875,0.015625,1.0
4503537,,,,,,,,-4.515625,10.3359375,-0.51953125,-0.26171875,0.083984375,0.5390625,-1.62109375,1.1328125,1.23828125,1.0
4503538,,,,,,,,-6.7421875,11.4921875,3.85546875,-0.283203125,0.12109375,0.978515625,-3.875,2.28125,5.60546875,1.0
4503539,,,,,,,,-7.3671875,11.9921875,3.8125,-0.30859375,0.115234375,1.982421875,-4.640625,2.7421875,5.53125,1.0
4503540,36.012929166666666,129.31993383333332,120.24369872143379,58.716751688132796,3.6,230.0,,-6.4609375,11.78515625,2.08203125,-0.599609375,0.33203125,-1.318359375,2.13671875,3.39453125,-1.05859375,1.0
4503541,,,,,,,,-5.74609375,11.43359375,1.55859375,-0.328125,-0.0703125,3.013671875,-3.375,2.08984375,3.23046875,1.0
4503542,,,,,,,,-3.55859375,8.625,-0.2109375,-0.22265625,-0.29296875,2.978515625,-1.46484375,-0.78125,1.4296875,1.0
4503543,,,,,,,,-2.703125,6.46484375,-0.72265625,-0.18359375,-0.501953125,2.44921875,-0.734375,-2.96484375,0.89453125,1.0
4503544,,,,,,,,2.1015625,-11.39453125,1.6171875,-0.08203125,-1.20703125,0.39453125,3.8984375,-20.8515625,3.1953125,1.0
4503545,,,,,,,,-1.3828125,-42.890625,14.5390625,0.017578125,-1.23828125,0.037109375,0.4140625,-52.34765625,16.1015625,1.0
4503546,,,,,,,,-9.16015625,-32.74609375,21.59765625,0.203125,-0.884765625,-0.41796875,-7.32421875,-42.1875,23.15234375,1.0
4503547,,,,,,,,-2.81640625,-10.4453125,3.1484375,-0.1875,1.2578125,-0.580078125,-0.88671875,-19.86328125,4.7265625,1.0
4503548,,,,,,,,1.609375,-6.578125,-3.91796875,-0.19921875,2.20703125,-0.7109375,3.5546875,-15.9921875,-2.32421875,1.0
4503549,,,,,,,,11.27734375,-10.5,-3.54296875,0.5234375,3.30859375,0.443359375,13.24609375,-19.8984375,-1.82421875,1.0
4503550,36.012926666666665,129.31993083333333,119.97325560657264,58.43934988974918,3.6,227.0,,10.4765625,-11.02734375,1.51171875,0.203125,1.2734375,1.892578125,12.3671875,-20.4296875,3.26953125,1.0
4503551,,,,,,,,5.7890625,-12.71875,4.29296875,-0.17578125,-3.18359375,1.236328125,7.5390625,-22.15625,6.02734375,1.0
4503552,,,,,,,,1.125,-11.6640625,5.12109375,0.0078125,-3.498046875,1.140625,2.828125,-21.12890625,6.79296875,1.0
4503553,,,,,,,,-0.7265625,-7.109375,1.046875,0.236328125,-0.6328125,2.236328125,0.875,-16.6015625,2.6953125,1.0
4503554,,,,,,,,-1.1953125,-4.6953125,-0.875,0.673828125,1.76953125,3.462890625,0.109375,-14.2265625,0.8203125,1.0
4503555,,,,,,,,-2.20703125,-2.859375,-1.5703125,0.984375,1.39453125,2.89453125,-1.9609375,-11.51171875,0.28125,1.0
4503556,,,,,,,,-3.82421875,0.62890625,-1.44921875,1.23828125,0.42578125,2.265625,-3.30078125,-8.9375,0.51171875,1.0
4503557,,,,,,,,-4.85546875,2.421875,-1.55078125,1.52734375,-0.11328125,2.76171875,-4.87109375,-6.484375,0.43359375,1.0
4503558,,,,,,,,-5.0546875,4.54296875,-2.328125,1.76171875,-0.095703125,3.1796875,-5.0625,-4.99609375,-0.0625,1.0
4503559,,,,,,,,-4.921875,7.40625,-3.05859375,1.62890625,0.2109375,3.109375,-5.22265625,-2.0859375,-0.63671875,1.0
4503560,36.012925,129.319928,119.71783604307296,58.25441433887824,3.4000000000000004,229.0,,-4.359375,10.4765625,-2.49609375,1.197265625,0.46875,2.939453125,-5.1015625,1.0546875,0.12890625,1.0
4503561,,,,,,,,-3.55859375,12.5390625,-1.6796875,0.90234375,0.453125,2.841796875,-4.6015625,3.1640625,1.046875,1.0
4503562,,,,,,,,-3.1171875,12.859375,-1.6015625,0.814453125,0.474609375,2.755859375,-4.296875,3.5078125,1.1640625,1.0
4503563,,,,,,,,-1.671875,13.1171875,-2.1875,0.681640625,0.74609375,2.330078125,-3.2265625,3.8515625,0.6640625,1.0
4503564,,,,,,,,-1.20703125,12.20703125,-3.3984375,0.625,0.814453125,2.138671875,-2.87890625,2.97265625,-0.5234375,1.0
4503565,,,,,,,,-1.1953125,8.16796875,-4.38671875,0.48828125,0.5859375,1.1875,-3.23046875,-0.97265625,-1.44140625,1.0
4503566,,,,,,,,-1.3984375,6.3671875,-4.2734375,0.482421875,0.345703125,0.625,-3.53515625,-2.734375,-1.2890625,1.0
4503567,,,,,,,,-0.9609375,4.83984375,-3.8046875,0.498046875,0.22265625,0.236328125,-3.1484375,-4.23046875,-0.7890625,1.0
4503568,,,,,,,,-0.76171875,5.0546875,-3.5625,0.466796875,0.23046875,0.1171875,-2.95703125,-4.0,-0.5234375,1.0
4503569,,,,,,,,0.171875,7.0703125,-2.828125,0.392578125,0.34765625,-0.060546875,-2.0390625,-1.96875,0.2421875,1.0
4503570,36.012923,129.31992516666665,119.46241696724081,58.032492380113844,3.5,229.0,,0.6015625,7.875,-2.48828125,1.197265625,0.46875,2.939453125,-5.1015625,1.0546875,0.12890625,1.0
4503571,,,,,,,,1.859375,10.5,-2.19921875,0.212890625,0.4765625,-0.376953125,-0.3515625,1.4765625,0.89453125,1.0
4503572,,,,,,,,2.5703125,11.44921875,-2.7109375,0.314453125,0.220703125,-0.66796875,0.4140625,2.4296875,0.3984375,1.0
4503573,,,,,,,,2.69921875,11.6796875,-2.84375,0.365234375,0.02734375,-0.705078125,0.56640625,2.6640625,0.28125,1.0
4503574,,,,,,,,2.74609375,11.87109375,-2.99609375,0.41015625,-0.458984375,-0.734375,0.68359375,2.8515625,0.16796875,1.0
4503575,,,,,,,,1.625,10.484375,-2.69921875,0.42578125,-0.923828125,-0.830078125,-0.3515625,1.48046875,0.51171875,1.0
4503576,,,,,,,,-0.609375,7.671875,0.31640625,0.390625,-1.357421875,-0.853515625,-2.421875,-1.3203125,3.609375,1.0
4503577,,,,,,,,-2.71875,-2.45703125,2.109375,0.3671875,-1.431640625,-0.662109375,-4.4140625,-11.43359375,5.453125,1.0
4503578,,,,,,,,-0.40625,-11.87890625,-0.11328125,0.349609375,-1.40625,-0.544921875,-2.0390625,-20.8515625,3.26953125,1.0
4503579,,,,,,,,5.77734375,-28.25,1.51171875,0.232421875,-1.1015625,-0.248046875,4.24609375,-37.21484375,4.95703125,1.0
4503580,36.01292083333333,129.31992166666666,119.14689881721911,57.79207640853964,3.6,231.0,,27.73046875,-56.9140625,21.71484375,0.125,-0.791015625,-0.810546875,26.26953125,-65.8671875,25.18359375,1.0
4503581,,,,,,,,4.4296875,-15.06640625,2.53515625,0.349609375,0.001953125,-2.27734375,3.1328125,-24.03125,6.02734375,1.0
4503582,,,,,,,,-2.23828125,-9.57421875,0.86328125,0.48828125,1.79296875,-2.61328125,-3.26171875,-18.5546875,4.41796875,1.0
4503583,,,,,,,,-4.08203125,-9.51171875,-2.421875,-0.12109375,2.21875,-2.265625,-4.94921875,-18.51953125,1.125,1.0
4503584,,,,,,,,-3.10546875,-10.17578125,-2.3515625,-0.36328125,-1.201171875,-1.177734375,-3.83984375,-19.20703125,1.1640625,1.0
4503585,,,,,,,,2.35546875,-10.453125,-0.6953125,-0.27734375,-4.5625,-0.404296875,1.79296875,-19.515625,2.8125,1.0
4503586,,,,,,,,4.5078125,-8.26953125,1.02734375,-0.232421875,-4.783203125,-0.783203125,4.0546875,-17.328125,4.53515625,1.0
4503587,,,,,,,,5.98828125,-7.44140625,-0.14453125,-0.44140625,-3.041015625,-2.244140625,5.81640625,-16.5234375,3.34765625,1.0
4503588,,,,,,,,6.13671875,-7.2734375,-0.97265625,-0.556640625,-1.521484375,-2.875,6.12109375,-16.375,2.50390625,1.0
4503589,,,,,,,,5.16015625,-5.9765625,-2.08203125,-1.0625,0.46484375,-3.103515625,5.43359375,-15.11328125,1.31640625,1.0
4503590,36.012919000000004,129.31991866666667,118.87645463803008,57.58864747017239,3.5,232.0,,4.46484375,-3.02734375,-2.25,-1.28125,0.837890625,-2.4296875,4.97265625,-12.1953125,1.046875,1.0
4503591,,,,,,,,3.9453125,1.00390625,-2.375,-1.3984375,0.01953125,-2.654296875,4.78125,-8.21484375,0.7421875,1.0
4503592,,,,,,,,3.828125,2.0859375,-2.3828125,-1.5390625,-0.18359375,-2.609375,4.78125,-7.140625,0.6640625,1.0
4503593,,,,,,,,3.78515625,5.10546875,-2.31640625,-1.544921875,-0.255859375,-2.099609375,4.97265625,-4.15234375,0.58984375,1.0
4503594,,,,,,,,3.109375,7.2265625,-2.0234375,-1.408203125,-0.033203125,-1.75390625,4.48046875,-2.046875,0.7421875,1.0
4503595,,,,,,,,1.94921875,9.93359375,-1.40234375,-1.21875,0.169921875,-1.708984375,3.4765625,0.63671875,1.23828125,1.0
4503596,,,,,,,,1.70703125,10.515625,-1.421875,-1.126953125,0.25,-1.744140625,3.32421875,1.2109375,1.1640625,1.0
4503597,,,,,,,,0.7109375,11.15625,-1.98046875,-0.92578125,0.373046875,-1.771484375,2.48828125,1.859375,0.51171875,1.0
4503598,,,,,,,,-0.2890625,12.26171875,-2.59765625,-0.7109375,0.44140625,-1.60546875,1.640625,2.97265625,-0.17578125,1.0
4503599,,,,,,,,-0.92578125,13.41015625,-3.41796875,-0.640625,0.4375,-1.482421875,1.06640625,4.1171875,-1.01953125,1.0
4503600,36.01291716666666,129.31991516666668,118.5609359545681,57.38521793254271,3.7,234.0,0.0,-0.36328125,13.67578125,-3.69921875,-0.513671875,0.126953125,-1.1484375,1.87109375,4.421875,-1.40234375,1.0
4503601,,,,,,,,1.45703125,10.94140625,-3.99609375,-0.435546875,-0.1015625,-0.994140625,3.78515625,1.70703125,-1.74609375,1.0
4503602,,,,,,,,2.78125,8.859375,-4.52734375,-0.404296875,-0.25390625,-0.6875,5.20703125,-0.359375,-2.32421875,1.0
4503603,,,,,,,,3.015625,7.86328125,-4.77734375,-0.361328125,-0.296875,-0.515625,5.47265625,-1.35546875,-2.58984375,1.0
4503604,,,,,,,,1.26953125,5.203125,-3.53515625,-0.09375,-0.20703125,-0.224609375,3.78515625,-4.0,-1.40234375,1.0
4503605,,,,,,,,-1.015625,5.80078125,-2.2265625,0.005859375,0.046875,-0.24609375,1.5234375,-3.38671875,-0.1015625,1.0
4503606,,,,,,,,-4.71484375,8.12890625,2.1015625,-0.03125,0.400390625,-0.130859375,-2.15234375,-1.05078125,4.23046875,1.0
4503607,,,,,,,,-6.76171875,9.8515625,4.2109375,-0.171875,0.66015625,0.4609375,-4.22265625,0.671875,6.3359375,1.0
4503608,,,,,,,,-7.04296875,10.55078125,3.51953125,-0.2890625,0.69921875,0.888671875,-4.52734375,1.36328125,5.64453125,1.0
4503609,,,,,,,,-6.43359375,11.96875,0.25,-0.478515625,0.580078125,1.8203125,-4.06640625,2.7421875,2.3515625,1.0
4503610,36.012915,129.31991216666665,118.29049224471476,57.14480260014513,3.6,231.0,,-4.921875,12.19921875,-1.65625,-0.513671875,0.126953125,-1.1484375,1.87109375,4.421875,-1.40234375,1.0
4503611,,,,,,,,-3.32421875,11.21875,-1.56640625,-0.609375,-0.482421875,1.99609375,-1.38671875,1.90234375,0.43359375,1.0
4503612,,,,,,,,-0.76953125,6.234375,-2.328125,-0.60546875,-1.23046875,0.861328125,1.06640625,-3.1171875,-0.40625,1.0
4503613,,,,,,,,0.69921875,-2.33984375,-0.7890625,-0.478515625,-1.505859375,0.275390625,2.51953125,-11.6953125,1.046875,1.0
4503614,,,,,,,,-1.30078125,-32.296875,11.37890625,-0.27734375,-1.390625,0.111328125,0.52734375,-41.65625,13.15234375,1.0
4503615,,,,,,,,-3.62890625,-38.51171875,23.08984375,-0.068359375,-0.5625,-0.22265625,-1.76953125,-47.859375,24.80078125,1.0
4503616,,,,,,,,0.74609375,-18.25390625,9.796875,-0.05859375,0.45703125,-0.31640625,2.63671875,-27.59765625,11.5078125,1.0
4503617,,,,,,,,5.203125,-5.52734375,-2.79296875,-0.0625,2.216796875,-0.7265625,7.1171875,-14.875,-1.05859375,1.0
4503618,,,,,,,,10.17578125,-7.51171875,-6.01171875,0.3984375,3.763671875,-2.099609375,12.17578125,-16.828125,-4.19921875,1.0
4503619,,,,,,,,6.94140625,-11.64453125,1.10546875,-0.13671875,1.744140625,0.3984375,8.99609375,-20.93359375,3.00390625,1.0
4503620,36.012912666666665,129.31990916666666,118.02004876931657,56.88589406912845,3.5,228.0,,3.109375,-12.90625,4.0625,-0.125,-3.447265625,1.322265625,5.0859375,-22.23828125,5.9140625,1.0
4503621,,,,,,,,2.078125,-11.80078125,4.20703125,0.173828125,-4.150390625,2.171875,3.9765625,-21.15625,5.98828125,1.0
4503622,,,,,,,,0.69921875,-10.09375,2.15625,0.484375,-3.076171875,2.67578125,2.51953125,-19.4765625,3.921875,1.0
4503623,,,,,,,,-0.52734375,-7.6328125,0.4375,0.576171875,0.66015625,3.357421875,1.02734375,-17.06640625,2.234375,1.0
4503624,,,,,,,,-1.1484375,-5.44921875,-0.34375,0.814453125,2.376953125,3.1015625,0.0703125,-14.9140625,1.546875,1.0
4503625,,,,,,,,-2.9453125,-2.55078125,-0.8671875,0.849609375,1.69140625,2.587890625,-2.0390625,-12.0390625,1.125,1.0
4503626,,,,,,,,-4.46484375,-0.3671875,-1.2578125,0.953125,1.033203125,2.48046875,-3.68359375,-9.859375,0.78125,1.0
4503627,,,,,,,,-6.0625,2.20703125,-2.296875,1.2421875,0.033203125,2.875,-5.5625,-7.29296875,-0.140625,1.0
4503628,,,,,,,,-6.3828125,3.90625,-3.31640625,1.41015625,-0.259765625,3.740234375,-6.33203125,-5.5703125,-0.98046875,1.0
4503629,,,,,,,,-6.1640625,5.8515625,-3.42578125,1.39453125,-0.1875,3.8046875,-6.2890625,-3.6171875,-1.01953125,1.0
4503630,36.01291066666667,129.319906,117.73457995309397,56.66397175928646,3.6,229.0,,-5.1640625,11.2734375,-1.1640625,1.021484375,0.185546875,3.482421875,-5.984375,1.8984375,1.46875,1.0
4503631,,,,,,,,-4.54296875,12.98828125,-0.8671875,0.90234375,0.462890625,3.0234375,-5.67578125,3.66015625,1.8515625,1.0
4503632,,,,,,,,-3.07421875,13.73046875,-1.05078125,0.767578125,0.814453125,2.548828125,-4.484375,4.46484375,1.73828125,1.0
4503633,,,,,,,,-1.9140625,13.9375,-1.65625,0.708984375,0.974609375,2.291015625,-3.453125,4.69921875,1.1640625,1.0
4503634,,,,,,,,-1.09375,13.38671875,-3.265625,0.6015625,1.095703125,1.70703125,-2.84375,4.19921875,-0.40625,1.0
4503635,,,,,,,,-1.1015625,10.984375,-4.1640625,0.44140625,0.70703125,0.728515625,-3.07421875,1.859375,-1.25,1.0
4503636,,,,,,,,-1.15625,9.0859375,-4.1484375,0.419921875,0.328125,0.076171875,-3.19140625,-0.015625,-1.2109375,1.0
4503637,,,,,,,,-1.30859375,6.39453125,-3.64453125,0.5,-0.041015625,-0.0703125,-3.33984375,-2.69921875,-0.67578125,1.0
4503638,,,,,,,,-1.31640625,5.61328125,-3.32421875,0.5,-0.126953125,0.0078125,-3.33984375,-3.46484375,-0.33203125,1.0
4503639,,,,,,,,-0.34375,5.40625,-2.14453125,0.404296875,-0.009765625,0.130859375,-2.3828125,-3.66015625,0.89453125,1.0
4503640,36.01290866666667,129.319903,117.46413595375242,56.4420496588165,3.6,229.0,,1.12890625,6.265625,-2.08984375,1.021484375,0.185546875,3.482421875,-5.984375,1.8984375,1.46875,1.0
4503641,,,,,,,,2.38671875,7.59765625,-2.40625,0.19921875,0.6796875,0.15625,0.30078125,-1.4296875,0.6640625,1.0
4503642,,,,,,,,3.7578125,9.18359375,-2.7890625,0.349609375,0.802734375,-0.130859375,1.64453125,0.17578125,0.28125,1.0
4503643,,,,,,,,3.7578125,10.25390625,-2.61328125,0.451171875,0.716796875,-0.443359375,1.640625,1.24609375,0.47265625,1.0
4503644,,,,,,,,2.3671875,10.67578125,-1.28125,0.5078125,-0.046875,-1.6796875,0.375,1.66796875,1.8515625,1.0
4503645,,,,,,,,-0.15625,10.26953125,2.0078125,0.51171875,-0.724609375,-2.056640625,-1.9609375,1.24609375,5.1875,1.0
4503646,,,,,,,,-3.1484375,6.515625,4.96875,0.470703125,-1.30859375,-1.71484375,-4.7578125,-2.5078125,8.21484375,1.0
4503647,,,,,,,,0.265625,2.02734375,0.125,0.359375,-1.857421875,-0.501953125,-1.1171875,-6.984375,3.4609375,1.0
4503648,,,,,,,,5.3828125,-8.28515625,-1.3515625,0.30859375,-1.927734375,-0.18359375,4.0546875,-17.29296875,2.0078125,1.0
4503649,,,,,,,,19.9140625,-42.80859375,8.4140625,0.1328125,-1.869140625,-0.2265625,18.6484375,-51.80859375,11.8125,1.0
4503650,36.012906666666666,129.31989966666666,117.16364227274877,56.22012716581077,3.6,231.0,,9.84375,-36.48046875,17.68359375,0.083984375,-0.875,-1.990234375,8.8046875,-45.484375,21.12109375,1.0
4503651,,,,,,,,5.88671875,-13.32421875,6.8203125,0.369140625,0.908203125,-2.380859375,5.05078125,-22.34375,10.28125,1.0
4503652,,,,,,,,-2.15234375,-5.97265625,0.67578125,0.314453125,2.3203125,-0.9296875,-2.87890625,-14.9921875,4.15234375,1.0
4503653,,,,,,,,-1.234375,-10.25390625,-1.05078125,0.05078125,1.19921875,-0.685546875,-2.0390625,-19.28125,2.42578125,1.0
4503654,,,,,,,,0.51171875,-13.06640625,0.0859375,-0.60546875,-3.208984375,-1.7265625,-0.12109375,-22.1171875,3.5390625,1.0
4503655,,,,,,,,3.75390625,-11.9296875,0.8984375,-0.021484375,-4.572265625,-1.6796875,3.40234375,-21.0078125,4.34375,1.0
4503656,,,,,,,,4.6015625,-10.46875,1.2421875,-0.0625,-3.869140625,-1.720703125,4.3984375,-19.55859375,4.6875,1.0
4503657,,,,,,,,5.90625,-7.83984375,1.46484375,-0.748046875,-0.482421875,-2.08984375,5.96875,-16.94921875,4.87890625,1.0
4503658,,,,,,,,5.0,-5.73828125,0.1328125,-1.20703125,1.21484375,-2.318359375,5.2421875,-14.87890625,3.4609375,1.0
4503659,,,,,,,,3.25,-2.7265625,-1.3359375,-1.224609375,1.21484375,-2.44921875,3.59375,-11.89453125,1.9296875,1.0
4503660,36.01290466666667,129.31989683333333,116.90822307788181,55.99820528364471,3.4000000000000004,231.0,,2.6171875,-0.89453125,-2.078125,0.083984375,-0.875,-1.990234375,3.171875,-10.0859375,1.0859375,1.0
4503661,,,,,,,,2.92578125,1.3125,-3.4140625,-1.27734375,-0.099609375,-2.833984375,3.74609375,-7.90625,-0.3671875,1.0
4503662,,,,,,,,2.99609375,4.56640625,-3.02734375,-1.44140625,-0.5,-1.97265625,4.16796875,-4.6875,-0.17578125,1.0
4503663,,,,,,,,2.73828125,6.09375,-2.19140625,-1.390625,-0.06640625,-1.708984375,4.1640625,-3.1953125,0.47265625,1.0
4503664,,,,,,,,2.23828125,8.33203125,-1.60546875,-1.248046875,0.291015625,-1.6875,3.82421875,-0.97265625,0.93359375,1.0
4503665,,,,,,,,0.671875,11.3203125,-1.93359375,-1.037109375,0.703125,-1.63671875,2.41015625,2.015625,0.51171875,1.0
4503666,,,,,,,,-0.21484375,12.84375,-2.8125,-0.830078125,0.97265625,-1.482421875,1.71484375,3.55078125,-0.484375,1.0
4503667,,,,,,,,-0.75,13.5625,-3.828125,-0.75,0.73046875,-1.318359375,1.296875,4.27734375,-1.5546875,1.0
4503668,,,,,,,,-0.203125,13.48046875,-4.42578125,-0.63671875,0.3359375,-1.048828125,1.9453125,4.1953125,-2.20703125,1.0
4503669,,,,,,,,1.97265625,11.546875,-5.03125,-0.646484375,-0.048828125,-0.7109375,4.20703125,2.28125,-2.859375,1.0
4503670,36.012903,129.31989366666667,116.62275371394936,55.81326942257647,3.5,233.0,,2.98046875,9.7109375,-5.375,-0.640625,-0.29296875,-0.4140625,5.2734375,0.4453125,-3.28125,1.0
4503671,,,,,,,,3.2265625,6.4140625,-5.35546875,-0.4921875,-0.185546875,-0.298828125,5.5859375,-2.8515625,-3.35546875,1.0
4503672,,,,,,,,0.03125,6.1484375,-3.6484375,-0.431640625,-0.04296875,-0.37109375,2.40625,-3.12109375,-1.671875,1.0
4503673,,,,,,,,-3.86328125,7.1640625,-1.50390625,-0.216796875,0.505859375,-0.380859375,-1.42578125,-2.0859375,0.43359375,1.0
4503674,,,,,,,,-6.97265625,7.84765625,3.515625,-0.255859375,0.671875,-0.16796875,-4.52734375,-1.39453125,5.45703125,1.0
4503675,,,,,,,,-8.93359375,9.04296875,5.8671875,-0.376953125,0.916015625,0.79296875,-6.51953125,-0.20703125,7.7890625,1.0
4503676,,,,,,,,-8.44140625,10.4140625,4.015625,-0.4609375,0.865234375,2.05078125,-6.171875,1.1328125,5.9140625,1.0
4503677,,,,,,,,-7.56640625,10.90625,3.2578125,-0.51953125,0.7421875,2.615234375,-5.41015625,1.59375,5.1484375,1.0
4503678,,,,,,,,-3.17578125,11.98828125,-0.765625,-0.658203125,0.2109375,3.279296875,-1.46484375,2.5859375,1.046875,1.0
4503679,,,,,,,,-2.0390625,11.7421875,-1.15234375,-0.67578125,-0.07421875,2.703125,-0.46875,2.32421875,0.62890625,1.0
4503680,36.01290083333333,129.31989083333335,116.36733473805012,55.5728543486223,3.5,230.0,,1.08984375,8.09765625,-1.53515625,-0.640625,-0.29296875,-0.4140625,2.51953125,-1.35546875,0.16796875,1.0
4503681,,,,,,,,1.20703125,5.5234375,-2.5390625,-0.318359375,-1.775390625,-1.1015625,2.4453125,-14.03125,1.96875,1.0
4503682,,,,,,,,0.9140625,-4.58984375,0.3671875,-0.08984375,-1.748046875,-1.216796875,1.140625,-36.18359375,9.3984375,1.0
4503683,,,,,,,,-3.05078125,-40.5625,13.4609375,0.037109375,-1.205078125,-0.9609375,-4.6796875,-62.26953125,18.6328125,1.0
4503684,,,,,,,,-9.3203125,-31.69921875,16.38671875,0.09375,-0.12890625,-0.611328125,-7.4765625,-41.08203125,17.90234375,1.0
4503685,,,,,,,,1.609375,-14.4296875,6.60546875,-0.017578125,1.154296875,0.095703125,3.515625,-23.80859375,8.13671875,1.0
4503686,,,,,,,,3.41796875,-10.33203125,2.95703125,-0.0859375,1.775390625,0.15625,5.31640625,-19.703125,4.49609375,1.0
4503687,,,,,,,,9.84765625,-7.15234375,-6.875,0.083984375,2.693359375,-0.78515625,11.71484375,-16.5234375,-5.3125,1.0
4503688,,,,,,,,12.57421875,-8.9296875,-4.58984375,-0.142578125,1.921875,-0.294921875,14.47265625,-18.2890625,-2.97265625,1.0
4503689,,,,,,,,11.83984375,-9.81640625,-1.3203125,-0.59375,-0.30859375,0.349609375,13.74609375,-19.16796875,0.3203125,1.0
4503690,36.01289833333333,129.31988766666666,116.08186656612511,55.29545247224918,3.6,227.0,,6.30078125,-12.24609375,2.7890625,-0.107421875,-3.494140625,0.67578125,5.01171875,-21.77734375,5.60546875,1.0
4503691,,,,,,,,2.1328125,-10.96484375,3.76953125,0.61328125,-3.115234375,1.640625,3.28515625,-18.9765625,4.6484375,1.0
4503692,,,,,,,,1.015625,-8.5234375,2.4765625,0.5625,0.169921875,3.08984375,1.75390625,-15.45703125,2.42578125,1.0
4503693,,,,,,,,-0.83984375,-4.64453125,0.07421875,0.7265625,1.95703125,3.306640625,-0.3125,-13.1953125,1.203125,1.0
4503694,,,,,,,,-3.23046875,-2.765625,-0.625,0.849609375,1.4453125,2.765625,-2.84375,-11.58984375,0.89453125,1.0
4503695,,,,,,,,-4.515625,-1.140625,-1.03125,1.119140625,0.5390625,2.7109375,-4.3359375,-9.59765625,0.3984375,1.0
4503696,,,,,,,,-5.0703125,-0.0625,-1.4296875,1.298828125,0.162109375,2.966796875,-5.33203125,-7.328125,-0.33203125,1.0
4503697,,,,,,,,-6.390625,3.2265625,-2.62890625,1.501953125,-0.263671875,3.5703125,-6.3671875,-5.6484375,-0.98046875,1.0
4503698,,,,,,,,-6.98046875,4.82421875,-2.921875,1.380859375,-0.31640625,3.845703125,-6.71484375,-4.30859375,-0.59765625,1.0
4503699,,,,,,,,-5.546875,9.15234375,-1.26953125,1.171875,-0.16796875,3.681640625,-5.9453125,-0.32421875,1.01171875,1.0
4503700,36.012896500000004,129.31988483333333,115.82644707325768,55.09202382816501,3.5,229.0,0.0,-4.03515625,12.4375,-1.0546875,0.998046875,0.580078125,2.314453125,5.01171875,-21.77734375,5.60546875,1.0
4503701,,,,,,,,-2.015625,13.93359375,-1.3515625,0.716796875,0.927734375,1.759765625,-3.2265625,4.58203125,1.203125,1.0
4503702,,,,,,,,-1.66015625,13.87109375,-1.72265625,0.5859375,1.02734375,1.5234375,-2.95703125,4.5390625,0.85546875,1.0
4503703,,,,,,,,-0.40234375,12.1171875,-2.87109375,0.4296875,1.015625,1.099609375,-1.84765625,2.8203125,-0.25390625,1.0
4503704,,,,,,,,-0.0234375,10.98828125,-3.23046875,0.3671875,0.912109375,0.91796875,-1.5390625,1.703125,-0.59765625,1.0
4503705,,,,,,,,-0.046875,8.20703125,-3.59375,0.357421875,0.61328125,0.53125,-1.65625,-1.05078125,-0.9453125,1.0
4503706,,,,,,,,-0.12890625,7.2734375,-3.27734375,0.46484375,0.26953125,0.1171875,-1.76953125,-1.96875,-0.59765625,1.0
4503707,,,,,,,,-0.12109375,6.94921875,-2.765625,0.482421875,0.09765625,-0.017578125,-1.76953125,-2.27734375,-0.0625,1.0
4503708,,,,,,,,-0.16796875,7.05859375,-2.65234375,0.384765625,-0.06640625,-0.267578125,-1.62109375,-1.47265625,0.55078125,1.0
4503709,,,,,,,,0.015625,7.73828125,-2.20703125,0.359375,-0.01171875,-0.26953125,-1.15625,-0.55078125,0.78125,1.0
4503710,36.0128945,129.31988166666667,115.54097814300616,54.870101589485024,3.6,229.0,,-4.03515625,12.4375,-1.0546875,0.224609375,0.14453125,-0.158203125,-0.50390625,0.859375,0.58984375,1.0
4503711,,,,,,,,1.31640625,10.55078125,-2.30078125,0.1953125,0.087890625,-0.25,-0.12109375,1.66796875,0.359375,1.0
4503712,,,,,,,,1.6796875,11.078125,-2.59375,0.263671875,-0.173828125,-0.3984375,0.4921875,2.4296875,0.015625,1.0
4503713,,,,,,,,2.3046875,11.40625,-3.015625,0.3203125,-0.763671875,-0.48046875,0.8359375,1.86328125,-0.1015625,1.0
4503714,,,,,,,,1.97265625,9.90625,-2.671875,0.341796875,-1.052734375,-0.4375,0.30078125,-0.16796875,0.5078125,1.0
4503715,,,,,,,,1.30078125,7.78515625,-1.9140625,0.353515625,-1.185546875,-0.35546875,-1.26953125,-5.296875,4.15234375,1.0
4503716,,,,,,,,-0.15234375,1.09375,2.37109375,0.3671875,-1.16015625,-0.28125,-1.65625,-11.24609375,6.41015625,1.0
4503717,,,,,,,,-0.55859375,-11.02734375,6.69921875,0.35546875,-1.01953125,-0.1640625,-1.80859375,-20.12890625,9.74609375,1.0
4503718,,,,,,,,17.40625,-46.67578125,18.72265625,0.20703125,-0.595703125,-0.056640625,16.234375,-55.75390625,21.84765625,1.0
4503719,,,,,,,,1.73828125,-15.34765625,8.5859375,0.216796875,-0.177734375,-0.69921875,0.60546875,-24.4140625,11.734375,1.0
4503720,36.0128925,129.3198785,115.25550919402491,54.648179359950724,3.6,229.0,,-2.23828125,-7.41796875,5.9140625,0.587890625,0.638671875,-1.919921875,-3.26171875,-16.484375,9.09375,1.0
4503721,,,,,,,,-4.15234375,-9.01953125,-2.21484375,0.423828125,1.4609375,-2.689453125,-4.98828125,-18.09375,1.01171875,1.0
4503722,,,,,,,,-0.94921875,-13.875,-3.671875,-0.080078125,1.30078125,-2.373046875,-1.69140625,-22.96484375,-0.4453125,1.0
4503723,,,,,,,,5.2890625,-15.5625,2.2890625,-0.400390625,-3.171875,-0.728515625,4.78125,-24.6875,5.4921875,1.0
4503724,,,,,,,,4.41796875,-15.125,3.03125,-0.287109375,-4.333984375,-1.380859375,4.12890625,-24.265625,6.21875,1.0
4503725,,,,,,,,3.91796875,-10.65625,-0.4375,-0.4375,-0.35546875,-3.37890625,4.08984375,-19.82421875,2.734375,1.0
4503726,,,,,,,,3.203125,-7.34765625,-1.9296875,-1.240234375,1.466796875,-3.353515625,3.671875,-16.52734375,1.1640625,1.0
4503727,,,,,,,,3.11328125,-5.5234375,-2.10546875,-1.21875,1.392578125,-2.990234375,3.70703125,-14.7265625,0.93359375,1.0
4503728,,,,,,,,3.1953125,-3.77734375,-1.62109375,-1.271484375,0.546875,-2.59375,4.015625,-13.0,1.31640625,1.0
4503729,,,,,,,,3.19140625,-3.23046875,-1.63671875,-1.392578125,0.23828125,-2.62109375,4.12890625,-12.4609375,1.23828125,1.0
4503730,36.012890666666664,129.3198755,114.98506482826204,54.4447505439512,3.5,230.0,,3.1328125,-1.9453125,-2.046875,0.587890625,0.638671875,-1.919921875,4.3203125,-11.20703125,0.703125,1.0
4503731,,,,,,,,3.01953125,1.14453125,-2.5234375,-1.4921875,0.310546875,-2.3203125,4.55078125,-8.13671875,0.015625,1.0
4503732,,,,,,,,2.91796875,5.3203125,-2.15625,-1.46875,0.466796875,-2.21875,4.546875,-3.9609375,0.3203125,1.0
4503733,,,,,,,,1.9765625,9.265625,-1.62109375,-1.212890625,0.712890625,-1.91015625,3.98046875,-0.015625,0.62890625,1.0
4503734,,,,,,,,1.24609375,10.796875,-1.57421875,-1.12109375,0.75,-1.849609375,3.32421875,1.515625,0.62890625,1.0
4503735,,,,,,,,0.33203125,11.890625,-2.109375,-0.896484375,0.794921875,-1.59765625,2.55859375,2.625,0.015625,1.0
4503736,,,,,,,,0.00390625,12.23046875,-2.42578125,-0.76171875,0.779296875,-1.443359375,2.29296875,2.97265625,-0.33203125,1.0
4503737,,,,,,,,-0.53125,12.13671875,-3.51953125,-0.490234375,0.546875,-0.9765625,1.90625,2.89453125,-1.48046875,1.0
4503738,,,,,,,,-0.5,11.859375,-3.54296875,-0.439453125,0.439453125,-0.861328125,1.984375,2.62890625,-1.51953125,1.0
4503739,,,,,,,,0.11328125,10.7734375,-4.23046875,-0.390625,0.20703125,-0.7890625,2.671875,1.5546875,-2.24609375,1.0
4503740,36.012888833333335,129.31987216666667,114.68457077664779,54.241321343255066,3.6,233.0,,1.49609375,8.95703125,-4.58203125,0.587890625,0.638671875,-1.919921875,4.3203125,-11.20703125,0.703125,1.0
4503741,,,,,,,,2.22265625,7.1875,-4.99609375,-0.4140625,-0.19921875,-0.60546875,4.93359375,-2.0078125,-3.08984375,1.0
4503742,,,,,,,,0.8359375,7.30078125,-4.44921875,-0.302734375,-0.359375,-0.28125,3.59765625,-1.89453125,-2.58984375,1.0
4503743,,,,,,,,-0.875,7.37109375,-3.61328125,-0.1640625,-0.44140625,-0.005859375,1.90625,-1.81640625,-1.78515625,1.0
4503744,,,,,,,,-3.2265625,8.3671875,-1.515625,-0.05078125,-0.40234375,0.125,-0.4296875,-0.82421875,0.28125,1.0
4503745,,,,,,,,-6.4296875,9.9765625,5.04296875,-0.02734375,-0.279296875,0.330078125,-4.4140625,1.4375,8.2890625,1.0
4503746,,,,,,,,-7.484375,11.1328125,6.31640625,-0.083984375,-0.216796875,0.521484375,-4.71875,1.9375,8.09375,1.0
4503747,,,,,,,,-5.8125,11.953125,2.81640625,-0.232421875,-0.109375,1.0703125,-3.109375,2.7421875,4.5703125,1.0
4503748,,,,,,,,-3.76171875,12.4296875,0.5703125,-0.455078125,-0.015625,2.0390625,-1.26953125,3.16796875,2.2734375,1.0
4503749,,,,,,,,-0.2890625,10.55078125,-1.49609375,-0.421875,-0.30078125,1.6015625,2.0234375,1.24609375,0.16796875,1.0
4503750,36.012886333333334,129.31986916666668,114.41412734833509,53.96391971751201,3.7,228.0,,1.265625,6.1328125,-3.00390625,-0.376953125,-1.03125,0.197265625,3.515625,-3.1953125,-1.40234375,1.0
4503751,,,,,,,,2.4375,-16.0234375,3.203125,-0.0390625,-1.458984375,-0.337890625,4.7421875,-25.3359375,4.7265625,1.0
4503752,,,,,,,,-4.7109375,-41.73828125,17.3515625,0.072265625,-1.357421875,-0.28515625,-2.3828125,-51.0390625,18.859375,1.0
4503753,,,,,,,,-11.30859375,-44.1640625,19.7421875,0.0703125,-0.173828125,0.046875,-8.93359375,-53.453125,21.234375,1.0
4503754,,,,,,,,-3.0234375,-11.08203125,6.16796875,-0.119140625,1.24609375,0.80078125,-0.6953125,-20.390625,7.67578125,1.0
4503755,,,,,,,,10.484375,-6.5390625,-6.25390625,0.02734375,2.82421875,0.46484375,12.7109375,-15.87890625,-4.69921875,1.0
4503756,,,,,,,,10.5,-6.546875,-6.29296875,0.58984375,3.6796875,-1.783203125,15.4296875,-17.4453125,-4.12109375,1.0
4503757,,,,,,,,11.74609375,-10.2109375,-0.5859375,0.15625,0.5234375,1.26171875,8.49609375,-22.19921875,4.15234375,1.0
4503758,,,,,,,,3.51953125,-13.18359375,3.75,-0.046875,-3.478515625,0.91015625,3.671875,-22.12109375,6.71875,1.0
4503759,,,,,,,,1.515625,-12.79296875,5.0,-0.048828125,-3.974609375,1.013671875,1.6796875,-19.94140625,6.56640625,1.0
4503760,36.012884166666666,129.31986616666666,114.14368342043902,53.72350451367695,3.5,227.0,,1.265625,6.1328125,-3.00390625,-0.376953125,-1.03125,0.197265625,0.3359375,-16.828125,3.5,1.0
4503761,,,,,,,,-2.09765625,-5.9921875,0.50390625,0.498046875,1.69921875,3.76171875,-0.62109375,-13.1171875,0.3203125,1.0
4503762,,,,,,,,-2.18359375,-3.640625,-1.375,0.8359375,1.984375,3.5703125,-0.7734375,-11.8125,-0.0234375,1.0
4503763,,,,,,,,-4.0625,0.91015625,-0.46875,0.99609375,0.66015625,2.810546875,-3.2265625,-8.63671875,1.4296875,1.0
4503764,,,,,,,,-4.81640625,1.5234375,-0.26171875,1.205078125,0.130859375,2.630859375,-4.10546875,-8.02734375,1.69921875,1.0
4503765,,,,,,,,-5.19140625,3.5546875,-0.953125,1.517578125,-0.095703125,2.91015625,-4.87109375,-5.99609375,1.203125,1.0
4503766,,,,,,,,-5.1015625,6.82421875,-2.8203125,1.443359375,0.376953125,2.908203125,-5.06640625,-2.69921875,-0.5234375,1.0
4503767,,,,,,,,-5.1171875,7.84375,-3.47265625,1.404296875,0.541015625,2.86328125,-5.22265625,-1.6640625,-1.09765625,1.0
4503768,,,,,,,,-4.76171875,11.7734375,-3.7578125,0.9765625,0.484375,2.818359375,-5.2890625,2.3203125,-1.2109375,1.0
4503769,,,,,,,,-4.515625,12.33203125,-3.375,0.818359375,0.390625,2.8125,-5.18359375,2.89453125,-0.7890625,1.0
4503770,36.01288216666667,129.31986366666666,113.9183137500813,53.50158310935673,3.5,227.0,,-3.54296875,13.671875,-2.375,-0.376953125,-1.03125,0.197265625,-4.48828125,4.2734375,0.28125,1.0
4503771,,,,,,,,-2.0546875,11.2109375,-3.80078125,0.43359375,0.75,2.20703125,-3.4921875,1.8984375,-1.05859375,1.0
4503772,,,,,,,,-2.13671875,9.6953125,-3.9375,0.388671875,0.87890625,1.9609375,-3.68359375,0.40625,-1.171875,1.0
4503773,,,,,,,,-2.00390625,5.578125,-3.3046875,0.31640625,1.0625,0.892578125,-3.796875,-3.65625,-0.5234375,1.0
4503774,,,,,,,,-1.91796875,5.5546875,-3.3203125,0.345703125,0.951171875,0.189453125,-3.1875,-4.8046875,-0.4453125,1.0
4503775,,,,,,,,-0.19921875,4.7734375,-3.37109375,0.4140625,0.86328125,-0.171875,-2.11328125,-4.42578125,-0.55859375,1.0
4503776,,,,,,,,1.28515625,6.99609375,-3.703125,0.419921875,0.833984375,-0.427734375,-0.62109375,-2.1953125,-0.8671875,1.0
4503777,,,,,,,,1.77734375,7.78515625,-3.671875,0.37109375,0.765625,-0.599609375,-0.12109375,-1.39453125,-0.828125,1.0
4503778,,,,,,,,3.17578125,9.6328125,-3.53515625,0.26171875,0.517578125,-1.07421875,1.33203125,0.4453125,-0.67578125,1.0
4503779,,,,,,,,3.62890625,10.625,-3.390625,0.25390625,0.33203125,-1.326171875,1.828125,1.4375,-0.5234375,1.0
4503780,36.01288016666667,129.31986049999998,113.63284471581595,53.27966093335062,3.6,228.0,,3.37109375,11.453125,-3.15234375,0.4140625,-0.373046875,-1.71875,1.79296875,2.24609375,-0.25390625,1.0
4503781,,,,,,,,2.01953125,12.10546875,-1.75,0.505859375,-0.7734375,-1.435546875,0.60546875,2.89453125,1.203125,1.0
4503782,,,,,,,,-0.84765625,10.51953125,1.2734375,0.462890625,-1.203125,-0.76171875,-2.07421875,1.32421875,4.30859375,1.0
4503783,,,,,,,,-3.5390625,8.60546875,4.5,0.447265625,-1.296875,-0.521484375,-4.71875,-0.58984375,7.5625,1.0
4503784,,,,,,,,-5.37109375,5.8671875,6.2421875,0.392578125,-1.41796875,-0.01953125,-6.48046875,-3.3125,9.359375,1.0
4503785,,,,,,,,-1.52734375,0.8671875,-0.99609375,0.267578125,-1.51171875,0.220703125,-2.61328125,-8.2890625,2.16015625,1.0
4503786,,,,,,,,9.55078125,-28.578125,-1.7578125,0.123046875,-1.501953125,0.060546875,8.49609375,-37.7109375,1.4296875,1.0
4503787,,,,,,,,21.80078125,-54.6328125,12.85546875,0.083984375,-1.310546875,-0.919921875,20.83203125,-63.76171875,16.06640625,1.0
4503788,,,,,,,,24.71875,-57.5,24.5234375,0.11328125,-1.083984375,-1.654296875,23.8203125,-66.6328125,27.75,1.0
4503789,,,,,,,,7.25390625,-16.16015625,5.8828125,0.416015625,0.03125,-2.728515625,6.58203125,-25.296875,9.1328125,1.0
4503790,36.012878,129.31985699999998,113.31732623497138,53.03924517188088,3.7,229.0,,0.5078125,-9.078125,1.7265625,0.4140625,-0.373046875,-1.71875,0.03125,-18.21484375,5.03125,1.0
4503791,,,,,,,,-4.2734375,-7.6328125,-2.6015625,0.3515625,1.841796875,-0.8046875,-4.6796875,-16.76171875,0.7421875,1.0
4503792,,,,,,,,-4.6875,-8.16015625,-3.375,0.052734375,1.79296875,-0.2421875,-5.1015625,-17.2890625,-0.0234375,1.0
4503793,,,,,,,,-4.375,-10.296875,-3.3828125,-0.453125,-0.572265625,-1.330078125,-4.7578125,-19.44140625,-0.0625,1.0
4503794,,,,,,,,-2.109375,-12.57421875,-1.55859375,-0.35546875,-4.607421875,-0.72265625,-2.3046875,-21.73828125,1.73828125,1.0
4503795,,,,,,,,2.859375,-8.91015625,1.40625,-0.5234375,-1.69140625,-2.19921875,3.171875,-18.09765625,4.6484375,1.0
4503796,,,,,,,,3.859375,-6.00390625,-1.43359375,-1.2109375,1.244140625,-2.263671875,4.4765625,-15.21875,1.69921875,1.0
4503797,,,,,,,,3.52734375,-4.21875,-1.9453125,-1.33984375,1.41796875,-2.26171875,4.24609375,-13.4609375,1.125,1.0
4503798,,,,,,,,2.85546875,-2.38671875,-1.94921875,-1.3828125,0.830078125,-2.65234375,3.74609375,-11.66015625,1.01171875,1.0
4503799,,,,,,,,2.68359375,-1.61328125,-1.84375,-1.44140625,0.345703125,-2.87890625,3.70703125,-10.89453125,1.046875,1.0
4503800,36.012876166666665,129.319854,113.04688177505189,52.83581641536064,3.6,231.0,0.0,2.3515625,0.96875,-1.59375,-1.603515625,-0.470703125,-2.400390625,3.70703125,-7.48828125,1.125,1.0
4503801,,,,,,,,2.26953125,2.859375,-1.546875,-1.517578125,-0.271484375,-1.84765625,3.48046875,-3.76953125,0.93359375,1.0
4503802,,,,,,,,1.86328125,5.55078125,-1.58984375,-1.458984375,-0.08203125,-1.689453125,3.51953125,-2.62109375,0.7421875,1.0
4503803,,,,,,,,1.7265625,8.24609375,-1.5546875,-1.296875,0.2734375,-1.560546875,3.515625,-0.24609375,0.703125,1.0
4503804,,,,,,,,1.3203125,11.203125,-2.05859375,-1.099609375,0.453125,-1.525390625,3.25390625,1.859375,0.20703125,1.0
4503805,,,,,,,,0.39453125,12.5390625,-2.31640625,-0.833984375,0.478515625,-1.462890625,2.51953125,3.20703125,-0.17578125,1.0
4503806,,,,,,,,0.21875,12.56640625,-2.546875,-0.705078125,0.427734375,-1.388671875,2.40625,3.23828125,-0.4453125,1.0
4503807,,,,,,,,-0.09765625,12.16015625,-3.48046875,-0.357421875,0.154296875,-0.93359375,2.25390625,2.85546875,-1.44140625,1.0
4503808,,,,,,,,0.24609375,11.9140625,-3.91015625,-0.2890625,0.017578125,-0.662109375,2.671875,2.625,-1.90234375,1.0
4503809,,,,,,,,0.90234375,10.8046875,-4.58203125,-0.267578125,-0.0078125,-0.6171875,3.359375,1.515625,-2.58984375,1.0
