time,latitude,longitude,enu_x,enu_y,speed,course,ecg,accX,accY,accZ,gyrX,gyrY,gyrZ,eulR,eulP,eulY,validity
4537680,36.01307933333333,129.3201293333333,137.8675604967754,75.3793900665278,1.8,249.0,,-3.32421875,-14.62890625,5.45703125,0.755859375,0.5546875,0.08203125,1.69921875,-9.6171875,5.12109375,1.0
4537681,,,,,,,,-2.52734375,-18.06640625,10.0390625,-0.13671875,-0.109375,-0.22265625,2.46484375,-13.10546875,9.71875,1.0
4537682,,,,,,,,-1.8671875,-20.12109375,12.25390625,-0.19140625,-0.32421875,-0.232421875,3.1171875,-15.171875,11.94140625,1.0
4537683,,,,,,,,-1.15234375,-23.06640625,10.63671875,-0.291015625,-0.646484375,-0.51953125,3.80859375,-18.16015625,10.33203125,1.0
4537684,,,,,,,,0.1953125,-25.7578125,10.109375,-0.4140625,-0.595703125,-0.623046875,5.33984375,-21.11328125,9.10546875,1.0
4537685,,,,,,,,0.03515625,-25.03515625,9.36328125,-0.607421875,0.078125,-0.8046875,4.03515625,-19.08203125,9.14453125,1.0
4537686,,,,,,,,-0.80859375,-23.90234375,9.41015625,-0.576171875,0.181640625,-1.00390625,2.50390625,-18.5078125,8.83984375,1.0
4537687,,,,,,,,-2.390625,-25.33984375,9.0859375,-0.58203125,-0.251953125,-1.337890625,2.65625,-22.07421875,8.9921875,1.0
4537688,,,,,,,,0.11328125,-29.35546875,9.0703125,-0.67578125,-0.615234375,-1.43359375,4.80078125,-24.5546875,8.9140625,1.0
4537689,,,,,,,,1.1875,-30.046875,8.91015625,-0.712890625,-0.73828125,-1.53515625,5.8359375,-25.25,8.76171875,1.0
4537690,36.0130785,129.32012733333335,137.68726435324336,75.28692120256454,2.0,248.0,,-3.32421875,-14.62890625,5.45703125,-0.904296875,-0.79296875,-1.796875,1.69921875,-9.6171875,5.12109375,1.0
4537691,,,,,,,,2.921875,-27.08203125,7.7890625,-1.12890625,-0.39453125,-2.0703125,6.91015625,-21.2265625,7.0390625,1.0
4537692,,,,,,,,1.34765625,-24.0078125,5.890625,-1.42578125,-0.125,-2.208984375,5.72265625,-19.15625,5.8515625,1.0
4537693,,,,,,,,0.1015625,-21.61328125,4.2109375,-1.619140625,-0.12109375,-2.115234375,4.3828125,-16.74609375,4.2421875,1.0
4537694,,,,,,,,-0.2578125,-20.09375,3.16796875,-1.724609375,-0.2265625,-2.068359375,3.921875,-15.2109375,3.28515625,1.0
4537695,,,,,,,,-0.43359375,-17.57421875,1.921875,-1.7265625,-0.201171875,-2.09765625,3.65234375,-12.68359375,2.1328125,1.0
4537696,,,,,,,,-0.796875,-14.86328125,0.83984375,-1.75390625,-0.111328125,-2.099609375,3.1953125,-9.96484375,1.13671875,1.0
4537697,,,,,,,,-0.4296875,-13.4140625,0.2109375,-1.765625,0.02734375,-2.103515625,3.4609375,-8.51171875,0.6015625,1.0
4537698,,,,,,,,0.046875,-11.078125,0.5390625,-1.771484375,0.1953125,-2.0390625,3.84375,-6.17578125,1.0234375,1.0
4537699,,,,,,,,0.75390625,-9.26171875,0.53515625,-1.7734375,0.37109375,-1.875,4.4140625,-4.37109375,1.17578125,1.0
4537700,36.01307716666667,129.32012500000002,137.47691947481547,75.13897225204533,2.3000000000000003,243.0,0.0,0.94921875,-8.359375,0.16015625,-0.904296875,-0.79296875,-1.796875,1.69921875,-9.6171875,5.12109375,1.0
4537701,,,,,,,,0.67578125,-6.6484375,0.00390625,-1.716796875,0.66796875,-1.513671875,4.1875,-1.8046875,0.87109375,1.0
4537702,,,,,,,,0.3828125,-5.3828125,-0.296875,-1.59765625,0.62109375,-1.3046875,3.84375,-0.578125,0.6796875,1.0
4537703,,,,,,,,-0.6328125,-3.890625,-1.07421875,-1.453125,0.4296875,-1.033203125,2.77734375,0.875,-0.01171875,1.0
4537704,,,,,,,,-1.33203125,-3.2578125,-1.45703125,-1.3046875,0.2421875,-0.779296875,2.04296875,1.453125,-0.31640625,1.0
4537705,,,,,,,,-2.07421875,-3.42578125,-1.59765625,-1.12109375,0.091796875,-0.583984375,1.27734375,1.22265625,-0.39453125,1.0
4537706,,,,,,,,-2.21875,-3.6640625,-1.58984375,-1.037109375,0.0078125,-0.5390625,1.125,0.953125,-0.35546875,1.0
4537707,,,,,,,,-2.1796875,-4.4140625,-1.4375,-0.869140625,-0.158203125,-0.4453125,1.16796875,0.1484375,-0.1640625,1.0
4537708,,,,,,,,-2.140625,-4.265625,-1.30859375,-0.744140625,-0.314453125,-0.255859375,1.20703125,0.2265625,-0.01171875,1.0
4537709,,,,,,,,-2.50390625,-2.78515625,-0.82421875,-0.6796875,-0.404296875,-0.052734375,0.85546875,1.64453125,0.48828125,1.0
4537710,36.0130755,129.32012283333333,137.28159996283426,74.95403712477794,2.6,236.0,,-2.77734375,-1.98046875,-0.2265625,-0.904296875,-0.79296875,-1.796875,1.69921875,-9.6171875,5.12109375,1.0
4537711,,,,,,,,-3.7578125,-0.72265625,1.7109375,-0.640625,-0.375,0.052734375,-0.3671875,3.5546875,3.0546875,1.0
4537712,,,,,,,,-4.2890625,-0.390625,2.23828125,-0.509765625,-0.310546875,0.09765625,-0.8671875,3.7890625,3.58984375,1.0
4537713,,,,,,,,-4.234375,-0.62890625,1.578125,-0.388671875,-0.287109375,0.25,-0.7890625,3.4765625,2.9375,1.0
4537714,,,,,,,,-3.578125,-2.00390625,0.73828125,-0.302734375,-0.34375,0.51171875,-0.1015625,2.02734375,2.09375,1.0
4537715,,,,,,,,-2.92578125,-4.03515625,0.7734375,-0.22265625,-0.435546875,0.560546875,0.58984375,-0.08203125,2.13671875,1.0
4537716,,,,,,,,-2.34375,-9.94140625,1.5546875,-0.142578125,-0.466796875,0.396484375,1.203125,-6.05859375,2.8984375,1.0
4537717,,,,,,,,-2.30078125,-16.83203125,3.44140625,-0.021484375,-0.205078125,0.39453125,1.27734375,-13.02734375,4.77734375,1.0
4537718,,,,,,,,-7.953125,-33.16015625,13.01953125,0.01171875,0.33984375,0.515625,-4.3515625,-29.42578125,14.35546875,1.0
4537719,,,,,,,,-10.7265625,-44.19140625,17.67578125,0.033203125,0.943359375,0.587890625,-7.109375,-40.53125,19.02734375,1.0
4537720,36.01307366666666,129.3201205,137.07125593338594,74.750608561419,2.9000000000000004,232.0,,-5.5546875,-29.46875,14.3828125,-0.009765625,1.359375,0.427734375,-1.9375,-25.8984375,15.7734375,1.0
4537721,,,,,,,,0.46484375,-17.09375,3.90625,0.15234375,1.306640625,0.134765625,4.07421875,-13.6015625,5.3515625,1.0
4537722,,,,,,,,1.73046875,-18.640625,2.3359375,0.640625,0.814453125,-1.67578125,5.30078125,-15.2109375,3.8203125,1.0
4537723,,,,,,,,3.203125,-23.69921875,8.9921875,0.6953125,0.6875,-0.95703125,6.71875,-20.265625,10.484375,1.0
4537724,,,,,,,,2.7734375,-24.6015625,8.59375,0.333984375,-1.5078125,0.83984375,6.296875,-21.23046875,10.0625,1.0
4537725,,,,,,,,0.97265625,-22.68359375,5.71484375,0.43359375,-1.947265625,2.103515625,4.57421875,-19.42578125,7.11328125,1.0
4537726,,,,,,,,-1.7890625,-20.0078125,3.91796875,0.58203125,-0.8359375,2.529296875,1.8515625,-16.82421875,5.27734375,1.0
4537727,,,,,,,,-4.31640625,-17.36328125,2.73046875,0.626953125,1.134765625,2.41015625,-0.59765625,-14.328125,4.08984375,1.0
4537728,,,,,,,,-5.8671875,-14.578125,2.046875,0.93359375,1.052734375,2.25390625,-2.09375,-11.69140625,3.4375,1.0
4537729,,,,,,,,-6.14453125,-13.3203125,1.38671875,1.33203125,0.4453125,2.302734375,-2.32421875,-10.578125,2.78515625,1.0
4537730,36.01307216666667,129.32011816666667,136.86091131793486,74.58416641765247,2.8000000000000003,231.0,,-6.625,-11.1953125,0.5234375,1.65234375,0.26171875,2.462890625,-2.7421875,-8.58984375,1.90625,1.0
4537731,,,,,,,,-7.02734375,-9.3984375,0.390625,1.775390625,0.4609375,2.484375,-3.08984375,-6.9375,1.75,1.0
4537732,,,,,,,,-7.44921875,-6.26953125,0.4765625,1.87109375,0.740234375,2.37109375,-3.47265625,-3.94921875,1.828125,1.0
4537733,,,,,,,,-7.59375,-4.4609375,0.58984375,1.873046875,0.939453125,2.1171875,-3.58984375,-2.265625,1.94140625,1.0
4537734,,,,,,,,-7.5703125,-2.375,0.078125,1.72265625,1.1171875,1.986328125,-3.546875,-0.3125,1.4453125,1.0
4537735,,,,,,,,-7.65625,-1.26171875,-0.796875,1.447265625,1.169921875,2.021484375,-3.62890625,0.68359375,0.6015625,1.0
4537736,,,,,,,,-7.54296875,-1.04296875,-1.1171875,1.357421875,1.14453125,2.00390625,-3.51171875,0.83984375,0.296875,1.0
4537737,,,,,,,,-7.43359375,-0.65234375,-1.83984375,1.171875,1.0234375,1.921875,-3.39453125,1.10546875,-0.39453125,1.0
4537738,,,,,,,,-7.3203125,0.01171875,-2.4140625,0.998046875,0.798828125,1.763671875,-3.28125,1.64453125,-0.9296875,1.0
4537739,,,,,,,,-6.8515625,-0.38671875,-2.859375,0.86328125,0.52734375,1.619140625,-2.8203125,1.14453125,-1.3515625,1.0
4537740,36.013070500000005,129.32011599999998,136.66559178326793,74.39923130620829,2.9000000000000004,230.0,,-6.421875,-1.89453125,-3.41796875,0.748046875,0.345703125,1.482421875,-2.40234375,-0.46484375,-1.88671875,1.0
4537741,,,,,,,,-6.18359375,-3.31640625,-3.390625,0.68359375,0.31640625,1.236328125,-2.1640625,-1.99609375,-1.8515625,1.0
4537742,,,,,,,,-6.0546875,-4.49609375,-3.02734375,0.65234375,0.373046875,0.765625,-2.0546875,-3.26171875,-1.46484375,1.0
4537743,,,,,,,,-5.86328125,-4.65625,-2.9609375,0.6640625,0.4453125,0.47265625,-1.86328125,-3.45703125,-1.390625,1.0
4537744,,,,,,,,-5.15625,-3.4375,-2.2734375,0.673828125,0.705078125,-0.1796875,-1.2109375,-2.3046875,-0.6640625,1.0
4537745,,,,,,,,-4.19140625,-0.453125,-1.4296875,0.658203125,0.8125,-0.23046875,-0.29296875,0.65234375,0.21875,1.0
4537746,,,,,,,,-4.16796875,0.703125,-1.4453125,0.572265625,0.814453125,-0.302734375,-0.33203125,1.76171875,0.2578125,1.0
4537747,,,,,,,,-4.36328125,1.5390625,-1.5234375,0.505859375,0.623046875,-0.37890625,-0.55859375,2.5625,0.21875,1.0
4537748,,,,,,,,-4.45703125,1.5859375,-1.41796875,0.46484375,0.470703125,-0.427734375,-0.67578125,2.6015625,0.33203125,1.0
4537749,,,,,,,,-4.46484375,0.71875,-1.36328125,0.35546875,0.087890625,-0.568359375,-0.71484375,1.72265625,0.41015625,1.0
4537750,36.01306916666667,129.32011333333332,136.42519726212666,74.25128191151953,2.9000000000000004,233.0,,-4.77734375,-0.25390625,-0.78125,0.748046875,0.345703125,1.482421875,-2.40234375,-0.46484375,-1.88671875,1.0
4537751,,,,,,,,-6.02734375,-3.68359375,1.05859375,0.267578125,-0.642578125,-0.44921875,-2.32421875,-2.72265625,2.82421875,1.0
4537752,,,,,,,,-7.6953125,-9.8203125,3.53515625,0.2109375,-0.7578125,-0.33984375,-4.0078125,-8.89453125,5.27734375,1.0
4537753,,,,,,,,-5.83984375,-28.33203125,8.71875,0.154296875,-0.671875,-0.29296875,-2.16796875,-27.4296875,10.4453125,1.0
4537754,,,,,,,,4.89453125,-41.5859375,13.171875,0.140625,-0.412109375,-0.3203125,8.55859375,-40.7265625,14.890625,1.0
4537755,,,,,,,,11.08984375,-40.25,19.828125,0.13671875,-0.1171875,-0.65234375,14.72265625,-39.42578125,21.5546875,1.0
4537756,,,,,,,,-1.2890625,-17.44140625,9.1640625,0.296875,0.318359375,-1.572265625,2.3125,-16.625,10.90625,1.0
4537757,,,,,,,,-6.95703125,-16.4609375,4.078125,0.20703125,1.00390625,-1.876953125,-3.39453125,-15.63671875,5.8515625,1.0
4537758,,,,,,,,-4.03125,-21.81640625,2.98046875,-0.72265625,0.8125,-1.119140625,-0.5234375,-20.9921875,4.81640625,1.0
4537759,,,,,,,,-0.3671875,-24.65234375,7.63671875,-0.419921875,-1.27734375,-0.72265625,3.1171875,-23.87109375,9.48828125,1.0
4537760,36.01306783333334,129.32011066666666,136.18480273250742,74.10333252436136,2.9000000000000004,235.0,,-0.7890625,-23.68359375,8.359375,0.748046875,0.345703125,1.482421875,-2.40234375,-0.46484375,-1.88671875,1.0
4537761,,,,,,,,-0.390625,-19.1015625,4.76171875,-0.255859375,-1.92578125,-1.779296875,3.15625,-18.390625,6.46484375,1.0
4537762,,,,,,,,0.97265625,-16.67578125,2.19921875,-0.591796875,-0.1171875,-3.03125,4.49609375,-15.9375,3.89453125,1.0
4537763,,,,,,,,2.15234375,-16.078125,0.72265625,-0.982421875,0.263671875,-2.662109375,5.64453125,-15.33203125,2.44140625,1.0
4537764,,,,,,,,1.45703125,-15.91796875,0.765625,-1.453125,-0.234375,-1.755859375,4.41796875,-14.8671875,2.8984375,1.0
4537765,,,,,,,,0.125,-14.4609375,2.17578125,-1.705078125,-0.673828125,-1.802734375,3.578125,-13.76171875,3.93359375,1.0
4537766,,,,,,,,-0.6328125,-12.65234375,2.32421875,-1.732421875,-0.591796875,-2.033203125,2.8125,-11.95703125,4.08984375,1.0
4537767,,,,,,,,-0.765625,-10.7421875,1.6875,-1.6875,0.23828125,-2.21484375,2.65625,-10.08203125,3.4765625,1.0
4537768,,,,,,,,-0.2734375,-7.6171875,0.4609375,-1.65625,0.720703125,-1.9453125,3.1171875,-6.9765625,2.2890625,1.0
4537769,,,,,,,,0.0625,-4.75,-0.515625,-1.591796875,0.8359375,-1.6953125,3.421875,-4.14453125,1.3671875,1.0
4537770,36.013066,129.320108,135.94440905389885,73.89990352296316,3.0,234.0,,-0.6796875,-2.71875,-1.28125,0.748046875,0.345703125,1.482421875,2.66015625,-2.1484375,0.640625,1.0
4537771,,,,,,,,-1.19140625,-0.62890625,-2.80078125,-1.34375,0.30078125,-1.7109375,2.12109375,-0.08203125,-0.85546875,1.0
4537772,,,,,,,,-0.984375,0.26953125,-3.16796875,-1.08984375,-0.0703125,-1.599609375,2.31640625,0.76171875,-1.19921875,1.0
4537773,,,,,,,,-1.13671875,0.73828125,-3.05859375,-0.98046875,-0.146484375,-1.54296875,2.16015625,1.22265625,-1.08203125,1.0
4537774,,,,,,,,-1.25390625,1.2578125,-3.0234375,-0.8828125,-0.279296875,-1.451171875,2.04296875,1.71875,-1.046875,1.0
4537775,,,,,,,,-1.13671875,1.44921875,-3.3671875,-0.953125,-0.31640625,-1.478515625,2.12109375,1.796875,-1.46484375,1.0
4537776,,,,,,,,-1.328125,1.16796875,-3.78125,-0.884765625,-0.25390625,-1.478515625,1.8515625,1.14453125,-2.0390625,1.0
4537777,,,,,,,,-1.453125,0.1953125,-4.15625,-0.80078125,-0.259765625,-1.509765625,1.66015625,0.1484375,-2.19921875,1.0
4537778,,,,,,,,-1.87109375,-0.6328125,-4.0390625,-0.77734375,-0.28515625,-1.541015625,1.43359375,-0.2734375,-2.08203125,1.0
4537779,,,,,,,,-2.41796875,-1.23828125,-3.34375,-0.7421875,-0.384765625,-1.498046875,0.62890625,-1.0,-0.81640625,1.0
4537780,36.013064166666666,129.32010533333332,135.7040153617002,73.69647452613495,3.2,232.0,,-0.6796875,-2.71875,-1.28125,0.748046875,0.345703125,1.482421875,0.51171875,-0.578125,0.7890625,1.0
4537781,,,,,,,,-2.81640625,-0.38671875,-0.68359375,-0.703125,-0.466796875,-0.61328125,0.703125,0.609375,1.55859375,1.0
4537782,,,,,,,,-1.64453125,1.77734375,-0.40234375,-0.640625,-0.416015625,0.078125,1.69921875,2.0234375,1.51953125,1.0
4537783,,,,,,,,-0.3125,3.59375,-0.65234375,-0.591796875,-0.388671875,0.373046875,3.4609375,4.4765625,1.75,1.0
4537784,,,,,,,,-0.671875,4.20703125,-0.0625,-0.548828125,-0.435546875,0.12890625,2.6953125,4.32421875,1.828125,1.0
4537785,,,,,,,,-1.95703125,2.828125,-0.4609375,-0.4375,-0.556640625,-0.29296875,1.43359375,2.87109375,1.40625,1.0
4537786,,,,,,,,-2.38671875,1.97265625,-0.55859375,-0.36328125,-0.6171875,-0.40234375,1.01171875,1.98828125,1.29296875,1.0
4537787,,,,,,,,-3.62109375,-1.8125,-0.30859375,-0.248046875,-0.62109375,0.140625,-0.21484375,-1.84765625,1.51953125,1.0
4537788,,,,,,,,-4.21875,-14.16015625,3.77734375,-0.216796875,-0.421875,1.056640625,-0.7890625,-14.25,5.58203125,1.0
4537789,,,,,,,,-3.953125,-48.92578125,19.03125,-0.251953125,-0.021484375,1.38671875,-0.5234375,-49.109375,20.828125,1.0
4537790,36.01306233333333,129.320103,135.4936712658897,73.49304600098134,3.1,230.0,,-14.39453125,-47.015625,21.57421875,0.748046875,0.345703125,1.482421875,0.51171875,-0.578125,0.7890625,1.0
4537791,,,,,,,,-6.44140625,-24.59765625,15.3671875,-0.357421875,1.451171875,0.427734375,-3.05078125,-25.01953125,17.2265625,1.0
4537792,,,,,,,,1.328125,-7.56640625,-0.5859375,-0.43359375,1.916015625,-0.8515625,4.6875,-8.05078125,1.328125,1.0
4537793,,,,,,,,2.96875,-14.7109375,-1.23046875,0.564453125,1.93359375,-1.158203125,6.296875,-15.2109375,0.75390625,1.0
4537794,,,,,,,,0.921875,-17.4453125,3.90234375,0.935546875,-0.62109375,0.458984375,4.2265625,-17.96875,5.92578125,1.0
4537795,,,,,,,,0.90625,-22.75390625,9.34375,0.603515625,-3.95703125,0.705078125,4.265625,-23.33203125,11.2890625,1.0
4537796,,,,,,,,1.3125,-22.01171875,7.4609375,0.369140625,-2.671875,1.96875,4.7265625,-22.6796875,9.296875,1.0
4537797,,,,,,,,-0.7578125,-17.08203125,2.015625,0.421875,0.4765625,2.962890625,2.65625,-17.89453125,3.8203125,1.0
4537798,,,,,,,,-4.3046875,-13.25390625,0.046875,0.62109375,1.81640625,2.77734375,-0.9453125,-14.2109375,1.90625,1.0
4537799,,,,,,,,-6.1484375,-11.98046875,0.625,0.953125,1.451171875,2.626953125,-2.859375,-13.0625,2.5546875,1.0
4537800,36.013060833333334,129.32010066666666,135.28332659033111,73.326603895467,3.0,229.0,0.0,-7.44140625,-9.91015625,1.7578125,0.748046875,0.345703125,1.482421875,-4.19921875,-11.11328125,3.7421875,1.0
4537801,,,,,,,,-7.5859375,-7.73046875,0.73046875,1.91015625,-0.095703125,2.55859375,-4.390625,-9.04296875,2.74609375,1.0
4537802,,,,,,,,-7.6328125,-3.9609375,-0.39453125,2.349609375,0.345703125,2.388671875,-4.5078125,-5.41015625,1.67578125,1.0
4537803,,,,,,,,-7.6015625,-2.7734375,-0.3203125,2.3515625,0.52734375,2.146484375,-4.5078125,-4.2578125,1.7890625,1.0
4537804,,,,,,,,-7.4296875,0.125,-0.4609375,2.1953125,0.662109375,1.70703125,-4.39453125,-1.421875,1.7109375,1.0
4537805,,,,,,,,-6.9140625,1.40625,-0.7890625,1.955078125,0.6015625,1.509765625,-3.9296875,-0.1953125,1.4453125,1.0
4537806,,,,,,,,-5.94140625,2.37890625,-1.48828125,1.572265625,0.494140625,1.568359375,-3.0078125,0.72265625,0.79296875,1.0
4537807,,,,,,,,-5.80859375,2.90234375,-1.87890625,1.19921875,0.26953125,1.7578125,-2.93359375,1.18359375,0.44921875,1.0
4537808,,,,,,,,-5.359375,3.32421875,-2.28515625,1.05078125,0.13671875,1.822265625,-2.51953125,1.56640625,0.06640625,1.0
4537809,,,,,,,,-5.234375,3.44140625,-3.0078125,0.82421875,-0.087890625,1.857421875,-2.44140625,1.60546875,-0.625,1.0
4537810,36.01305883333334,129.32009866666667,135.1030323683541,73.10468263514014,3.2,227.0,,-5.140625,2.9453125,-3.94921875,0.748046875,0.345703125,1.482421875,-2.40234375,1.03125,-1.54296875,1.0
4537811,,,,,,,,-5.2109375,2.36328125,-3.92578125,0.650390625,-0.365234375,1.697265625,-2.515625,0.37890625,-1.50390625,1.0
4537812,,,,,,,,-5.27734375,1.62890625,-3.67578125,0.611328125,-0.41796875,1.564453125,-2.625,-0.42578125,-1.23828125,1.0
4537813,,,,,,,,-5.84375,0.04296875,-2.76171875,0.6328125,-0.388671875,1.240234375,-3.2421875,-2.07421875,-0.31640625,1.0
4537814,,,,,,,,-5.421875,-0.75,-2.48046875,0.65234375,-0.1875,0.837890625,-2.859375,-2.9140625,-0.01171875,1.0
4537815,,,,,,,,-4.4765625,0.14453125,-2.2421875,0.61328125,0.3359375,0.43359375,-1.9765625,-2.07421875,0.2578125,1.0
4537816,,,,,,,,-4.1953125,0.66015625,-2.3359375,0.626953125,0.48828125,0.296875,-1.71484375,-1.57421875,0.1796875,1.0
4537817,,,,,,,,-3.41796875,2.63671875,-2.49609375,0.580078125,0.6953125,0.03125,-0.9765625,0.37890625,0.06640625,1.0
4537818,,,,,,,,-2.98046875,4.421875,-2.58984375,0.482421875,0.60546875,-0.21484375,-0.59765625,2.140625,0.02734375,1.0
4537819,,,,,,,,-2.30078125,5.74609375,-2.8125,0.353515625,0.3125,-0.294921875,0.05078125,3.4375,-0.1640625,1.0
4537820,36.01305716666666,129.3200958333333,134.8476135453475,72.919746638883,3.3000000000000003,230.0,,-1.9765625,5.3046875,-2.94140625,0.271484375,0.001953125,-0.455078125,-2.40234375,1.03125,-1.54296875,1.0
4537821,,,,,,,,-2.15234375,0.828125,-2.19140625,0.220703125,-0.197265625,-0.798828125,0.16796875,-1.50390625,0.48828125,1.0
4537822,,,,,,,,-1.05859375,-11.390625,0.328125,0.146484375,-0.314453125,-1.181640625,1.27734375,-13.71875,3.015625,1.0
4537823,,,,,,,,-0.71875,-17.55859375,1.09375,0.111328125,-0.37109375,-1.33203125,1.625,-19.88671875,3.78125,1.0
4537824,,,,,,,,9.70703125,-42.1875,32.84375,0.025390625,-0.431640625,-1.291015625,12.08203125,-44.515625,35.5390625,1.0
4537825,,,,,,,,5.23828125,-27.5,13.3828125,0.025390625,-0.41796875,-0.994140625,7.63671875,-29.84375,16.078125,1.0
4537826,,,,,,,,-4.921875,-14.8359375,2.2734375,0.123046875,-0.517578125,-0.595703125,-2.515625,-17.203125,4.96875,1.0
4537827,,,,,,,,-6.4609375,-16.0078125,-0.5703125,0.107421875,-0.12109375,-1.04296875,-4.046875,-18.39453125,2.1328125,1.0
4537828,,,,,,,,-1.40234375,-19.41015625,2.94140625,-0.388671875,1.03515625,-1.3203125,1.01171875,-21.796875,5.66015625,1.0
4537829,,,,,,,,0.83203125,-20.99609375,6.39453125,-0.71875,1.0546875,-1.8203125,3.23046875,-23.40625,9.14453125,1.0
4537830,36.01305516666666,129.32009266666668,134.56214567771755,72.69782377587437,3.5,232.0,,-1.3515625,-21.72265625,7.3515625,-0.306640625,-3.0390625,-0.775390625,1.125,-24.171875,10.0625,1.0
4537831,,,,,,,,-1.7421875,-18.3359375,4.11328125,-0.57421875,-1.2734375,-2.52734375,0.8203125,-20.8046875,6.76953125,1.0
4537832,,,,,,,,-0.20703125,-14.24609375,1.1875,-0.98828125,0.453125,-3.001953125,2.42578125,-16.703125,3.8203125,1.0
4537833,,,,,,,,0.7890625,-10.8671875,0.2578125,-1.4140625,0.57421875,-2.1796875,3.4609375,-13.33984375,2.8984375,1.0
4537834,,,,,,,,0.54296875,-9.65625,0.60546875,-1.8203125,-0.37109375,-2.15234375,3.26953125,-12.19140625,3.20703125,1.0
4537835,,,,,,,,0.7265625,-6.88671875,-0.0078125,-1.900390625,-0.20703125,-2.240234375,3.5390625,-9.4609375,2.515625,1.0
4537836,,,,,,,,1.21484375,-4.359375,-0.93359375,-1.919921875,0.1796875,-2.05859375,4.07421875,-6.98046875,1.55859375,1.0
4537837,,,,,,,,1.0625,-2.51953125,-1.359375,-1.8984375,0.423828125,-1.82421875,3.9609375,-5.171875,1.1015625,1.0
4537838,,,,,,,,1.03125,0.390625,-2.01171875,-1.814453125,0.44921875,-1.673828125,3.9609375,-2.3046875,0.41015625,1.0
4537839,,,,,,,,0.5390625,2.4296875,-2.33203125,-1.634765625,0.369140625,-1.55078125,3.50390625,-0.3125,0.06640625,1.0
4537840,36.01305333333333,129.3200901666667,134.33677672691124,72.49439504867841,3.4000000000000004,231.0,,0.46875,3.92578125,-3.18359375,-1.443359375,0.232421875,-1.3515625,3.46484375,1.14453125,-0.81640625,1.0
4537841,,,,,,,,0.09375,5.375,-3.80078125,-1.271484375,0.078125,-1.140625,3.1171875,2.5625,-1.46484375,1.0
4537842,,,,,,,,-0.3125,5.765625,-4.1171875,-1.083984375,-0.037109375,-1.056640625,2.734375,2.91015625,-1.8125,1.0
4537843,,,,,,,,-0.63671875,5.7421875,-4.3671875,-0.984375,-0.072265625,-1.068359375,2.42578125,2.8671875,-2.078125,1.0
4537844,,,,,,,,-1.05859375,4.81640625,-4.57421875,-0.84375,-0.10546875,-1.146484375,2.04296875,1.91015625,-2.30859375,1.0
4537845,,,,,,,,-1.05078125,2.15234375,-4.28515625,-0.693359375,-0.119140625,-1.138671875,2.08203125,-0.76953125,-2.04296875,1.0
4537846,,,,,,,,-0.74609375,-0.0859375,-3.5234375,-0.548828125,-0.166015625,-0.9921875,2.42578125,-3.03125,-1.3125,1.0
4537847,,,,,,,,-1.88671875,0.47265625,-2.6953125,-0.3984375,-0.216796875,-0.58984375,1.31640625,-2.4921875,-0.5078125,1.0
4537848,,,,,,,,-2.35546875,1.1796875,-2.3828125,-0.34375,-0.2578125,-0.328125,0.85546875,-1.8046875,-0.203125,1.0
4537849,,,,,,,,-3.2421875,2.3671875,-1.8984375,-0.294921875,-0.337890625,0.15625,-0.0234375,-0.66015625,0.2578125,1.0
4537850,36.01305133333334,129.32008733333333,134.08135843667216,72.27247266213202,3.5,230.0,,-4.60546875,5.91015625,-1.40625,-1.443359375,0.232421875,-1.3515625,-1.40234375,2.79296875,0.71875,1.0
4537851,,,,,,,,-4.46875,7.625,-0.734375,-0.220703125,-0.470703125,1.125,-1.2890625,4.4375,1.3671875,1.0
4537852,,,,,,,,-4.63671875,8.34765625,0.78515625,-0.263671875,-0.41015625,0.974609375,-1.48046875,5.0859375,2.86328125,1.0
4537853,,,,,,,,-4.296875,7.453125,1.53515625,-0.30078125,-0.388671875,0.80078125,-1.171875,4.13671875,3.58984375,1.0
4537854,,,,,,,,-2.25390625,4.10546875,2.44140625,-0.330078125,-0.412109375,0.71484375,0.85546875,0.72265625,4.47265625,1.0
4537855,,,,,,,,-0.6953125,-0.88671875,2.46484375,-0.349609375,-0.310546875,0.642578125,2.390625,-4.33203125,4.46875,1.0
4537856,,,,,,,,-0.44921875,-11.59765625,5.20703125,-0.228515625,-0.076171875,0.3828125,2.62109375,-15.09765625,7.19140625,1.0
4537857,,,,,,,,-5.30859375,-41.9375,18.890625,-0.140625,0.21875,-0.09765625,-2.24609375,-45.48046875,20.8671875,1.0
4537858,,,,,,,,-14.1875,-52.71484375,17.53515625,-0.103515625,0.8203125,-0.341796875,-11.1328125,-56.2734375,19.52734375,1.0
4537859,,,,,,,,-5.4296875,-20.95703125,15.34765625,-0.138671875,1.923828125,0.099609375,-2.3984375,-24.55859375,17.37890625,1.0
4537860,36.01304883333333,129.3200845,133.82594098100597,71.99507066039308,3.5,227.0,,2.9921875,-4.9765625,-2.578125,-1.443359375,0.232421875,-1.3515625,-1.40234375,2.79296875,0.71875,1.0
4537861,,,,,,,,4.30859375,-12.67578125,-3.73828125,0.6875,1.884765625,-0.37109375,7.21484375,-16.359375,-1.54296875,1.0
4537862,,,,,,,,4.36328125,-17.9921875,4.43359375,0.78125,0.01953125,-0.01171875,7.25390625,-21.69140625,6.69140625,1.0
4537863,,,,,,,,4.578125,-20.171875,7.828125,0.24609375,-3.1640625,0.7734375,7.484375,-23.91015625,10.0625,1.0
4537864,,,,,,,,1.765625,-18.140625,5.6171875,0.17578125,-2.779296875,2.103515625,4.6875,-21.95703125,7.765625,1.0
4537865,,,,,,,,-0.8203125,-14.453125,2.30078125,0.287109375,0.404296875,3.078125,2.0078125,-18.39453125,4.43359375,1.0
4537866,,,,,,,,-2.97265625,-11.640625,0.40625,0.4453125,1.271484375,3.154296875,-0.21484375,-15.63671875,2.5546875,1.0
4537867,,,,,,,,-4.50390625,-9.953125,-0.62109375,0.767578125,1.220703125,3.25390625,-1.90234375,-14.06640625,1.59765625,1.0
4537868,,,,,,,,-5.296875,-8.40234375,-0.5703125,1.29296875,0.31640625,3.052734375,-2.859375,-12.60546875,1.7109375,1.0
4537869,,,,,,,,-5.65234375,-7.28515625,0.2421875,1.724609375,-0.369140625,2.935546875,-3.35546875,-11.57421875,2.59375,1.0
4537870,36.013046833333334,129.320082,133.6005722765774,71.77314874567281,3.4000000000000004,226.0,,-6.4140625,-3.4375,-0.44140625,1.943359375,-0.208984375,3.123046875,-1.40234375,2.79296875,0.71875,1.0
4537871,,,,,,,,-6.06640625,1.55078125,-1.65234375,1.927734375,0.2578125,2.9609375,-4.12109375,-2.87890625,0.91015625,1.0
4537872,,,,,,,,-5.7734375,3.73828125,-1.90234375,1.84765625,0.548828125,2.671875,-3.97265625,-0.73046875,0.75390625,1.0
4537873,,,,,,,,-5.6484375,5.1015625,-1.88671875,1.78515625,0.56640625,2.533203125,-3.9296875,0.609375,0.83203125,1.0
4537874,,,,,,,,-5.484375,6.79296875,-1.7421875,1.392578125,0.419921875,2.48046875,-3.97265625,2.25390625,1.1015625,1.0
4537875,,,,,,,,-4.9140625,8.3828125,-2.7265625,1.068359375,0.16015625,2.7421875,-3.625,3.7890625,0.21875,1.0
4537876,,,,,,,,-4.54296875,8.40625,-4.54296875,0.955078125,0.0078125,2.681640625,-3.39453125,3.7890625,-1.54296875,1.0
4537877,,,,,,,,-4.6328125,7.59375,-5.47265625,0.8671875,-0.11328125,2.388671875,-3.625,2.9453125,-2.42578125,1.0
4537878,,,,,,,,-4.68359375,6.94921875,-5.72265625,0.80859375,-0.1640625,2.15234375,-3.73828125,2.29296875,-2.65234375,1.0
4537879,,,,,,,,-5.15625,4.015625,-5.76171875,0.71875,-0.23046875,1.630859375,-4.31640625,-0.65625,-2.65234375,1.0
4537880,36.0130445,129.320079,133.3301297029695,71.51423973714392,3.7,226.0,,-5.109375,2.19921875,-5.0,1.943359375,-0.208984375,3.123046875,-4.3515625,-2.49609375,-1.8515625,1.0
4537881,,,,,,,,-4.42578125,1.3984375,-3.96484375,0.66015625,0.123046875,0.79296875,-3.73828125,-3.296875,-0.77734375,1.0
4537882,,,,,,,,-3.24609375,1.82421875,-3.17578125,0.625,0.296875,0.658203125,-2.58984375,-2.875,0.02734375,1.0
4537883,,,,,,,,-1.8125,2.67578125,-2.640625,0.51171875,0.6640625,0.427734375,-1.2109375,-2.03125,0.6015625,1.0
4537884,,,,,,,,0.82421875,4.63671875,-2.39453125,0.396484375,0.92578125,0.28515625,1.35546875,-0.08203125,0.87109375,1.0
4537885,,,,,,,,1.8671875,5.57421875,-2.59375,0.33203125,0.87109375,-0.296875,2.3125,0.83984375,0.71875,1.0
4537886,,,,,,,,1.953125,6.4921875,-2.52734375,0.341796875,0.75390625,-0.58203125,2.390625,1.7578125,0.79296875,1.0
4537887,,,,,,,,-0.03125,7.06640625,-1.859375,0.404296875,0.376953125,-1.0078125,0.3984375,2.33203125,1.484375,1.0
4537888,,,,,,,,-3.6015625,6.33203125,0.12890625,0.515625,-0.2890625,-1.076171875,-3.125,1.60546875,3.5078125,1.0
4537889,,,,,,,,-5.265625,5.7578125,1.68359375,0.51953125,-0.490234375,-0.8671875,-4.7734375,1.03125,5.08203125,1.0
4537890,36.01304283333333,129.320076,133.0596859916109,71.3293035657541,3.5,229.0,,-9.00390625,2.73046875,6.06640625,1.943359375,-0.208984375,3.123046875,-4.3515625,-2.49609375,-1.8515625,1.0
4537891,,,,,,,,-5.51171875,-4.703125,-0.31640625,0.41015625,-0.810546875,0.75,-5.00390625,-9.4296875,3.12890625,1.0
4537892,,,,,,,,4.984375,-29.5234375,1.0859375,0.267578125,-0.720703125,0.869140625,5.453125,-34.25,4.546875,1.0
4537893,,,,,,,,15.7734375,-51.98828125,9.57421875,0.169921875,-0.501953125,0.01953125,16.21875,-56.73828125,13.05078125,1.0
4537894,,,,,,,,8.41796875,-31.171875,26.19140625,0.103515625,-0.173828125,-1.70703125,8.90234375,-35.9375,29.67578125,1.0
4537895,,,,,,,,-3.21484375,-7.7578125,-0.31640625,0.115234375,0.275390625,-1.88671875,-2.55078125,-12.53515625,3.20703125,1.0
4537896,,,,,,,,-2.91796875,-15.73828125,-2.27734375,-0.279296875,1.2578125,0.08203125,-2.24609375,-20.53515625,1.25390625,1.0
4537897,,,,,,,,-2.76953125,-15.04296875,1.859375,-0.57421875,0.716796875,-0.515625,-2.16796875,-19.88671875,5.390625,1.0
4537898,,,,,,,,-0.23046875,-15.70703125,5.55078125,-0.001953125,-3.73828125,-1.478515625,0.47265625,-20.5703125,9.06640625,1.0
4537899,,,,,,,,0.9921875,-14.34375,2.89453125,0.0,-2.67578125,-2.2421875,1.890625,-19.234375,6.38671875,1.0
4537900,36.013041,129.32007316666667,132.80426735884066,71.12587442296122,3.3000000000000003,231.0,0.0,2.71484375,-10.92578125,-0.890625,-0.50390625,-0.216796875,-2.78125,3.76953125,-15.82421875,2.59375,1.0
4537901,,,,,,,,3.0625,-9.70703125,-1.7421875,-1.017578125,0.765625,-2.74609375,4.2265625,-14.63671875,1.7109375,1.0
4537902,,,,,,,,2.84765625,-8.7109375,-0.70703125,-1.248046875,0.19140625,-2.36328125,4.11328125,-13.68359375,2.70703125,1.0
4537903,,,,,,,,2.43359375,-7.015625,0.27734375,-1.396484375,-0.458984375,-2.12890625,3.80859375,-12.03125,3.62890625,1.0
4537904,,,,,,,,1.74609375,-3.8984375,-0.16015625,-1.50390625,-0.36328125,-2.22265625,3.23046875,-8.97265625,3.12890625,1.0
4537905,,,,,,,,1.59375,-0.48046875,-1.34375,-1.603515625,0.1171875,-2.240234375,3.1953125,-5.59765625,1.8671875,1.0
4537906,,,,,,,,1.765625,0.578125,-1.61328125,-1.626953125,0.3125,-2.146484375,3.421875,-4.5625,1.55859375,1.0
4537907,,,,,,,,1.8359375,3.49609375,-2.078125,-1.576171875,0.458984375,-1.927734375,3.58203125,-1.69140625,1.0234375,1.0
4537908,,,,,,,,1.640625,5.078125,-2.62890625,-1.40625,0.3359375,-1.876953125,3.46484375,-0.15625,0.41015625,1.0
4537909,,,,,,,,1.203125,6.71875,-3.5625,-1.25390625,0.095703125,-1.90234375,3.1171875,1.453125,-0.5859375,1.0
4537910,36.013039000000006,129.32007033333332,132.54884899022412,70.90395208124025,3.5,231.0,,0.6875,7.3984375,-4.07421875,-0.50390625,-0.216796875,-2.78125,2.69921875,2.1015625,-1.16015625,1.0
4537911,,,,,,,,0.2578125,8.3125,-4.43359375,-0.916015625,-0.259765625,-1.41796875,2.3515625,2.984375,-1.58203125,1.0
4537912,,,,,,,,0.37109375,8.359375,-4.72265625,-0.859375,-0.30078125,-1.22265625,2.50390625,3.0234375,-1.88671875,1.0
4537913,,,,,,,,1.07421875,7.69921875,-4.9375,-0.787109375,-0.3046875,-0.91796875,3.265625,2.33203125,-2.15625,1.0
4537914,,,,,,,,2.22265625,5.31640625,-5.25,-0.7265625,-0.162109375,-0.8046875,4.4921875,-0.08203125,-2.5390625,1.0
4537915,,,,,,,,1.80859375,3.48046875,-4.99609375,-0.693359375,-0.056640625,-1.06640625,4.1484375,-1.95703125,-2.34765625,1.0
4537916,,,,,,,,1.1171875,3.48828125,-4.4453125,-0.671875,-0.037109375,-1.083984375,3.50390625,-1.95703125,-1.8125,1.0
4537917,,,,,,,,-1.08203125,3.9609375,-2.65234375,-0.564453125,-0.03125,-0.94140625,1.35546875,-1.50390625,-0.05078125,1.0
4537918,,,,,,,,-2.65234375,4.546875,-1.39453125,-0.47265625,-0.056640625,-0.525390625,-0.17578125,-0.921875,1.171875,1.0
4537919,,,,,,,,-4.0390625,5.51953125,-0.15234375,-0.431640625,-0.0625,-0.1640625,-1.5546875,0.03515625,2.3984375,1.0
4537920,36.01303666666667,129.32006733333336,132.27840636282855,70.64504310610515,3.6,229.0,,-6.015625,7.92578125,2.828125,-0.50390625,-0.216796875,-2.78125,2.69921875,2.1015625,-1.16015625,1.0
4537921,,,,,,,,-5.234375,9.48046875,2.09375,-0.50390625,-0.0546875,1.28125,-2.8203125,3.90234375,4.58984375,1.0
4537922,,,,,,,,-2.78125,8.6953125,1.14453125,-0.537109375,-0.205078125,1.5234375,-0.484375,3.0234375,3.58984375,1.0
4537923,,,,,,,,-1.66796875,5.76953125,0.80078125,-0.517578125,-0.439453125,1.208984375,0.55078125,0.03515625,3.203125,1.0
4537924,,,,,,,,-2.48046875,-8.05859375,3.7890625,-0.431640625,-0.7265625,0.294921875,-0.29296875,-13.828125,6.15625,1.0
4537925,,,,,,,,-7.21484375,-28.26171875,13.86328125,-0.26171875,-0.841796875,-0.337890625,-5.00390625,-34.05859375,16.19140625,1.0
4537926,,,,,,,,-11.484375,-52.1953125,17.44140625,-0.166015625,-0.71484375,-0.412109375,-9.2578125,-58.00390625,19.75390625,1.0
4537927,,,,,,,,-7.9453125,-40.765625,20.33203125,-0.064453125,0.0390625,-0.146484375,-5.6953125,-46.58984375,22.62890625,1.0
4537928,,,,,,,,3.3046875,-4.04296875,1.0078125,-0.076171875,1.177734375,0.1171875,5.53125,-9.8828125,3.3203125,1.0
4537929,,,,,,,,4.03125,-8.3046875,-4.5078125,0.09375,1.833984375,-0.232421875,6.21875,-14.1796875,-2.15625,1.0
4537930,36.013034166666664,129.32006416666667,131.99293918279494,70.36764070483042,3.7,227.0,,3.56640625,-14.44140625,-0.1953125,-0.50390625,-0.216796875,-2.78125,2.69921875,2.1015625,-1.16015625,1.0
4537931,,,,,,,,6.25390625,-18.81640625,8.32421875,0.271484375,0.0546875,-0.103515625,8.48046875,-24.67578125,10.79296875,1.0
4537932,,,,,,,,3.37109375,-17.58984375,6.24609375,0.201171875,-3.32421875,1.224609375,5.60546875,-23.48828125,8.68359375,1.0
4537933,,,,,,,,2.19921875,-16.0625,4.36328125,0.119140625,-2.958984375,1.978515625,4.41796875,-21.9921875,6.76953125,1.0
4537934,,,,,,,,-1.625,-10.8203125,-0.08203125,0.4765625,1.095703125,2.564453125,0.3984375,-16.859375,2.32421875,1.0
4537935,,,,,,,,-3.19921875,-8.65234375,-0.96484375,0.849609375,1.57421875,2.677734375,-1.36328125,-14.75390625,1.51953125,1.0
4537936,,,,,,,,-4.26171875,-6.06640625,0.109375,1.43359375,0.0234375,2.75390625,-2.8203125,-12.109375,3.09375,1.0
4537937,,,,,,,,-5.0,-5.23046875,0.4296875,1.703125,-0.353515625,2.76953125,-4.046875,-10.078125,2.515625,1.0
4537938,,,,,,,,-5.328125,-3.875,-0.25,1.724609375,-0.2109375,2.845703125,-4.390625,-8.9296875,2.32421875,1.0
4537939,,,,,,,,-5.9453125,0.046875,-1.24609375,1.849609375,0.298828125,2.8125,-4.8515625,-6.17578125,1.63671875,1.0
4537940,36.01303216666667,129.32006166666667,131.76757039255733,70.14571883755607,3.4000000000000004,227.0,,-6.0625,4.0,-1.9453125,-0.50390625,-0.216796875,-2.78125,-5.16015625,-2.2265625,1.0625,1.0
4537941,,,,,,,,-5.4453125,7.26953125,-1.859375,1.375,0.59765625,2.314453125,-4.890625,1.06640625,1.3671875,1.0
4537942,,,,,,,,-4.66796875,8.98828125,-1.796875,1.25390625,0.548828125,2.326171875,-4.1953125,2.79296875,1.484375,1.0
4537943,,,,,,,,-4.11328125,10.05078125,-2.51953125,1.015625,0.427734375,2.3515625,-3.81640625,3.859375,0.83203125,1.0
4537944,,,,,,,,-3.9140625,10.2421875,-2.98046875,0.8984375,0.33984375,2.310546875,-3.703125,4.05859375,0.41015625,1.0
4537945,,,,,,,,-3.40234375,10.19921875,-3.984375,0.693359375,0.1953125,2.15234375,-3.35546875,4.01953125,-0.546875,1.0
4537946,,,,,,,,-2.90234375,7.203125,-5.3515625,0.505859375,0.001953125,1.505859375,-3.046875,1.03125,-1.8515625,1.0
4537947,,,,,,,,-2.6953125,6.0234375,-5.51953125,0.470703125,-0.064453125,1.23828125,-2.8984375,-0.15625,-2.00390625,1.0
4537948,,,,,,,,-2.2421875,3.6328125,-5.01953125,0.474609375,-0.10546875,0.6484375,-2.515625,-2.53515625,-1.46484375,1.0
4537949,,,,,,,,-1.44921875,3.32421875,-4.80859375,0.466796875,-0.078125,0.369140625,-1.74609375,-2.8359375,-1.23828125,1.0
4537950,36.013029833333334,129.32005883333335,131.51215252550355,69.88681011145407,3.6,226.0,,-0.70703125,3.40234375,-4.39453125,-0.50390625,-0.216796875,-2.78125,-5.16015625,-2.2265625,1.0625,1.0
4537951,,,,,,,,0.79296875,4.2890625,-3.8359375,0.173828125,0.693359375,-0.6875,0.47265625,-1.88671875,-0.203125,1.0
4537952,,,,,,,,2.3203125,5.640625,-3.19140625,0.1484375,1.0078125,-0.84375,2.01171875,-0.5390625,0.44921875,1.0
4537953,,,,,,,,1.890625,7.21875,-2.42578125,0.208984375,1.009765625,-0.916015625,1.58984375,1.03125,1.21484375,1.0
4537954,,,,,,,,0.6953125,7.90625,-2.10546875,0.333984375,0.7578125,-0.88671875,0.3984375,1.71875,1.55859375,1.0
4537955,,,,,,,,-1.7421875,7.5625,-2.25,0.41015625,0.060546875,-0.486328125,-2.01953125,1.375,1.4453125,1.0
4537956,,,,,,,,-2.8984375,6.75,-1.8671875,0.45703125,-0.623046875,0.25,-3.16796875,0.5703125,1.8671875,1.0
4537957,,,,,,,,-4.27734375,4.63671875,0.515625,0.40234375,-0.927734375,0.41796875,-4.54296875,-1.53515625,4.28125,1.0
4537958,,,,,,,,-4.35546875,-4.4609375,0.98046875,0.318359375,-1.00390625,0.28515625,-4.62109375,-10.62109375,4.77734375,1.0
4537959,,,,,,,,-3.60546875,-8.86328125,0.96484375,0.275390625,-0.728515625,-0.19140625,-1.13671875,-22.21875,5.96484375,1.0
4537960,36.013028,129.3200555,131.21165938311168,69.68338034073174,3.6,228.0,,11.54296875,-38.4765625,7.4140625,0.234375,-0.44921875,-0.673828125,-5.16015625,-2.2265625,1.0625,1.0
4537961,,,,,,,,19.1953125,-51.9921875,19.12109375,0.197265625,-0.140625,-1.498046875,19.015625,-58.15625,22.97265625,1.0
4537962,,,,,,,,8.8828125,-27.3984375,22.859375,0.1953125,0.044921875,-1.94921875,8.75,-33.56640625,26.7265625,1.0
4537963,,,,,,,,1.6171875,-9.875,6.6015625,0.1796875,0.314453125,-1.998046875,-1.13671875,-11.953125,5.58203125,1.0
4537964,,,,,,,,-1.16015625,-5.76953125,1.69140625,-0.025390625,0.416015625,-1.298828125,-2.859375,-16.96875,1.1015625,1.0
4537965,,,,,,,,-3.01171875,-13.69140625,-2.0234375,-0.466796875,0.9765625,0.32421875,-3.51171875,-20.7265625,3.89453125,1.0
4537966,,,,,,,,-3.57421875,-14.51171875,0.00390625,-0.384765625,0.78515625,0.109375,-2.66796875,-21.6875,8.0703125,1.0
4537967,,,,,,,,-0.8984375,-16.34765625,6.234375,0.216796875,-3.36328125,-1.671875,0.8203125,-20.8828125,7.3046875,1.0
4537968,,,,,,,,0.515625,-14.59375,3.4453125,0.0234375,-1.927734375,-2.20703125,1.77734375,-18.46875,4.5859375,1.0
4537969,,,,,,,,1.60546875,-10.2109375,-0.953125,-0.529296875,0.166015625,-2.677734375,2.19921875,-16.51953125,2.8984375,1.0
4537970,36.01302583333334,129.3200525,130.9412164000512,69.4429646146131,3.5,230.0,,2.109375,-9.421875,-1.28125,-0.794921875,0.439453125,-2.712890625,2.7734375,-15.75,2.5546875,1.0
4537971,,,,,,,,2.80078125,-8.20703125,-0.3515625,-1.15234375,-0.173828125,-2.271484375,3.69140625,-14.59765625,3.3984375,1.0
4537972,,,,,,,,2.4296875,-5.671875,-0.234375,-1.263671875,-0.36328125,-2.0390625,3.4609375,-12.109375,3.4375,1.0
4537973,,,,,,,,2.25,-3.35546875,-0.9921875,-1.404296875,0.041015625,-2.1484375,3.421875,-9.84375,2.59375,1.0
4537974,,,,,,,,2.625,0.13671875,-2.24609375,-1.51171875,0.455078125,-2.13671875,3.921875,-6.40234375,1.25390625,1.0
4537975,,,,,,,,2.62890625,4.828125,-2.15234375,-1.35546875,0.28125,-1.7421875,4.1484375,-1.8046875,1.17578125,1.0
4537976,,,,,,,,2.08203125,6.30078125,-2.06640625,-1.271484375,0.185546875,-1.734375,3.65234375,-0.34765625,1.21484375,1.0
4537977,,,,,,,,1.09375,7.87109375,-3.3359375,-1.11328125,0.064453125,-1.703125,2.7734375,1.18359375,-0.125,1.0
4537978,,,,,,,,0.546875,9.34375,-4.37109375,-0.939453125,-0.001953125,-1.49609375,2.3515625,2.640625,-1.23828125,1.0
4537979,,,,,,,,0.23828125,9.80078125,-4.484375,-0.74609375,-0.173828125,-0.990234375,2.16015625,3.0546875,-1.4296875,1.0
4537980,36.013023833333335,129.32004916666668,130.64072350659305,69.22104165652843,3.8000000000000003,230.0,,1.69921875,8.75390625,-5.01171875,-0.65234375,-0.3515625,-0.802734375,3.6875,1.98828125,-2.00390625,1.0
4537981,,,,,,,,2.6796875,7.2734375,-5.76171875,-0.642578125,-0.4609375,-0.72265625,4.73046875,0.4921875,-2.80859375,1.0
4537982,,,,,,,,3.16796875,6.25,-6.12109375,-0.62890625,-0.458984375,-0.734375,5.2578125,-0.5390625,-3.19140625,1.0
4537983,,,,,,,,3.609375,4.28125,-6.46484375,-0.5234375,-0.349609375,-0.837890625,5.80078125,-2.53125,-3.61328125,1.0
4537984,,,,,,,,0.46875,6.125,-4.5859375,-0.45703125,-0.259765625,-0.982421875,2.73828125,-0.6953125,-1.7734375,1.0
4537985,,,,,,,,-2.66796875,7.88671875,-2.0546875,-0.37890625,-0.14453125,-0.908203125,-0.33203125,1.06640625,0.71875,1.0
4537986,,,,,,,,-3.609375,8.2734375,-1.2734375,-0.357421875,-0.078125,-0.6640625,-1.25,1.453125,1.48828125,1.0
4537987,,,,,,,,-5.96875,8.9765625,2.08984375,-0.296875,0.076171875,0.3046875,-3.5859375,2.140625,4.8125,1.0
4537988,,,,,,,,-6.40625,10.1171875,2.7578125,-0.2734375,0.205078125,1.33984375,-4.0859375,3.25,5.46875,1.0
4537989,,,,,,,,-4.37109375,10.71875,0.93359375,-0.400390625,0.203125,1.94921875,-2.16796875,3.7890625,3.62890625,1.0
4537990,36.01302166666667,129.32004633333332,130.38530530220953,68.98062617060101,3.6,229.0,,-1.58984375,10.6640625,-1.36328125,-0.431640625,0.111328125,1.99609375,3.6875,1.98828125,-2.00390625,1.0
4537991,,,,,,,,-0.93359375,8.64453125,-2.03125,-0.345703125,-0.01171875,1.09375,1.01171875,1.6015625,0.6015625,1.0
4537992,,,,,,,,-1.36328125,4.60546875,0.3359375,-0.1640625,-0.171875,-0.029296875,0.55078125,-2.45703125,2.94140625,1.0
4537993,,,,,,,,-0.99609375,-0.2578125,-1.953125,0.041015625,-0.267578125,-0.1796875,0.93359375,-7.32421875,0.640625,1.0
4537994,,,,,,,,-1.72265625,-22.70703125,3.01953125,0.15234375,-0.189453125,0.255859375,0.20703125,-29.765625,5.62109375,1.0
4537995,,,,,,,,-8.234375,-52.30078125,14.77734375,0.19140625,0.142578125,0.70703125,-6.34375,-59.37890625,17.37890625,1.0
4537996,,,,,,,,-12.5703125,-61.13671875,21.859375,0.208984375,0.373046875,0.853515625,-10.7109375,-68.23046875,24.46875,1.0
4537997,,,,,,,,-6.36328125,-21.80859375,17.8046875,0.255859375,0.955078125,0.896484375,-4.58203125,-28.921875,20.4453125,1.0
4537998,,,,,,,,1.16796875,-3.24609375,-0.32421875,0.306640625,1.42578125,0.916015625,2.84765625,-10.3828125,2.36328125,1.0
4537999,,,,,,,,6.3515625,-8.40234375,-6.5390625,0.498046875,1.5859375,-0.013671875,7.9453125,-15.5546875,-3.8046875,1.0
4538000,36.01301933333333,129.32004366666666,130.14491217097628,68.72171770771642,3.5,227.0,0.0,6.88671875,-14.0546875,0.875,0.72265625,1.03125,0.375,7.90625,-23.5625,7.87890625,1.0
4538001,,,,,,,,4.2578125,-17.41015625,8.90625,0.28125,-3.849609375,1.17578125,5.8359375,-24.55859375,11.7890625,1.0
4538002,,,,,,,,3.9453125,-15.82421875,7.6640625,0.087890625,-4.0546875,1.330078125,5.53125,-22.98828125,10.5234375,1.0
4538003,,,,,,,,1.41796875,-10.3828125,1.86328125,0.384765625,-1.197265625,2.150390625,2.96484375,-17.58984375,4.69921875,1.0
4538004,,,,,,,,-0.21875,-7.92578125,-1.66015625,0.52734375,1.791015625,2.828125,1.125,-15.171875,1.21484375,1.0
4538005,,,,,,,,-2.52734375,-6.015625,-1.65234375,1.1484375,0.638671875,2.587890625,-2.62890625,-11.49609375,2.48046875,1.0
4538006,,,,,,,,-3.49609375,-4.20703125,-0.56640625,1.337890625,-0.029296875,2.4296875,-3.35546875,-9.43359375,3.28515625,1.0
4538007,,,,,,,,-4.25390625,-0.3984375,-0.3359375,1.80078125,-0.078125,2.71875,-3.73828125,-7.6640625,2.9375,1.0
4538008,,,,,,,,-4.08984375,2.75,-1.5078125,1.9375,0.486328125,2.4921875,-3.77734375,-4.48828125,1.90625,1.0
4538009,,,,,,,,-4.10546875,3.8828125,-1.80859375,1.8515625,0.607421875,2.30078125,-3.89453125,-3.3359375,1.67578125,1.0
4538010,36.01301716666667,129.32004066666664,129.87446912767453,68.48130201446929,3.6,227.0,,-4.390625,7.05078125,-1.7109375,1.66015625,0.515625,2.029296875,-4.3515625,-0.12109375,1.90625,1.0
4538011,,,,,,,,-4.44921875,8.66015625,-1.828125,1.392578125,0.2265625,2.07421875,-4.58203125,1.52734375,1.90625,1.0
4538012,,,,,,,,-4.1328125,9.25,-2.18359375,1.283203125,0.109375,2.099609375,-4.3515625,2.140625,1.59765625,1.0
4538013,,,,,,,,-3.25,9.86328125,-3.53515625,1.150390625,-0.015625,2.09765625,-3.62890625,2.79296875,0.33203125,1.0
4538014,,,,,,,,-2.62890625,10.11328125,-4.9609375,1.04296875,-0.060546875,2.044921875,-3.08984375,3.05859375,-1.046875,1.0
4538015,,,,,,,,-2.05078125,9.9140625,-5.8125,0.642578125,-0.3203125,1.703125,-2.70703125,2.91015625,-1.8125,1.0
4538016,,,,,,,,-2.390625,6.23828125,-6.1875,0.373046875,-0.52734375,0.81640625,-3.203125,-0.73046875,-2.1171875,1.0
4538017,,,,,,,,-2.68359375,4.62890625,-5.62890625,0.3671875,-0.494140625,0.61328125,-3.5078125,-2.33984375,-1.54296875,1.0
4538018,,,,,,,,-2.66015625,4.421875,-4.51171875,0.361328125,-0.265625,0.361328125,-3.51171875,-2.53125,-0.39453125,1.0
4538019,,,,,,,,-1.984375,5.1015625,-3.64453125,0.31640625,-0.099609375,0.298828125,-2.859375,-1.84375,0.48828125,1.0
4538020,36.013015,129.3200375,129.58900126117183,68.2408861080452,3.7,228.0,,-1.078125,6.28125,-3.31640625,1.66015625,0.515625,2.029296875,-1.98046875,-0.65625,0.83203125,1.0
4538021,,,,,,,,0.38671875,8.04296875,-3.31640625,-0.025390625,0.845703125,0.21484375,-0.59765625,1.10546875,0.83203125,1.0
4538022,,,,,,,,1.66015625,9.5078125,-3.1171875,0.00390625,0.9453125,-0.12890625,0.62890625,2.56640625,1.0234375,1.0
4538023,,,,,,,,2.5546875,10.00390625,-3.0703125,0.05859375,0.884765625,-0.36328125,1.5078125,3.05859375,1.0625,1.0
4538024,,,,,,,,3.24609375,9.62890625,-3.30078125,0.16796875,0.634765625,-0.830078125,2.19921875,2.671875,0.83203125,1.0
4538025,,,,,,,,2.8671875,7.9921875,-3.39453125,0.2578125,0.146484375,-1.1875,1.890625,1.03125,0.75390625,1.0
4538026,,,,,,,,0.4140625,4.19921875,-1.03515625,0.30078125,-0.15625,-1.22265625,-0.484375,-2.76171875,3.12890625,1.0
4538027,,,,,,,,-1.625,-2.859375,1.125,0.2734375,-0.390625,-1.1328125,-2.4375,-9.81640625,5.3125,1.0
4538028,,,,,,,,-2.1328125,-14.265625,4.6875,0.23046875,-0.455078125,-0.939453125,-2.8984375,-21.2265625,8.875,1.0
4538029,,,,,,,,9.23046875,-43.30078125,9.65234375,0.099609375,-0.330078125,-0.5,8.51953125,-50.26171875,13.85546875,1.0
4538030,36.013013,129.32003433333333,129.30353310379837,68.01896341816473,3.6,230.0,,14.9140625,-52.10546875,17.890625,1.66015625,0.515625,2.029296875,14.2265625,-59.07421875,22.09375,1.0
4538031,,,,,,,,0.74609375,-12.91015625,9.76953125,0.025390625,0.75390625,-0.4609375,0.05078125,-19.88671875,13.97265625,1.0
4538032,,,,,,,,-3.51171875,-4.88671875,-0.96484375,0.21875,1.62890625,-1.17578125,-4.19921875,-11.875,3.24609375,1.0
4538033,,,,,,,,-2.2265625,-9.15625,-3.40234375,-0.505859375,1.16796875,-1.314453125,-2.8984375,-16.171875,0.79296875,1.0
4538034,,,,,,,,-1.18359375,-12.9453125,0.66015625,-0.451171875,-0.833984375,-1.009765625,-1.78515625,-20.00390625,4.81640625,1.0
4538035,,,,,,,,-0.46875,-14.70703125,4.0,-0.330078125,-3.966796875,-1.326171875,-0.90625,-21.80078125,8.1484375,1.0
4538036,,,,,,,,1.05859375,-14.5625,3.578125,-0.12109375,-3.80859375,-2.419921875,0.93359375,-21.6875,7.7265625,1.0
4538037,,,,,,,,4.21875,-10.79296875,1.01953125,-0.275390625,-1.169921875,-3.181640625,4.3828125,-17.9296875,5.16015625,1.0
4538038,,,,,,,,5.0078125,-8.9921875,-0.28125,-0.7890625,0.248046875,-3.0703125,5.4140625,-16.17578125,3.8203125,1.0
4538039,,,,,,,,5.2109375,-7.44921875,-1.28515625,-1.3046875,0.1484375,-2.318359375,5.796875,-14.671875,2.74609375,1.0
4538040,36.013011,129.320031,129.00304011958715,67.7970405150891,3.7,232.0,,4.78125,-6.0859375,-0.8984375,1.66015625,0.515625,2.029296875,14.2265625,-59.07421875,22.09375,1.0
4538041,,,,,,,,2.9375,-3.4765625,-0.3359375,-1.92578125,-0.466796875,-1.869140625,3.84375,-10.84765625,3.4375,1.0
4538042,,,,,,,,2.4453125,-2.60546875,-0.12109375,-1.91015625,-0.4296875,-1.857421875,3.421875,-10.0,3.58984375,1.0
4538043,,,,,,,,1.6015625,-0.625,-0.171875,-1.845703125,-0.052734375,-2.00390625,2.734375,-8.08984375,3.3984375,1.0
4538044,,,,,,,,1.34765625,2.4609375,-0.5,-1.66015625,0.3515625,-1.974609375,2.62109375,-5.0625,2.9375,1.0
4538045,,,,,,,,0.63671875,4.68359375,-1.26953125,-1.412109375,0.525390625,-1.73046875,2.04296875,-2.875,2.05859375,1.0
4538046,,,,,,,,0.125,5.55078125,-1.796875,-1.349609375,0.49609375,-1.6484375,1.5859375,-2.03125,1.484375,1.0
4538047,,,,,,,,-0.0859375,9.46875,-3.95703125,-1.16015625,0.1015625,-1.58203125,1.546875,1.83984375,-0.81640625,1.0
4538048,,,,,,,,-0.20703125,10.76953125,-4.25,-0.8828125,-0.599609375,-1.26171875,1.66015625,3.09765625,-1.2734375,1.0
4538049,,,,,,,,0.09765625,11.28515625,-4.6640625,-0.875,-0.796875,-1.15234375,2.08203125,3.59765625,-1.7734375,1.0
4538050,36.013009000000004,129.32002816666667,128.74762156039634,67.57511828446651,3.6,230.0,,0.86328125,11.0703125,-5.46484375,-0.7890625,-0.8203125,-1.103515625,2.96484375,3.37109375,-2.65234375,1.0
4538051,,,,,,,,1.51953125,10.3046875,-5.91015625,-0.783203125,-0.77734375,-1.115234375,3.7265625,2.6015625,-3.19140625,1.0
4538052,,,,,,,,1.70703125,7.58984375,-6.55859375,-0.763671875,-0.703125,-1.333984375,4.03125,-0.12109375,-3.91796875,1.0
4538053,,,,,,,,1.1875,7.046875,-6.2890625,-0.69140625,-0.65625,-1.46875,3.578125,-0.65625,-3.6875,1.0
4538054,,,,,,,,-0.171875,6.54296875,-4.88671875,-0.556640625,-0.580078125,-1.5,2.3515625,-1.15234375,-2.34765625,1.0
4538055,,,,,,,,-2.359375,6.25,-2.41015625,-0.474609375,-0.509765625,-1.169921875,0.28125,-1.421875,0.06640625,1.0
4538056,,,,,,,,-3.06640625,5.9375,-1.20703125,-0.484375,-0.3515625,-0.501953125,-0.33203125,-1.7265625,1.21484375,1.0
4538057,,,,,,,,-3.73828125,7.76171875,-0.1015625,-0.552734375,0.107421875,0.80859375,-1.01953125,0.07421875,2.25390625,1.0
4538058,,,,,,,,-3.578125,8.40234375,0.06640625,-0.56640625,0.255859375,1.1015625,-0.90625,0.68359375,2.3984375,1.0
4538059,,,,,,,,-2.73828125,9.71484375,2.19140625,-0.58984375,0.41015625,1.330078125,-0.17578125,1.94921875,4.47265625,1.0
4538060,36.01300666666667,129.320025,128.46215390114443,67.31620920790093,3.7,229.0,,-0.34765625,8.95703125,4.48046875,-0.7890625,-0.8203125,-1.103515625,2.12109375,1.14453125,6.7265625,1.0
4538061,,,,,,,,-0.55859375,1.82421875,3.36328125,-0.2578125,0.1328125,1.0546875,1.81640625,-6.015625,5.58203125,1.0
4538062,,,,,,,,-3.66796875,-17.05859375,11.65234375,0.021484375,-0.02734375,0.89453125,-1.40234375,-24.94140625,13.85546875,1.0
4538063,,,,,,,,-8.31640625,-45.421875,23.17578125,0.119140625,0.166015625,0.4921875,-6.11328125,-53.33203125,25.38671875,1.0
4538064,,,,,,,,-11.91796875,-51.65625,20.2421875,0.09765625,0.90234375,0.337890625,-9.75390625,-59.5703125,22.4765625,1.0
4538065,,,,,,,,-4.0625,-11.796875,6.640625,0.0,2.337890625,0.3828125,-1.9765625,-19.73828125,8.9140625,1.0
4538066,,,,,,,,-0.69921875,-3.47265625,-1.1953125,0.01171875,2.802734375,0.048828125,1.35546875,-11.41796875,1.1015625,1.0
4538067,,,,,,,,4.9375,-10.26953125,-0.82421875,0.5546875,0.6328125,-2.236328125,7.0234375,-18.1953125,1.55859375,1.0
4538068,,,,,,,,3.296875,-15.7265625,6.62109375,0.978515625,-1.380859375,-0.244140625,5.53125,-23.6015625,9.06640625,1.0
4538069,,,,,,,,2.35546875,-16.77734375,6.30859375,0.576171875,-3.0859375,1.431640625,4.57421875,-24.67578125,8.76171875,1.0
4538070,36.0130045,129.320022,128.19171077105239,67.0757935670012,3.6,229.0,,4.1328125,-12.71484375,4.4921875,0.2109375,-1.955078125,1.720703125,6.296875,-20.65234375,6.921875,1.0
4538071,,,,,,,,1.921875,-7.375,2.609375,0.248046875,1.009765625,2.64453125,3.921875,-15.3671875,5.046875,1.0
4538072,,,,,,,,0.859375,-5.1953125,0.9375,0.2421875,1.4375,2.96875,2.734375,-13.22265625,3.3984375,1.0
4538073,,,,,,,,-2.421875,-2.796875,0.26953125,0.49609375,0.66015625,3.169921875,-0.828125,-10.88671875,2.78515625,1.0
4538074,,,,,,,,-3.0625,-2.4296875,0.546875,0.744140625,0.22265625,3.046875,-1.59375,-10.54296875,3.09375,1.0
4538075,,,,,,,,-5.73828125,2.265625,0.1015625,1.962890625,-0.447265625,2.623046875,-4.69921875,-5.87109375,2.8984375,1.0
4538076,,,,,,,,-5.91015625,3.578125,-0.25390625,2.162109375,-0.189453125,2.603515625,-5.078125,-4.5234375,2.70703125,1.0
4538077,,,,,,,,-6.5390625,7.4375,-0.7109375,2.08203125,0.296875,1.9453125,-6.00390625,-0.6171875,2.515625,1.0
4538078,,,,,,,,-6.53125,8.09765625,-0.796875,2.04296875,0.375,1.703125,-6.078125,0.07421875,2.515625,1.0
4538079,,,,,,,,-6.03515625,9.7421875,-1.6875,1.8203125,0.345703125,1.4921875,-5.73046875,1.7578125,1.7890625,1.0
4538080,36.013002166666666,129.32001933333333,127.9513175223799,66.81688516556287,3.5,227.0,,-5.5078125,9.52734375,-1.8359375,1.685546875,0.25390625,1.49609375,6.296875,-20.65234375,6.921875,1.0
4538081,,,,,,,,-4.26953125,10.20703125,-3.22265625,1.359375,0.001953125,1.59375,-4.16015625,2.29296875,0.44921875,1.0
4538082,,,,,,,,-3.37109375,10.58984375,-4.16796875,1.001953125,-0.283203125,1.658203125,-3.390625,2.71484375,-0.39453125,1.0
4538083,,,,,,,,-2.94921875,10.30859375,-5.03515625,0.697265625,-0.529296875,1.607421875,-3.08984375,2.44921875,-1.19921875,1.0
4538084,,,,,,,,-2.265625,9.09765625,-5.92578125,0.5,-0.62109375,1.408203125,-2.515625,1.26171875,-2.04296875,1.0
4538085,,,,,,,,-2.4609375,6.19140625,-5.83203125,0.419921875,-0.607421875,1.037109375,-2.82421875,-1.61328125,-1.88671875,1.0
4538086,,,,,,,,-2.3671875,5.2578125,-5.21484375,0.34375,-0.509765625,0.6875,-2.78515625,-2.53125,-1.23828125,1.0
4538087,,,,,,,,-1.640625,6.12890625,-4.203125,0.244140625,-0.23828125,0.298828125,-2.09765625,-1.65234375,-0.203125,1.0
4538088,,,,,,,,-1.2109375,7.1953125,-3.8828125,0.19921875,0.197265625,-0.09375,-1.67578125,-0.578125,0.140625,1.0
4538089,,,,,,,,-0.328125,8.99609375,-3.63671875,0.111328125,0.806640625,-0.6171875,-0.7890625,1.21875,0.41015625,1.0
4538090,36.0130005,129.32001649999998,127.69589836615907,66.63194937797061,3.4000000000000004,229.0,,1.30859375,10.71875,-4.35546875,0.0703125,0.7734375,-0.99609375,0.89453125,2.9453125,-0.31640625,1.0
4538091,,,,,,,,1.6015625,10.86328125,-4.5078125,0.095703125,0.6484375,-1.04296875,1.203125,3.09375,-0.46875,1.0
4538092,,,,,,,,1.53515625,9.37109375,-3.828125,0.0546875,0.234375,-1.228515625,1.23828125,1.60546875,0.21875,1.0
4538093,,,,,,,,1.296875,8.60546875,-3.40625,0.044921875,0.1328125,-1.294921875,1.046875,0.83984375,0.640625,1.0
4538094,,,,,,,,0.37109375,5.5,-1.8359375,0.056640625,0.05078125,-1.30859375,0.20703125,-2.26953125,2.2109375,1.0
4538095,,,,,,,,0.09375,4.265625,-1.34765625,0.0546875,0.076171875,-1.2421875,-0.0234375,-3.49609375,2.70703125,1.0
4538096,,,,,,,,-0.40625,2.3515625,-0.578125,0.021484375,0.134765625,-1.166015625,-0.484375,-5.40625,3.4765625,1.0
4538097,,,,,,,,-2.046875,-16.1484375,7.96875,-0.0546875,0.2578125,-0.955078125,-2.0546875,-23.90625,12.015625,1.0
4538098,,,,,,,,0.11328125,-24.69140625,7.625,-0.087890625,0.28125,-0.810546875,0.12890625,-32.4453125,11.671875,1.0
4538099,,,,,,,,15.62890625,-52.16015625,21.5390625,-0.12109375,0.216796875,-0.5625,15.68359375,-59.9140625,25.578125,1.0
4538100,36.01299866666667,129.32001350000002,127.42545465986636,66.42852017569791,3.5,230.0,0.0,18.26171875,-53.1484375,25.4140625,0.0703125,0.7734375,-0.99609375,0.89453125,2.9453125,-0.31640625,1.0
4538101,,,,,,,,4.1875,-12.86328125,7.20703125,-0.2265625,0.1015625,-1.103515625,4.3046875,-20.65234375,11.21484375,1.0
4538102,,,,,,,,-3.27734375,-3.69921875,-3.46875,-0.32421875,1.34765625,-1.970703125,-3.05078125,-11.49609375,0.5234375,1.0
4538103,,,,,,,,-0.7265625,-15.15234375,2.77734375,-1.005859375,2.0703125,-1.3984375,-0.4453125,-22.98828125,6.73046875,1.0
4538104,,,,,,,,-1.1328125,-15.91796875,5.33203125,-0.5390625,-1.55078125,-0.84375,-0.7890625,-23.7890625,9.22265625,1.0
4538105,,,,,,,,-1.08203125,-13.94921875,3.1484375,-0.20703125,-4.17578125,-0.7734375,-0.55859375,-21.8359375,7.0,1.0
4538106,,,,,,,,-0.6171875,-12.1796875,2.08984375,-0.19140625,-3.408203125,-1.642578125,0.015625,-20.078125,5.92578125,1.0
4538107,,,,,,,,1.30078125,-8.72265625,0.4375,-0.302734375,-0.111328125,-2.966796875,2.19921875,-16.62890625,4.2421875,1.0
4538108,,,,,,,,2.88671875,-6.1875,-1.70703125,-0.869140625,0.716796875,-2.7265625,4.07421875,-14.10546875,2.05859375,1.0
4538109,,,,,,,,1.9296875,-3.375,-0.9609375,-1.70703125,-0.654296875,-2.013671875,3.5,-11.34765625,2.59375,1.0
4538110,36.01299683333333,129.3200105,127.15501093595563,66.22509098104213,3.5,232.0,,1.828125,-0.9609375,-0.7734375,-1.734375,-0.544921875,-1.99609375,0.89453125,2.9453125,-0.31640625,1.0
4538111,,,,,,,,1.73046875,0.87890625,-1.23828125,-1.751953125,-0.10546875,-1.931640625,3.65234375,-7.16796875,2.01953125,1.0
4538112,,,,,,,,1.46875,3.19140625,-1.67578125,-1.763671875,0.181640625,-1.80859375,3.4609375,-4.8671875,1.51953125,1.0
4538113,,,,,,,,0.89453125,4.87890625,-2.0703125,-1.75,0.6171875,-1.583984375,3.00390625,-3.21875,0.984375,1.0
4538114,,,,,,,,0.29296875,6.80859375,-2.46875,-1.673828125,0.6796875,-1.548828125,2.4609375,-1.30859375,0.5234375,1.0
4538115,,,,,,,,0.0703125,9.27734375,-3.0859375,-1.453125,0.56640625,-1.583984375,2.35546875,1.14453125,-0.203125,1.0
4538116,,,,,,,,-0.48046875,10.90234375,-2.97265625,-1.068359375,0.05078125,-1.396484375,2.04296875,2.75,-0.27734375,1.0
4538117,,,,,,,,-0.14453125,11.859375,-3.96875,-1.02734375,-0.0625,-1.240234375,2.42578125,3.71484375,-1.3125,1.0
4538118,,,,,,,,1.02734375,11.0703125,-5.0234375,-0.953125,-0.23046875,-0.841796875,3.7265625,2.90625,-2.5,1.0
4538119,,,,,,,,2.05859375,9.1953125,-5.75,-0.875,-0.23046875,-0.814453125,4.796875,1.03125,-3.265625,1.0
4538120,36.012995000000004,129.320008,126.92964164790037,66.021662445722,3.3000000000000003,230.0,,3.25390625,6.359375,-6.1328125,-1.734375,-0.544921875,-1.99609375,0.89453125,2.9453125,-0.31640625,1.0
4538121,,,,,,,,2.44140625,3.9765625,-6.0703125,-0.5859375,-0.421875,-1.001953125,5.375,-4.1796875,-3.765625,1.0
4538122,,,,,,,,-0.02734375,4.78125,-4.8125,-0.541015625,-0.42578125,-0.966796875,2.96484375,-3.375,-2.5390625,1.0
4538123,,,,,,,,-3.66796875,6.59765625,-2.390625,-0.486328125,-0.388671875,-0.75,-0.59765625,-1.53515625,-0.1640625,1.0
4538124,,,,,,,,-5.71484375,8.40625,-1.1953125,-0.41796875,-0.2421875,0.1796875,-2.58984375,0.265625,0.9453125,1.0
4538125,,,,,,,,-5.9375,10.62109375,-0.46484375,-0.23828125,-0.177734375,1.169921875,-2.859375,2.44921875,1.63671875,1.0
4538126,,,,,,,,-5.84375,11.4453125,-0.1796875,-0.21875,-0.15625,1.638671875,-2.8203125,3.25,1.90625,1.0
4538127,,,,,,,,-5.11328125,12.62109375,2.71484375,-0.232421875,-0.22265625,2.2265625,-2.24609375,4.36328125,4.7734375,1.0
4538128,,,,,,,,-3.01953125,10.99609375,4.43359375,-0.20703125,-0.4296875,2.291015625,-0.33203125,2.67578125,6.46484375,1.0
4538129,,,,,,,,-0.28125,9.98046875,4.45703125,-0.08984375,-0.537109375,1.998046875,2.234375,1.60546875,6.4609375,1.0
4538130,36.012992833333335,129.32000516666668,126.67422325110705,65.78124706850072,3.5,228.0,,2.12109375,-1.08984375,4.59375,-1.734375,-0.544921875,-1.99609375,0.89453125,2.9453125,-0.31640625,1.0
4538131,,,,,,,,-3.0625,-29.29296875,18.890625,0.03125,-0.18359375,0.064453125,-0.7890625,-37.734375,20.8671875,1.0
4538132,,,,,,,,-18.8984375,-54.53515625,17.28125,0.0546875,0.001953125,-0.5390625,-16.609375,-62.98046875,19.2578125,1.0
4538133,,,,,,,,-2.86328125,-1.52734375,3.48046875,0.197265625,2.666015625,0.8203125,-0.59765625,-9.96484375,5.54296875,1.0
4538134,,,,,,,,5.6484375,-9.01171875,-6.296875,0.595703125,2.5,0.58203125,7.7890625,-17.47265625,-4.1484375,1.0
4538135,,,,,,,,6.8515625,-14.859375,1.515625,1.16015625,0.703125,-1.130859375,8.9765625,-23.30078125,3.78125,1.0
4538136,,,,,,,,5.85546875,-18.21484375,8.02734375,0.69921875,-1.248046875,0.759765625,8.01953125,-26.625,10.37109375,1.0
4538137,,,,,,,,4.484375,-15.01171875,5.54296875,0.15625,-2.884765625,1.517578125,6.6015625,-23.44921875,7.87890625,1.0
4538138,,,,,,,,2.7890625,-10.47265625,1.84375,0.384765625,-0.14453125,2.599609375,4.765625,-18.96484375,4.1640625,1.0
4538139,,,,,,,,0.75390625,-7.1875,-0.6328125,0.38671875,1.443359375,3.046875,2.62109375,-15.7109375,1.7109375,1.0
4538140,36.01299100000001,129.32000233333335,126.41880430872438,65.57781811365663,3.5,229.0,,-1.39453125,-5.6015625,-1.8671875,0.75390625,1.90234375,3.525390625,0.89453125,2.9453125,-0.31640625,1.0
4538141,,,,,,,,-3.1484375,-3.84375,-1.27734375,1.23828125,0.494140625,3.064453125,-1.9375,-12.45703125,1.25390625,1.0
4538142,,,,,,,,-3.59375,-2.99609375,-0.765625,1.548828125,-0.109375,2.716796875,-2.515625,-11.61328125,1.828125,1.0
4538143,,,,,,,,-5.05859375,-1.62890625,-0.1640625,1.96875,-0.546875,2.626953125,-4.19921875,-10.23046875,2.59375,1.0
4538144,,,,,,,,-5.75390625,0.046875,-0.47265625,2.037109375,-0.455078125,2.76953125,-5.00390625,-8.546875,2.36328125,1.0
4538145,,,,,,,,-6.4140625,4.15234375,-1.39453125,2.22265625,0.15234375,2.890625,-5.92578125,-4.41015625,1.63671875,1.0
4538146,,,,,,,,-6.64453125,6.6015625,-1.63671875,2.203125,0.744140625,2.216796875,-6.49609375,-1.8828125,1.67578125,1.0
4538147,,,,,,,,-6.12890625,9.8828125,-2.58203125,1.947265625,0.572265625,1.98046875,-6.1875,1.453125,0.91015625,1.0
4538148,,,,,,,,-5.41015625,11.40234375,-2.91015625,1.451171875,0.13671875,2.23828125,-5.765625,3.05859375,0.79296875,1.0
4538149,,,,,,,,-4.3203125,12.17578125,-3.625,1.310546875,0.029296875,2.28125,-4.7734375,3.86328125,0.140625,1.0
4538150,36.01298883333333,129.31999966666666,126.17841069928163,65.33740296568008,3.5,227.0,,-3.015625,12.16015625,-5.07421875,0.978515625,-0.150390625,2.0859375,-3.6640625,3.8984375,-1.19921875,1.0
4538151,,,,,,,,-1.83203125,10.51171875,-5.59375,0.701171875,-0.25390625,1.294921875,-2.2421875,1.18359375,-1.65625,1.0
4538152,,,,,,,,-0.91796875,6.60546875,-5.4296875,0.544921875,-0.25390625,0.646484375,-1.7109375,-2.80078125,-1.23828125,1.0
4538153,,,,,,,,-0.7578125,5.35546875,-5.29296875,0.53125,-0.193359375,-0.03125,-1.86328125,-3.90625,-0.85546875,1.0
4538154,,,,,,,,-0.87109375,3.15625,-4.2578125,0.5234375,-0.056640625,-0.4453125,-1.74609375,-4.8671875,0.06640625,1.0
4538155,,,,,,,,-0.51953125,3.74609375,-3.875,0.482421875,0.197265625,-0.51171875,-1.01953125,-2.57421875,0.5625,1.0
4538156,,,,,,,,0.0703125,6.44921875,-3.30078125,0.384765625,0.41015625,-0.517578125,-0.67578125,-0.76953125,0.94921875,1.0
4538157,,,,,,,,0.359375,8.359375,-3.28515625,0.17578125,0.4140625,-0.51171875,0.015625,2.06640625,0.83203125,1.0
4538158,,,,,,,,0.890625,10.15625,-3.37890625,0.076171875,0.326171875,-0.55078125,0.12890625,2.98828125,0.87109375,1.0
4538159,,,,,,,,1.2109375,11.68359375,-3.30078125,0.0625,0.033203125,-0.736328125,0.55078125,4.78515625,0.91015625,1.0
4538160,36.01298716666667,129.31999683333333,125.92299146747257,65.15246723246031,3.4000000000000004,229.0,,-3.015625,12.16015625,-5.07421875,0.185546875,-0.279296875,-1.013671875,0.55078125,5.3984375,0.984375,1.0
4538161,,,,,,,,0.9921875,13.484375,-3.09765625,0.21875,-0.55078125,-1.2265625,0.12890625,4.703125,1.1015625,1.0
4538162,,,,,,,,0.64453125,12.171875,-3.37890625,0.203125,-0.73828125,-1.28125,-0.1015625,3.29296875,0.6796875,1.0
4538163,,,,,,,,0.24609375,10.296875,-3.7421875,0.16015625,-0.828125,-1.08984375,-0.71484375,-0.12109375,1.17578125,1.0
4538164,,,,,,,,-0.5859375,6.3359375,-2.0625,0.04296875,-0.775390625,-0.806640625,-1.328125,-3.64453125,3.82421875,1.0
4538165,,,,,,,,-1.68359375,-1.18359375,0.53515625,-0.1640625,-0.46875,-0.86328125,-0.90625,-13.68359375,4.08984375,1.0
4538166,,,,,,,,-0.7265625,-5.6171875,-0.18359375,-0.203125,-0.328125,-0.953125,1.81640625,-18.578125,4.43359375,1.0
4538167,,,,,,,,5.9296875,-18.21875,1.78515625,-0.244140625,0.029296875,-1.068359375,9.24609375,-37.08984375,7.11328125,1.0
4538168,,,,,,,,16.84765625,-55.9140625,15.12890625,-0.349609375,0.39453125,-1.22265625,15.30078125,-67.84765625,27.37890625,1.0
4538169,,,,,,,,9.0703125,-22.06640625,17.8828125,-0.45703125,0.8359375,-1.845703125,6.2578125,-20.53125,12.74609375,1.0
4538170,36.01298583333333,129.3199938333333,125.65254687358089,65.00451770491264,3.6,233.0,,0.46875,-4.90234375,-0.7109375,0.185546875,-0.279296875,-1.013671875,0.6640625,-13.0234375,3.4375,1.0
4538171,,,,,,,,-3.8046875,-16.9453125,4.0390625,-0.947265625,0.9609375,0.443359375,-3.703125,-25.1328125,8.0703125,1.0
4538172,,,,,,,,-3.046875,-16.625,5.22265625,-0.85546875,-2.130859375,-1.23046875,-2.8984375,-24.87109375,9.18359375,1.0
4538173,,,,,,,,1.26171875,-12.65625,1.1328125,-0.177734375,-3.5859375,-1.873046875,1.66015625,-20.92578125,5.046875,1.0
4538174,,,,,,,,2.796875,-9.390625,-0.73828125,-0.666015625,-0.955078125,-2.267578125,3.4609375,-17.6640625,3.12890625,1.0
4538175,,,,,,,,2.1796875,-6.5390625,-1.1171875,-1.40234375,0.345703125,-2.271484375,3.1171875,-14.87109375,2.6328125,1.0
4538176,,,,,,,,1.93359375,-6.02734375,-0.86328125,-1.53515625,-0.0390625,-2.291015625,2.96484375,-14.37109375,2.82421875,1.0
4538177,,,,,,,,2.43359375,-3.48828125,-0.234375,-1.59375,-0.703125,-2.072265625,3.65234375,-11.875,3.3203125,1.0
4538178,,,,,,,,2.66015625,-1.87109375,-0.4296875,-1.708984375,-0.482421875,-1.92578125,4.07421875,-10.30859375,2.9765625,1.0
4538179,,,,,,,,2.83984375,0.62109375,-2.08203125,-1.775390625,0.138671875,-1.869140625,4.41796875,-7.85546875,1.17578125,1.0
4538180,36.012983999999996,129.31999133333332,125.42717751912916,64.80108920830484,3.4000000000000004,231.0,,2.77734375,2.3828125,-2.73828125,-1.779296875,0.451171875,-1.796875,4.49609375,-6.13671875,0.37109375,1.0
4538181,,,,,,,,2.296875,6.0234375,-2.6953125,-1.533203125,0.328125,-1.712890625,4.2265625,-2.53125,0.21875,1.0
4538182,,,,,,,,1.4765625,7.42578125,-2.76953125,-1.294921875,0.228515625,-1.58984375,3.54296875,-1.15234375,0.02734375,1.0
4538183,,,,,,,,0.23828125,9.34765625,-2.74609375,-1.10546875,0.31640625,-1.34375,2.421875,0.76171875,-0.05078125,1.0
4538184,,,,,,,,-0.03515625,10.19140625,-2.8203125,-1.01953125,0.392578125,-1.166015625,2.1953125,1.60546875,-0.1640625,1.0
4538185,,,,,,,,-0.296875,11.0859375,-3.046875,-0.798828125,0.451171875,-0.74609375,2.0078125,2.484375,-0.46875,1.0
4538186,,,,,,,,0.06640625,10.87109375,-4.01171875,-0.55859375,0.390625,-0.29296875,2.42578125,2.25390625,-1.50390625,1.0
4538187,,,,,,,,0.59765625,10.0703125,-4.87890625,-0.5078125,0.35546875,-0.224609375,2.9609375,1.453125,-2.38671875,1.0
4538188,,,,,,,,1.0390625,7.5546875,-5.63671875,-0.474609375,0.25390625,-0.2265625,3.421875,-1.078125,-3.19140625,1.0
4538189,,,,,,,,1.03125,7.5546875,-5.62109375,-0.412109375,0.091796875,-0.232421875,3.30859375,-1.765625,-3.19140625,1.0
4538190,36.012982,129.31998833333333,125.15673396495471,64.57916686933812,3.6,230.0,,-0.24609375,6.7578125,-5.08984375,-0.34375,-0.09765625,-0.185546875,2.16015625,-1.8828125,-2.69140625,1.0
4538191,,,,,,,,-1.91015625,7.1796875,-3.86328125,-0.251953125,-0.232421875,-0.009765625,-0.140625,-1.23046875,-0.96875,1.0
4538192,,,,,,,,-3.91015625,8.0,-1.87890625,-0.208984375,-0.232421875,0.39453125,-1.4765625,-0.65625,0.44921875,1.0
4538193,,,,,,,,-5.06640625,8.66796875,-0.24609375,-0.201171875,-0.13671875,1.068359375,-3.046875,0.45703125,2.78515625,1.0
4538194,,,,,,,,-5.546875,10.26953125,1.0859375,-0.2421875,-0.072265625,1.7109375,-2.93359375,2.0625,3.12890625,1.0
4538195,,,,,,,,-4.53125,11.18359375,0.45703125,-0.30078125,-0.142578125,2.005859375,-1.78515625,2.79296875,2.32421875,1.0
4538196,,,,,,,,-3.3359375,11.6640625,-0.3671875,-0.29296875,-0.2265625,1.974609375,-1.25,2.90625,1.8671875,1.0
4538197,,,,,,,,-1.484375,11.0390625,-1.078125,-0.255859375,-0.51171875,1.564453125,0.359375,2.22265625,1.1015625,1.0
4538198,,,,,,,,0.125,9.328125,-0.4296875,-0.1640625,-0.833984375,0.673828125,1.89453125,0.4921875,1.7109375,1.0
4538199,,,,,,,,1.97265625,6.6171875,0.171875,-0.03515625,-1.046875,-0.064453125,3.7265625,-2.2265625,2.2890625,1.0
4538200,36.01297983333333,129.31998566666667,124.91634029596027,64.33875175715441,3.7,227.0,0.0,0.59375,-6.421875,3.7578125,0.091796875,-1.091796875,-0.34375,2.390625,-15.25,5.8515625,1.0
4538201,,,,,,,,-8.234375,-41.375,20.19921875,0.140625,-0.876953125,-0.28515625,-6.3828125,-50.19140625,22.28515625,1.0
4538202,,,,,,,,-13.5078125,-40.64453125,22.45703125,0.189453125,-0.353515625,0.017578125,-11.6328125,-49.45703125,24.54296875,1.0
4538203,,,,,,,,0.42578125,-0.15625,1.01171875,0.201171875,1.830078125,1.69921875,2.08203125,-9.01171875,3.16796875,1.0
4538204,,,,,,,,5.578125,-4.66796875,-5.21875,0.470703125,1.66015625,1.359375,7.140625,-13.52734375,-3.0390625,1.0
4538205,,,,,,,,5.05859375,-14.3671875,5.078125,0.9453125,1.2265625,-0.919921875,6.56640625,-23.21875,7.34375,1.0
4538206,,,,,,,,4.7578125,-16.6796875,8.05078125,0.734375,-1.060546875,0.45703125,6.296875,-25.51953125,10.41015625,1.0
4538207,,,,,,,,4.57421875,-15.37890625,6.76953125,0.5234375,-3.029296875,0.943359375,6.10546875,-24.2109375,9.14453125,1.0
4538208,,,,,,,,2.67578125,-11.1875,3.69140625,0.126953125,-3.09765625,1.43359375,4.19140625,-20.04296875,6.04296875,1.0
4538209,,,,,,,,1.01171875,-7.640625,0.5546875,0.107421875,-1.353515625,1.90234375,2.46484375,-16.515625,2.8984375,1.0
4538210,36.012978,129.3199828333333,124.66092126838961,64.13532285331493,3.5,228.0,,-0.7109375,-5.1328125,-1.16015625,0.3046875,1.759765625,2.85546875,0.3984375,-14.0625,1.21484375,1.0
4538211,,,,,,,,-2.68359375,-3.203125,-0.5390625,0.86328125,0.62890625,2.73828125,-1.86328125,-12.1484375,1.90625,1.0
4538212,,,,,,,,-3.0625,-2.28125,0.5234375,1.16015625,0.12109375,2.603515625,-2.359375,-11.23046875,3.015625,1.0
4538213,,,,,,,,-3.1796875,-0.53515625,0.625,1.662109375,-0.359375,2.6171875,-2.8203125,-9.46484375,3.3203125,1.0
4538214,,,,,,,,-3.26171875,0.25390625,0.2890625,1.818359375,-0.146484375,2.625,-3.01171875,-8.65625,3.0546875,1.0
4538215,,,,,,,,-3.484375,4.47265625,-1.6328125,1.974609375,0.611328125,2.14453125,-3.5859375,-4.37109375,1.40625,1.0
4538216,,,,,,,,-3.3671875,8.44140625,-2.37109375,1.826171875,0.669921875,1.818359375,-3.66796875,-0.34765625,0.83203125,1.0
4538217,,,,,,,,-3.0546875,9.80859375,-2.63671875,1.466796875,0.3984375,1.845703125,-3.625,1.10546875,0.79296875,1.0
4538218,,,,,,,,-2.890625,10.28515625,-2.73046875,1.31640625,0.322265625,1.919921875,-3.55078125,1.60546875,0.75390625,1.0
4538219,,,,,,,,-2.51171875,11.03515625,-2.9921875,1.04296875,0.169921875,2.076171875,-3.35546875,2.41015625,0.6015625,1.0
4538220,36.012975833333336,129.31998033333332,124.43555239277052,63.89490796907243,3.5,226.0,,-2.2265625,11.203125,-3.453125,0.3046875,1.759765625,2.85546875,0.3984375,-14.0625,1.21484375,1.0
4538221,,,,,,,,-1.7734375,11.0390625,-4.40234375,0.6875,-0.162109375,2.03515625,-2.90234375,2.484375,-0.69921875,1.0
4538222,,,,,,,,-1.5703125,10.90234375,-5.0,0.611328125,-0.27734375,1.939453125,-2.78125,2.37109375,-1.2734375,1.0
4538223,,,,,,,,-2.01953125,7.0625,-6.375,0.439453125,-0.6015625,1.19140625,-3.47265625,-1.3828125,-2.5390625,1.0
4538224,,,,,,,,-2.24609375,4.70703125,-5.265625,0.294921875,-0.4453125,0.322265625,-3.7734375,-3.68359375,-1.3515625,1.0
4538225,,,,,,,,-1.50390625,5.65234375,-3.91015625,0.23046875,-0.08984375,0.0703125,-3.05078125,-2.72265625,0.02734375,1.0
4538226,,,,,,,,-0.9609375,6.37109375,-3.6484375,0.21875,0.107421875,-0.01953125,-2.51953125,-1.99609375,0.296875,1.0
4538227,,,,,,,,0.7421875,8.74609375,-3.3125,0.150390625,0.458984375,-0.041015625,-0.828125,0.37890625,0.640625,1.0
4538228,,,,,,,,2.09765625,10.1171875,-3.16015625,0.087890625,0.666015625,-0.171875,0.51171875,1.7578125,0.79296875,1.0
4538229,,,,,,,,2.4140625,10.30078125,-3.2734375,0.111328125,0.65234375,-0.37109375,0.8203125,1.94921875,0.6796875,1.0
4538230,36.012973833333334,129.31997733333336,124.16510878749148,63.672985660506214,3.6,228.0,,2.96484375,10.53125,-3.92578125,0.14453125,0.390625,-0.8125,1.39453125,2.1796875,0.02734375,1.0
4538231,,,,,,,,2.671875,9.91796875,-3.92578125,0.140625,-0.01953125,-1.04296875,1.1640625,1.56640625,0.02734375,1.0
4538232,,,,,,,,1.50390625,8.69921875,-3.48046875,0.091796875,-0.322265625,-1.126953125,0.08984375,0.33984375,0.484375,1.0
4538233,,,,,,,,-0.7109375,5.671875,-1.6875,0.013671875,-0.52734375,-1.05078125,-2.015625,-2.69140625,2.2890625,1.0
4538234,,,,,,,,-6.69921875,-7.7265625,6.04296875,-0.033203125,-0.45703125,-0.595703125,-7.87890625,-16.09765625,10.02734375,1.0
4538235,,,,,,,,11.7890625,-40.01953125,13.12890625,-0.025390625,-0.08203125,-0.0546875,10.6640625,-48.38671875,17.11328125,1.0
4538236,,,,,,,,21.52734375,-45.0,22.0234375,-0.044921875,0.138671875,0.080078125,20.39453125,-53.3671875,26.0,1.0
4538237,,,,,,,,2.09765625,-11.28125,8.921875,-0.001953125,0.416015625,-0.76953125,0.97265625,-19.66015625,12.8984375,1.0
4538238,,,,,,,,-4.73046875,-3.2578125,1.29296875,0.33203125,1.216796875,-2.998046875,-5.73046875,-11.6484375,5.27734375,1.0
4538239,,,,,,,,-2.0,-11.6171875,-2.8984375,-0.775390625,1.92578125,-2.619140625,-2.8203125,-20.0390625,1.0625,1.0
4538240,36.012972,129.31997416666667,123.87964008172744,63.46955635362541,3.6,230.0,,0.7265625,-13.625,1.1328125,-0.638671875,-0.380859375,-1.05078125,1.39453125,2.1796875,0.02734375,1.0
4538241,,,,,,,,2.08203125,-15.03125,4.98046875,-0.369140625,-2.669921875,-0.46875,1.43359375,-23.52734375,8.83984375,1.0
4538242,,,,,,,,1.70703125,-15.4296875,4.28125,-0.365234375,-3.919921875,-1.033203125,1.23828125,-23.94921875,8.1484375,1.0
4538243,,,,,,,,1.5078125,-13.8828125,3.5703125,-0.46875,-2.78515625,-2.185546875,1.1640625,-22.4140625,7.421875,1.0
4538244,,,,,,,,3.65234375,-8.44921875,0.95703125,-0.673828125,0.67578125,-3.1015625,4.609375,-14.25,3.20703125,1.0
4538245,,,,,,,,4.5234375,-5.67578125,-0.58203125,-0.90234375,0.693359375,-2.5703125,5.33984375,-13.5234375,2.5546875,1.0
4538246,,,,,,,,5.12890625,-4.93359375,-1.203125,-1.091796875,0.44140625,-2.1171875,5.109375,-13.44921875,2.36328125,1.0
4538247,,,,,,,,4.05078125,-4.578125,-1.34765625,-1.490234375,-0.189453125,-1.71875,3.65234375,-12.72265625,2.44140625,1.0
4538248,,,,,,,,3.20703125,-4.05078125,-1.16796875,-1.6484375,-0.431640625,-1.689453125,3.1953125,-11.6875,3.20703125,1.0
4538249,,,,,,,,2.453125,-2.2578125,0.19140625,-1.591796875,-0.3125,-2.017578125,2.390625,-8.125,3.51171875,1.0
4538250,36.01297016666667,129.31997133333334,123.62422100731001,63.266127481503304,3.4000000000000004,231.0,,0.7265625,-13.625,1.1328125,-1.501953125,0.259765625,-2.06640625,2.3515625,-6.09765625,3.28515625,1.0
4538251,,,,,,,,1.25,3.97265625,0.08203125,-1.267578125,0.873046875,-1.75,2.3515625,-2.33984375,2.5546875,1.0
4538252,,,,,,,,0.54296875,8.6015625,-2.0,-1.083984375,0.857421875,-1.5703125,1.81640625,-0.2734375,0.984375,1.0
4538253,,,,,,,,0.109375,10.83984375,-3.58984375,-0.931640625,0.515625,-1.369140625,1.5078125,1.9453125,-0.69921875,1.0
4538254,,,,,,,,0.24609375,11.73046875,-3.828125,-0.81640625,0.0625,-1.171875,1.73828125,2.828125,-1.0078125,1.0
4538255,,,,,,,,0.88671875,11.8203125,-4.1484375,-0.63671875,-0.412109375,-1.0625,2.54296875,2.91015625,-1.4296875,1.0
4538256,,,,,,,,1.1015625,11.70703125,-4.30859375,-0.55859375,-0.572265625,-1.02734375,2.81640625,2.79296875,-1.62109375,1.0
4538257,,,,,,,,3.40234375,10.09765625,-5.77734375,-0.537109375,-0.642578125,-0.990234375,5.21875,1.18359375,-3.15234375,1.0
4538258,,,,,,,,4.12890625,9.0625,-6.2890625,-0.48828125,-0.482421875,-1.08984375,6.64453125,-1.8828125,-4.953125,1.0
4538259,,,,,,,,2.921875,7.0,-6.80078125,-0.32421875,-0.296875,-1.75390625,3.078125,-1.61328125,-2.76953125,1.0
4538260,36.01296816666666,129.31996866666665,123.38382699892716,63.04420561805411,3.4000000000000004,229.0,,-0.26171875,7.46875,-4.28125,-0.30859375,-0.22265625,-1.703125,1.0859375,-1.19140625,-1.234375,1.0
4538261,,,,,,,,-3.2890625,8.234375,-2.515625,-0.271484375,-0.1015625,-0.8046875,-1.7421875,-0.1953125,0.296875,1.0
4538262,,,,,,,,-5.7421875,9.56640625,-1.57421875,-0.1875,0.0,0.677734375,-3.5859375,1.3359375,0.984375,1.0
4538263,,,,,,,,-6.25390625,10.6484375,-1.12890625,-0.1796875,-0.001953125,1.962890625,-4.046875,2.44921875,1.484375,1.0
4538264,,,,,,,,-6.48046875,12.37109375,0.85546875,-0.205078125,-0.111328125,2.662109375,-4.19921875,3.63671875,3.89453125,1.0
4538265,,,,,,,,-5.2421875,11.96875,1.4140625,-0.201171875,-0.201171875,2.76171875,-3.2421875,3.0234375,3.703125,1.0
4538266,,,,,,,,-4.42578125,11.26953125,1.23828125,-0.2109375,-0.240234375,2.66796875,-2.55078125,2.29296875,3.51171875,1.0
4538267,,,,,,,,-1.03515625,7.32421875,1.1171875,-0.203125,-0.24609375,2.21484375,0.62890625,-1.69140625,3.359375,1.0
4538268,,,,,,,,1.00390625,-1.078125,1.59375,-0.10546875,-0.146484375,1.37890625,2.50390625,-10.1171875,3.8203125,1.0
4538269,,,,,,,,-0.80859375,-31.640625,15.16015625,-0.025390625,-0.052734375,0.11328125,0.62890625,-40.69140625,17.37890625,1.0
4538270,36.012965666666666,129.31996616666666,123.15845857804153,62.766804353651104,3.6,226.0,,-10.37109375,-39.76953125,15.390625,0.03125,0.267578125,-0.57421875,-8.91015625,-48.80859375,17.609375,1.0
4538271,,,,,,,,-0.78125,-9.12890625,7.66015625,-0.02734375,2.001953125,0.0234375,0.703125,-18.15625,9.91015625,1.0
4538272,,,,,,,,5.625,-1.953125,-3.78515625,-0.068359375,2.970703125,0.46484375,7.0234375,-11.0,-1.50390625,1.0
4538273,,,,,,,,4.578125,-10.73046875,1.390625,0.970703125,1.134765625,-0.283203125,5.9140625,-19.765625,3.7421875,1.0
4538274,,,,,,,,1.75,-15.08203125,6.015625,0.77734375,-1.80859375,0.298828125,3.1171875,-24.09375,8.453125,1.0
4538275,,,,,,,,2.09375,-16.30078125,6.5,0.365234375,-3.77734375,1.125,3.4609375,-25.3203125,8.953125,1.0
4538276,,,,,,,,3.56640625,-13.19140625,4.0625,0.21875,-3.373046875,1.552734375,4.91796875,-22.21875,6.5,1.0
4538277,,,,,,,,1.29296875,-6.9921875,1.3125,0.10546875,-0.091796875,2.59765625,2.50390625,-16.0546875,3.7421875,1.0
4538278,,,,,,,,-0.515625,-3.93359375,-0.05859375,0.220703125,1.51171875,3.033203125,0.3984375,-13.0234375,2.40234375,1.0
4538279,,,,,,,,-2.640625,-2.37890625,-0.40234375,0.439453125,0.861328125,3.125,-2.015625,-11.4921875,2.09765625,1.0
4538280,36.012964000000004,129.31996316666667,122.88801438657765,62.581868497595096,3.5,228.0,,-3.5390625,-1.60546875,-0.3984375,1.03515625,0.064453125,2.67578125,-3.203125,-10.73046875,2.171875,1.0
4538281,,,,,,,,-4.0,1.0,-0.15625,1.861328125,-0.30078125,2.66015625,-4.0078125,-8.08984375,2.6328125,1.0
4538282,,,,,,,,-3.84375,1.88671875,-0.43359375,1.9375,-0.22265625,2.642578125,-3.96875,-7.16796875,2.44140625,1.0
4538283,,,,,,,,-3.7265625,5.9296875,-1.359375,2.052734375,0.064453125,2.4140625,-4.08984375,-3.0703125,1.7109375,1.0
4538284,,,,,,,,-3.625,5.8984375,-1.4453125,1.8515625,0.392578125,2.03125,-4.390625,-2.2265625,1.55859375,1.0
4538285,,,,,,,,-3.88671875,8.25,-1.72265625,1.69140625,0.548828125,1.70703125,-4.46875,0.109375,1.7890625,1.0
4538286,,,,,,,,-2.85546875,10.5703125,-2.1171875,1.330078125,0.3125,1.5703125,-3.85546875,1.796875,1.484375,1.0
4538287,,,,,,,,-2.0625,11.08203125,-3.23828125,1.19921875,0.18359375,1.615234375,-3.12890625,2.33203125,0.41015625,1.0
4538288,,,,,,,,-1.6015625,11.48828125,-3.9921875,0.896484375,-0.076171875,1.744140625,-2.8203125,2.79296875,-0.2421875,1.0
4538289,,,,,,,,-1.66796875,11.45703125,-4.52734375,0.740234375,-0.173828125,1.767578125,-2.97265625,2.79296875,-0.73828125,1.0
4538290,36.01296166666667,129.31996066666667,122.66264568065382,62.32296045347934,3.6,225.0,,-1.4140625,11.02734375,-5.00390625,1.03515625,0.064453125,2.67578125,-3.203125,-10.73046875,2.171875,1.0
4538291,,,,,,,,-1.48046875,10.56640625,-5.36328125,0.39453125,-0.587890625,1.537109375,-3.046875,1.98828125,-1.46484375,1.0
4538292,,,,,,,,-2.7265625,7.84375,-5.51953125,0.421875,-0.69140625,1.236328125,-4.390625,-0.6953125,-1.58203125,1.0
4538293,,,,,,,,-2.83984375,6.7109375,-5.3125,0.412109375,-0.67578125,1.0703125,-4.5390625,-1.8046875,-1.3515625,1.0
4538294,,,,,,,,-2.59375,5.8359375,-3.98046875,0.376953125,-0.568359375,0.7421875,-4.35546875,-2.6484375,0.02734375,1.0
4538295,,,,,,,,-0.83203125,7.30859375,-3.66796875,0.326171875,-0.404296875,0.501953125,-2.625,-1.15234375,0.37109375,1.0
4538296,,,,,,,,0.5,8.37890625,-3.60546875,0.349609375,0.037109375,0.060546875,-1.328125,-0.04296875,0.48828125,1.0
4538297,,,,,,,,2.5703125,10.01171875,-3.8203125,0.333984375,0.287109375,-0.3515625,0.7421875,1.6015625,0.296875,1.0
4538298,,,,,,,,3.50390625,10.5,-3.9140625,0.318359375,0.314453125,-0.67578125,1.69921875,2.1015625,0.21875,1.0
4538299,,,,,,,,4.12109375,10.8828125,-4.08984375,0.19921875,0.13671875,-1.515625,2.42578125,2.484375,0.06640625,1.0
4538300,36.01295983333333,129.31995766666665,122.39220172004258,62.11953140543572,3.6,228.0,0.0,2.99609375,10.66796875,-4.25,1.03515625,0.064453125,2.67578125,-3.203125,-10.73046875,2.171875,1.0
4538301,,,,,,,,0.9921875,8.6171875,-3.875,0.064453125,-0.1953125,-1.453125,-0.3671875,0.1875,0.296875,1.0
4538302,,,,,,,,-1.6171875,5.67578125,-2.3125,0.119140625,-0.2109375,-1.064453125,-2.86328125,-2.76171875,1.8671875,1.0
4538303,,,,,,,,-2.890625,3.9140625,-1.01953125,0.1640625,-0.189453125,-0.828125,-4.0859375,-4.52734375,3.16796875,1.0
4538304,,,,,,,,-8.13671875,-19.01171875,6.40625,0.173828125,-0.091796875,-0.291015625,-9.29296875,-27.4296875,10.6015625,1.0
4538305,,,,,,,,24.1171875,-43.46484375,18.53125,0.1484375,0.171875,0.201171875,22.9609375,-51.87109375,22.7421875,1.0
4538306,,,,,,,,12.11328125,-26.65625,14.6171875,0.06640625,0.373046875,-0.017578125,10.93359375,-35.0546875,18.8359375,1.0
4538307,,,,,,,,0.2421875,-10.98046875,5.421875,0.03125,0.53125,-1.609375,-0.90625,-19.3828125,9.640625,1.0
4538308,,,,,,,,-3.05859375,-6.63671875,2.359375,0.15625,0.845703125,-3.083984375,-4.12109375,-15.05859375,6.578125,1.0
4538309,,,,,,,,-0.97265625,-13.34765625,-0.57421875,-0.4609375,2.134765625,-3.63671875,-1.78515625,-21.80078125,3.62890625,1.0
4538310,36.012958499999996,129.319955,122.15180662281395,61.971582405765055,3.4000000000000004,232.0,,1.22265625,-14.2109375,3.6328125,-0.80859375,-0.671875,-0.15234375,0.51171875,-22.7578125,7.6875,1.0
4538311,,,,,,,,0.91796875,-11.828125,1.89453125,-0.43359375,-2.24609375,-2.427734375,0.55078125,-20.42578125,5.92578125,1.0
4538312,,,,,,,,3.37109375,-6.81640625,-1.0625,-0.3515625,0.431640625,-3.6015625,3.30859375,-15.44140625,2.9375,1.0
4538313,,,,,,,,5.375,-5.765625,-1.96484375,-0.595703125,0.63671875,-3.337890625,5.453125,-14.40625,2.01953125,1.0
4538314,,,,,,,,4.48828125,-5.0078125,-2.36328125,-1.021484375,0.0625,-2.5625,4.80078125,-13.6796875,1.55859375,1.0
4538315,,,,,,,,4.203125,-3.6875,-1.515625,-1.599609375,-0.52734375,-2.109375,4.7265625,-12.4140625,2.2890625,1.0
4538316,,,,,,,,3.83984375,-1.75,-0.6328125,-1.8515625,-0.595703125,-2.041015625,4.57421875,-10.54296875,3.015625,1.0
4538317,,,,,,,,3.375,1.1796875,-0.8125,-1.84375,-0.154296875,-2.099609375,4.3046875,-7.66796875,2.671875,1.0
4538318,,,,,,,,3.46484375,3.15625,-0.99609375,-1.7578125,0.115234375,-2.1484375,4.49609375,-5.7109375,2.40234375,1.0
4538319,,,,,,,,2.94921875,5.30859375,-1.03125,-1.765625,0.525390625,-1.859375,4.15234375,-3.60546875,2.2109375,1.0
4538320,36.012956833333334,129.31995233333333,121.9114120301161,61.78664699784131,3.5,230.0,,1.50390625,8.375,-2.0,-1.666015625,0.642578125,-1.599609375,2.84765625,-0.578125,1.1015625,1.0
4538321,,,,,,,,0.8515625,9.9296875,-2.63671875,-1.46484375,0.455078125,-1.474609375,2.31640625,0.953125,0.33203125,1.0
4538322,,,,,,,,0.55078125,10.98046875,-2.95703125,-1.359375,0.2890625,-1.36328125,2.078125,1.98828125,-0.05078125,1.0
4538323,,,,,,,,0.01171875,12.92578125,-3.6796875,-1.046875,-0.169921875,-0.9140625,1.69921875,3.90234375,-0.9296875,1.0
4538324,,,,,,,,0.3984375,13.02734375,-5.1015625,-0.802734375,-0.3828125,-0.572265625,2.234375,3.9765625,-2.5390625,1.0
4538325,,,,,,,,1.71484375,10.390625,-5.9140625,-0.66796875,-0.2890625,-0.66796875,3.61328125,1.3359375,-3.421875,1.0
4538326,,,,,,,,2.63671875,7.44140625,-6.03515625,-0.587890625,-0.21875,-0.771484375,4.57421875,-1.61328125,-3.57421875,1.0
4538327,,,,,,,,3.0078125,5.10546875,-5.63671875,-0.4609375,-0.1015625,-0.939453125,5.03125,-3.94921875,-3.23046875,1.0
4538328,,,,,,,,1.765625,4.8984375,-5.05859375,-0.453125,-0.029296875,-0.955078125,3.8828125,-4.14453125,-2.69140625,1.0
4538329,,,,,,,,-0.3125,6.0,-3.609375,-0.4296875,-0.015625,-0.806640625,1.8515625,-3.03125,-1.2734375,1.0
4538330,36.01295483333333,129.3199495,121.65599311763644,61.564724974912934,3.7,229.0,,-2.81640625,7.6875,-1.7421875,-0.3359375,-0.01953125,-0.3125,-0.59765625,-1.34375,0.5625,1.0
4538331,,,,,,,,-4.08984375,10.67578125,-0.9375,-0.228515625,-0.03125,0.3515625,-1.859375,1.64453125,1.328125,1.0
4538332,,,,,,,,-4.1796875,12.56640625,-0.4296875,-0.16015625,-0.046875,1.01171875,-2.015625,3.515625,1.828125,1.0
4538333,,,,,,,,-4.0859375,13.37890625,0.20703125,-0.1875,-0.052734375,1.26953125,-1.9765625,4.32421875,2.44140625,1.0
4538334,,,,,,,,-3.25,14.61328125,1.203125,-0.310546875,-0.189453125,1.6015625,-1.328125,5.5078125,3.3984375,1.0
4538335,,,,,,,,-1.765625,13.49609375,1.04296875,-0.27734375,-0.337890625,1.681640625,0.015625,4.359375,3.20703125,1.0
4538336,,,,,,,,-0.28515625,6.546875,3.80078125,-0.158203125,-0.373046875,1.46484375,1.35546875,-2.609375,5.921875,1.0
4538337,,,,,,,,-1.1015625,-2.9765625,3.55078125,-0.0546875,-0.3203125,0.904296875,0.4375,-12.15234375,5.66015625,1.0
4538338,,,,,,,,-2.49609375,-8.8828125,5.734375,-0.017578125,-0.28125,0.55859375,-0.98046875,-18.046875,7.84375,1.0
4538339,,,,,,,,-9.4921875,-40.37109375,15.85546875,0.029296875,0.0,-0.0234375,-7.9921875,-49.53515625,17.95703125,1.0
4538340,36.0129525,129.31994683333332,121.41559952371753,61.30581675423641,3.6,226.0,,-12.43359375,-49.52734375,11.05859375,-0.3359375,-0.01953125,-0.3125,-0.59765625,-1.34375,0.5625,1.0
4538341,,,,,,,,1.24609375,-8.9140625,6.53515625,0.0546875,2.044921875,0.71484375,2.62109375,-18.08984375,8.68359375,1.0
4538342,,,,,,,,1.7265625,-8.0234375,-2.2578125,0.123046875,2.01171875,0.708984375,3.0390625,-17.20703125,-0.0859375,1.0
4538343,,,,,,,,3.11328125,-12.4140625,-1.83984375,0.59375,1.0,-1.57421875,4.41796875,-21.5703125,0.41015625,1.0
4538344,,,,,,,,6.1640625,-14.23046875,3.1484375,0.326171875,1.09765625,0.376953125,7.5234375,-23.3671875,5.46875,1.0
4538345,,,,,,,,4.6796875,-13.171875,4.76171875,-0.26171875,-1.939453125,1.50390625,5.953125,-22.3359375,7.07421875,1.0
4538346,,,,,,,,2.98828125,-10.515625,1.9609375,-0.283203125,-2.013671875,2.0390625,4.19140625,-19.6953125,4.2421875,1.0
4538347,,,,,,,,1.0703125,-7.85546875,-0.57421875,0.037109375,0.578125,2.69140625,1.96875,-17.08984375,1.67578125,1.0
4538348,,,,,,,,-1.65234375,-4.8046875,-1.91015625,0.59765625,1.04296875,2.796875,-1.01953125,-14.06640625,0.37109375,1.0
4538349,,,,,,,,-2.0859375,-4.18359375,-1.98828125,0.79296875,0.869140625,2.857421875,-1.59375,-13.44921875,0.33203125,1.0
4538350,36.012950833333335,129.3199445,121.2052545444841,61.1208817818182,3.4000000000000004,227.0,,-2.9921875,-2.515625,-1.3515625,-0.3359375,-0.01953125,-0.3125,-0.59765625,-1.34375,0.5625,1.0
4538351,,,,,,,,-3.5,-0.0859375,-2.0234375,1.478515625,-0.08203125,2.892578125,-3.546875,-9.3125,0.5234375,1.0
4538352,,,,,,,,-4.4140625,3.4453125,-2.73828125,1.650390625,0.13671875,2.970703125,-4.734375,-5.75390625,-0.05078125,1.0
4538353,,,,,,,,-5.359375,7.44921875,-2.85546875,1.740234375,0.46484375,2.615234375,-6.078125,-1.65234375,0.06640625,1.0
4538354,,,,,,,,-5.42578125,8.19140625,-2.703125,1.681640625,0.478515625,2.474609375,-6.265625,-0.88671875,0.296875,1.0
4538355,,,,,,,,-4.8359375,10.19921875,-2.38671875,1.525390625,0.4296875,2.375,-5.92578125,1.18359375,0.75390625,1.0
4538356,,,,,,,,-4.1875,10.7734375,-2.546875,1.365234375,0.345703125,2.423828125,-5.5,1.8359375,0.71875,1.0
4538357,,,,,,,,-3.49609375,12.00390625,-3.21484375,1.279296875,0.3125,2.4453125,-4.921875,3.09765625,0.10546875,1.0
4538358,,,,,,,,-2.51171875,11.88671875,-3.90234375,0.974609375,0.298828125,2.2109375,-4.2734375,3.09765625,-0.43359375,1.0
4538359,,,,,,,,-1.71875,10.890625,-4.62890625,0.865234375,0.2890625,1.978515625,-3.5859375,2.140625,-1.12109375,1.0
4538360,36.01294866666667,129.3199415,120.93481102544838,60.880466365407905,3.8000000000000003,226.0,,-0.62890625,8.66796875,-5.2578125,-0.3359375,-0.01953125,-0.3125,-0.59765625,-1.34375,0.5625,1.0
4538361,,,,,,,,0.39453125,6.54296875,-4.6953125,0.705078125,-0.01171875,-0.03515625,-1.74609375,-2.07421875,-1.0078125,1.0
4538362,,,,,,,,0.5078125,6.7578125,-3.84375,0.689453125,-0.01953125,-0.279296875,-1.6328125,-1.84765625,-0.125,1.0
4538363,,,,,,,,0.75,7.078125,-2.734375,0.583984375,0.109375,-0.7109375,-1.328125,-1.50390625,1.0625,1.0
4538364,,,,,,,,1.1875,7.5703125,-2.0703125,0.517578125,0.173828125,-0.7578125,-0.8671875,-1.0,1.75,1.0
4538365,,,,,,,,1.41796875,8.60546875,-1.87109375,0.265625,0.12109375,-0.544921875,-0.55859375,0.03515625,1.9765625,1.0
4538366,,,,,,,,2.06640625,10.3203125,-2.046875,0.189453125,-0.1484375,-0.23828125,0.12890625,1.7578125,1.83203125,1.0
4538367,,,,,,,,2.2578125,11.0390625,-2.015625,0.166015625,-0.310546875,-0.166015625,0.3203125,2.484375,1.8671875,1.0
4538368,,,,,,,,2.07421875,11.76171875,-2.109375,0.177734375,-0.599609375,-0.248046875,0.16796875,3.2109375,1.7890625,1.0
4538369,,,,,,,,1.12890625,11.1015625,-2.140625,0.251953125,-0.81640625,-0.564453125,-0.71484375,2.5625,1.7890625,1.0
4538370,36.0129465,129.31993883333334,120.6944171395195,60.64005137109334,3.6,226.0,,-0.41796875,9.484375,-1.48828125,0.296875,-0.947265625,-0.751953125,-0.59765625,-1.34375,0.5625,1.0
4538371,,,,,,,,-1.8828125,6.2578125,1.3828125,0.322265625,-0.966796875,-0.55078125,-3.546875,-2.265625,5.39453125,1.0
4538372,,,,,,,,-1.42578125,1.953125,0.1953125,0.3515625,-0.873046875,-0.37109375,-3.01171875,-6.5546875,4.2421875,1.0
4538373,,,,,,,,1.4609375,-5.609375,-2.91015625,0.31640625,-0.642578125,-0.43359375,-0.0625,-14.10546875,1.17578125,1.0
4538374,,,,,,,,14.5,-31.7890625,5.6015625,0.21875,-0.361328125,-0.646484375,13.0390625,-40.265625,9.71875,1.0
4538375,,,,,,,,11.08203125,-44.0390625,26.50390625,0.123046875,-0.09765625,-1.068359375,9.70703125,-52.5234375,30.63671875,1.0
4538376,,,,,,,,6.8359375,-19.66015625,14.04296875,0.0,0.119140625,-1.6640625,5.5703125,-28.15625,18.18359375,1.0
4538377,,,,,,,,-1.3828125,-6.421875,0.375,-0.17578125,0.41015625,-1.310546875,-2.515625,-14.9453125,4.5078125,1.0
4538378,,,,,,,,-3.48046875,-12.3359375,-1.30859375,-0.35546875,1.666015625,0.5859375,-4.62109375,-20.8828125,2.78515625,1.0
4538379,,,,,,,,-3.35546875,-13.3984375,1.34375,-0.326171875,1.849609375,-0.369140625,-4.62109375,-21.95703125,5.390625,1.0
4538380,36.01294466666666,129.31993583333332,120.42397307957769,60.43662238497501,3.5,229.0,,-1.625,-14.09765625,2.66015625,0.296875,-0.947265625,-0.751953125,-2.78125,-22.68359375,6.69140625,1.0
4538381,,,,,,,,2.375,-11.359375,0.484375,0.072265625,-2.814453125,-1.98046875,1.46875,-19.9609375,4.546875,1.0
4538382,,,,,,,,2.921875,-9.30078125,-0.6328125,-0.30859375,-0.384765625,-2.302734375,2.2734375,-17.93359375,3.4375,1.0
4538383,,,,,,,,3.1328125,-7.71875,-1.4921875,-0.974609375,0.4921875,-2.35546875,2.6953125,-16.3984375,2.515625,1.0
4538384,,,,,,,,3.078125,-7.16796875,-1.3671875,-1.07421875,0.25,-2.33203125,2.8125,-15.8984375,2.5546875,1.0
4538385,,,,,,,,2.88671875,-1.58203125,-1.61328125,-1.2578125,0.15625,-2.1484375,3.00390625,-10.421875,2.09765625,1.0
4538386,,,,,,,,2.96484375,0.53515625,-2.42578125,-1.33984375,0.47265625,-2.2578125,3.26953125,-8.3515625,1.17578125,1.0
4538387,,,,,,,,3.359375,4.3828125,-3.15234375,-1.341796875,0.591796875,-2.1640625,3.84375,-4.5625,0.33203125,1.0
4538388,,,,,,,,3.50390625,5.4765625,-3.1328125,-1.306640625,0.54296875,-2.076171875,4.07421875,-3.4921875,0.296875,1.0
4538389,,,,,,,,3.484375,8.19140625,-3.1796875,-1.173828125,0.34375,-1.943359375,4.2265625,-0.80859375,0.140625,1.0
4538390,36.01294266666666,129.31993333333332,120.19860374228978,60.21470081695537,3.5,228.0,,3.21484375,8.89453125,-3.28515625,-1.1015625,0.22265625,-1.896484375,4.03125,-0.12109375,-0.01171875,1.0
4538391,,,,,,,,2.203125,9.953125,-3.6484375,-0.931640625,0.07421875,-1.84765625,3.19921875,0.9140625,-0.46875,1.0
4538392,,,,,,,,1.0859375,12.52734375,-4.078125,-0.69140625,-0.01953125,-1.43359375,2.3125,3.4765625,-1.0078125,1.0
4538393,,,,,,,,1.4453125,12.61328125,-4.58203125,-0.615234375,-0.046875,-1.212890625,2.734375,3.5546875,-1.54296875,1.0
4538394,,,,,,,,2.84375,11.05078125,-5.69140625,-0.5078125,-0.1171875,-0.693359375,4.26953125,1.98828125,-2.73046875,1.0
4538395,,,,,,,,4.4609375,7.87109375,-6.625,-0.55859375,-0.125,-0.5859375,5.953125,-1.19140625,-3.7265625,1.0
4538396,,,,,,,,4.0078125,6.84375,-6.69140625,-0.5859375,-0.1484375,-0.732421875,5.5703125,-2.2265625,-3.83984375,1.0
4538397,,,,,,,,1.8203125,7.46484375,-5.98046875,-0.4921875,-0.189453125,-0.88671875,3.46484375,-1.61328125,-3.19140625,1.0
4538398,,,,,,,,-0.6015625,8.26171875,-4.38671875,-0.41796875,-0.21484375,-0.90625,1.0859375,-0.80859375,-1.62109375,1.0
4538399,,,,,,,,-3.59765625,8.484375,-2.22265625,-0.265625,-0.22265625,-0.5390625,-1.78125,-0.578125,0.48828125,1.0
4538400,36.012940666666665,129.3199305,119.94318473784253,59.99277884530579,3.6,228.0,0.0,-5.95703125,9.625,0.60546875,-1.1015625,0.22265625,-1.896484375,4.03125,-0.12109375,-0.01171875,1.0
4538401,,,,,,,,-5.44140625,10.69140625,1.2265625,-0.333984375,-0.23828125,1.736328125,-3.73828125,1.60546875,3.859375,1.0
4538402,,,,,,,,-3.1328125,10.8359375,1.08203125,-0.4375,-0.298828125,2.09375,-1.59375,1.71875,3.6640625,1.0
4538403,,,,,,,,0.5234375,10.453125,0.4375,-0.44921875,-0.37890625,1.7578125,1.890625,1.296875,2.9765625,1.0
4538404,,,,,,,,3.0,8.2109375,2.9375,-0.39453125,-0.47265625,0.7890625,4.265625,-0.9609375,5.43359375,1.0
4538405,,,,,,,,0.82421875,2.47265625,0.80859375,-0.328125,-0.623046875,-0.294921875,2.08203125,-6.703125,3.24609375,1.0
4538406,,,,,,,,-0.859375,-2.171875,1.3203125,-0.294921875,-0.712890625,-0.626953125,0.4375,-11.34375,3.7421875,1.0
4538407,,,,,,,,-9.26171875,-29.5,11.6953125,-0.201171875,-0.810546875,-0.849609375,-7.87890625,-38.66015625,14.0859375,1.0
4538408,,,,,,,,-14.73046875,-53.2109375,16.4375,-0.111328125,-0.5234375,-0.017578125,-13.27734375,-62.3671875,18.796875,1.0
4538409,,,,,,,,0.37890625,-7.87109375,9.12890625,-0.00390625,0.80859375,1.447265625,1.69921875,-17.05078125,11.48046875,1.0
4538410,36.01293866666666,129.319928,119.71781537730968,59.770857290170795,3.7,226.0,,3.4296875,-3.98828125,-2.43359375,0.23046875,1.115234375,0.869140625,4.03125,-0.12109375,-0.01171875,1.0
4538411,,,,,,,,5.65234375,-13.9609375,-2.01953125,0.48046875,1.275390625,-1.322265625,6.83203125,-23.14453125,0.41015625,1.0
4538412,,,,,,,,6.87109375,-15.46484375,0.8984375,0.396484375,1.578125,-1.55859375,8.09765625,-24.63671875,3.359375,1.0
4538413,,,,,,,,6.546875,-16.69921875,8.453125,0.224609375,-1.203125,0.81640625,7.7890625,-25.86328125,10.9453125,1.0
4538414,,,,,,,,5.0390625,-15.578125,8.22265625,0.185546875,-2.8359375,1.6015625,6.2578125,-24.75390625,10.71484375,1.0
4538415,,,,,,,,1.40625,-9.296875,0.5078125,0.224609375,-0.236328125,2.712890625,2.390625,-18.5078125,2.9765625,1.0
4538416,,,,,,,,-0.62890625,-6.28515625,-1.26953125,0.73828125,1.494140625,2.740234375,0.08984375,-15.51953125,1.25390625,1.0
4538417,,,,,,,,-1.515625,-5.13671875,-1.5078125,1.01953125,1.439453125,2.85546875,-0.9453125,-14.37109375,1.0625,1.0
4538418,,,,,,,,-3.08984375,-0.04296875,0.8828125,1.587890625,-0.759765625,2.529296875,-3.01171875,-9.234375,3.703125,1.0
4538419,,,,,,,,-3.78515625,1.8515625,0.23828125,1.734375,-0.7421875,2.66015625,-3.81640625,-7.3203125,3.12890625,1.0
4538420,36.012937,129.31992533333332,119.47742066884346,59.58592195037652,3.6,227.0,,-4.73046875,4.37109375,-1.12109375,0.23046875,1.115234375,0.869140625,4.03125,-0.12109375,-0.01171875,1.0
4538421,,,,,,,,-4.96875,6.109375,-1.5,1.953125,0.251953125,2.62109375,-5.50390625,-2.953125,1.75,1.0
4538422,,,,,,,,-4.0078125,9.32421875,-1.59375,1.81640625,0.2734375,2.328125,-4.7734375,0.33984375,1.828125,1.0
4538423,,,,,,,,-3.6015625,10.05078125,-1.81640625,1.732421875,0.1796875,2.232421875,-4.47265625,1.10546875,1.67578125,1.0
4538424,,,,,,,,-2.9453125,11.09375,-2.6171875,1.517578125,0.072265625,2.064453125,-4.0078125,2.21875,1.0234375,1.0
4538425,,,,,,,,-2.01171875,12.0859375,-4.2890625,1.1171875,0.076171875,1.912109375,-3.3515625,3.328125,-0.46875,1.0
4538426,,,,,,,,-0.8359375,9.59375,-6.4375,0.8046875,0.0078125,1.47265625,-2.3984375,0.9140625,-2.5,1.0
4538427,,,,,,,,-0.734375,6.91796875,-6.2265625,0.673828125,-0.08984375,0.7421875,-2.4375,-1.69140625,-2.1953125,1.0
4538428,,,,,,,,-0.85546875,6.3984375,-5.828125,0.59765625,-0.068359375,0.517578125,-2.58984375,-2.1875,-1.7734375,1.0
4538429,,,,,,,,-0.94140625,5.9921875,-5.18359375,0.44921875,0.056640625,0.12109375,-2.703125,-2.5703125,-1.08203125,1.0
4538430,36.012935,129.31992266666666,119.23702645669083,59.36400020266856,3.8000000000000003,226.0,,-0.703125,6.62890625,-3.33984375,0.263671875,0.28515625,-0.1328125,-2.48046875,-1.91796875,0.79296875,1.0
4538431,,,,,,,,0.4453125,7.76953125,-2.265625,0.087890625,0.55078125,-0.208984375,-1.328125,-0.76953125,1.8671875,1.0
4538432,,,,,,,,2.1484375,9.4453125,-2.01953125,-0.072265625,0.671875,-0.21875,0.359375,0.9140625,2.09375,1.0
4538433,,,,,,,,2.5390625,10.06640625,-2.203125,-0.1015625,0.599609375,-0.248046875,0.7421875,1.52734375,1.90625,1.0
4538434,,,,,,,,3.34375,11.0625,-2.984375,-0.150390625,0.33203125,-0.32421875,1.546875,2.52734375,1.1015625,1.0
4538435,,,,,,,,3.78125,12.3359375,-3.921875,-0.1171875,0.001953125,-0.45703125,2.0078125,3.79296875,0.140625,1.0
4538436,,,,,,,,3.45703125,12.49609375,-4.7265625,0.01171875,-0.35546875,-0.640625,1.73828125,3.9375,-0.6640625,1.0
4538437,,,,,,,,2.95703125,11.84375,-5.0859375,0.138671875,-0.693359375,-0.70703125,1.31640625,3.29296875,-1.0078125,1.0
4538438,,,,,,,,2.18359375,10.41796875,-4.91015625,0.1640625,-0.814453125,-0.68359375,0.58984375,1.8671875,-0.81640625,1.0
4538439,,,,,,,,0.2109375,8.12109375,-3.70703125,0.189453125,-0.912109375,-0.5078125,-1.29296875,-0.42578125,0.41015625,1.0
4538440,36.01293316666667,129.31991983333333,118.9816071556532,59.16057146564854,3.6,229.0,,-2.890625,5.73046875,1.74609375,0.263671875,0.28515625,-0.1328125,-4.3125,-2.80078125,5.8828125,1.0
4538441,,,,,,,,-5.12890625,-2.328125,4.375,0.125,-0.666015625,-0.291015625,-6.49609375,-10.84765625,8.53125,1.0
4538442,,,,,,,,3.71875,-21.68359375,3.9765625,0.015625,-0.353515625,-0.095703125,2.390625,-30.1875,8.1484375,1.0
4538443,,,,,,,,11.76171875,-50.0390625,9.80859375,-0.109375,-0.046875,0.20703125,10.43359375,-58.5390625,13.97265625,1.0
4538444,,,,,,,,6.4609375,-32.828125,26.5234375,-0.20703125,0.298828125,0.05859375,5.109375,-41.33984375,30.671875,1.0
4538445,,,,,,,,1.94140625,-7.83984375,8.92578125,-0.2421875,0.640625,-1.66015625,0.62890625,-16.359375,13.05078125,1.0
4538446,,,,,,,,-0.26953125,-5.109375,-3.70703125,-0.205078125,1.359375,-1.767578125,-1.36328125,-13.6796875,0.37109375,1.0
4538447,,,,,,,,-2.45703125,-10.87109375,-1.72265625,-0.240234375,1.095703125,-0.330078125,-3.51171875,-19.4609375,2.32421875,1.0
4538448,,,,,,,,-3.0,-12.75390625,4.74609375,-0.60546875,-3.966796875,-1.552734375,-0.63671875,-21.11328125,8.53125,1.0
4538449,,,,,,,,1.73828125,-11.60546875,3.19140625,-0.283203125,-3.572265625,-2.484375,3.578125,-17.9296875,5.12109375,1.0
4538450,36.01293166666667,129.31991699999998,118.7261873396751,58.99412914981689,3.5,230.0,,-2.890625,5.73046875,1.74609375,-0.6640625,-0.642578125,-2.40234375,3.921875,-15.515625,3.0546875,1.0
4538451,,,,,,,,3.75390625,-6.5078125,-1.23046875,-1.4765625,0.482421875,-2.521484375,3.34765625,-15.09375,2.74609375,1.0
4538452,,,,,,,,2.68359375,-4.8515625,-0.0546875,-1.474609375,-0.2578125,-2.40234375,2.8125,-12.875,3.89453125,1.0
4538453,,,,,,,,2.546875,-4.0234375,0.19921875,-1.525390625,-0.373046875,-2.265625,2.88671875,-12.15234375,3.8203125,1.0
4538454,,,,,,,,2.59375,-2.55078125,-0.1953125,-1.517578125,-0.02734375,-2.181640625,3.1953125,-10.7265625,2.78515625,1.0
4538455,,,,,,,,2.5078125,-0.88671875,-1.2578125,-1.4453125,0.541015625,-2.18359375,3.23046875,-7.96875,1.17578125,1.0
4538456,,,,,,,,2.36328125,2.16796875,-2.2734375,-1.416015625,0.869140625,-1.98046875,3.23046875,-5.7890625,0.83203125,1.0
4538457,,,,,,,,2.1015625,4.26953125,-2.46875,-1.255859375,0.859375,-1.88671875,2.96484375,-3.76171875,0.6015625,1.0
4538458,,,,,,,,1.640625,6.25390625,-2.62890625,-1.16015625,0.775390625,-1.853515625,2.8125,-2.80078125,0.44921875,1.0
4538459,,,,,,,,0.921875,8.59765625,-3.04296875,-0.98046875,0.615234375,-1.7578125,2.234375,-0.46484375,-0.05078125,1.0
4538460,36.01293,129.31991416666668,118.47076776820495,58.809193632898975,3.6,231.0,,0.171875,10.18359375,-3.27734375,-0.7890625,0.51171875,-1.568359375,3.921875,-15.515625,3.0546875,1.0
4538461,,,,,,,,-0.62109375,11.33203125,-4.79296875,-0.560546875,0.30078125,-1.171875,1.01171875,2.25390625,-1.96484375,1.0
4538462,,,,,,,,-0.27734375,10.94921875,-5.08203125,-0.494140625,0.212890625,-1.03125,1.39453125,1.87109375,-2.26953125,1.0
4538463,,,,,,,,1.19921875,9.41015625,-6.0234375,-0.392578125,0.01953125,-0.84375,3.00390625,0.33984375,-3.265625,1.0
4538464,,,,,,,,2.8125,7.15234375,-6.25390625,-0.4296875,-0.0546875,-0.84375,4.6875,-1.91796875,-3.53515625,1.0
4538465,,,,,,,,2.3046875,7.01953125,-5.5546875,-0.509765625,-0.099609375,-0.80078125,4.26953125,-2.03515625,-2.8828125,1.0
4538466,,,,,,,,2.265625,7.01953125,-5.5234375,-0.537109375,-0.1015625,-0.794921875,3.765625,-1.765625,-2.30859375,1.0
4538467,,,,,,,,0.578125,8.09375,-3.9453125,-0.40625,-0.001953125,-0.71875,2.66015625,-0.9609375,-1.3515625,1.0
4538468,,,,,,,,-0.71484375,8.8125,-2.82421875,-0.294921875,0.166015625,-0.546875,0.890625,0.03515625,0.140625,1.0
4538469,,,,,,,,-1.8515625,9.41796875,-2.05078125,-0.2734375,0.234375,-0.375,0.3203125,0.37890625,0.484375,1.0
4538470,36.012928,129.31991133333335,118.21534868201093,58.58727171267472,3.7,230.0,,-2.953125,10.40625,-1.37109375,-0.310546875,0.20703125,0.12890625,-0.75,1.375,1.13671875,1.0
4538471,,,,,,,,-4.3125,11.76171875,0.859375,-0.3359375,-0.09765625,0.58203125,-2.1328125,2.71484375,3.32421875,1.0
4538472,,,,,,,,-4.43359375,12.3828125,1.48828125,-0.326171875,-0.28125,0.765625,-2.28515625,3.328125,3.9296875,1.0
4538473,,,,,,,,-2.02734375,11.9375,0.921875,-0.283203125,-0.615234375,1.068359375,0.05078125,2.8671875,3.32421875,1.0
4538474,,,,,,,,-0.12109375,8.484375,1.28515625,-0.1953125,-0.8984375,1.3203125,1.81640625,-0.6171875,3.62890625,1.0
4538475,,,,,,,,-0.3125,-2.1796875,2.05078125,-0.126953125,-0.90625,0.8828125,1.546875,-11.3046875,4.35546875,1.0
4538476,,,,,,,,-1.20703125,-11.10546875,6.15625,-0.095703125,-0.8125,0.501953125,0.62890625,-20.23046875,8.453125,1.0
4538477,,,,,,,,-13.7265625,-52.02734375,24.8359375,-0.009765625,-0.357421875,0.1171875,-11.8984375,-61.140625,27.109375,1.0
4538478,,,,,,,,-13.828125,-40.02734375,21.99609375,-0.00390625,0.900390625,0.2890625,-3.51171875,-21.80078125,13.43359375,1.0
4538479,,,,,,,,-5.30078125,-12.67578125,11.14453125,-0.0546875,1.240234375,0.236328125,2.7734375,-10.34375,5.58203125,1.0
4538480,36.012925833333334,129.31990866666666,117.9749546566742,58.34685679327473,3.6,227.0,,-2.953125,10.40625,-1.37109375,-0.310546875,0.20703125,0.12890625,7.140625,-9.08203125,-0.546875,1.0
4538481,,,,,,,,6.0390625,-9.52734375,-1.12109375,0.646484375,1.115234375,-1.740234375,7.1796875,-22.98828125,4.31640625,1.0
4538482,,,,,,,,5.390625,-13.87890625,1.94921875,0.91015625,0.787109375,-1.080078125,6.94921875,-25.51953125,7.6875,1.0
4538483,,,,,,,,5.00390625,-17.93359375,7.52734375,0.46875,-2.599609375,0.630859375,6.2578125,-28.5390625,10.828125,1.0
4538484,,,,,,,,4.16015625,-18.390625,7.52734375,0.099609375,-3.328125,1.31640625,5.1484375,-25.015625,8.53125,1.0
4538485,,,,,,,,2.5625,-13.11328125,4.5859375,-0.08984375,-0.09765625,2.431640625,2.96484375,-18.31640625,4.01171875,1.0
4538486,,,,,,,,1.21484375,-9.18359375,1.59765625,-0.1171875,1.412109375,2.630859375,2.19921875,-16.8984375,2.9375,1.0
4538487,,,,,,,,-0.1640625,-6.31640625,-0.1875,0.55078125,0.724609375,2.810546875,-1.6328125,-12.3359375,2.2890625,1.0
4538488,,,,,,,,-3.4140625,-2.16796875,0.0625,1.34375,-0.16796875,2.60546875,-2.859375,-10.46484375,2.48046875,1.0
4538489,,,,,,,,-3.609375,-1.2109375,-0.10546875,1.748046875,-0.30078125,2.53515625,-3.05078125,-9.81640625,2.25,1.0
4538490,36.01292383333334,129.31990583333334,117.71953554471348,58.12493488639616,3.5,227.0,,-2.953125,10.40625,-1.37109375,-0.310546875,0.20703125,0.12890625,-3.5859375,-7.4375,1.63671875,1.0
4538491,,,,,,,,-3.78125,2.6640625,-1.6640625,1.9296875,0.46484375,2.3671875,-3.81640625,-5.328125,1.328125,1.0
4538492,,,,,,,,-4.17578125,6.78515625,-2.05078125,1.796875,0.517578125,2.212890625,-4.23828125,-2.33984375,1.13671875,1.0
4538493,,,,,,,,-3.75390625,8.34375,-2.4296875,1.599609375,0.517578125,2.15234375,-4.12109375,-0.6953125,0.984375,1.0
4538494,,,,,,,,-3.16015625,10.55859375,-2.90625,1.291015625,0.509765625,2.1875,-3.734375,1.56640625,0.640625,1.0
4538495,,,,,,,,-2.44921875,11.36328125,-3.58203125,0.896484375,0.310546875,2.21875,-3.35546875,2.44921875,0.10546875,1.0
4538496,,,,,,,,-2.1484375,11.5234375,-3.8984375,0.763671875,0.158203125,2.150390625,-3.1640625,2.640625,-0.1640625,1.0
4538497,,,,,,,,-1.3125,10.5859375,-5.21875,0.591796875,-0.193359375,1.9453125,-2.515625,1.7578125,-1.4296875,1.0
4538498,,,,,,,,-0.48046875,9.08984375,-5.34765625,0.51953125,-0.56640625,1.70703125,-1.8203125,0.30078125,-1.50390625,1.0
4538499,,,,,,,,-0.25,8.0546875,-5.51953125,0.529296875,-0.798828125,1.37109375,-1.7109375,-0.6953125,-1.62109375,1.0
4538500,36.01292183333333,129.31990316666668,117.47914124822373,57.903013187068574,3.7,227.0,0.0,-0.953125,6.19921875,-5.421875,0.486328125,-0.791015625,0.8203125,-2.51953125,-2.49609375,-1.4296875,1.0
4538501,,,,,,,,-1.10546875,5.96875,-4.96875,0.4140625,-0.494140625,0.576171875,-2.70703125,-2.6875,-0.9296875,1.0
4538502,,,,,,,,-0.78125,7.86328125,-4.05078125,0.345703125,-0.0859375,0.220703125,-2.3984375,-0.76953125,0.02734375,1.0
4538503,,,,,,,,-0.61328125,8.61328125,-3.67578125,0.310546875,0.109375,0.060546875,-2.24609375,-0.00390625,0.41015625,1.0
4538504,,,,,,,,-0.23046875,10.59765625,-2.89453125,0.232421875,0.423828125,-0.12890625,-1.86328125,1.98828125,1.21484375,1.0
4538505,,,,,,,,0.3671875,11.203125,-2.703125,0.076171875,0.541015625,-0.0703125,-1.2890625,2.60546875,1.40625,1.0
4538506,,,,,,,,0.95703125,11.30078125,-2.734375,0.095703125,0.4921875,0.025390625,-0.71484375,2.71484375,1.3671875,1.0
4538507,,,,,,,,1.44140625,10.87109375,-2.92578125,0.1484375,0.34375,-0.041015625,-0.25390625,2.29296875,1.17578125,1.0
4538508,,,,,,,,1.82421875,10.328125,-3.19921875,0.158203125,0.25,-0.12890625,0.12890625,1.7578125,0.91015625,1.0
4538509,,,,,,,,1.96875,9.62890625,-3.32421875,0.162109375,0.044921875,-0.400390625,0.28125,1.06640625,0.79296875,1.0
4538510,36.01292016666666,129.31990016666666,117.20869678237679,57.718077507621594,3.6,230.0,,1.28125,7.6328125,-3.109375,0.486328125,-0.791015625,0.8203125,-2.51953125,-2.49609375,-1.4296875,1.0
4538511,,,,,,,,-0.0234375,4.90234375,-1.6328125,0.2109375,-0.166015625,-0.88671875,-1.59375,-3.64453125,2.515625,1.0
4538512,,,,,,,,-2.9375,0.64453125,3.44921875,0.232421875,-0.166015625,-0.9453125,-4.4296875,-7.890625,7.61328125,1.0
4538513,,,,,,,,-2.48046875,-11.5859375,4.421875,0.2734375,-0.091796875,-0.755859375,-3.89453125,-20.1171875,8.609375,1.0
4538514,,,,,,,,5.08984375,-24.69140625,6.16015625,0.248046875,0.029296875,-0.51953125,3.73046875,-33.2109375,10.37109375,1.0
4538515,,,,,,,,16.234375,-26.84765625,18.5859375,0.162109375,0.146484375,-0.96875,14.953125,-35.36328125,22.8203125,1.0
4538516,,,,,,,,-0.75390625,-5.00390625,0.3359375,0.302734375,0.646484375,-2.359375,-1.90234375,-13.5234375,4.5859375,1.0
4538517,,,,,,,,-1.8203125,-9.8359375,0.56640625,-0.333984375,1.048828125,-1.669921875,-2.8203125,-18.39453125,4.81640625,1.0
4538518,,,,,,,,-0.265625,-13.12109375,2.859375,-0.681640625,-0.869140625,0.05078125,-1.2109375,-21.71875,7.0390625,1.0
4538519,,,,,,,,0.60546875,-15.92578125,3.609375,-0.240234375,-3.37890625,0.302734375,-0.25390625,-24.55859375,7.765625,1.0
4538520,36.012918166666665,129.31989683333333,116.90820314323425,57.49615502373597,3.6,232.0,,1.4609375,-10.05078125,0.34375,-0.318359375,-2.732421875,-1.48828125,0.78125,-18.6953125,4.5078125,1.0
4538521,,,,,,,,1.3515625,-10.03515625,0.3515625,-0.451171875,0.115234375,-2.708984375,0.89453125,-16.44140625,2.5546875,1.0
4538522,,,,,,,,1.4140625,-7.3515625,-2.2109375,-0.646484375,0.53515625,-2.474609375,1.5859375,-15.8984375,1.4453125,1.0
4538523,,,,,,,,2.30078125,-7.15234375,-2.6953125,-0.794921875,0.349609375,-2.318359375,2.16015625,-15.90234375,1.3671875,1.0
4538524,,,,,,,,2.1484375,-3.78515625,-1.48046875,-1.2421875,-0.283203125,-2.30078125,2.3125,-12.6015625,2.44140625,1.0
4538525,,,,,,,,1.76953125,-2.58203125,-1.2109375,-1.48828125,-0.208984375,-2.470703125,2.16015625,-11.45703125,2.59375,1.0
4538526,,,,,,,,1.54296875,-0.1015625,-1.25390625,-1.60546875,0.009765625,-2.5859375,2.04296875,-9.0078125,2.48046875,1.0
4538527,,,,,,,,1.85546875,3.515625,-1.56640625,-1.69921875,0.46484375,-2.572265625,2.58203125,-5.4453125,2.01953125,1.0
4538528,,,,,,,,2.6171875,5.6875,-1.25,-1.71875,0.595703125,-2.365234375,3.4609375,-3.296875,2.25,1.0
4538529,,,,,,,,2.5234375,7.953125,-1.33203125,-1.751953125,0.609375,-1.845703125,3.5390625,-1.078125,2.01953125,1.0
4538530,36.01291666666667,129.31989416666664,116.66780806952694,57.32971296737604,3.4000000000000004,232.0,,2.27734375,8.97265625,-1.3828125,-0.318359375,-2.732421875,-1.48828125,3.34765625,-0.08203125,1.90625,1.0
4538531,,,,,,,,1.24609375,10.4921875,-2.58203125,-1.578125,0.142578125,-1.216796875,2.5,1.375,0.48828125,1.0
4538532,,,,,,,,1.58203125,11.04296875,-3.96875,-1.474609375,-0.0078125,-1.076171875,2.8828125,1.91015625,-0.96875,1.0
4538533,,,,,,,,2.09765625,10.83203125,-4.73828125,-0.8828125,-0.44140625,-1.046875,3.61328125,1.64453125,-1.96484375,1.0
4538534,,,,,,,,3.1171875,9.8359375,-5.37109375,-0.82421875,-0.564453125,-1.369140625,4.76953125,0.6484375,-2.69140625,1.0
4538535,,,,,,,,3.6796875,7.84375,-6.2734375,-0.78125,-0.59375,-1.65234375,5.49609375,-1.34375,-3.6875,1.0
4538536,,,,,,,,3.24609375,7.40625,-6.09765625,-0.642578125,-0.572265625,-1.787109375,5.22265625,-1.765625,-3.57421875,1.0
4538537,,,,,,,,0.234375,7.6875,-4.03515625,-0.501953125,-0.568359375,-1.75,2.39453125,-1.4609375,-1.58203125,1.0
4538538,,,,,,,,-2.046875,9.09765625,-2.53125,-0.283203125,-0.490234375,-1.4609375,0.36328125,-0.00390625,-0.1640625,1.0
4538539,,,,,,,,-2.73046875,9.51171875,-2.1328125,-0.224609375,-0.40234375,-1.11328125,-0.25390625,0.41796875,0.21875,1.0
4538540,36.01291466666667,129.31989116666668,116.39736406633898,57.10779090018528,3.6,232.0,,-4.40234375,11.01953125,-1.609375,-0.318359375,-2.732421875,-1.48828125,-1.86328125,1.9453125,0.71875,1.0
4538541,,,,,,,,-5.14453125,12.0234375,-1.328125,-0.0859375,-0.162109375,0.76953125,-2.62890625,2.94921875,0.984375,1.0
4538542,,,,,,,,-5.5859375,13.3125,-1.34375,-0.154296875,-0.224609375,1.220703125,-3.1640625,4.2109375,0.9453125,1.0
4538543,,,,,,,,-5.40234375,13.3046875,-0.859375,-0.189453125,-0.373046875,1.41015625,-3.08984375,4.17578125,1.40625,1.0
4538544,,,,,,,,-3.58203125,11.19921875,-0.8828125,-0.240234375,-0.513671875,1.345703125,-1.44140625,2.02734375,1.328125,1.0
4538545,,,,,,,,-1.52734375,10.37890625,-0.57421875,-0.251953125,-0.47265625,1.115234375,0.51171875,1.18359375,1.59765625,1.0
4538546,,,,,,,,1.9609375,8.04296875,0.28515625,-0.23828125,-0.40234375,0.9609375,3.96484375,-1.15234375,2.44140625,1.0
4538547,,,,,,,,4.16796875,-4.27734375,4.68359375,-0.173828125,-0.140625,0.5,6.10546875,-13.48828125,6.80859375,1.0
4538548,,,,,,,,3.1875,-20.55859375,12.46875,-0.0859375,0.30078125,-0.06640625,5.109375,-29.765625,14.5859375,1.0
4538549,,,,,,,,-14.90234375,-51.48046875,25.7578125,-0.0546875,0.822265625,-0.302734375,-12.97265625,-60.68359375,27.875,1.0
4538550,36.012912166666666,129.31988833333335,116.14194561147352,56.83038941967526,3.7,228.0,,-13.1171875,-39.60546875,15.0625,-0.318359375,-2.732421875,-1.48828125,-11.2109375,-48.80859375,17.1875,1.0
4538551,,,,,,,,0.9609375,-3.83984375,2.1015625,-0.513671875,3.203125,1.31640625,2.734375,-13.06640625,4.2421875,1.0
4538552,,,,,,,,1.8359375,0.00390625,-2.08203125,-0.412109375,3.408203125,1.546875,3.5,-9.23828125,0.06640625,1.0
4538553,,,,,,,,5.03515625,-8.8125,-0.89453125,0.486328125,1.333984375,1.54296875,6.48828125,-18.0859375,1.29296875,1.0
4538554,,,,,,,,3.79296875,-12.97265625,6.2109375,1.333984375,-1.43359375,-0.71484375,5.22265625,-22.21875,8.4921875,1.0
4538555,,,,,,,,5.0859375,-15.75390625,5.3359375,0.75390625,-3.705078125,0.326171875,6.640625,-24.9765625,7.6875,1.0
4538556,,,,,,,,3.31640625,-11.38671875,3.26171875,0.583984375,-3.21484375,1.087890625,4.87890625,-20.61328125,5.62109375,1.0
4538557,,,,,,,,1.2578125,-8.03125,1.72265625,0.1953125,-0.140625,2.607421875,2.6953125,-17.28515625,4.08984375,1.0
4538558,,,,,,,,-0.4609375,-5.47265625,-0.08203125,0.43359375,1.271484375,2.892578125,0.703125,-14.75390625,2.32421875,1.0
4538559,,,,,,,,-2.15625,-3.72265625,-0.87890625,0.77734375,0.865234375,2.880859375,-1.2890625,-13.0234375,1.59765625,1.0
4538560,36.01291033333334,129.3198855,115.88652615993217,56.62696077335841,3.5,229.0,,-3.5234375,-1.25,-0.859375,1.509765625,-0.15234375,2.853515625,-3.203125,-10.5390625,1.8671875,1.0
4538561,,,,,,,,-4.18359375,0.7890625,-0.41796875,1.68359375,-0.064453125,3.046875,-4.12109375,-8.46875,2.44140625,1.0
4538562,,,,,,,,-4.51171875,2.91015625,-0.58984375,1.783203125,0.14453125,2.970703125,-4.58203125,-6.32421875,2.36328125,1.0
4538563,,,,,,,,-4.4375,5.19921875,-0.90625,1.787109375,0.734375,2.345703125,-4.77734375,-3.98828125,2.2109375,1.0
4538564,,,,,,,,-4.06640625,6.9375,-1.484375,1.630859375,1.091796875,1.892578125,-4.6171875,-2.1875,1.7890625,1.0
4538565,,,,,,,,-3.59375,9.7109375,-2.03125,1.40625,1.091796875,1.75390625,-4.3515625,0.6484375,1.3671875,1.0
4538566,,,,,,,,-3.33203125,10.67578125,-2.1015625,1.271484375,0.96875,1.75,-4.1953125,1.64453125,1.3671875,1.0
4538567,,,,,,,,-2.40625,12.328125,-2.80078125,0.81640625,0.439453125,1.748046875,-3.55078125,3.3671875,0.79296875,1.0
4538568,,,,,,,,-2.2421875,12.35546875,-3.70703125,0.623046875,0.109375,1.685546875,-3.546875,3.44140625,-0.05078125,1.0
4538569,,,,,,,,-1.83984375,9.421875,-5.77734375,0.51171875,-0.259765625,1.490234375,-3.3515625,0.5703125,-2.04296875,1.0
4538570,36.01290816666666,129.319883,115.6611568543384,56.38654611529648,3.6,226.0,,-2.0078125,7.29296875,-6.375,1.509765625,-0.15234375,2.853515625,-3.58984375,-1.53515625,-2.6171875,1.0
4538571,,,,,,,,-1.625,4.87890625,-5.85546875,0.525390625,-0.5078125,0.876953125,-3.28125,-3.90625,-2.04296875,1.0
4538572,,,,,,,,0.109375,5.375,-5.33203125,0.533203125,-0.50390625,0.478515625,-1.59375,-3.375,-1.46484375,1.0
4538573,,,,,,,,0.65234375,6.0859375,-5.28125,0.5546875,-0.400390625,0.2734375,-1.05859375,-2.65234375,-1.390625,1.0
4538574,,,,,,,,2.29296875,8.171875,-4.4921875,0.5625,0.04296875,-0.20703125,0.58984375,-0.5390625,-0.546875,1.0
4538575,,,,,,,,2.734375,9.15234375,-3.87890625,0.40234375,0.56640625,-0.6328125,1.046875,0.45703125,0.10546875,1.0
4538576,,,,,,,,2.3671875,10.40625,-3.3984375,0.1953125,0.78125,-0.953125,0.7421875,1.72265625,0.6015625,1.0
4538577,,,,,,,,1.70703125,11.44921875,-3.359375,0.265625,0.541015625,-0.89453125,0.12890625,2.75,0.640625,1.0
4538578,,,,,,,,1.29296875,11.6796875,-3.328125,0.294921875,0.357421875,-0.779296875,-0.25390625,2.98828125,0.6796875,1.0
4538579,,,,,,,,0.171875,11.43359375,-2.9296875,0.3203125,-0.046875,-0.537109375,-1.328125,2.75390625,1.1015625,1.0
4538580,36.0129065,129.31987983333332,115.37568747189206,56.201610294982515,3.5,230.0,,-0.9375,9.65625,-2.1953125,1.509765625,-0.15234375,2.853515625,-2.359375,0.9921875,1.8671875,1.0
4538581,,,,,,,,-2.82421875,6.1171875,0.23046875,0.201171875,-0.765625,-0.2265625,-4.19921875,-2.53125,4.3125,1.0
4538582,,,,,,,,-3.73046875,3.80078125,1.55859375,0.20703125,-0.8125,-0.08984375,-5.08203125,-4.83203125,5.65625,1.0
4538583,,,,,,,,-3.76171875,-9.046875,3.2578125,0.1484375,-0.779296875,-0.01171875,-5.08203125,-17.66796875,7.3828125,1.0
4538584,,,,,,,,13.5625,-35.83203125,10.328125,0.111328125,-0.62109375,-0.078125,12.2734375,-44.44140625,14.46875,1.0
4538585,,,,,,,,16.05859375,-38.2890625,19.26953125,0.087890625,-0.33984375,-0.7421875,14.83984375,-46.89453125,23.43359375,1.0
4538586,,,,,,,,9.71484375,-23.6875,14.93359375,0.0703125,-0.1875,-1.416015625,8.55859375,-32.30078125,19.10546875,1.0
4538587,,,,,,,,-0.48828125,-4.59375,1.171875,0.12109375,0.53515625,-2.66796875,-1.48046875,-13.21875,5.3515625,1.0
4538588,,,,,,,,-0.0625,-9.7734375,-3.77734375,-0.630859375,1.837890625,-1.5078125,-0.90625,-18.4296875,0.37109375,1.0
4538589,,,,,,,,1.625,-15.11328125,0.515625,-0.978515625,1.896484375,-0.552734375,0.78125,-23.79296875,4.625,1.0
4538590,36.01290466666667,129.31987666666666,115.09021832393513,55.99818127780243,3.5,232.0,,1.34375,-12.76171875,2.69140625,-0.125,-3.859375,-0.806640625,0.6640625,-21.4921875,6.73046875,1.0
4538591,,,,,,,,2.7734375,-9.18359375,0.04296875,-0.1171875,-2.130859375,-2.3046875,2.3515625,-17.9296875,4.08984375,1.0
4538592,,,,,,,,3.96484375,-7.15234375,-2.34765625,-0.560546875,0.310546875,-2.85546875,3.80859375,-15.94140625,1.67578125,1.0
4538593,,,,,,,,4.0625,-6.55078125,-0.921875,-1.255859375,-0.158203125,-2.287109375,4.2265625,-15.3984375,2.9765625,1.0
4538594,,,,,,,,3.41796875,-4.66015625,0.23046875,-1.38671875,-0.73828125,-2.10546875,3.80859375,-13.5625,4.01171875,1.0
4538595,,,,,,,,2.66796875,0.015625,-1.09375,-1.427734375,-0.513671875,-2.15625,3.26953125,-8.9296875,2.5546875,1.0
4538596,,,,,,,,2.68359375,1.00390625,-1.64453125,-1.486328125,-0.19921875,-2.263671875,3.38671875,-7.97265625,1.94140625,1.0
4538597,,,,,,,,2.32421875,3.08203125,-2.19921875,-1.578125,0.384765625,-2.177734375,3.23046875,-5.9375,1.25390625,1.0
4538598,,,,,,,,1.9609375,6.3671875,-2.75,-1.51953125,0.498046875,-1.904296875,3.04296875,-2.6875,0.5625,1.0
4538599,,,,,,,,1.4921875,8.5546875,-3.19921875,-1.40625,0.29296875,-1.880859375,2.734375,-0.5390625,-0.01171875,1.0
4538600,36.01290266666667,129.319874,114.84982390300344,55.7762596519008,3.6,231.0,0.0,0.74609375,10.7890625,-3.3125,-1.24609375,0.080078125,-1.890625,2.16015625,1.6796875,-0.2421875,1.0
4538601,,,,,,,,0.46484375,12.61328125,-3.796875,-0.908203125,-0.076171875,-1.423828125,2.19921875,3.4765625,-0.9296875,1.0
4538602,,,,,,,,1.3203125,12.30859375,-4.33203125,-0.853515625,-0.091796875,-1.263671875,3.1171875,3.171875,-1.50390625,1.0
4538603,,,,,,,,2.359375,11.04296875,-5.02734375,-0.765625,-0.044921875,-0.982421875,4.265625,1.91015625,-2.26953125,1.0
4538604,,,,,,,,2.88671875,10.0859375,-5.2578125,-0.72265625,0.0,-0.861328125,4.875,0.953125,-2.578125,1.0
4538605,,,,,,,,4.48828125,6.21875,-6.0,-0.697265625,0.02734375,-0.91015625,6.5625,-2.9140625,-3.3828125,1.0
4538606,,,,,,,,3.2421875,5.40625,-4.89453125,-0.666015625,0.0078125,-1.0703125,5.41796875,-3.71875,-2.34765625,1.0
4538607,,,,,,,,2.19140625,5.94140625,-4.21875,-0.630859375,-0.005859375,-1.125,4.41796875,-3.18359375,-1.6953125,1.0
4538608,,,,,,,,-1.7109375,8.0234375,-2.10546875,-0.482421875,-0.0546875,-0.873046875,0.6640625,-1.078125,0.33203125,1.0
4538609,,,,,,,,-2.62109375,8.4453125,-1.6953125,-0.421875,-0.080078125,-0.546875,-0.21484375,-0.65625,0.71875,1.0
4538610,36.01290066666666,129.319871,114.57937980401887,55.55433763988781,3.8000000000000003,230.0,,-4.75390625,10.0859375,-0.01171875,-1.24609375,0.080078125,-1.890625,-2.32421875,0.9921875,2.36328125,1.0
4538611,,,,,,,,-5.9921875,11.94921875,2.6875,-0.1796875,-0.3046875,1.13671875,-3.625,2.83203125,5.046875,1.0
4538612,,,,,,,,-4.49609375,13.625,1.23046875,-0.2890625,-0.44921875,1.498046875,-2.24609375,4.48046875,3.55078125,1.0
4538613,,,,,,,,-2.33203125,13.734375,-0.98828125,-0.359375,-0.541015625,1.576171875,-0.21484375,4.55859375,1.29296875,1.0
4538614,,,,,,,,-1.87109375,13.3046875,-1.28125,-0.4140625,-0.587890625,1.400390625,0.12890625,4.09765625,0.9453125,1.0
4538615,,,,,,,,-1.640625,12.2109375,-0.91015625,-0.431640625,-0.72265625,0.515625,0.28125,2.984375,1.25390625,1.0
4538616,,,,,,,,-1.33203125,9.875,0.375,-0.419921875,-0.80859375,0.091796875,0.58984375,0.6484375,2.515625,1.0
4538617,,,,,,,,-0.78125,4.81640625,-0.49609375,-0.265625,-0.837890625,-0.044921875,1.1640625,-4.40625,1.59765625,1.0
4538618,,,,,,,,-5.875,-25.53125,11.49609375,-0.1328125,-0.68359375,0.41015625,-3.9296875,-34.75390625,13.55078125,1.0
4538619,,,,,,,,-13.921875,-55.5546875,23.1953125,-0.1015625,-0.33984375,0.71875,-12.015625,-64.78125,25.234375,1.0
4538620,36.01289833333333,129.31986816666668,114.32396100282749,55.295429419330006,3.7,226.0,,-3.3515625,-24.84765625,19.44921875,-0.005859375,0.666015625,0.7578125,-1.5546875,-34.09375,21.48046875,1.0
4538621,,,,,,,,3.13671875,-1.16015625,2.03515625,0.162109375,1.259765625,0.875,4.83984375,-10.421875,4.08984375,1.0
4538622,,,,,,,,3.58984375,-4.3359375,-3.73046875,0.30859375,1.984375,-0.388671875,5.22265625,-13.60546875,-1.62109375,1.0
4538623,,,,,,,,5.796875,-13.70703125,5.81640625,0.310546875,2.708984375,-1.41015625,7.484375,-22.9453125,7.99609375,1.0
4538624,,,,,,,,2.7109375,-13.46875,7.1875,-0.00390625,-3.80078125,1.4609375,4.3828125,-22.71875,9.375,1.0
4538625,,,,,,,,0.0859375,-10.3203125,2.55859375,0.271484375,-0.8359375,2.6953125,1.546875,-19.62109375,4.69921875,1.0
4538626,,,,,,,,-0.953125,-8.95703125,1.00390625,0.466796875,0.630859375,2.50390625,0.3984375,-18.2734375,3.16796875,1.0
4538627,,,,,,,,-2.8046875,-5.37890625,0.12109375,0.91796875,1.603515625,2.396484375,-1.7109375,-14.71484375,2.36328125,1.0
4538628,,,,,,,,-2.8203125,-2.91015625,1.23046875,1.23046875,0.5625,2.435546875,-1.9765625,-12.2578125,3.58984375,1.0
4538629,,,,,,,,-3.05859375,-2.26953125,1.3203125,1.36328125,-0.046875,2.40625,-2.32421875,-11.609375,3.7421875,1.0
4538630,36.01289666666666,129.3198656666667,114.09859089972178,55.11049442300522,3.4000000000000004,227.0,,-3.359375,-0.3359375,0.21484375,1.630859375,-0.314453125,2.5390625,-2.859375,-9.65625,2.78515625,1.0
4538631,,,,,,,,-3.62109375,2.05859375,-0.9765625,1.71875,0.169921875,2.673828125,-3.35546875,-7.24609375,1.75,1.0
4538632,,,,,,,,-4.1484375,4.52734375,-1.7109375,1.736328125,0.384765625,2.583984375,-4.0078125,-4.75,1.1015625,1.0
4538633,,,,,,,,-4.16796875,7.4296875,-2.14453125,1.703125,0.564453125,2.3046875,-4.2734375,-1.8046875,0.83203125,1.0
4538634,,,,,,,,-4.05859375,8.171875,-2.25390625,1.62890625,0.54296875,2.236328125,-4.27734375,-1.0390625,0.79296875,1.0
