time,latitude,longitude,enu_x,enu_y,speed,course,ecg,accX,accY,accZ,gyrX,gyrY,gyrZ,eulR,eulP,eulY,validity
4459410,36.01306916666667,129.32012866666668,137.80747899621707,74.25130348613534,3.0,231.0,,2.98046875,-9.12890625,1.37109375,-0.517578125,-0.736328125,-1.46484375,2.17578125,-17.33203125,5.42578125,1.0
4459411,,,,,,,,1.98828125,-8.890625,1.5703125,-0.85546875,-0.236328125,-1.654296875,1.33203125,-17.140625,5.578125,1.0
4459412,,,,,,,,1.94140625,-8.515625,1.37890625,-1.0234375,-0.365234375,-1.64453125,1.37109375,-16.80078125,5.34765625,1.0
4459413,,,,,,,,2.47265625,-6.27734375,0.05859375,-1.189453125,-0.44921875,-1.63671875,2.13671875,-14.6484375,3.89453125,1.0
4459414,,,,,,,,2.8828125,-4.71484375,-0.80859375,-1.23828125,-0.2578125,-1.744140625,2.6328125,-13.12109375,2.97265625,1.0
4459415,,,,,,,,3.44140625,-2.8125,-1.42578125,-1.32421875,0.130859375,-2.025390625,3.36328125,-11.28125,2.24609375,1.0
4459416,,,,,,,,4.10546875,0.54296875,-1.8828125,-1.373046875,0.232421875,-2.23828125,4.20703125,-7.98828125,1.671875,1.0
4459417,,,,,,,,4.453125,2.58984375,-1.87890625,-1.404296875,0.18359375,-2.2734375,4.7421875,-5.9921875,1.55859375,1.0
4459418,,,,,,,,4.46875,4.4296875,-1.80859375,-1.392578125,0.275390625,-2.033203125,5.05078125,-4.234375,1.44140625,1.0
4459419,,,,,,,,4.453125,6.1328125,-1.5625,-1.361328125,0.345703125,-1.9375,5.12890625,-2.546875,1.6328125,1.0
4459420,36.013067500000005,129.32012633333335,137.59713467504034,74.06636811758825,2.8000000000000003,230.0,,3.98828125,7.97265625,-1.7890625,-0.517578125,-0.736328125,-1.46484375,4.81640625,-0.74609375,1.2890625,1.0
4459421,,,,,,,,2.8515625,9.45703125,-2.453125,-1.130859375,0.52734375,-1.55078125,3.8203125,0.70703125,0.5234375,1.0
4459422,,,,,,,,2.1015625,9.96484375,-2.828125,-1.03125,0.53125,-1.50390625,3.13671875,1.20703125,0.1015625,1.0
4459423,,,,,,,,1.29296875,10.5546875,-3.66796875,-0.83203125,0.509765625,-1.369140625,2.44140625,1.78125,-0.81640625,1.0
4459424,,,,,,,,0.56640625,11.40625,-4.21875,-0.65625,0.369140625,-1.30078125,1.6015625,2.97265625,-1.5078125,1.0
4459425,,,,,,,,0.03515625,12.29296875,-4.43359375,-0.6171875,0.24609375,-1.255859375,1.41015625,3.50390625,-1.69921875,1.0
4459426,,,,,,,,-0.02734375,12.29296875,-4.41015625,-0.6328125,0.189453125,-1.22265625,1.63671875,3.234375,-1.77734375,1.0
4459427,,,,,,,,0.8046875,10.80078125,-4.69921875,-0.6953125,0.111328125,-1.109375,2.41015625,2.01171875,-2.08203125,1.0
4459428,,,,,,,,2.125,7.16015625,-5.03515625,-0.615234375,0.095703125,-0.708984375,3.859375,-1.62890625,-2.50390625,1.0
4459429,,,,,,,,1.62890625,6.125,-4.3125,-0.580078125,0.126953125,-0.619140625,3.40234375,-2.6640625,-1.8125,1.0
4459430,36.0130655,129.3201236666667,137.3567413170562,73.84444586957487,3.0,229.0,,-0.44921875,6.78515625,-2.390625,-0.517578125,-0.736328125,-1.46484375,4.81640625,-0.74609375,1.2890625,1.0
4459431,,,,,,,,-1.70703125,8.25,-1.19921875,-0.60546875,0.490234375,-0.28515625,0.18359375,-0.5546875,1.17578125,1.0
4459432,,,,,,,,-3.80859375,10.86328125,1.95703125,-0.59375,0.552734375,0.384765625,-1.92578125,2.05078125,4.27734375,1.0
4459433,,,,,,,,-3.78515625,10.86328125,1.97265625,-0.51171875,0.419921875,1.26953125,-2.61328125,2.5078125,5.921875,1.0
4459434,,,,,,,,-4.86328125,11.8125,3.4296875,-0.419921875,0.107421875,1.966796875,-2.19140625,3.0078125,4.046875,1.0
4459435,,,,,,,,-2.97265625,11.96484375,1.359375,-0.2578125,-0.564453125,2.291015625,-0.54296875,2.890625,3.6640625,1.0
4459436,,,,,,,,-0.6328125,9.02734375,0.58203125,-0.193359375,-1.03125,1.896484375,0.796875,-2.69921875,2.1328125,1.0
4459437,,,,,,,,-0.5,-2.52734375,1.37109375,-0.1640625,-1.41015625,0.759765625,0.6796875,-11.46875,3.51171875,1.0
4459438,,,,,,,,-0.58203125,-19.22265625,6.375,-0.1015625,-1.39453125,0.373046875,0.56640625,-28.17578125,8.4921875,1.0
4459439,,,,,,,,-3.45703125,-38.98046875,13.94140625,0.052734375,-0.673828125,0.41015625,-2.30859375,-47.94140625,16.03515625,1.0
4459440,36.01306366666667,129.32012133333333,137.14639725990276,73.64101730513033,3.0,227.0,,-0.44921875,6.78515625,-2.390625,0.076171875,0.646484375,0.6015625,4.81640625,-0.74609375,1.2890625,1.0
4459441,,,,,,,,-6.6328125,-12.1640625,6.28125,-0.013671875,1.666015625,0.212890625,-5.5625,-21.12890625,8.375,1.0
4459442,,,,,,,,-1.19921875,-6.06640625,0.94921875,-0.09765625,1.87890625,-0.044921875,-0.16015625,-15.03125,3.05078125,1.0
4459443,,,,,,,,8.125,-9.66796875,0.23828125,-0.009765625,1.814453125,-0.7421875,9.1484375,-18.63671875,2.36328125,1.0
4459444,,,,,,,,10.13671875,-11.92578125,5.33984375,0.404296875,0.287109375,0.39453125,11.17578125,-20.890625,7.49609375,1.0
4459445,,,,,,,,4.921875,-14.09375,5.20703125,0.046875,-3.009765625,0.515625,5.890625,-23.08203125,7.37890625,1.0
4459446,,,,,,,,4.25390625,-12.2578125,3.65234375,0.107421875,-3.1171875,0.07421875,5.23828125,-21.24609375,5.80859375,1.0
4459447,,,,,,,,1.28125,-6.734375,0.85546875,0.283203125,-1.146484375,1.01171875,2.2890625,-15.73046875,3.01171875,1.0
4459448,,,,,,,,-0.015625,-6.39453125,0.83203125,0.625,1.056640625,2.76953125,0.71875,-15.4140625,3.05078125,1.0
4459449,,,,,,,,-1.0703125,-5.890625,1.0703125,0.80078125,0.66796875,2.69140625,-0.46875,-14.92578125,3.3203125,1.0
4459450,36.013062,129.32011883333334,136.92102810487546,73.45608171766722,2.9000000000000004,228.0,,-1.25390625,-4.09765625,0.4296875,0.076171875,0.646484375,0.6015625,-0.96484375,-13.1171875,2.8203125,1.0
4459451,,,,,,,,-2.34765625,-0.3515625,-0.859375,1.427734375,-0.08203125,2.15625,-2.15234375,-9.37109375,1.59375,1.0
4459452,,,,,,,,-3.03125,3.609375,-1.5,1.767578125,0.744140625,2.47265625,-3.265625,-5.34765625,1.25,1.0
4459453,,,,,,,,-3.2890625,4.87890625,-1.65234375,1.78125,0.751953125,2.443359375,-3.6484375,-4.04296875,1.17578125,1.0
4459454,,,,,,,,-3.484375,6.94140625,-1.6875,1.705078125,0.697265625,2.376953125,-4.07421875,-1.93359375,1.2890625,1.0
4459455,,,,,,,,-3.48828125,7.5234375,-1.8046875,1.623046875,0.6875,2.337890625,-4.1796875,-1.3203125,1.25,1.0
4459456,,,,,,,,-3.41796875,8.11328125,-2.2109375,1.533203125,0.708984375,2.314453125,-4.22265625,-0.70703125,0.90625,1.0
4459457,,,,,,,,-3.57421875,10.1953125,-2.48828125,1.41796875,0.765625,2.283203125,-4.6015625,1.4375,0.75390625,1.0
4459458,,,,,,,,-3.43359375,10.46875,-2.71484375,1.24609375,0.796875,2.33984375,-4.6796875,1.78125,0.63671875,1.0
4459459,,,,,,,,-2.40625,11.37109375,-3.53515625,0.984375,0.822265625,2.130859375,-4.11328125,2.81640625,-0.01171875,1.0
4459460,36.01306,129.3201165,136.7106843192831,73.23415995707498,2.9000000000000004,226.0,,-1.875,10.87890625,-3.9140625,0.076171875,0.646484375,0.6015625,-0.96484375,-13.1171875,2.8203125,1.0
4459461,,,,,,,,-1.203125,9.58984375,-4.16796875,0.814453125,0.90234375,1.623046875,-3.19140625,1.12890625,-0.55078125,1.0
4459462,,,,,,,,-0.78515625,7.8125,-4.55078125,0.71875,0.93359375,1.017578125,-2.9140625,-0.59375,-0.89453125,1.0
4459463,,,,,,,,-0.203125,6.1953125,-4.97265625,0.65625,0.9453125,0.3125,-2.42578125,-2.1640625,-1.27734375,1.0
4459464,,,,,,,,0.41015625,6.171875,-4.890625,0.552734375,0.919921875,-0.3125,-1.84765625,-2.16796875,-1.1640625,1.0
4459465,,,,,,,,1.58203125,7.0078125,-4.17578125,0.451171875,0.83203125,-0.75390625,-0.66015625,-1.3203125,-0.43359375,1.0
4459466,,,,,,,,2.953125,8.2421875,-3.42578125,0.41015625,0.671875,-0.966796875,0.7578125,-0.09375,0.33203125,1.0
4459467,,,,,,,,4.4296875,9.28125,-2.9921875,0.359375,0.455078125,-0.98828125,2.2890625,0.9375,0.7890625,1.0
4459468,,,,,,,,4.3203125,10.27734375,-2.31640625,0.353515625,0.205078125,-0.826171875,2.25,1.93359375,1.48046875,1.0
4459469,,,,,,,,3.453125,10.39453125,-2.4609375,0.37890625,-0.0859375,-0.697265625,1.4453125,2.05078125,1.3671875,1.0
4459470,36.013058666666666,129.32011400000002,136.48531456960703,73.08621079487449,2.8000000000000003,229.0,,2.28125,9.57421875,-3.390625,0.310546875,-0.54296875,-0.61328125,0.375,1.2421875,0.484375,1.0
4459471,,,,,,,,1.5,7.57421875,-3.26953125,0.259765625,-0.693359375,-0.07421875,-0.3515625,-0.74609375,0.63671875,1.0
4459472,,,,,,,,1.28515625,2.921875,-2.5703125,0.1953125,-0.701171875,0.244140625,-0.54296875,-5.38671875,1.3671875,1.0
4459473,,,,,,,,2.9140625,-4.5625,-1.9453125,0.130859375,-0.607421875,0.1328125,1.1015625,-12.8515625,2.015625,1.0
4459474,,,,,,,,7.6875,-26.90234375,2.55859375,0.12109375,-0.412109375,-0.134765625,5.890625,-35.18359375,6.53515625,1.0
4459475,,,,,,,,13.78515625,-44.6796875,14.62109375,0.08203125,-0.193359375,-0.32421875,12.01953125,-52.9609375,18.60546875,1.0
4459476,,,,,,,,8.796875,-18.8515625,10.20703125,0.013671875,0.056640625,-0.58984375,7.078125,-27.14453125,14.19921875,1.0
4459477,,,,,,,,3.48046875,-6.42578125,1.96875,0.021484375,0.4140625,-1.166015625,1.83203125,-14.7265625,5.9609375,1.0
4459478,,,,,,,,-0.4140625,-9.2890625,-3.76953125,0.166015625,0.7265625,-0.662109375,-2.0,-17.60546875,0.21484375,1.0
4459479,,,,,,,,-0.0234375,-14.67578125,-0.58984375,0.232421875,0.208984375,-0.623046875,-1.578125,-23.0,3.39453125,1.0
4459480,36.013056666666664,129.32011150000002,136.25994596106776,72.86428880952153,3.0,229.0,,2.01953125,-16.99609375,3.32421875,-0.158203125,-3.068359375,-0.1328125,0.60546875,-25.33984375,7.33984375,1.0
4459481,,,,,,,,3.42578125,-10.0078125,-0.3125,0.01171875,-2.787109375,-0.779296875,2.17578125,-18.3671875,3.7421875,1.0
4459482,,,,,,,,3.63671875,-8.5078125,-0.97265625,-0.111328125,-1.419921875,-1.6796875,2.48046875,-16.87890625,3.08984375,1.0
4459483,,,,,,,,4.33203125,-6.765625,-2.25390625,-0.548828125,0.6328125,-2.97265625,3.40234375,-15.19140625,1.78515625,1.0
4459484,,,,,,,,4.625,-7.05078125,-2.11328125,-0.853515625,-0.08984375,-2.59375,3.9375,-15.53125,1.86328125,1.0
4459485,,,,,,,,4.7890625,-5.72265625,-0.953125,-1.208984375,-1.001953125,-1.90625,4.3203125,-14.265625,2.9375,1.0
4459486,,,,,,,,4.71484375,-4.76953125,-0.8515625,-1.349609375,-0.912109375,-1.88671875,4.43359375,-13.3828125,2.9375,1.0
4459487,,,,,,,,4.54296875,-1.8359375,-1.6484375,-1.4296875,-0.30078125,-2.310546875,4.47265625,-10.51953125,2.015625,1.0
4459488,,,,,,,,4.20703125,0.85546875,-2.44921875,-1.5078125,0.265625,-2.37109375,4.47265625,-7.90625,1.01953125,1.0
4459489,,,,,,,,4.12109375,2.7578125,-2.41796875,-1.484375,0.28515625,-2.201171875,4.47265625,-6.03125,0.98046875,1.0
4459490,36.01305516666666,129.32010899999997,136.0345764768594,72.69784645349094,2.8000000000000003,230.0,,3.12109375,7.4296875,-2.265625,-0.158203125,-3.068359375,-0.1328125,3.7421875,-1.4375,0.9453125,1.0
4459491,,,,,,,,2.21875,8.58984375,-2.44921875,-1.1015625,0.189453125,-1.681640625,3.09375,-0.32421875,0.59765625,1.0
4459492,,,,,,,,1.3046875,9.59375,-3.09765625,-0.990234375,0.22265625,-1.60546875,2.25390625,0.671875,-0.08984375,1.0
4459493,,,,,,,,0.4375,10.796875,-3.6953125,-0.76953125,0.2421875,-1.451171875,1.5234375,1.859375,-0.78125,1.0
4459494,,,,,,,,0.19921875,11.953125,-4.0234375,-0.6328125,0.16796875,-1.310546875,1.41015625,3.01171875,-1.1640625,1.0
4459495,,,,,,,,0.05859375,12.83203125,-3.953125,-0.59375,0.0390625,-1.208984375,1.41015625,3.8828125,-1.1640625,1.0
4459496,,,,,,,,0.32421875,12.87109375,-3.9375,-0.619140625,-0.01953125,-1.193359375,1.71484375,3.92578125,-1.1640625,1.0
4459497,,,,,,,,1.546875,10.92578125,-3.94140625,-0.736328125,-0.044921875,-1.181640625,3.0546875,1.97265625,-1.23828125,1.0
4459498,,,,,,,,2.234375,8.97265625,-4.21875,-0.7421875,-0.04296875,-1.041015625,3.859375,0.01953125,-1.5859375,1.0
4459499,,,,,,,,2.2265625,8.4296875,-4.21484375,-0.66796875,-0.0390625,-0.958984375,3.90234375,-0.515625,-1.62109375,1.0
4459500,36.01305333333333,129.3201063333333,135.79418275590916,72.49441745596722,2.9000000000000004,230.0,0.0,1.2890625,7.27734375,-3.90234375,-0.494140625,0.001953125,-0.8046875,3.7421875,-1.4375,0.9453125,1.0
4459501,,,,,,,,0.21484375,6.7734375,-3.37109375,-0.49609375,0.2421875,-0.826171875,2.13671875,-2.16796875,-0.93359375,1.0
4459502,,,,,,,,-1.1484375,7.953125,-2.25,-0.490234375,0.4140625,-0.48046875,0.8359375,-0.98046875,0.140625,1.0
4459503,,,,,,,,-2.27734375,9.74609375,-0.34375,-0.46484375,0.453125,0.13671875,-0.27734375,0.82421875,2.01953125,1.0
4459504,,,,,,,,-2.703125,10.48046875,1.8515625,-0.513671875,0.345703125,1.4765625,-0.8515625,1.51171875,4.125,1.0
4459505,,,,,,,,-0.32421875,8.25390625,1.0546875,-0.35546875,0.16015625,1.890625,1.37109375,-0.74609375,3.28125,1.0
4459506,,,,,,,,-0.4375,4.28515625,-0.2421875,-0.259765625,-0.001953125,1.97265625,1.1796875,-4.7265625,1.9765625,1.0
4459507,,,,,,,,-0.16796875,-4.15625,2.38671875,-0.140625,-0.46875,1.75,1.29296875,-13.1953125,4.58203125,1.0
4459508,,,,,,,,1.0078125,-31.453125,9.890625,-0.099609375,-1.0234375,0.9375,2.3671875,-40.51171875,12.0546875,1.0
4459509,,,,,,,,-6.203125,-46.1953125,14.6640625,-0.044921875,-1.181640625,0.5859375,-4.875,-55.2578125,16.8046875,1.0
4459510,36.01305133333334,129.32010383333332,135.5688141138766,72.27249549051194,3.0,228.0,,-12.828125,-29.8671875,14.609375,-0.091796875,-0.548828125,0.6484375,-11.5390625,-38.94140625,16.7265625,1.0
4459511,,,,,,,,0.7265625,-3.23828125,0.18359375,-0.419921875,0.6640625,0.12109375,1.984375,-12.3125,2.28515625,1.0
4459512,,,,,,,,4.25,-3.3359375,-2.3203125,-0.5625,1.142578125,-0.375,5.5078125,-12.43359375,-0.2421875,1.0
4459513,,,,,,,,10.0859375,-9.12890625,0.828125,0.267578125,1.01171875,-0.779296875,11.4453125,-18.2109375,2.8984375,1.0
4459514,,,,,,,,8.78515625,-11.93359375,2.87109375,0.6171875,0.02734375,0.572265625,10.14453125,-21.01171875,4.96484375,1.0
4459515,,,,,,,,4.5859375,-16.33203125,5.1171875,0.203125,-3.642578125,0.498046875,5.890625,-25.41796875,7.2265625,1.0
4459516,,,,,,,,3.14453125,-13.984375,3.4453125,0.208984375,-3.484375,0.51171875,4.47265625,-23.08203125,5.5390625,1.0
4459517,,,,,,,,2.04296875,-10.40625,1.86328125,0.03125,-0.505859375,1.8359375,3.32421875,-19.515625,3.93359375,1.0
4459518,,,,,,,,1.15625,-7.359375,0.08984375,0.138671875,1.046875,2.55078125,2.328125,-16.4921875,2.16796875,1.0
4459519,,,,,,,,-0.84375,-5.52734375,-1.203125,0.642578125,1.11328125,2.876953125,-0.0859375,-14.69140625,0.9453125,1.0
4459520,36.013049333333335,129.320101,135.31339585073906,72.05057306721558,3.2,228.0,,-1.859375,-5.25,-0.78515625,0.83984375,0.435546875,2.615234375,-1.234375,-14.421875,1.40234375,1.0
4459521,,,,,,,,-2.515625,-4.29296875,-0.04296875,1.240234375,-0.529296875,2.271484375,-2.1171875,-13.46484375,2.24609375,1.0
4459522,,,,,,,,-3.75,-1.2421875,-0.46484375,1.4921875,-0.435546875,2.380859375,-3.53125,-10.3984375,1.94140625,1.0
4459523,,,,,,,,-3.70703125,4.04296875,-1.56640625,1.666015625,0.408203125,2.69140625,-3.83984375,-5.0703125,1.05859375,1.0
4459524,,,,,,,,-3.42578125,5.94140625,-2.48046875,1.607421875,0.49609375,2.544921875,-3.796875,-3.12109375,0.29296875,1.0
4459525,,,,,,,,-3.3125,7.85546875,-3.234375,1.43359375,0.27734375,2.345703125,-3.91796875,-1.16796875,-0.3203125,1.0
4459526,,,,,,,,-3.3203125,8.3671875,-3.2890625,1.333984375,0.16796875,2.298828125,-4.03515625,-0.6328125,-0.3203125,1.0
4459527,,,,,,,,-3.29296875,9.76953125,-3.30078125,1.142578125,0.056640625,2.22265625,-4.21875,0.82421875,-0.20703125,1.0
4459528,,,,,,,,-2.8359375,10.54296875,-3.26953125,0.935546875,0.060546875,2.044921875,-4.03125,1.66796875,-0.05078125,1.0
4459529,,,,,,,,-2.07421875,11.91015625,-3.07421875,0.818359375,0.16015625,2.056640625,-3.45703125,3.08203125,0.21484375,1.0
4459530,36.013047666666665,129.3200985,135.08802661648338,71.86563752720214,3.0,228.0,,-1.234375,11.7421875,-3.6328125,0.83984375,0.435546875,2.615234375,-2.8046875,2.97265625,-0.28125,1.0
4459531,,,,,,,,-0.65234375,9.10546875,-4.8828125,0.51171875,0.3515625,1.583984375,-2.57421875,0.44140625,-1.4296875,1.0
4459532,,,,,,,,-0.48828125,7.6015625,-4.984375,0.498046875,0.306640625,0.873046875,-2.53515625,-1.015625,-1.5078125,1.0
4459533,,,,,,,,-0.25,6.46875,-4.71484375,0.474609375,0.220703125,0.126953125,-2.34765625,-2.125,-1.19921875,1.0
4459534,,,,,,,,0.09375,6.56640625,-4.05859375,0.404296875,0.21484375,-0.390625,-2.0,-2.01171875,-0.51171875,1.0
4459535,,,,,,,,0.93359375,7.44140625,-3.35546875,0.35546875,0.283203125,-0.580078125,-1.12109375,-1.12890625,0.21484375,1.0
4459536,,,,,,,,1.1796875,7.82421875,-3.1328125,0.357421875,0.33203125,-0.564453125,-0.8515625,-0.74609375,0.4453125,1.0
4459537,,,,,,,,1.9921875,8.97265625,-2.6953125,0.37890625,0.38671875,-0.474609375,-0.0078125,0.40234375,0.91015625,1.0
4459538,,,,,,,,2.46484375,9.80078125,-2.3359375,0.421875,0.275390625,-0.43359375,0.48828125,1.24609375,1.29296875,1.0
4459539,,,,,,,,2.59765625,9.90625,-2.3046875,0.431640625,0.12109375,-0.43359375,0.64453125,1.359375,1.328125,1.0
4459540,36.01304583333333,129.3200955,134.81758324008396,71.66220809473594,3.2,230.0,,2.94921875,9.8984375,-2.26953125,0.83984375,0.435546875,2.615234375,-2.8046875,2.97265625,-0.28125,1.0
4459541,,,,,,,,1.61328125,8.54296875,0.7890625,0.46484375,-0.68359375,-0.56640625,-0.23828125,0.01953125,4.5078125,1.0
4459542,,,,,,,,0.41796875,4.62109375,2.3515625,0.412109375,-1.033203125,-0.63671875,-1.34765625,-3.88671875,6.1171875,1.0
4459543,,,,,,,,6.60546875,-15.03125,3.7578125,0.322265625,-1.283203125,-0.638671875,4.93359375,-23.5390625,7.5703125,1.0
4459544,,,,,,,,12.05859375,-32.9375,9.58203125,0.24609375,-1.291015625,-0.380859375,10.48828125,-41.4296875,13.43359375,1.0
4459545,,,,,,,,17.40234375,-35.12890625,13.90234375,0.1328125,-0.4609375,-0.51171875,15.92578125,-43.609375,17.80078125,1.0
4459546,,,,,,,,8.046875,-16.76953125,11.5546875,0.12109375,0.10546875,-1.021484375,6.6171875,-25.2578125,15.4609375,1.0
4459547,,,,,,,,-1.875,-3.34765625,3.2890625,0.13671875,1.740234375,-1.34375,-3.2265625,-11.8515625,7.1875,1.0
4459548,,,,,,,,-3.23828125,-9.046875,-0.1484375,0.1484375,1.72265625,-0.77734375,-4.56640625,-17.56640625,3.7421875,1.0
4459549,,,,,,,,1.95703125,-14.92578125,2.77734375,-0.263671875,-0.529296875,-0.208984375,0.64453125,-23.4609375,6.65234375,1.0
4459550,36.013044,129.32009266666668,134.56216465713186,71.4587789006216,3.3000000000000003,230.0,,2.765625,-15.453125,4.2265625,0.83984375,0.435546875,2.615234375,1.5234375,-24.0,8.109375,1.0
4459551,,,,,,,,3.0234375,-12.671875,2.8828125,-0.05859375,-2.27734375,-1.603515625,2.0234375,-21.24609375,6.8046875,1.0
4459552,,,,,,,,4.49609375,-6.6953125,0.171875,-0.515625,0.251953125,-3.009765625,3.74609375,-15.30859375,4.0859375,1.0
4459553,,,,,,,,4.80078125,-6.36328125,-0.21875,-0.76171875,0.552734375,-2.923828125,4.16796875,-14.99609375,3.6640625,1.0
4459554,,,,,,,,4.7421875,-6.26953125,-0.515625,-1.017578125,-0.0078125,-1.98828125,4.3203125,-14.95703125,3.28125,1.0
4459555,,,,,,,,4.484375,-5.94140625,-0.109375,-1.32421875,-0.556640625,-1.728515625,4.2421875,-14.69140625,3.5859375,1.0
4459556,,,,,,,,4.52734375,-2.7734375,-0.19140625,-1.39453125,-0.544921875,-2.01171875,4.47265625,-11.58984375,3.39453125,1.0
4459557,,,,,,,,4.35546875,-0.84375,-0.82421875,-1.474609375,-0.193359375,-2.265625,4.51171875,-9.71484375,2.62890625,1.0
4459558,,,,,,,,4.21484375,0.26171875,-1.14453125,-1.525390625,0.02734375,-2.25390625,4.47265625,-8.63671875,2.24609375,1.0
4459559,,,,,,,,3.8671875,2.03125,-1.69921875,-1.541015625,0.392578125,-2.033203125,4.3203125,-6.91796875,1.55859375,1.0
4459560,36.01304233333334,129.32008983333333,134.30674577642992,71.27384292195735,3.1,231.0,,3.05859375,6.66015625,-2.30859375,-1.36328125,0.392578125,-1.76953125,3.7421875,-2.35546875,0.75390625,1.0
4459561,,,,,,,,1.40625,10.19140625,-2.75,-1.009765625,0.259765625,-1.65234375,2.41015625,1.12890625,0.1015625,1.0
4459562,,,,,,,,0.56640625,11.6640625,-3.1640625,-0.916015625,0.25390625,-1.66796875,1.63671875,2.58984375,-0.359375,1.0
4459563,,,,,,,,-0.125,12.78125,-3.55078125,-0.76171875,0.2421875,-1.60546875,1.1015625,3.6953125,-0.81640625,1.0
4459564,,,,,,,,-0.87890625,13.6953125,-4.1015625,-0.681640625,0.201171875,-1.45703125,0.48828125,4.62109375,-1.4296875,1.0
4459565,,,,,,,,-0.765625,12.890625,-4.0,-0.724609375,0.072265625,-1.322265625,0.796875,3.81640625,-1.4296875,1.0
4459566,,,,,,,,0.19921875,11.00390625,-4.0078125,-0.7265625,0.0234375,-1.298828125,1.83203125,1.9296875,-1.46875,1.0
4459567,,,,,,,,1.94921875,8.3984375,-4.50390625,-0.697265625,-0.033203125,-1.25390625,3.70703125,-0.671875,-2.04296875,1.0
4459568,,,,,,,,2.828125,6.66796875,-4.71875,-0.642578125,-0.033203125,-1.208984375,4.70703125,-2.39453125,-2.3125,1.0
4459569,,,,,,,,2.7734375,6.23828125,-4.53515625,-0.615234375,0.0234375,-1.2265625,4.703125,-2.81640625,-2.16015625,1.0
4459570,36.0130405,129.320087,134.05132717075782,71.07041374341989,3.2,232.0,,1.9609375,5.765625,-4.32421875,-0.607421875,0.189453125,-1.44140625,4.015625,-3.2734375,-2.00390625,1.0
4459571,,,,,,,,0.09375,5.93359375,-3.54296875,-0.615234375,0.369140625,-1.60546875,2.2890625,-3.08203125,-1.27734375,1.0
4459572,,,,,,,,-0.62109375,6.30078125,-3.05859375,-0.603515625,0.46484375,-1.51171875,1.63671875,-2.6953125,-0.81640625,1.0
4459573,,,,,,,,-2.64453125,8.34375,-1.3046875,-0.490234375,0.689453125,-0.53515625,-0.23828125,-0.6328125,0.87109375,1.0
4459574,,,,,,,,-3.41015625,9.80078125,0.01171875,-0.4296875,0.791015625,0.376953125,-1.00390625,0.82421875,2.16796875,1.0
4459575,,,,,,,,-5.75390625,9.33203125,7.8671875,-0.41796875,0.826171875,1.486328125,-3.49609375,0.32421875,9.984375,1.0
4459576,,,,,,,,-2.90234375,5.44921875,5.078125,-0.39453125,0.751953125,1.7109375,-0.73828125,-3.58203125,7.1875,1.0
4459577,,,,,,,,0.7578125,-8.70703125,6.6796875,-0.2109375,0.158203125,1.96875,2.671875,-17.7890625,8.7578125,1.0
4459578,,,,,,,,0.45703125,-25.80078125,10.265625,-0.111328125,-0.46875,1.671875,2.21484375,-34.9140625,12.3203125,1.0
4459579,,,,,,,,-2.83203125,-37.16796875,13.453125,-0.119140625,-0.900390625,1.005859375,-1.12109375,-46.2890625,15.5,1.0
4459580,36.013038333333334,129.32008433333334,133.8109339227936,70.82999838628264,3.3000000000000003,229.0,,-12.17578125,-37.359375,8.62109375,-0.14453125,-1.462890625,-0.46875,-10.46484375,-46.484375,10.63671875,1.0
4459581,,,,,,,,-2.01953125,-5.44921875,3.2890625,-0.33203125,0.013671875,-0.306640625,-0.23828125,-14.5703125,5.2734375,1.0
4459582,,,,,,,,3.51953125,-4.90625,-1.3984375,-0.486328125,2.580078125,-0.60546875,5.31640625,-14.0390625,0.5625,1.0
4459583,,,,,,,,7.46484375,-7.13671875,-2.13671875,-0.16796875,2.98046875,-0.439453125,9.26171875,-16.26171875,-0.16796875,1.0
4459584,,,,,,,,9.734375,-13.87109375,3.89453125,0.384765625,1.0625,0.810546875,11.484375,-23.0,5.92578125,1.0
4459585,,,,,,,,6.02734375,-15.96875,4.453125,0.025390625,-2.166015625,0.919921875,7.69140625,-25.109375,6.5,1.0
4459586,,,,,,,,2.65625,-10.19140625,2.53125,-0.146484375,-1.919921875,1.005859375,4.3203125,-19.36328125,4.5078125,1.0
4459587,,,,,,,,-0.55078125,-3.6015625,0.30078125,-0.1875,1.263671875,2.431640625,0.94921875,-12.8125,2.24609375,1.0
4459588,,,,,,,,-1.29296875,-2.8515625,-0.13671875,0.048828125,1.833984375,2.86328125,0.10546875,-12.08984375,1.82421875,1.0
4459589,,,,,,,,-2.38671875,-2.71875,-0.15234375,0.908203125,0.302734375,2.708984375,-1.42578125,-12.0078125,1.90234375,1.0
4459590,36.01303633333334,129.32008166666668,133.5705403802566,70.60807624341945,3.2,227.0,,-3.43359375,-2.22265625,-0.24609375,1.287109375,-0.8359375,2.322265625,-10.46484375,-46.484375,10.63671875,1.0
4459591,,,,,,,,-4.69140625,0.8359375,-0.87890625,1.634765625,-0.494140625,2.49609375,-4.375,-7.375,1.40234375,1.0
4459592,,,,,,,,-4.8125,1.8984375,-0.94921875,1.703125,-0.123046875,2.51953125,-5.22265625,-4.234375,1.2109375,1.0
4459593,,,,,,,,-5.3984375,6.02734375,-1.57421875,1.509765625,0.392578125,2.205078125,-5.328125,-1.359375,0.59765625,1.0
4459594,,,,,,,,-5.0390625,9.26953125,-2.328125,1.232421875,0.3046875,2.09765625,-5.21875,0.78515625,0.5625,1.0
4459595,,,,,,,,-4.7265625,10.5703125,-2.359375,1.1015625,0.208984375,2.025390625,-4.83984375,2.01171875,0.5234375,1.0
4459596,,,,,,,,-4.2421875,11.55078125,-2.34765625,1.0234375,0.177734375,1.998046875,-4.45703125,3.08203125,0.63671875,1.0
4459597,,,,,,,,-3.328125,12.421875,-2.546875,0.84765625,0.232421875,1.970703125,-4.03125,3.3515625,0.5234375,1.0
4459598,,,,,,,,-2.56640625,12.27734375,-3.125,0.67578125,0.369140625,1.845703125,-3.453125,3.23828125,0.0234375,1.0
4459599,,,,,,,,-2.2890625,12.13671875,-3.4609375,0.599609375,0.4296875,1.701171875,-3.26953125,3.12109375,-0.28125,1.0
4459600,36.01303433333333,129.320079,133.3301468243937,70.38615410596972,3.2,227.0,0.0,-1.12109375,9.9921875,-4.234375,0.537109375,0.53515625,1.259765625,-2.26953125,1.015625,-1.0078125,1.0
4459601,,,,,,,,-0.37890625,6.90234375,-4.015625,0.53125,0.603515625,0.349609375,-1.73046875,-2.01171875,-0.703125,1.0
4459602,,,,,,,,-0.09765625,6.58984375,-3.76171875,0.505859375,0.642578125,0.052734375,-1.46484375,-2.31640625,-0.43359375,1.0
4459603,,,,,,,,1.08984375,6.421875,-2.99609375,0.361328125,0.826171875,-0.55859375,-0.27734375,-2.47265625,0.37109375,1.0
4459604,,,,,,,,1.79296875,7.171875,-3.01171875,0.3125,0.9765625,-0.728515625,0.44921875,-1.703125,0.37109375,1.0
4459605,,,,,,,,2.453125,8.703125,-2.9921875,0.26953125,1.005859375,-0.703125,1.14453125,-0.171875,0.40625,1.0
4459606,,,,,,,,2.3984375,9.35546875,-3.0,0.244140625,0.94140625,-0.66015625,1.1015625,0.48046875,0.40625,1.0
4459607,,,,,,,,2.59765625,10.609375,-3.0,0.26953125,0.62109375,-0.61328125,1.33203125,1.7421875,0.40625,1.0
4459608,,,,,,,,2.17578125,11.1328125,-3.3671875,0.330078125,0.166015625,-0.626953125,0.94921875,2.28125,0.0625,1.0
4459609,,,,,,,,1.9609375,11.09375,-3.421875,0.34765625,-0.0625,-0.61328125,0.7578125,2.2421875,0.0234375,1.0
4459610,36.01303266666666,129.32007616666667,133.07472788924878,70.2012181621676,3.1,230.0,,1.66796875,10.42578125,-3.4140625,0.537109375,0.53515625,1.259765625,-2.26953125,1.015625,-1.0078125,1.0
4459611,,,,,,,,0.78515625,8.7265625,-1.4921875,0.271484375,-0.953125,-0.568359375,-0.27734375,-0.09375,2.015625,1.0
4459612,,,,,,,,-0.91015625,5.61328125,2.69140625,0.234375,-1.212890625,-0.611328125,-1.88671875,-3.19921875,6.23046875,1.0
4459613,,,,,,,,0.59765625,-5.625,1.9765625,0.1640625,-1.30078125,-0.560546875,-0.27734375,-14.42578125,5.5390625,1.0
4459614,,,,,,,,7.4921875,-29.99609375,7.2421875,0.0,-0.98828125,-0.181640625,6.734375,-38.78515625,10.828125,1.0
4459615,,,,,,,,15.87890625,-54.390625,11.53125,-0.158203125,-0.4296875,-0.052734375,15.16015625,-63.1875,15.1171875,1.0
4459616,,,,,,,,4.91015625,-16.65625,9.01171875,-0.22265625,-0.03515625,-0.4453125,4.20703125,-25.453125,12.58984375,1.0
4459617,,,,,,,,1.0546875,-3.80859375,1.984375,-0.107421875,1.9453125,-1.279296875,-2.19140625,-10.44140625,3.625,1.0
4459618,,,,,,,,-3.63671875,-3.41015625,-2.75,-0.02734375,0.791015625,-1.14453125,-2.99609375,-16.76171875,-1.1640625,1.0
4459619,,,,,,,,0.546875,-13.640625,-1.515625,-0.001953125,-1.40625,-0.482421875,0.03125,-22.46875,2.015625,1.0
4459620,36.01303083333333,129.32007333333334,132.81930922074844,69.99778901923133,3.2,231.0,,1.5390625,-16.42578125,3.234375,-0.482421875,-4.017578125,-0.576171875,1.140625,-25.2578125,6.765625,1.0
4459621,,,,,,,,0.4765625,-12.48828125,2.5703125,-0.052734375,-3.6171875,-1.490234375,0.375,-21.35546875,6.078125,1.0
4459622,,,,,,,,2.21875,-7.0703125,-0.28125,-0.52734375,-0.255859375,-3.08203125,2.40625,-15.95703125,3.203125,1.0
4459623,,,,,,,,2.70703125,-6.18359375,-1.17578125,-0.72265625,0.80859375,-3.0,3.01953125,-15.07421875,2.28515625,1.0
4459624,,,,,,,,4.21875,-5.4609375,-1.89453125,-1.119140625,0.486328125,-2.142578125,4.7421875,-14.38671875,1.48046875,1.0
4459625,,,,,,,,3.859375,-3.30859375,0.0,-1.408203125,-1.048828125,-1.95703125,4.6640625,-12.27734375,3.203125,1.0
4459626,,,,,,,,3.29296875,-0.92578125,-1.13671875,-1.474609375,-0.37109375,-2.28515625,4.43359375,-9.9375,1.86328125,1.0
4459627,,,,,,,,2.96875,2.0546875,-2.3359375,-1.478515625,0.4296875,-2.189453125,4.3203125,-6.99609375,0.5234375,1.0
4459628,,,,,,,,2.84375,3.10546875,-2.1796875,-1.34375,0.716796875,-1.916015625,4.359375,-5.95703125,0.5625,1.0
4459629,,,,,,,,2.06640625,5.94921875,-1.84375,-1.1796875,0.619140625,-1.828125,3.7421875,-3.12109375,0.7890625,1.0
4459630,36.0130295,129.32007083333335,132.59393932588307,69.84983995845131,2.9000000000000004,232.0,,0.859375,9.78515625,-1.75,-0.978515625,0.466796875,-1.841796875,2.7109375,0.70703125,0.7890625,1.0
4459631,,,,,,,,0.359375,11.00390625,-1.90625,-0.822265625,0.5,-1.6875,2.3671875,1.93359375,0.5625,1.0
4459632,,,,,,,,0.2265625,12.30078125,-1.921875,-0.748046875,0.55859375,-1.517578125,2.2890625,3.234375,0.5234375,1.0
4459633,,,,,,,,-0.2265625,13.31640625,-2.765625,-0.564453125,0.58203125,-0.955078125,1.984375,4.265625,-0.3984375,1.0
4459634,,,,,,,,-0.3046875,13.1953125,-3.421875,-0.501953125,0.470703125,-0.806640625,1.984375,4.16015625,-1.0859375,1.0
4459635,,,,,,,,1.24609375,10.3515625,-4.01953125,-0.44140625,0.162109375,-0.671875,3.625,1.3203125,-1.73828125,1.0
4459636,,,,,,,,2.17578125,8.69921875,-4.640625,-0.421875,0.076171875,-0.669921875,4.5859375,-0.32421875,-2.390625,1.0
4459637,,,,,,,,2.5703125,7.46484375,-5.18359375,-0.361328125,-0.0078125,-0.671875,5.046875,-1.55078125,-2.96484375,1.0
4459638,,,,,,,,2.2578125,7.2265625,-4.96875,-0.330078125,0.0078125,-0.705078125,4.78125,-1.78125,-2.7734375,1.0
4459639,,,,,,,,-0.02734375,7.171875,-3.640625,-0.228515625,0.095703125,-0.875,2.5546875,-1.8203125,-1.46875,1.0
4459640,36.013027666666666,129.320068,132.33852063361286,69.64641083022745,3.2,232.0,,-0.91796875,7.2734375,-3.2109375,-0.978515625,0.466796875,-1.841796875,1.71484375,-1.703125,-1.046875,1.0
4459641,,,,,,,,-3.640625,8.0390625,-1.51171875,-0.189453125,0.2890625,-0.525390625,-0.890625,-0.8984375,0.63671875,1.0
4459642,,,,,,,,-6.703125,9.64453125,3.64453125,-0.25,0.31640625,0.4453125,-3.953125,0.70703125,5.765625,1.0
4459643,,,,,,,,-7.09375,10.19140625,4.3359375,-0.28515625,0.26171875,1.02734375,-4.375,1.24609375,6.46484375,1.0
4459644,,,,,,,,-6.03515625,10.7265625,3.41015625,-0.341796875,0.080078125,2.02734375,-3.45703125,1.7421875,5.50390625,1.0
4459645,,,,,,,,-3.73046875,10.66796875,2.26171875,-0.37109375,-0.07421875,2.53125,-1.34765625,1.62890625,4.3125,1.0
4459646,,,,,,,,-0.40234375,6.74609375,-0.3125,-0.31640625,-0.275390625,2.236328125,1.75390625,-2.3515625,1.7109375,1.0
4459647,,,,,,,,0.765625,-7.7109375,1.78125,-0.19921875,-0.962890625,0.0625,2.7890625,-16.83984375,3.7421875,1.0
4459648,,,,,,,,-0.4453125,-27.59375,7.00390625,-0.103515625,-1.12890625,-0.4375,1.6015625,-36.71875,8.94921875,1.0
4459649,,,,,,,,-9.0,-44.078125,13.46484375,0.064453125,-1.056640625,-0.6953125,-6.8671875,-53.1875,15.38671875,1.0
4459650,36.013025,129.32006516666667,132.08310332485672,69.35051567365407,3.5,226.0,,-9.23828125,-17.73828125,12.1015625,-0.978515625,0.466796875,-1.841796875,1.71484375,-1.703125,-1.046875,1.0
4459651,,,,,,,,1.0390625,-0.33984375,0.76953125,-0.3828125,1.244140625,0.17578125,3.2109375,-9.44140625,2.66796875,1.0
4459652,,,,,,,,7.98828125,-3.47265625,-3.4609375,-0.09765625,2.130859375,0.10546875,10.10546875,-12.578125,-1.546875,1.0
4459653,,,,,,,,8.265625,-12.8984375,2.953125,0.56640625,1.375,0.595703125,10.3359375,-22.0078125,4.9296875,1.0
4459654,,,,,,,,6.13671875,-17.01953125,6.3203125,0.2890625,-2.255859375,0.966796875,8.11328125,-26.14453125,8.3359375,1.0
4459655,,,,,,,,4.359375,-15.625,3.49609375,0.146484375,-3.638671875,0.572265625,6.3515625,-24.76953125,5.46484375,1.0
4459656,,,,,,,,3.140625,-13.05078125,2.79296875,-0.060546875,-2.728515625,1.162109375,5.125,-22.1953125,4.73828125,1.0
4459657,,,,,,,,0.171875,-6.22265625,1.03125,-0.130859375,1.111328125,2.4296875,2.0234375,-15.4140625,2.9375,1.0
4459658,,,,,,,,-1.37890625,-4.21484375,-0.28125,0.509765625,1.513671875,2.783203125,-0.54296875,-13.3828125,1.3671875,1.0
4459659,,,,,,,,-2.4453125,-4.53515625,-0.50390625,0.931640625,-0.22265625,2.59765625,-1.15625,-13.8046875,1.51953125,1.0
4459660,36.01302316666667,129.32006233333334,131.8276846111462,69.14708656058536,3.4000000000000004,227.0,,-9.23828125,-17.73828125,12.1015625,-0.978515625,0.466796875,-1.841796875,-1.84765625,-13.84765625,2.515625,1.0
4459661,,,,,,,,-3.578125,-3.05078125,0.05078125,1.51953125,-0.279296875,2.677734375,-3.1875,-11.32421875,1.75,1.0
4459662,,,,,,,,-4.08203125,-1.07421875,-0.96484375,1.615234375,0.4609375,2.560546875,-3.953125,-9.33203125,1.09765625,1.0
4459663,,,,,,,,-4.93359375,2.24609375,-2.0078125,1.615234375,0.6640625,2.46484375,-4.68359375,-6.03125,0.40625,1.0
4459664,,,,,,,,-4.8125,5.0859375,-2.33984375,1.5234375,0.509765625,2.419921875,-4.640625,-3.3515625,0.29296875,1.0
4459665,,,,,,,,-3.39453125,9.16796875,-3.19140625,1.08984375,0.408203125,2.09765625,-3.87890625,0.01953125,-0.20703125,1.0
4459666,,,,,,,,-2.82421875,10.4375,-3.046875,0.888671875,0.541015625,1.923828125,-3.49609375,1.3203125,0.0234375,1.0
4459667,,,,,,,,-1.79296875,12.19921875,-3.0390625,0.744140625,0.58203125,1.81640625,-2.65234375,3.12109375,0.1015625,1.0
4459668,,,,,,,,-1.26953125,12.46875,-3.0546875,0.650390625,0.537109375,1.734375,-2.30859375,3.4296875,0.140625,1.0
4459669,,,,,,,,-0.29296875,11.70703125,-4.2890625,0.599609375,0.537109375,1.6484375,-1.50390625,2.6953125,-1.046875,1.0
4459670,36.013021333333334,129.32006,131.61734031630422,68.94365812932519,3.1,226.0,,0.484375,9.6328125,-4.8828125,-0.978515625,0.466796875,-1.841796875,-0.890625,0.671875,-1.5859375,1.0
4459671,,,,,,,,0.7265625,6.71875,-5.15625,0.6484375,0.501953125,0.873046875,-0.7734375,-2.203125,-1.8125,1.0
4459672,,,,,,,,0.6796875,6.12109375,-5.2265625,0.62109375,0.490234375,0.55078125,-0.8515625,-2.7734375,-1.8515625,1.0
4459673,,,,,,,,0.6875,5.33203125,-4.84375,0.5,0.4453125,-0.12890625,-0.890625,-3.5390625,-1.4296875,1.0
4459674,,,,,,,,0.65625,6.08203125,-4.26953125,0.353515625,0.546875,-0.55078125,-0.890625,-2.7734375,-0.81640625,1.0
4459675,,,,,,,,-0.046875,8.7578125,-2.07421875,0.318359375,0.69140625,-0.2890625,-1.578125,-0.09375,1.40234375,1.0
4459676,,,,,,,,-0.24609375,9.4296875,-1.16015625,0.3046875,0.626953125,-0.15625,-1.76953125,0.59375,2.3203125,1.0
4459677,,,,,,,,-0.18359375,9.875,-0.52734375,0.33203125,0.3125,0.13671875,-1.73046875,1.0546875,2.97265625,1.0
4459678,,,,,,,,0.11328125,10.1484375,0.26953125,0.373046875,-0.37109375,0.384765625,-1.46484375,1.359375,3.81640625,1.0
4459679,,,,,,,,0.3203125,9.59765625,0.40625,0.357421875,-0.5859375,0.337890625,-1.2734375,0.82421875,3.96875,1.0
4459680,36.013019666666665,129.320057,131.34689649051208,68.75872201094727,3.2,230.0,,0.61328125,7.703125,-0.015625,0.271484375,-0.951171875,0.02734375,-0.96484375,-1.0546875,3.58984375,1.0
4459681,,,,,,,,4.83984375,-1.88671875,-2.58984375,0.15625,-1.37890625,-0.669921875,3.36328125,-10.625,1.05859375,1.0
4459682,,,,,,,,8.1484375,-17.21875,-0.23046875,0.150390625,-1.451171875,-0.841796875,6.734375,-25.953125,3.43359375,1.0
4459683,,,,,,,,14.78515625,-44.109375,10.9921875,0.138671875,-1.0625,-0.91015625,13.55078125,-52.84375,14.6953125,1.0
4459684,,,,,,,,10.45703125,-31.73828125,19.3984375,0.173828125,-0.201171875,-1.115234375,9.33984375,-40.46875,23.125,1.0
4459685,,,,,,,,0.6875,-7.16796875,3.0234375,0.234375,1.001953125,-0.8828125,-0.3515625,-15.9140625,6.765625,1.0
4459686,,,,,,,,-1.0078125,-3.83203125,1.29296875,0.310546875,1.421875,-0.41015625,-2.0390625,-12.578125,5.04296875,1.0
4459687,,,,,,,,-1.50390625,-10.23828125,-4.5390625,0.123046875,1.072265625,-0.1484375,-2.57421875,-18.98046875,-0.78125,1.0
4459688,,,,,,,,0.85546875,-16.12890625,1.33984375,-0.15625,-0.42578125,-0.36328125,-0.19921875,-24.875,5.08203125,1.0
4459689,,,,,,,,1.61328125,-17.28125,3.58984375,-0.1171875,-2.091796875,-0.1953125,0.60546875,-26.03515625,7.33984375,1.0
4459690,36.013018,129.320054,131.07645265555573,68.5737859021999,3.3000000000000003,232.0,,2.64453125,-14.66015625,2.49609375,0.271484375,-0.951171875,0.02734375,-0.96484375,-1.0546875,3.58984375,1.0
4459691,,,,,,,,3.37890625,-7.76953125,-0.02734375,-0.275390625,-0.6171875,-2.751953125,2.90234375,-16.56640625,3.77734375,1.0
4459692,,,,,,,,3.5625,-6.18359375,-0.890625,-0.52734375,0.486328125,-2.962890625,3.2109375,-14.99609375,2.8984375,1.0
4459693,,,,,,,,3.9453125,-5.07421875,-3.15625,-0.892578125,0.580078125,-2.517578125,3.8203125,-13.92578125,0.5625,1.0
4459694,,,,,,,,4.2890625,-5.02734375,-2.4140625,-1.208984375,-0.443359375,-2.0,4.359375,-13.92578125,1.2109375,1.0
4459695,,,,,,,,4.125,-4.17578125,-1.33984375,-1.296875,-0.892578125,-1.904296875,4.3984375,-13.1171875,2.16796875,1.0
4459696,,,,,,,,4.015625,-2.87890625,-1.046875,-1.337890625,-0.8203125,-2.02734375,4.3984375,-11.8515625,2.3984375,1.0
4459697,,,,,,,,3.6328125,-1.18359375,-1.44921875,-1.46484375,-0.32421875,-2.42578125,4.2421875,-10.20703125,1.86328125,1.0
4459698,,,,,,,,3.5234375,0.76953125,-1.77734375,-1.53515625,0.29296875,-2.396484375,4.359375,-8.2890625,1.40234375,1.0
4459699,,,,,,,,3.50390625,3.54296875,-2.13671875,-1.51171875,0.5,-2.23828125,4.43359375,-5.53515625,0.98046875,1.0
4459700,36.01301683333334,129.3200515,130.85108241678336,68.4443300930154,3.0,233.0,0.0,2.703125,7.3125,-2.19140625,0.271484375,-0.951171875,0.02734375,-0.96484375,-1.0546875,3.58984375,1.0
4459701,,,,,,,,1.90234375,9.92578125,-2.671875,-1.056640625,0.14453125,-1.654296875,3.32421875,0.78515625,0.1015625,1.0
4459702,,,,,,,,1.01953125,11.2734375,-2.87890625,-0.8671875,0.033203125,-1.56640625,2.59765625,2.125,-0.20703125,1.0
4459703,,,,,,,,-0.02734375,13.265625,-3.12109375,-0.6328125,-0.03515625,-1.375,1.75390625,4.1171875,-0.55078125,1.0
4459704,,,,,,,,-1.04296875,14.140625,-3.06640625,-0.537109375,-0.13671875,-1.3046875,0.87109375,5.0,-0.55078125,1.0
4459705,,,,,,,,-0.515625,12.66796875,-3.69140625,-0.50390625,-0.279296875,-1.236328125,1.5234375,3.54296875,-1.23828125,1.0
4459706,,,,,,,,0.02734375,11.6640625,-4.015625,-0.48046875,-0.375,-1.150390625,2.13671875,2.546875,-1.5859375,1.0
4459707,,,,,,,,2.78125,7.88671875,-5.23828125,-0.388671875,-0.63671875,-0.884765625,5.05078125,-1.20703125,-2.88671875,1.0
4459708,,,,,,,,2.48046875,7.02734375,-4.984375,-0.37890625,-0.716796875,-0.947265625,4.85546875,-2.05078125,-2.6953125,1.0
4459709,,,,,,,,0.41015625,7.3203125,-3.58984375,-0.37890625,-0.5859375,-1.3359375,2.8984375,-1.7421875,-1.35546875,1.0
4459710,36.013015,129.32004866666665,130.59566364620423,68.24090101538296,3.2,233.0,,-1.15625,7.93359375,-2.5078125,-0.427734375,-0.232421875,-1.42578125,-0.96484375,-1.0546875,3.58984375,1.0
4459711,,,,,,,,-3.75390625,9.546875,-0.0078125,-0.384765625,0.205078125,-0.853515625,-1.00390625,0.5546875,2.1328125,1.0
4459712,,,,,,,,-5.15625,10.3125,4.08203125,-0.34765625,0.525390625,0.205078125,-2.3828125,1.3203125,6.1875,1.0
4459713,,,,,,,,-3.75,10.21484375,4.54296875,-0.44140625,0.4765625,1.90625,-1.1953125,1.16796875,6.609375,1.0
4459714,,,,,,,,-0.78515625,9.97265625,3.80078125,-0.41015625,0.38671875,2.046875,1.67578125,0.90234375,5.84375,1.0
4459715,,,,,,,,0.515625,7.8359375,2.375,-0.337890625,0.1171875,1.92578125,2.7890625,-1.28125,4.39453125,1.0
4459716,,,,,,,,-0.5703125,-1.48046875,1.14453125,-0.27734375,-0.333984375,1.240234375,1.5625,-10.62890625,3.12890625,1.0
4459717,,,,,,,,-0.5703125,-8.66796875,2.46875,-0.263671875,-0.66015625,0.595703125,1.5234375,-17.83203125,4.4296875,1.0
4459718,,,,,,,,-8.26953125,-48.69921875,12.58203125,-0.16796875,-0.99609375,0.05078125,-6.17578125,-57.859375,14.50390625,1.0
4459719,,,,,,,,-10.765625,-48.9296875,11.37109375,-0.12109375,-0.755859375,0.361328125,-8.6640625,-58.09765625,13.27734375,1.0
4459720,36.01301283333333,129.32004583333335,130.34024541674023,68.00048553015456,3.3000000000000003,229.0,,-8.8828125,-19.80078125,12.3828125,-0.427734375,-0.232421875,-1.42578125,-6.828125,-28.98046875,14.2734375,1.0
4459721,,,,,,,,1.65234375,-3.6484375,-0.00390625,-0.6171875,1.96875,-0.203125,3.62890625,-12.8515625,1.86328125,1.0
4459722,,,,,,,,11.60546875,-6.7578125,-2.72265625,-0.11328125,1.857421875,-1.447265625,13.62890625,-15.95703125,-0.85546875,1.0
4459723,,,,,,,,11.60546875,-9.41796875,0.28515625,0.291015625,1.29296875,-0.83984375,13.66796875,-18.59375,2.16796875,1.0
4459724,,,,,,,,5.375,-15.76171875,4.4140625,0.419921875,-1.345703125,1.236328125,7.3828125,-24.95703125,6.34375,1.0
4459725,,,,,,,,2.3671875,-12.90234375,3.58203125,0.162109375,-3.27734375,0.88671875,4.359375,-22.12109375,5.46484375,1.0
4459726,,,,,,,,0.7421875,-8.50390625,2.203125,-0.18359375,-0.10546875,2.3828125,2.6328125,-17.75390625,4.046875,1.0
4459727,,,,,,,,-0.109375,-5.26953125,-0.08203125,0.294921875,1.8203125,3.31640625,1.484375,-14.57421875,1.78515625,1.0
4459728,,,,,,,,-1.8671875,-4.05078125,-1.14453125,0.564453125,1.62890625,3.26171875,-0.4296875,-13.3828125,0.75390625,1.0
4459729,,,,,,,,-3.21875,-3.984375,-0.93359375,1.005859375,0.24609375,2.638671875,-2.078125,-13.3515625,1.05859375,1.0
4459730,36.01301133333333,129.3200431666667,130.09985088818303,67.83404310373287,3.2,229.0,,-4.4921875,-1.828125,-0.26953125,-0.427734375,-0.232421875,-1.42578125,-6.828125,-28.98046875,14.2734375,1.0
4459731,,,,,,,,-5.25390625,-0.10546875,-0.05078125,1.572265625,-0.892578125,2.484375,-4.52734375,-9.4765625,2.16796875,1.0
4459732,,,,,,,,-5.14453125,3.01953125,-0.7421875,1.734375,-0.10546875,2.671875,-4.64453125,-6.3359375,1.6328125,1.0
4459733,,,,,,,,-4.30859375,6.91015625,-2.07421875,1.375,0.53125,2.24609375,-4.296875,-2.39453125,0.59765625,1.0
4459734,,,,,,,,-3.77734375,7.9609375,-2.41015625,1.27734375,0.48046875,2.14453125,-3.875,-1.3203125,0.33203125,1.0
4459735,,,,,,,,-3.87890625,9.96484375,-1.8984375,1.068359375,0.306640625,2.03125,-4.18359375,0.70703125,0.9453125,1.0
4459736,,,,,,,,-3.30859375,11.8828125,-1.80078125,0.87890625,0.236328125,1.927734375,-3.796875,2.6640625,1.13671875,1.0
4459737,,,,,,,,-3.21484375,12.6015625,-2.1015625,0.83984375,0.25390625,1.87109375,-3.796875,3.390625,0.8671875,1.0
4459738,,,,,,,,-2.328125,13.50390625,-2.74609375,0.712890625,0.46484375,1.802734375,-3.1875,4.34765625,0.33203125,1.0
4459739,,,,,,,,-2.08984375,13.55859375,-3.16015625,0.685546875,0.548828125,1.7734375,-3.03515625,4.421875,-0.05078125,1.0
4459740,36.013009499999995,129.320041,129.90453133132308,67.63061493690921,3.0,228.0,,-1.41796875,12.37890625,-4.2890625,-0.427734375,-0.232421875,-1.42578125,-2.53515625,3.27734375,-1.125,1.0
4459741,,,,,,,,-0.6953125,9.12890625,-4.671875,0.517578125,0.5703125,1.068359375,-1.96484375,0.05859375,-1.46875,1.0
4459742,,,,,,,,-0.49609375,8.1171875,-4.6953125,0.5,0.53515625,0.75390625,-1.8046875,-0.9375,-1.46875,1.0
4459743,,,,,,,,-0.05859375,6.484375,-4.390625,0.43359375,0.45703125,0.130859375,-1.42578125,-2.55078125,-1.125,1.0
4459744,,,,,,,,0.29296875,6.125,-3.87109375,0.375,0.478515625,-0.41796875,-1.08203125,-2.89453125,-0.58984375,1.0
4459745,,,,,,,,0.984375,6.796875,-3.09765625,0.283203125,0.61328125,-0.69921875,-0.3515625,-2.20703125,0.21484375,1.0
4459746,,,,,,,,1.2421875,7.37109375,-2.98046875,0.267578125,0.703125,-0.72265625,-0.0859375,-1.62890625,0.33203125,1.0
4459747,,,,,,,,1.546875,8.40625,-2.9140625,0.22265625,0.81640625,-0.578125,0.2578125,-0.59765625,0.40625,1.0
4459748,,,,,,,,1.72265625,9.88671875,-2.58203125,0.22265625,0.61328125,-0.3984375,0.44921875,0.8984375,0.75390625,1.0
4459749,,,,,,,,1.171875,10.65234375,-2.16015625,0.24609375,0.431640625,-0.408203125,-0.0859375,1.6640625,1.17578125,1.0
4459750,36.01300783333333,129.32003783333332,129.61906261714807,67.44567865043359,3.2,230.0,,0.234375,9.6328125,-0.1015625,0.26953125,-0.521484375,-0.572265625,-0.9296875,0.671875,3.28125,1.0
4459751,,,,,,,,-0.4765625,3.3046875,2.1640625,0.1953125,-0.982421875,-0.52734375,-1.578125,-5.65234375,5.578125,1.0
4459752,,,,,,,,2.578125,-4.3671875,1.4609375,0.10546875,-1.287109375,-0.421875,1.5625,-13.31640625,4.890625,1.0
4459753,,,,,,,,7.44140625,-19.12109375,5.95703125,-0.015625,-1.30078125,-0.458984375,6.50390625,-28.0546875,9.41015625,1.0
4459754,,,,,,,,19.921875,-49.60546875,12.78515625,-0.142578125,-0.939453125,-0.462890625,19.0703125,-58.546875,16.23046875,1.0
4459755,,,,,,,,3.24609375,-6.609375,5.48046875,-0.1640625,0.609375,-1.3203125,2.51953125,-15.57421875,8.91015625,1.0
4459756,,,,,,,,-3.90234375,-2.609375,-0.66015625,-0.05078125,2.052734375,-0.83203125,-4.56640625,-11.5859375,2.74609375,1.0
4459757,,,,,,,,-2.234375,-10.6875,-2.41796875,-0.0078125,0.693359375,-0.8046875,-2.8828125,-19.67578125,0.98046875,1.0
4459758,,,,,,,,0.15625,-14.2421875,1.30078125,-0.25390625,-1.73828125,-0.126953125,-0.4296875,-23.23828125,4.69921875,1.0
4459759,,,,,,,,1.6328125,-15.91015625,4.7265625,-0.404296875,-4.333984375,0.25,1.140625,-24.91796875,8.109375,1.0
4459760,36.01300633333334,129.32003483333335,129.34861843321366,67.2792358017401,3.4000000000000004,233.0,,2.01171875,-9.0390625,0.48046875,0.26953125,-0.521484375,-0.572265625,-0.9296875,0.671875,3.28125,1.0
4459761,,,,,,,,2.6875,-6.78515625,-1.01171875,-0.646484375,0.8671875,-3.111328125,2.7890625,-15.83984375,2.32421875,1.0
4459762,,,,,,,,3.45703125,-5.97265625,-1.48046875,-0.875,0.8671875,-2.6171875,3.66796875,-15.03515625,1.82421875,1.0
4459763,,,,,,,,3.71484375,-5.3828125,-0.3671875,-1.26953125,-0.685546875,-1.759765625,4.20703125,-14.5,2.78125,1.0
4459764,,,,,,,,3.6640625,-3.81640625,-0.01171875,-1.4140625,-0.80078125,-2.0859375,4.359375,-12.9609375,3.01171875,1.0
4459765,,,,,,,,3.58984375,-0.140625,-1.87109375,-1.4609375,-0.2421875,-2.361328125,4.51171875,-9.33203125,1.01953125,1.0
4459766,,,,,,,,3.64453125,1.8828125,-2.35546875,-1.4609375,0.361328125,-2.216796875,4.89453125,-7.33984375,0.33203125,1.0
4459767,,,,,,,,3.37890625,4.65625,-2.0,-1.35546875,0.30859375,-2.09375,4.8125,-4.578125,0.5625,1.0
4459768,,,,,,,,3.0,6.16015625,-1.39453125,-1.177734375,0.1953125,-2.09765625,4.625,-3.08203125,1.05859375,1.0
4459769,,,,,,,,2.31640625,7.421875,-1.1875,-1.076171875,0.17578125,-2.08203125,4.046875,-1.8203125,1.2109375,1.0
4459770,36.013005,129.32003266666666,129.15329803380024,67.13128727201145,2.9000000000000004,232.0,,1.33984375,8.87109375,-1.33203125,-0.876953125,0.255859375,-1.884765625,3.2421875,-0.36328125,0.98046875,1.0
4459771,,,,,,,,-0.1171875,11.19140625,-1.98828125,-0.6640625,0.375,-1.400390625,1.9453125,1.97265625,0.25390625,1.0
4459772,,,,,,,,-0.86328125,12.49609375,-2.42578125,-0.59765625,0.3984375,-1.1328125,1.25390625,3.27734375,-0.20703125,1.0
4459773,,,,,,,,-1.359375,13.40625,-3.15234375,-0.498046875,0.298828125,-0.703125,0.8359375,4.1953125,-0.97265625,1.0
4459774,,,,,,,,-1.171875,13.24609375,-3.13671875,-0.474609375,0.208984375,-0.607421875,1.0625,4.04296875,-0.97265625,1.0
4459775,,,,,,,,-0.03125,12.36328125,-3.50390625,-0.455078125,0.013671875,-0.494140625,2.25,3.16015625,-1.39453125,1.0
4459776,,,,,,,,3.0859375,8.140625,-4.7109375,-0.408203125,-0.31640625,-0.41015625,5.47265625,-1.0546875,-2.6953125,1.0
4459777,,,,,,,,2.6796875,7.8359375,-4.50390625,-0.373046875,-0.33203125,-0.455078125,5.08984375,-1.359375,-2.50390625,1.0
4459778,,,,,,,,0.203125,7.94140625,-3.23828125,-0.298828125,-0.28125,-0.677734375,2.671875,-1.24609375,-1.27734375,1.0
4459779,,,,,,,,-0.6015625,8.04296875,-2.6796875,-0.251953125,-0.22265625,-0.81640625,1.91015625,-1.12890625,-0.7421875,1.0
4459780,36.013003000000005,129.3200298333333,128.89787945423637,66.90936503744508,3.1,230.0,,-2.37890625,8.09375,-1.390625,-0.166015625,-0.0390625,-0.9296875,0.22265625,-1.05859375,0.5234375,1.0
4459781,,,,,,,,-5.5078125,8.8828125,2.953125,-0.234375,0.20703125,-0.443359375,-2.84375,-0.25,4.85546875,1.0
4459782,,,,,,,,-6.42578125,9.91015625,4.39453125,-0.291015625,0.3828125,0.486328125,-3.76171875,0.78515625,6.26953125,1.0
4459783,,,,,,,,-5.0390625,11.8125,2.30859375,-0.353515625,0.36328125,1.29296875,-2.4609375,2.6640625,4.16015625,1.0
4459784,,,,,,,,-2.3046875,12.1796875,0.2109375,-0.390625,0.01171875,2.083984375,0.03125,2.97265625,2.015625,1.0
4459785,,,,,,,,-1.0546875,8.84765625,-0.0546875,-0.345703125,-0.388671875,1.65234375,1.1015625,-0.40234375,1.71484375,1.0
4459786,,,,,,,,-0.5859375,2.92578125,-0.953125,-0.291015625,-0.625,1.16796875,1.5234375,-6.33984375,0.7890625,1.0
4459787,,,,,,,,0.796875,-8.90234375,2.08203125,-0.02734375,-0.828125,0.43359375,2.828125,-18.17578125,3.77734375,1.0
4459788,,,,,,,,-4.8515625,-41.3125,15.421875,0.005859375,-0.37890625,0.4375,-2.84375,-50.58984375,17.109375,1.0
4459789,,,,,,,,-10.05859375,-19.26953125,10.328125,0.017578125,0.39453125,0.5625,-8.08984375,-28.5546875,12.015625,1.0
4459790,36.01300066666667,129.3200275,128.6875358549849,66.65045705668477,3.2,225.0,,-4.3046875,-4.6640625,1.69140625,-0.166015625,-0.0390625,-0.9296875,-2.421875,-13.96484375,3.39453125,1.0
4459791,,,,,,,,8.8046875,-5.15625,-3.48046875,0.154296875,2.24609375,-0.341796875,10.640625,-14.46484375,-1.73828125,1.0
4459792,,,,,,,,9.69921875,-10.88671875,3.10546875,0.572265625,0.19140625,0.701171875,11.55859375,-20.1640625,4.96484375,1.0
4459793,,,,,,,,6.16015625,-15.5625,4.890625,0.392578125,-1.8125,1.0703125,7.99609375,-24.84765625,6.765625,1.0
4459794,,,,,,,,3.91015625,-15.19921875,4.2734375,0.021484375,-3.5390625,0.2578125,5.73828125,-24.4921875,6.1171875,1.0
4459795,,,,,,,,2.5390625,-9.24609375,1.5390625,-0.197265625,-1.50390625,1.333984375,4.359375,-18.55859375,3.3203125,1.0
4459796,,,,,,,,0.59765625,-4.71875,-0.4140625,0.056640625,1.595703125,2.755859375,2.21484375,-14.078125,1.3671875,1.0
4459797,,,,,,,,-1.2109375,-5.3515625,-0.2265625,0.611328125,0.6484375,2.517578125,-0.0078125,-14.76953125,1.6328125,1.0
4459798,,,,,,,,-1.78515625,-5.3359375,0.15625,0.765625,-0.0546875,2.216796875,-0.69921875,-14.76953125,2.0546875,1.0
4459799,,,,,,,,-3.015625,-3.68359375,0.73046875,1.142578125,-0.642578125,2.173828125,-2.1171875,-13.12109375,2.70703125,1.0
4459800,36.012998833333334,129.32002566666668,128.522265871951,66.44702936127237,2.8000000000000003,222.0,0.0,-4.4921875,0.0625,-0.76953125,1.4609375,0.333984375,2.3828125,-3.9140625,-9.3671875,1.40234375,1.0
4459801,,,,,,,,-4.921875,3.6171875,-2.02734375,1.486328125,0.58203125,2.31640625,-4.453125,-5.80859375,0.21484375,1.0
4459802,,,,,,,,-4.8828125,5.5859375,-2.28125,1.30859375,0.474609375,2.1171875,-4.7578125,-3.8125,0.1796875,1.0
4459803,,,,,,,,-4.68359375,6.7578125,-2.21484375,1.240234375,0.26953125,2.08203125,-4.640625,-2.625,0.29296875,1.0
4459804,,,,,,,,-4.33984375,8.48046875,-2.15625,1.0,-0.09765625,2.04296875,-4.60546875,-0.86328125,0.5234375,1.0
4459805,,,,,,,,-3.96875,9.76953125,-2.3203125,0.90234375,-0.064453125,2.0390625,-4.3359375,0.44140625,0.40625,1.0
4459806,,,,,,,,-3.73828125,10.3671875,-2.234375,0.82421875,0.03125,2.03125,-4.18359375,1.0546875,0.5234375,1.0
4459807,,,,,,,,-3.015625,12.01953125,-2.11328125,0.62890625,0.248046875,1.953125,-3.65234375,2.73828125,0.71484375,1.0
4459808,,,,,,,,-2.484375,13.23828125,-2.0625,0.53515625,0.337890625,1.890625,-3.2265625,3.9609375,0.7890625,1.0
4459809,,,,,,,,-1.84375,13.70703125,-2.4140625,0.298828125,0.560546875,1.490234375,-2.4609375,4.38671875,0.25390625,1.0
4459810,36.012997000000006,129.3200235,128.32694624971018,66.24360122963586,2.8000000000000003,222.0,,-4.4921875,0.0625,-0.76953125,0.271484375,0.59375,1.318359375,-3.9140625,-9.3671875,1.40234375,1.0
4459811,,,,,,,,0.30859375,7.57421875,-4.35546875,0.24609375,0.62109375,0.466796875,-1.00390625,-1.58984375,-1.39453125,1.0
4459812,,,,,,,,0.4140625,6.41796875,-4.16796875,0.1796875,0.55078125,-0.1875,-0.9296875,-2.734375,-1.19921875,1.0
4459813,,,,,,,,0.46875,5.796875,-2.953125,0.109375,0.548828125,-0.67578125,-0.8515625,-3.3515625,0.0234375,1.0
4459814,,,,,,,,0.4921875,7.22265625,-1.83984375,0.09375,0.642578125,-0.8046875,-0.7734375,-1.93359375,1.13671875,1.0
4459815,,,,,,,,0.3359375,8.70703125,-1.3828125,0.1328125,0.779296875,-0.685546875,-0.890625,-0.44140625,1.59765625,1.0
4459816,,,,,,,,0.359375,9.75,-0.72265625,0.154296875,0.80859375,-0.59375,-0.8515625,0.59375,2.2421875,1.0
4459817,,,,,,,,0.0234375,10.28515625,0.15234375,0.2265625,0.685546875,-0.419921875,-1.15625,1.12890625,3.12890625,1.0
4459818,,,,,,,,-0.03125,10.04296875,0.2421875,0.263671875,0.23828125,-0.341796875,-1.1953125,0.90234375,3.2421875,1.0
4459819,,,,,,,,-0.4375,8.37890625,1.453125,0.22265625,-0.359375,-0.3515625,-1.578125,-0.74609375,4.47265625,1.0
4459820,36.01299516666666,129.32002083333333,128.08655217429424,66.0401724439804,3.0,225.0,,-0.1953125,4.5390625,-0.1484375,0.271484375,0.59375,1.318359375,-3.9140625,-9.3671875,1.40234375,1.0
4459821,,,,,,,,1.98828125,-0.87109375,-1.4296875,0.076171875,-1.392578125,-0.7890625,0.98828125,-9.9765625,1.6328125,1.0
4459822,,,,,,,,6.3515625,-33.7734375,7.01953125,0.0234375,-1.646484375,-1.154296875,5.5078125,-42.88671875,10.09765625,1.0
4459823,,,,,,,,11.5078125,-43.390625,10.15625,0.01171875,-1.607421875,-1.177734375,10.71875,-52.5,13.2421875,1.0
4459824,,,,,,,,2.1328125,-20.66796875,12.515625,0.07421875,-0.490234375,-1.421875,1.5625,-29.78515625,15.6171875,1.0
4459825,,,,,,,,-1.79296875,-5.06640625,2.1171875,0.208984375,1.158203125,-1.443359375,-2.23046875,-14.1875,5.234375,1.0
4459826,,,,,,,,-2.09375,-8.25390625,-3.5078125,0.17578125,1.484375,-1.013671875,-2.4609375,-17.3671875,-0.359375,1.0
4459827,,,,,,,,-0.37109375,-12.19140625,-1.28515625,0.048828125,-0.6796875,-0.734375,-0.66015625,-21.31640625,1.86328125,1.0
4459828,,,,,,,,0.953125,-15.671875,3.2734375,-0.060546875,-2.49609375,-0.5546875,0.71875,-24.80859375,6.421875,1.0
4459829,,,,,,,,1.98828125,-13.7109375,3.07421875,0.177734375,-3.6484375,-2.1953125,2.09765625,-22.8515625,6.23046875,1.0
4459830,36.01299366666667,129.32001766666664,127.80108309820639,65.87372942367367,3.3000000000000003,229.0,,3.875,-8.0390625,1.01953125,-0.423828125,-0.76953125,-3.052734375,-3.9140625,-9.3671875,1.40234375,1.0
4459831,,,,,,,,3.9375,-5.03515625,-1.53515625,-0.857421875,0.732421875,-2.396484375,4.625,-14.1875,1.55859375,1.0
4459832,,,,,,,,3.69140625,-5.01953125,-1.94921875,-1.01953125,0.607421875,-2.03515625,4.47265625,-14.1875,1.09765625,1.0
4459833,,,,,,,,3.328125,-4.66015625,-0.8125,-1.201171875,-0.228515625,-1.873046875,4.28125,-13.84375,2.1328125,1.0
4459834,,,,,,,,3.1015625,-3.984375,-0.16796875,-1.287109375,-0.68359375,-2.01953125,4.2421875,-13.19921875,2.66796875,1.0
4459835,,,,,,,,2.32421875,0.44921875,-0.32421875,-1.345703125,-0.208984375,-2.240234375,3.78515625,-8.7890625,2.32421875,1.0
4459836,,,,,,,,1.98046875,3.67578125,-1.05859375,-1.283203125,0.5625,-1.974609375,3.74609375,-5.5703125,1.40234375,1.0
4459837,,,,,,,,1.7109375,4.81640625,-1.203125,-1.203125,0.6328125,-1.8359375,3.5546875,-4.421875,1.2109375,1.0
4459838,,,,,,,,1.0625,8.12109375,-1.26171875,-1.0,0.505859375,-1.6640625,3.05859375,-1.12890625,1.05859375,1.0
4459839,,,,,,,,0.640625,9.60546875,-2.02734375,-0.919921875,0.375,-1.630859375,2.71484375,0.36328125,0.25390625,1.0
4459840,36.012992000000004,129.32001533333332,127.59073836566103,65.68879429804142,3.0,230.0,,0.27734375,10.5859375,-2.73046875,-0.634765625,0.14453125,-1.505859375,2.55859375,1.359375,-0.55078125,1.0
4459841,,,,,,,,-0.78515625,12.06640625,-2.90625,-0.46484375,0.140625,-1.37109375,1.63671875,2.85546875,-0.78125,1.0
4459842,,,,,,,,-0.875,12.59375,-2.69921875,-0.419921875,0.158203125,-1.34375,1.6015625,3.39453125,-0.58984375,1.0
4459843,,,,,,,,-1.0390625,13.44921875,-2.3984375,-0.34765625,0.08984375,-1.224609375,1.5625,4.265625,-0.3203125,1.0
4459844,,,,,,,,0.3515625,11.3125,-2.98046875,-0.330078125,-0.005859375,-0.953125,3.05859375,2.1640625,-0.93359375,1.0
4459845,,,,,,,,2.18359375,9.07421875,-3.90625,-0.29296875,-0.15234375,-0.783203125,4.97265625,-0.05859375,-1.890625,1.0
4459846,,,,,,,,3.328125,7.60546875,-4.7578125,-0.267578125,-0.259765625,-0.93359375,6.19921875,-1.51171875,-2.7734375,1.0
4459847,,,,,,,,1.578125,7.05859375,-4.5546875,-0.14453125,-0.421875,-1.55078125,4.62890625,-2.01171875,-2.6171875,1.0
4459848,,,,,,,,-1.12109375,7.6875,-3.11328125,-0.1875,-0.302734375,-1.728515625,2.09375,-1.3203125,-1.19921875,1.0
4459849,,,,,,,,-3.07421875,8.421875,-1.828125,-0.201171875,-0.146484375,-1.49609375,0.22265625,-0.5546875,0.0625,1.0
4459850,36.01299016666667,129.32001266666666,127.35034425698167,65.48536553325742,3.1,229.0,,-4.73828125,9.30859375,-0.47265625,-0.125,0.265625,-0.037109375,-1.9609375,0.90234375,2.16796875,1.0
4459851,,,,,,,,-6.2734375,10.22265625,2.1328125,-0.212890625,0.361328125,1.11328125,-4.26171875,2.125,7.4140625,1.0
4459852,,,,,,,,-7.58984375,11.37109375,5.4453125,-0.3359375,0.28125,2.087890625,-3.11328125,2.5859375,5.23828125,1.0
4459853,,,,,,,,-6.32421875,11.5859375,3.3828125,-0.357421875,0.2109375,2.4140625,-1.84765625,2.625,4.15625,1.0
4459854,,,,,,,,-2.02734375,11.47265625,1.65234375,-0.3125,-0.111328125,2.431640625,2.25,1.8203125,3.51171875,1.0
4459855,,,,,,,,0.421875,9.87109375,1.4609375,-0.2578125,-0.576171875,1.0390625,3.32421875,-3.921875,1.2109375,1.0
4459856,,,,,,,,0.73828125,1.62109375,-0.55859375,-0.134765625,-1.0234375,-0.28125,3.32421875,-12.890625,1.90234375,1.0
4459857,,,,,,,,-0.41015625,-24.97265625,4.94921875,0.103515625,-0.8203125,-0.330078125,-1.08203125,-46.22265625,13.35546875,1.0
4459858,,,,,,,,-3.73046875,-37.046875,11.66015625,0.166015625,-0.423828125,-0.107421875,-6.2890625,-57.59765625,18.48828125,1.0
4459859,,,,,,,,-13.24609375,-49.05078125,19.62890625,0.15234375,0.73046875,0.30859375,-8.78125,-35.37890625,18.44921875,1.0
4459860,36.0129875,129.32001,127.10995147637195,65.18947074034305,3.4000000000000004,225.0,,-4.73828125,9.30859375,-0.47265625,-0.08984375,1.779296875,0.57421875,-1.9609375,0.90234375,2.16796875,1.0
4459861,,,,,,,,1.51171875,-3.17578125,-0.9375,-0.21484375,2.4296875,0.384765625,4.05078125,-12.35546875,0.828125,1.0
4459862,,,,,,,,8.85546875,-6.3828125,-4.32421875,0.494140625,2.46875,-0.927734375,12.82421875,-17.22265625,-0.625,1.0
4459863,,,,,,,,5.4765625,-15.31640625,5.6640625,0.150390625,-2.859375,0.984375,7.921875,-24.49609375,7.609375,1.0
4459864,,,,,,,,1.5703125,-13.21875,3.48828125,0.05859375,-3.705078125,0.869140625,3.9765625,-22.4296875,5.38671875,1.0
4459865,,,,,,,,0.13671875,-8.828125,1.30859375,-0.009765625,-0.6328125,1.98046875,2.51953125,-18.0625,3.12890625,1.0
4459866,,,,,,,,-0.9921875,-4.51953125,-1.7890625,0.326171875,2.037109375,3.115234375,1.21875,-13.80859375,0.0234375,1.0
4459867,,,,,,,,-1.8828125,-4.50390625,-1.4765625,0.74609375,1.380859375,3.181640625,0.03125,-13.84375,0.40625,1.0
4459868,,,,,,,,-3.57421875,-3.55078125,0.17578125,1.15625,-0.52734375,2.3984375,-2.23046875,-12.9609375,2.24609375,1.0
4459869,,,,,,,,-4.7109375,-0.7421875,-0.37109375,1.4375,-0.41796875,2.36328125,-3.5703125,-10.17578125,1.82421875,1.0
4459870,36.012985666666665,129.32000766666667,126.89960697707058,64.98604242378612,3.1,225.0,,-5.43359375,2.4296875,-1.9296875,1.619140625,0.34765625,2.52734375,-4.52734375,-6.9921875,0.40625,1.0
4459871,,,,,,,,-5.5546875,4.69140625,-2.8359375,1.609375,0.6171875,2.4765625,-4.796875,-4.73046875,-0.3984375,1.0
4459872,,,,,,,,-5.40234375,7.49609375,-3.3046875,1.388671875,0.55078125,2.306640625,-4.984375,-1.89453125,-0.6640625,1.0
4459873,,,,,,,,-4.98828125,9.37890625,-2.7578125,1.142578125,0.107421875,2.328125,-4.91015625,0.01953125,0.0625,1.0
4459874,,,,,,,,-4.41796875,11.9140625,-1.640625,0.97265625,0.142578125,2.2890625,-4.5625,2.5859375,1.2890625,1.0
4459875,,,,,,,,-4.0390625,12.71875,-1.52734375,0.830078125,0.39453125,2.216796875,-4.4140625,3.4296875,1.48046875,1.0
4459876,,,,,,,,-3.8515625,13.69921875,-1.98828125,0.765625,0.55078125,2.1875,-4.3359375,4.421875,1.05859375,1.0
4459877,,,,,,,,-2.859375,13.21484375,-3.4609375,0.662109375,0.787109375,2.119140625,-3.5703125,3.96484375,-0.359375,1.0
4459878,,,,,,,,-2.328125,12.33984375,-3.95703125,0.619140625,0.828125,2.01953125,-3.1484375,3.12109375,-0.81640625,1.0
4459879,,,,,,,,-1.55859375,10.31640625,-4.49609375,0.55078125,0.818359375,1.544921875,-2.5703125,1.12890625,-1.31640625,1.0
4459880,36.01298366666666,129.32000516666668,126.674237917902,64.76412068845336,3.1,225.0,,-1.08203125,8.37109375,-4.57421875,0.517578125,0.669921875,0.6640625,-2.2265625,-0.78515625,-1.35546875,1.0
4459881,,,,,,,,-0.65234375,6.2421875,-4.11328125,0.435546875,0.517578125,-0.140625,-1.84765625,-2.89453125,-0.85546875,1.0
4459882,,,,,,,,-0.5078125,5.734375,-3.73828125,0.365234375,0.501953125,-0.41015625,-1.6953125,-3.39453125,-0.47265625,1.0
4459883,,,,,,,,0.78125,6.71484375,-2.8984375,0.208984375,0.787109375,-0.646484375,-0.3515625,-2.39453125,0.40625,1.0
4459884,,,,,,,,1.484375,8.82421875,-2.98046875,0.154296875,0.857421875,-0.611328125,0.375,-0.28515625,0.33203125,1.0
4459885,,,,,,,,1.921875,10.578125,-2.63671875,0.162109375,0.671875,-0.662109375,0.8359375,1.48046875,0.67578125,1.0
4459886,,,,,,,,1.93359375,10.8828125,-2.5234375,0.1875,0.4375,-0.7578125,0.87109375,1.78125,0.7890625,1.0
4459887,,,,,,,,2.74609375,11.984375,-2.0859375,0.255859375,-0.1953125,-0.93359375,1.75390625,2.89453125,1.25,1.0
4459888,,,,,,,,2.078125,11.6796875,-1.56640625,0.259765625,-0.513671875,-0.953125,1.140625,2.58984375,1.78515625,1.0
4459889,,,,,,,,0.59765625,10.32421875,0.09765625,0.23046875,-1.01171875,-0.875,-0.23828125,1.24609375,3.46875,1.0
4459890,36.01298166666666,129.32000216666665,126.40379439200252,64.54219830994468,3.3000000000000003,226.0,,-0.4921875,8.9765625,0.9609375,0.517578125,0.669921875,0.6640625,-2.2265625,-0.78515625,-1.35546875,1.0
4459891,,,,,,,,-0.1796875,0.80859375,-0.31640625,0.19921875,-1.416015625,-0.685546875,-0.8515625,-8.25,3.08984375,1.0
4459892,,,,,,,,3.83203125,-10.578125,1.64453125,0.166015625,-1.35546875,-0.1796875,3.24609375,-19.6328125,5.08203125,1.0
4459893,,,,,,,,12.0859375,-40.703125,9.21484375,0.140625,-0.859375,0.375,11.5234375,-49.74609375,12.66796875,1.0
4459894,,,,,,,,15.1953125,-49.94921875,12.30859375,0.03125,-0.1875,0.166015625,14.625,-58.97265625,15.76953125,1.0
4459895,,,,,,,,-0.265625,-8.34765625,5.18359375,0.01953125,0.67578125,-0.88671875,-0.8125,-17.3671875,8.64453125,1.0
4459896,,,,,,,,-1.75390625,-3.859375,3.0,0.083984375,1.2265625,-1.265625,-2.26953125,-12.89453125,6.4609375,1.0
4459897,,,,,,,,-4.78125,-8.4921875,-2.9453125,0.0,1.115234375,-1.1640625,-5.21875,-17.5234375,0.5234375,1.0
4459898,,,,,,,,-0.30078125,-14.33984375,0.1953125,0.060546875,-0.572265625,-0.478515625,-0.66015625,-23.38671875,3.6640625,1.0
4459899,,,,,,,,-0.00390625,-15.02734375,3.84375,-0.33203125,-3.64453125,-0.013671875,-0.27734375,-24.0703125,7.3046875,1.0
4459900,36.01297983333333,129.3199995,126.16340022524341,64.3387695781213,3.3000000000000003,228.0,0.0,0.24609375,-12.5234375,1.62890625,0.064453125,-2.259765625,-2.154296875,1.5234375,-18.79296875,2.9375,1.0
4459901,,,,,,,,2.03515625,-8.34765625,-1.12890625,-0.529296875,0.416015625,-3.001953125,2.55859375,-16.37890625,1.94140625,1.0
4459902,,,,,,,,2.48828125,-6.609375,-1.55078125,-0.763671875,0.7421875,-2.66015625,2.90234375,-15.69140625,1.86328125,1.0
4459903,,,,,,,,3.39453125,-5.3671875,-0.40625,-1.19140625,-0.626953125,-2.27734375,4.20703125,-14.50390625,2.8203125,1.0
4459904,,,,,,,,3.49609375,-3.7421875,-0.78125,-1.244140625,-0.61328125,-2.412109375,4.43359375,-12.89453125,2.3984375,1.0
4459905,,,,,,,,3.51171875,-0.69140625,-1.96484375,-1.345703125,-0.05859375,-2.478515625,4.81640625,-9.859375,1.01953125,1.0
4459906,,,,,,,,4.11328125,1.8515625,-2.84375,-1.380859375,0.193359375,-2.341796875,5.62109375,-7.3359375,0.0234375,1.0
4459907,,,,,,,,3.9765625,2.77734375,-2.7421875,-1.34375,0.2265625,-2.255859375,5.5859375,-6.41796875,0.0625,1.0
4459908,,,,,,,,2.8359375,6.76171875,-1.70703125,-1.15234375,0.166015625,-2.138671875,4.66796875,-2.43359375,0.98046875,1.0
4459909,,,,,,,,2.16796875,7.7890625,-1.390625,-0.9375,0.162109375,-2.10546875,4.1640625,-1.3984375,1.2109375,1.0
4459910,36.01297816666667,129.31999666666667,125.9079809611421,64.1538338450543,3.2,229.0,,-0.13671875,11.2890625,-1.703125,0.064453125,-2.259765625,-2.154296875,2.13671875,2.125,0.7890625,1.0
4459911,,,,,,,,-1.34375,12.953125,-3.29296875,-0.4453125,0.6015625,-1.056640625,1.1015625,3.8125,-0.85546875,1.0
4459912,,,,,,,,-1.6484375,13.2109375,-3.62109375,-0.396484375,0.546875,-0.875,0.8359375,4.08203125,-1.19921875,1.0
4459913,,,,,,,,-0.37109375,11.47265625,-4.01171875,-0.404296875,0.333984375,-0.744140625,2.17578125,2.3515625,-1.62109375,1.0
4459914,,,,,,,,0.8671875,9.43359375,-4.578125,-0.427734375,-0.083984375,-0.76171875,3.515625,0.32421875,-2.234375,1.0
4459915,,,,,,,,2.3203125,7.390625,-5.52734375,-0.3515625,-0.24609375,-0.794921875,5.046875,-1.703125,-3.23046875,1.0
4459916,,,,,,,,2.47265625,7.03515625,-5.390625,-0.310546875,-0.275390625,-0.830078125,5.23828125,-2.05078125,-3.1171875,1.0
4459917,,,,,,,,1.18359375,6.59375,-3.90234375,-0.23828125,-0.244140625,-1.10546875,4.046875,-2.46875,-1.66015625,1.0
4459918,,,,,,,,-0.609375,6.8203125,-2.76953125,-0.189453125,-0.04296875,-1.34765625,2.3671875,-2.203125,-0.55078125,1.0
4459919,,,,,,,,-2.359375,7.140625,-1.48828125,-0.216796875,0.09375,-1.287109375,0.6796875,-1.859375,0.71484375,1.0
4459920,36.012976333333334,129.3199938333333,125.65256195088092,63.95040491292417,3.3000000000000003,230.0,,-4.12890625,7.9609375,0.17578125,-0.275390625,0.408203125,-0.626953125,2.13671875,2.125,0.7890625,1.0
4459921,,,,,,,,-6.7421875,9.87109375,5.1328125,-0.30078125,0.5703125,0.404296875,-3.609375,0.90234375,7.3046875,1.0
4459922,,,,,,,,-5.90625,10.78125,4.3515625,-0.384765625,0.439453125,1.462890625,-2.8828125,1.78125,6.50390625,1.0
4459923,,,,,,,,-1.02734375,12.59765625,1.0390625,-0.44140625,0.126953125,2.201171875,1.83203125,3.5390625,3.1640625,1.0
4459924,,,,,,,,0.98828125,13.42578125,0.0078125,-0.353515625,-0.263671875,2.263671875,3.62890625,4.30859375,2.09375,1.0
4459925,,,,,,,,-1.3515625,5.46875,-1.828125,-0.220703125,-1.1796875,0.2265625,1.140625,-3.69921875,0.1796875,1.0
4459926,,,,,,,,0.1015625,-13.65625,0.1640625,-0.021484375,-1.40625,-0.306640625,2.6328125,-22.8125,2.1328125,1.0
4459927,,,,,,,,-2.515625,-39.40625,8.8828125,0.15234375,-0.728515625,0.4765625,0.03125,-48.55859375,10.828125,1.0
4459928,,,,,,,,-13.78515625,-55.83203125,16.3125,0.15234375,0.345703125,1.091796875,-11.30859375,-64.984375,18.2578125,1.0
4459929,,,,,,,,-8.91796875,-18.3828125,9.234375,0.087890625,1.263671875,1.0625,-6.55859375,-27.5625,11.2109375,1.0
4459930,36.012974166666666,129.31999150000001,125.44221792118617,63.70999021698961,3.2,226.0,,0.69921875,-4.9140625,-2.86328125,-0.275390625,0.408203125,-0.626953125,2.94140625,-14.1171875,-0.85546875,1.0
4459931,,,,,,,,9.37890625,-8.0390625,-6.7109375,-0.1875,2.015625,-0.392578125,11.55859375,-17.26171875,-4.6875,1.0
4459932,,,,,,,,12.3828125,-10.26953125,-1.6484375,0.33984375,2.3046875,-1.3515625,14.5859375,-19.48046875,0.40625,1.0
4459933,,,,,,,,6.00390625,-13.41796875,4.48828125,0.3203125,-1.39453125,1.421875,8.15234375,-22.6171875,6.65234375,1.0
4459934,,,,,,,,1.8671875,-12.51953125,4.48828125,0.08984375,-3.525390625,0.765625,3.9765625,-21.73828125,6.61328125,1.0
4459935,,,,,,,,0.39453125,-9.234375,1.640625,0.0078125,-2.19140625,1.40625,2.48046875,-18.48828125,3.703125,1.0
4459936,,,,,,,,0.234375,-7.4921875,0.11328125,0.05859375,-0.375,2.28125,2.25,-16.7578125,2.16796875,1.0
4459937,,,,,,,,-2.796875,-4.91015625,-1.2265625,0.640625,1.638671875,3.37109375,-1.234375,-14.265625,0.90625,1.0
4459938,,,,,,,,-4.48046875,-1.69140625,0.34765625,1.2109375,-0.900390625,2.19921875,-3.45703125,-11.0859375,2.66796875,1.0
4459939,,,,,,,,-4.8828125,-0.65625,0.140625,1.359375,-0.9140625,2.125,-3.953125,-10.0546875,2.515625,1.0
4459940,36.012972500000004,129.319989,125.21684826309021,63.52505493410488,2.9000000000000004,227.0,,-6.0,1.94140625,-1.1796875,1.62109375,-0.22265625,2.2890625,-5.2578125,-7.4453125,1.328125,1.0
4459941,,,,,,,,-6.15625,4.5234375,-2.33203125,1.62109375,0.349609375,2.244140625,-5.64453125,-4.84375,0.33203125,1.0
4459942,,,,,,,,-5.9609375,5.6171875,-2.80078125,1.515625,0.380859375,2.171875,-5.5625,-3.734375,-0.05078125,1.0
4459943,,,,,,,,-5.15234375,8.7734375,-3.1875,1.28125,0.080078125,2.150390625,-4.9453125,-0.5546875,-0.3203125,1.0
4459944,,,,,,,,-4.78515625,9.29296875,-3.2890625,1.205078125,-0.134765625,2.18359375,-4.68359375,-0.01953125,-0.359375,1.0
4459945,,,,,,,,-3.9296875,10.94921875,-2.171875,1.037109375,-0.373046875,2.228515625,-4.03515625,1.66796875,0.8671875,1.0
4459946,,,,,,,,-2.7109375,12.6484375,-1.67578125,0.70703125,0.109375,1.7890625,-3.1875,3.4296875,1.51953125,1.0
4459947,,,,,,,,-2.0859375,13.23046875,-2.0390625,0.58984375,0.412109375,1.578125,-2.7265625,4.0390625,1.2109375,1.0
4459948,,,,,,,,-1.39453125,12.4765625,-3.33984375,0.505859375,0.5546875,1.32421875,-2.19140625,3.31640625,-0.05078125,1.0
4459949,,,,,,,,-1.09375,11.4375,-3.7109375,0.48046875,0.53515625,1.095703125,-1.9609375,2.28125,-0.3984375,1.0
4459950,36.01297066666667,129.31998666666667,125.00650368053249,63.32162666277117,3.0,227.0,,-0.76953125,8.2265625,-4.28515625,1.62109375,-0.22265625,2.2890625,-1.7265625,-0.8984375,-0.93359375,1.0
4459951,,,,,,,,-0.88671875,6.8984375,-4.015625,0.3671875,0.09765625,-0.041015625,-1.88671875,-2.20703125,-0.625,1.0
4459952,,,,,,,,-0.6796875,7.2265625,-3.45703125,0.2578125,-0.06640625,-0.466796875,-1.65625,-1.859375,-0.05078125,1.0
4459953,,,,,,,,-0.51171875,7.6875,-3.16796875,0.19921875,-0.072265625,-0.580078125,-1.4609375,-1.3984375,0.25390625,1.0
4459954,,,,,,,,0.0703125,9.41015625,-2.83984375,0.150390625,0.11328125,-0.552734375,-0.81640625,0.32421875,0.59765625,1.0
4459955,,,,,,,,0.71875,10.62109375,-2.80859375,0.115234375,0.220703125,-0.51953125,-0.125,1.546875,0.63671875,1.0
4459956,,,,,,,,1.2265625,10.890625,-2.73828125,0.1640625,0.189453125,-0.623046875,0.4140625,1.8203125,0.71484375,1.0
4459957,,,,,,,,1.46875,10.765625,-2.83203125,0.23828125,-0.029296875,-0.8359375,0.71875,1.70703125,0.63671875,1.0
4459958,,,,,,,,1.5078125,10.64453125,-2.9140625,0.259765625,-0.189453125,-0.939453125,0.796875,1.5859375,0.5625,1.0
4459959,,,,,,,,0.125,8.29296875,-0.83984375,0.1953125,-0.685546875,-1.0,-0.4296875,-0.74609375,2.66796875,1.0
4459960,36.012969,129.31998383333334,124.75108436532658,63.13669096198802,3.1,229.0,,-1.9375,5.06640625,2.63671875,1.62109375,-0.22265625,2.2890625,-2.3828125,-3.96484375,6.1484375,1.0
4459961,,,,,,,,-0.8125,-4.328125,1.625,0.03515625,-1.05078125,-0.701171875,-1.15625,-13.3515625,5.15625,1.0
4459962,,,,,,,,4.08203125,-17.55859375,3.04296875,0.01171875,-1.01953125,-0.55078125,3.78515625,-26.5625,6.57421875,1.0
4459963,,,,,,,,12.5234375,-36.20703125,6.875,-0.048828125,-0.73046875,-0.2578125,12.2890625,-45.22265625,10.40625,1.0
4459964,,,,,,,,13.82421875,-34.48828125,15.38671875,-0.158203125,-0.220703125,-0.509765625,13.62890625,-43.4921875,18.91015625,1.0
4459965,,,,,,,,0.71484375,-4.71875,3.3828125,-0.12109375,0.84765625,-1.615234375,0.60546875,-13.73828125,6.8828125,1.0
4459966,,,,,,,,-1.12109375,-2.6875,0.9375,-0.0625,2.25390625,-1.73828125,-1.12109375,-11.70703125,4.4296875,1.0
4459967,,,,,,,,0.171875,-13.50390625,0.81640625,-0.296875,-0.90625,-0.43359375,0.296875,-22.5390625,4.27734375,1.0
4459968,,,,,,,,0.0546875,-16.25390625,3.5,-0.353515625,-4.1484375,-0.255859375,0.296875,-25.30078125,6.921875,1.0
4459969,,,,,,,,0.8125,-14.0625,2.7109375,-0.201171875,-4.38671875,-0.640625,1.140625,-23.12109375,6.1171875,1.0
4459970,36.012967333333336,129.31998149999998,124.54073949792291,62.95175590966107,3.0,229.0,,3.05859375,-7.50390625,0.2109375,-0.203125,-1.84765625,-2.404296875,3.62890625,-16.56640625,3.5859375,1.0
4459971,,,,,,,,3.3046875,-4.671875,-2.8984375,-0.853515625,1.177734375,-2.484375,4.2421875,-13.734375,0.40625,1.0
4459972,,,,,,,,3.47265625,-4.76953125,-3.15625,-1.072265625,0.142578125,-2.01171875,4.58984375,-13.84375,0.0625,1.0
4459973,,,,,,,,3.8203125,-4.09375,-1.140625,-1.220703125,-0.8984375,-1.91796875,5.125,-13.19921875,1.9765625,1.0
4459974,,,,,,,,3.30859375,-1.7890625,-0.28515625,-1.26953125,-0.8515625,-1.931640625,4.81640625,-10.8984375,2.70703125,1.0
4459975,,,,,,,,2.6171875,0.48828125,-1.265625,-1.365234375,0.033203125,-2.05859375,4.3203125,-8.63671875,1.59375,1.0
4459976,,,,,,,,2.33984375,1.4921875,-1.546875,-1.392578125,0.494140625,-2.0234375,4.12890625,-7.640625,1.25,1.0
4459977,,,,,,,,1.9453125,3.52734375,-1.7421875,-1.29296875,0.98828125,-1.73046875,3.8984375,-5.61328125,0.9453125,1.0
4459978,,,,,,,,0.6875,6.515625,-1.6875,-1.08203125,0.873046875,-1.431640625,2.75390625,-2.625,0.90625,1.0
4459979,,,,,,,,0.15625,8.44140625,-1.9921875,-0.931640625,0.517578125,-1.31640625,2.328125,-0.70703125,0.5234375,1.0
4459980,36.01296583333333,129.319979,124.3153695414971,62.78531385611337,3.0,230.0,,-0.58203125,10.27734375,-2.7734375,-0.705078125,0.2734375,-1.177734375,1.75390625,1.12890625,-0.359375,1.0
4459981,,,,,,,,-1.06640625,12.8984375,-2.28125,-0.501953125,0.322265625,-0.9609375,1.41015625,3.7734375,0.0625,1.0
4459982,,,,,,,,-1.14453125,12.890625,-2.35546875,-0.4921875,0.26953125,-0.974609375,1.41015625,3.7734375,-0.05078125,1.0
4459983,,,,,,,,0.0390625,11.265625,-3.53515625,-0.4765625,0.099609375,-0.84375,2.67578125,2.1640625,-1.27734375,1.0
4459984,,,,,,,,1.2265625,9.94921875,-4.53125,-0.40234375,-0.083984375,-0.681640625,3.94140625,0.86328125,-2.3125,1.0
4459985,,,,,,,,2.3046875,8.24609375,-5.13671875,-0.3125,-0.267578125,-0.751953125,5.08984375,-0.82421875,-2.96484375,1.0
4459986,,,,,,,,2.3828125,6.78515625,-4.96484375,-0.263671875,-0.359375,-0.865234375,5.203125,-2.27734375,-2.80859375,1.0
4459987,,,,,,,,1.19921875,6.18359375,-3.88671875,-0.265625,-0.4140625,-1.203125,4.125,-2.85546875,-1.77734375,1.0
4459988,,,,,,,,-1.515625,7.07421875,-2.4375,-0.31640625,-0.23046875,-1.291015625,1.5234375,-1.93359375,-0.359375,1.0
4459989,,,,,,,,-2.49609375,7.6640625,-1.69140625,-0.353515625,-0.056640625,-1.06640625,0.60546875,-1.32421875,0.37109375,1.0
4459990,36.012964000000004,129.31997616666666,124.05995045741133,62.58188496958404,3.1,230.0,,-4.58203125,9.66796875,0.30078125,-0.3359375,0.328125,-0.134765625,-1.42578125,0.70703125,2.3203125,1.0
4459991,,,,,,,,-6.56640625,11.109375,4.68359375,-0.330078125,0.4921875,1.037109375,-3.45703125,2.125,6.69140625,1.0
4459992,,,,,,,,-6.6484375,11.47265625,4.54296875,-0.357421875,0.4140625,1.59765625,-3.609375,2.47265625,6.53125,1.0
4459993,,,,,,,,-3.18359375,11.02734375,1.6171875,-0.345703125,0.095703125,2.423828125,-0.31640625,1.97265625,3.58984375,1.0
4459994,,,,,,,,-1.6875,10.8671875,1.48046875,-0.3046875,-0.08203125,2.552734375,1.0625,1.78125,3.4296875,1.0
4459995,,,,,,,,-0.125,6.79296875,0.0546875,-0.189453125,-0.474609375,2.275390625,2.40625,-2.35546875,1.9765625,1.0
4459996,,,,,,,,-0.16796875,-5.1875,2.140625,-0.15625,-1.287109375,0.521484375,2.17578125,-14.3828125,4.0078125,1.0
4459997,,,,,,,,0.59765625,-23.3828125,6.42578125,-0.14453125,-1.48046875,-0.01953125,2.94140625,-32.58203125,8.26171875,1.0
4459998,,,,,,,,-9.40234375,-35.98046875,12.53125,-0.0859375,0.12890625,0.576171875,-7.05859375,-45.1796875,14.3125,1.0
4459999,,,,,,,,-5.046875,-15.046875,9.734375,-0.31640625,1.390625,0.33203125,-2.765625,-24.265625,11.515625,1.0
4460000,36.01296166666667,129.31997383333334,123.84960660746123,62.32297710704112,3.2,226.0,0.0,1.42578125,-3.2421875,-0.1953125,-0.44140625,1.931640625,-0.03515625,3.66796875,-12.46875,1.59375,1.0
4460001,,,,,,,,7.37109375,-8.796875,-1.3671875,0.208984375,1.716796875,-0.31640625,9.60546875,-18.02734375,0.4453125,1.0
4460002,,,,,,,,6.484375,-13.234375,2.82421875,0.6328125,-0.25390625,1.494140625,8.6484375,-22.46875,4.69921875,1.0
4460003,,,,,,,,5.0078125,-16.3203125,3.07421875,0.4140625,-2.98046875,1.017578125,7.078125,-25.57421875,4.96484375,1.0
4460004,,,,,,,,3.26171875,-13.26171875,2.2734375,0.087890625,-2.470703125,1.640625,5.27734375,-22.54296875,4.125,1.0
4460005,,,,,,,,1.03515625,-7.8203125,0.203125,0.09375,0.720703125,2.59765625,2.86328125,-17.140625,2.0546875,1.0
4460006,,,,,,,,-0.36328125,-6.41015625,-1.18359375,0.259765625,1.654296875,2.81640625,1.33203125,-15.76171875,0.67578125,1.0
4460007,,,,,,,,-2.09765625,-6.37109375,-1.3671875,0.646484375,1.380859375,2.822265625,-0.69921875,-15.76171875,0.5625,1.0
4460008,,,,,,,,-2.3984375,-5.8515625,-0.734375,1.11328125,0.12890625,2.77734375,-1.2734375,-15.265625,1.2890625,1.0
4460009,,,,,,,,-2.9921875,-4.65625,-0.31640625,1.39453125,-0.46484375,2.755859375,-2.1171875,-14.078125,1.82421875,1.0
4460010,36.01296,129.31997116666668,123.6092120602276,62.13804165201598,3.1,228.0,,-4.21875,-2.2421875,-0.87890625,-0.44140625,1.931640625,-0.03515625,-3.609375,-11.66796875,1.40234375,1.0
4460011,,,,,,,,-4.57421875,2.30078125,-2.06640625,1.61328125,0.576171875,2.732421875,-4.22265625,-7.1015625,0.37109375,1.0
4460012,,,,,,,,-3.9375,6.3359375,-2.89453125,1.435546875,0.50390625,2.47265625,-4.109375,-3.0078125,-0.16796875,1.0
4460013,,,,,,,,-3.6953125,8.046875,-2.87890625,1.32421875,0.365234375,2.4453125,-3.9921875,-1.28125,-0.08984375,1.0
4460014,,,,,,,,-3.796875,9.875,-2.0703125,1.0859375,0.193359375,2.373046875,-4.33984375,0.59375,0.828125,1.0
4460015,,,,,,,,-3.50390625,10.83203125,-1.7734375,0.912109375,0.21484375,2.193359375,-4.26171875,1.58984375,1.2109375,1.0
4460016,,,,,,,,-2.953125,11.55859375,-1.859375,0.83203125,0.3359375,2.01953125,-3.91796875,2.35546875,1.2109375,1.0
4460017,,,,,,,,-2.5234375,12.27734375,-2.50390625,0.814453125,0.50390625,1.91796875,-3.6875,3.12109375,0.63671875,1.0
4460018,,,,,,,,-2.19921875,11.91796875,-3.0703125,0.78125,0.57421875,1.8515625,-3.45703125,2.77734375,0.1015625,1.0
4460019,,,,,,,,-1.7578125,10.64453125,-3.69921875,0.63671875,0.587890625,1.548828125,-3.19140625,1.55078125,-0.47265625,1.0
4460020,36.012958166666664,129.3199685,123.36881776064465,61.93461299824891,3.1,228.0,,-1.33203125,8.21484375,-4.22265625,0.435546875,0.34375,0.76953125,-2.95703125,-0.82421875,-0.93359375,1.0
4460021,,,,,,,,-1.01171875,6.57421875,-3.87109375,0.318359375,0.1171875,0.25390625,-2.6875,-2.43359375,-0.55078125,1.0
4460022,,,,,,,,-0.87890625,6.34375,-3.6875,0.236328125,0.041015625,0.03515625,-2.57421875,-2.66796875,-0.359375,1.0
4460023,,,,,,,,0.21484375,6.72265625,-2.515625,0.041015625,-0.01171875,-0.302734375,-1.46484375,-2.27734375,0.828125,1.0
4460024,,,,,,,,0.8671875,7.87890625,-2.453125,-0.166015625,0.11328125,-0.47265625,-0.7734375,-1.12890625,0.8671875,1.0
4460025,,,,,,,,1.40234375,10.109375,-2.515625,-0.1875,0.138671875,-0.5078125,-0.19921875,1.09375,0.7890625,1.0
4460026,,,,,,,,1.609375,10.65234375,-2.5078125,-0.169921875,0.0859375,-0.55859375,0.03125,1.625,0.7890625,1.0
4460027,,,,,,,,1.9375,11.6171875,-2.55859375,-0.06640625,-0.20703125,-0.822265625,0.4140625,2.58984375,0.71484375,1.0
4460028,,,,,,,,2.23046875,11.703125,-3.03515625,0.103515625,-0.958984375,-1.177734375,0.87109375,2.66796875,0.25390625,1.0
4460029,,,,,,,,2.23828125,10.66796875,-2.66015625,0.1171875,-1.185546875,-1.208984375,0.94921875,1.625,0.63671875,1.0
4460030,36.012956333333335,129.3199655,123.0983738072935,61.731183929403116,3.2,230.0,,1.4765625,6.578125,-1.84765625,0.435546875,0.34375,0.76953125,0.3359375,-2.47265625,1.48046875,1.0
4460031,,,,,,,,2.00390625,0.21875,-0.140625,0.060546875,-1.7265625,-1.060546875,1.02734375,-8.83203125,3.203125,1.0
4460032,,,,,,,,3.4765625,-12.27734375,4.48046875,0.03515625,-1.697265625,-0.732421875,2.6328125,-21.3125,7.83984375,1.0
4460033,,,,,,,,8.9375,-34.84765625,15.8046875,0.0390625,-1.326171875,-0.291015625,8.1875,-43.87890625,19.1796875,1.0
4460034,,,,,,,,8.73828125,-21.55859375,9.62890625,-0.00390625,-0.5625,-0.134765625,8.03515625,-30.58984375,13.01171875,1.0
4460035,,,,,,,,-0.26953125,-5.65234375,2.08984375,-0.056640625,1.228515625,-0.20703125,-0.96484375,-14.69140625,5.46484375,1.0
4460036,,,,,,,,1.69921875,-14.453125,3.0234375,-0.17578125,1.666015625,-0.822265625,0.98828125,-23.5,6.3828125,1.0
4460037,,,,,,,,2.8828125,-18.0703125,5.66796875,-0.283203125,-0.126953125,-1.31640625,2.25,-27.140625,8.98828125,1.0
4460038,,,,,,,,1.10546875,-16.59765625,4.98046875,-0.212890625,-3.171875,-0.529296875,0.60546875,-25.6796875,8.30078125,1.0
4460039,,,,,,,,1.8359375,-12.5625,2.765625,-0.125,-2.98828125,-1.1796875,1.5234375,-21.6640625,6.078125,1.0
4460040,36.01295483333333,129.31996283333334,122.85797896922675,61.56474170259259,3.2,231.0,,2.91796875,-8.62109375,0.91796875,0.435546875,0.34375,0.76953125,0.3359375,-2.47265625,1.48046875,1.0
4460041,,,,,,,,3.5078125,-7.45703125,1.0,-1.142578125,-0.59765625,-2.15234375,3.9765625,-16.640625,4.125,1.0
4460042,,,,,,,,3.359375,-5.6796875,0.48828125,-1.20703125,-0.69140625,-2.25,3.9375,-14.8828125,3.55078125,1.0
4460043,,,,,,,,3.39453125,-3.46484375,-0.515625,-1.28515625,-0.384765625,-2.41015625,4.20703125,-12.6953125,2.4375,1.0
4460044,,,,,,,,3.50390625,-2.4609375,-0.98828125,-1.353515625,-0.15625,-2.447265625,4.43359375,-11.70703125,1.90234375,1.0
4460045,,,,,,,,3.8515625,0.17578125,-1.8203125,-1.443359375,0.119140625,-2.326171875,5.0078125,-9.09765625,0.9453125,1.0
4460046,,,,,,,,3.765625,2.94921875,-1.91796875,-1.412109375,0.14453125,-2.142578125,5.125,-6.33984375,0.71484375,1.0
4460047,,,,,,,,3.6328125,3.79296875,-1.734375,-1.384765625,0.123046875,-2.0703125,5.0859375,-5.4921875,0.828125,1.0
4460048,,,,,,,,2.9765625,6.52734375,-1.5078125,-1.296875,0.185546875,-1.94140625,4.62890625,-2.77734375,0.9453125,1.0
4460049,,,,,,,,2.2421875,8.13671875,-1.5234375,-1.236328125,0.2578125,-1.86328125,3.9765625,-1.16796875,0.8671875,1.0
4460050,36.01295316666666,129.31996033333334,122.63260920420741,61.379806485655834,3.1,231.0,,-0.109375,12.04296875,-3.02734375,-0.869140625,0.541015625,-1.4765625,1.9453125,2.73828125,-0.81640625,1.0
4460051,,,,,,,,-1.0546875,12.80078125,-3.42578125,-0.6953125,0.5,-1.283203125,1.1015625,3.5,-1.27734375,1.0
4460052,,,,,,,,-1.59375,13.359375,-3.953125,-0.587890625,0.380859375,-1.16796875,0.6796875,4.08203125,-1.8515625,1.0
4460053,,,,,,,,-1.01171875,12.46484375,-4.58984375,-0.58984375,0.2109375,-1.1953125,1.37109375,3.19921875,-2.54296875,1.0
4460054,,,,,,,,0.83203125,9.26953125,-5.23046875,-0.611328125,0.064453125,-1.2421875,3.32421875,0.01953125,-3.23046875,1.0
4460055,,,,,,,,1.82421875,6.52734375,-5.23828125,-0.580078125,-0.07421875,-1.146484375,4.4296875,-2.69921875,-3.30859375,1.0
4460056,,,,,,,,1.51953125,6.09765625,-4.9453125,-0.583984375,-0.15234375,-1.0625,4.1640625,-3.12109375,-3.0390625,1.0
4460057,,,,,,,,-0.73828125,6.03515625,-2.9453125,-0.59765625,-0.1640625,-0.8203125,2.05859375,-3.16015625,-1.125,1.0
4460058,,,,,,,,-3.45703125,6.7109375,-0.58203125,-0.55859375,0.052734375,-0.654296875,-0.58203125,-2.46875,1.17578125,1.0
4460059,,,,,,,,-5.05859375,9.0,1.546875,-0.451171875,0.380859375,0.212890625,-2.15234375,-0.171875,3.2421875,1.0
4460060,36.01295116666667,129.31995733333332,122.3621654715943,61.15788423307286,3.2,231.0,,-5.6171875,11.08984375,4.0703125,-0.498046875,0.419921875,0.890625,1.9453125,2.73828125,-0.81640625,1.0
4460061,,,,,,,,-3.33203125,13.0390625,1.85546875,-0.580078125,0.185546875,1.3046875,-0.58203125,3.8125,3.47265625,1.0
4460062,,,,,,,,-2.390625,13.484375,0.99609375,-0.599609375,0.009765625,1.345703125,0.296875,4.234375,2.58984375,1.0
4460063,,,,,,,,-0.2421875,14.1640625,-0.28125,-0.5234375,-0.42578125,1.076171875,2.328125,4.8828125,1.25,1.0
4460064,,,,,,,,1.03125,13.18359375,-0.33203125,-0.3359375,-0.939453125,0.3515625,3.5546875,3.8828125,1.13671875,1.0
4460065,,,,,,,,0.5078125,10.3046875,0.671875,-0.17578125,-1.56640625,-0.505859375,3.0546875,1.015625,2.09375,1.0
4460066,,,,,,,,-0.02734375,8.02734375,0.55078125,-0.091796875,-1.724609375,-0.724609375,2.5546875,-1.24609375,1.94140625,1.0
4460067,,,,,,,,-0.34375,-5.87109375,3.8984375,0.0546875,-1.55078125,-0.529296875,2.328125,-15.109375,5.234375,1.0
4460068,,,,,,,,-2.86328125,-40.9296875,16.48046875,0.119140625,-0.63671875,0.314453125,-0.16015625,-50.1640625,17.80078125,1.0
4460069,,,,,,,,-6.796875,-52.3828125,20.15625,0.138671875,-0.0078125,0.681640625,-4.109375,-61.62109375,21.4765625,1.0
4460070,36.012949000000006,129.31995466666666,122.121771632447,60.91746919989283,3.3000000000000003,228.0,,-11.2421875,-31.50390625,12.171875,0.1015625,1.63671875,1.1015625,-8.703125,-40.77734375,13.546875,1.0
4460071,,,,,,,,-0.84375,-5.1640625,4.2734375,-0.138671875,2.078125,0.896484375,1.5625,-14.46484375,5.6953125,1.0
4460072,,,,,,,,8.375,-8.48046875,-0.59375,0.009765625,1.97265625,-0.439453125,10.71875,-17.79296875,0.8671875,1.0
4460073,,,,,,,,10.08984375,-11.9921875,5.12109375,0.634765625,0.76953125,-0.2734375,12.48046875,-21.28125,6.65234375,1.0
4460074,,,,,,,,4.92578125,-13.421875,5.80859375,0.171875,-1.990234375,1.806640625,7.23046875,-22.734375,7.37890625,1.0
4460075,,,,,,,,0.046875,-8.09765625,2.29296875,0.244140625,-3.51171875,1.552734375,2.25,-17.4453125,3.81640625,1.0
4460076,,,,,,,,-2.01171875,-5.53125,0.9765625,0.2421875,-0.740234375,1.982421875,0.06640625,-14.921875,2.4765625,1.0
4460077,,,,,,,,-2.92578125,-5.13671875,0.61328125,0.587890625,1.61328125,2.966796875,-1.08203125,-14.5703125,2.16796875,1.0
4460078,,,,,,,,-2.60546875,-4.5078125,0.97265625,0.888671875,0.763671875,2.865234375,-1.08203125,-14.0,2.62890625,1.0
4460079,,,,,,,,-3.05078125,-2.8671875,0.7109375,1.18359375,-0.205078125,2.41015625,-1.88671875,-12.39453125,2.515625,1.0
4460080,36.01294716666666,129.3199525,121.9264517402973,60.71404121087404,3.0,226.0,,-4.4921875,2.15625,-1.21875,1.548828125,0.30859375,2.599609375,-3.6875,-7.37890625,0.7890625,1.0
4460081,,,,,,,,-5.046875,6.0859375,-1.83203125,1.5703125,0.337890625,2.50390625,-4.4921875,-3.4296875,0.33203125,1.0
4460082,,,,,,,,-4.9140625,6.80859375,-2.140625,1.546875,0.220703125,2.4375,-4.4921875,-2.69921875,0.1015625,1.0
4460083,,,,,,,,-4.88671875,8.70703125,-2.58984375,1.4140625,0.001953125,2.369140625,-4.6796875,-0.78515625,-0.20703125,1.0
4460084,,,,,,,,-4.58203125,10.09375,-2.7578125,1.23046875,-0.00390625,2.359375,-4.6015625,0.6328125,-0.2421875,1.0
4460085,,,,,,,,-4.1640625,11.7109375,-2.02734375,1.078125,0.12890625,2.31640625,-4.41796875,2.28125,0.59765625,1.0
4460086,,,,,,,,-4.0078125,12.4609375,-1.890625,1.00390625,0.189453125,2.275390625,-4.37890625,3.046875,0.7890625,1.0
4460087,,,,,,,,-2.69140625,13.1875,-2.78125,0.826171875,0.458984375,2.125,-3.49609375,3.8515625,0.0625,1.0
4460088,,,,,,,,-1.59765625,10.96484375,-3.81640625,0.76953125,0.56640625,1.849609375,-2.609375,1.66796875,-0.89453125,1.0
4460089,,,,,,,,-1.359375,9.9453125,-4.0,0.75390625,0.5703125,1.568359375,-2.46484375,0.671875,-1.046875,1.0
4460090,36.012944999999995,129.31995016666667,121.7161075265988,60.473626606457714,3.1,224.0,,-1.08203125,7.4609375,-3.86328125,0.65234375,0.529296875,0.67578125,-2.3046875,-1.78125,-0.85546875,1.0
4460091,,,,,,,,-0.734375,6.51171875,-3.34375,0.51953125,0.470703125,-0.2109375,-2.0,-2.6953125,-0.28125,1.0
4460092,,,,,,,,-0.03125,7.0703125,-2.84765625,0.380859375,0.4296875,-0.640625,-1.2734375,-2.125,0.25390625,1.0
4460093,,,,,,,,0.26171875,7.4921875,-2.73828125,0.33203125,0.431640625,-0.685546875,-0.96484375,-1.70703125,0.37109375,1.0
4460094,,,,,,,,1.32421875,9.20703125,-2.6171875,0.283203125,0.447265625,-0.609375,0.14453125,0.01953125,0.52734375,1.0
4460095,,,,,,,,1.96875,10.1484375,-2.71875,0.19140625,0.38671875,-0.640625,0.8359375,0.9765625,0.4453125,1.0
4460096,,,,,,,,2.78515625,11.4140625,-2.57421875,0.232421875,0.1328125,-0.794921875,1.71484375,2.24609375,0.59765625,1.0
4460097,,,,,,,,1.2421875,11.40625,-2.3359375,0.294921875,-0.298828125,-0.955078125,0.2578125,2.2421875,0.8671875,1.0
4460098,,,,,,,,0.8203125,10.9765625,-2.3515625,0.314453125,-0.55078125,-1.00390625,-0.125,1.82421875,0.8671875,1.0
4460099,,,,,,,,-0.25390625,9.84765625,-2.19140625,0.296875,-0.98828125,-0.943359375,-1.078125,0.70703125,1.05859375,1.0
4460100,36.012943166666666,129.31994666666665,121.40058901184194,60.27019696578563,3.4000000000000004,230.0,0.0,-2.33984375,5.3125,1.0703125,0.65234375,0.529296875,0.67578125,-2.3046875,-1.78125,-0.85546875,1.0
4460101,,,,,,,,-1.58984375,-1.2890625,1.84375,0.26171875,-1.169921875,0.166015625,-2.26953125,-10.3984375,5.15625,1.0
4460102,,,,,,,,1.734375,-11.7265625,4.3046875,0.1640625,-0.880859375,0.267578125,1.0625,-20.82421875,7.6484375,1.0
4460103,,,,,,,,7.75,-29.515625,9.8046875,0.099609375,-0.439453125,-0.0078125,7.078125,-38.59765625,13.1640625,1.0
4460104,,,,,,,,16.5078125,-46.79296875,13.89453125,0.05859375,-0.205078125,-0.203125,15.8515625,-55.87109375,17.26171875,1.0
4460105,,,,,,,,9.2578125,-28.59765625,13.703125,0.072265625,0.759765625,-1.55078125,-0.19921875,-17.2578125,9.71484375,1.0
4460106,,,,,,,,-4.13671875,-3.4609375,1.21484375,0.107421875,1.7578125,-1.619140625,-5.6015625,-14.3046875,2.0546875,1.0
4460107,,,,,,,,-5.1484375,-5.22265625,-1.3125,-0.046875,1.8359375,-1.3125,-1.6171875,-21.4296875,2.515625,1.0
4460108,,,,,,,,1.5234375,-15.85546875,2.92578125,-0.328125,-2.7578125,-0.5390625,1.140625,-25.609375,7.07421875,1.0
4460109,,,,,,,,1.4296875,-16.5,3.73046875,-0.275390625,-4.107421875,-0.76171875,1.6015625,-24.04296875,6.65234375,1.0
4460110,36.012941166666664,129.3199436666667,121.13014521859976,60.0482747515239,3.3000000000000003,230.0,,2.609375,-12.69140625,2.75,-0.279296875,-1.552734375,-3.119140625,4.85546875,-17.14453125,4.31640625,1.0
4460111,,,,,,,,5.23046875,-6.515625,-0.1015625,-0.794921875,0.814453125,-3.25,6.54296875,-14.50390625,1.82421875,1.0
4460112,,,,,,,,5.76953125,-5.46484375,-1.30078125,-1.11328125,0.302734375,-2.2265625,6.08203125,-14.88671875,2.515625,1.0
4460113,,,,,,,,4.80078125,-5.82421875,0.0625,-1.291015625,-0.63671875,-2.021484375,4.85546875,-14.26953125,4.0078125,1.0
4460114,,,,,,,,3.0546875,-3.14453125,1.015625,-1.349609375,-0.7890625,-2.248046875,4.2421875,-12.3515625,3.96875,1.0
4460115,,,,,,,,2.21484375,-0.28515625,-0.265625,-1.494140625,-0.1640625,-2.31640625,3.62890625,-9.51953125,2.5546875,1.0
4460116,,,,,,,,2.11328125,0.59765625,-0.88671875,-1.541015625,0.193359375,-2.205078125,3.62890625,-8.63671875,1.86328125,1.0
4460117,,,,,,,,1.859375,3.484375,-1.87109375,-1.529296875,0.5625,-1.869140625,3.5546875,-5.76953125,0.75390625,1.0
4460118,,,,,,,,1.55078125,5.30859375,-2.0078125,-1.396484375,0.482421875,-1.681640625,3.40234375,-3.9609375,0.484375,1.0
4460119,,,,,,,,0.671875,8.21875,-1.859375,-1.228515625,0.267578125,-1.62109375,2.671875,-1.0546875,0.5234375,1.0
4460120,36.01293933333333,129.31994083333333,120.87472597670916,59.84484595980761,3.4000000000000004,231.0,,0.30078125,9.98046875,-1.68359375,-0.279296875,-1.552734375,-3.119140625,4.85546875,-17.14453125,4.31640625,1.0
4460121,,,,,,,,-0.71484375,11.84375,-2.30078125,-0.76953125,0.3359375,-1.412109375,1.63671875,2.5859375,-0.12890625,1.0
4460122,,,,,,,,-1.6875,13.29296875,-2.99609375,-0.689453125,0.380859375,-1.3359375,0.71875,4.04296875,-0.85546875,1.0
4460123,,,,,,,,-2.12890625,13.14453125,-3.5,-0.5,0.31640625,-1.0859375,0.44921875,3.92578125,-1.4296875,1.0
4460124,,,,,,,,-2.01171875,12.87109375,-3.6015625,-0.47265625,0.173828125,-0.9921875,0.60546875,3.65625,-1.546875,1.0
4460125,,,,,,,,0.390625,9.58984375,-5.22265625,-0.41015625,-0.287109375,-0.751953125,3.1328125,0.40234375,-3.2265625,1.0
4460126,,,,,,,,2.2265625,6.5859375,-5.0234375,-0.4140625,-0.484375,-0.720703125,5.05078125,-2.5859375,-3.078125,1.0
4460127,,,,,,,,2.140625,6.1953125,-4.72265625,-0.408203125,-0.537109375,-0.78515625,5.0078125,-2.96875,-2.80859375,1.0
4460128,,,,,,,,0.31640625,6.6171875,-2.84375,-0.380859375,-0.326171875,-1.220703125,3.3203125,-2.5078125,-1.0078125,1.0
4460129,,,,,,,,-1.28515625,7.25,-1.48046875,-0.408203125,-0.126953125,-1.2578125,1.79296875,-1.86328125,0.33203125,1.0
4460130,36.01293733333333,129.31993783333334,120.60428215445799,59.62292376195957,3.4000000000000004,230.0,,-3.33203125,8.1796875,-0.37890625,-0.279296875,-1.552734375,-3.119140625,-0.16015625,-0.8984375,1.40234375,1.0
4460131,,,,,,,,-6.03125,9.77734375,5.0,-0.310546875,0.76953125,0.6171875,-3.3046875,1.4375,7.3046875,1.0
4460132,,,,,,,,-5.4609375,11.75,4.703125,-0.451171875,0.642578125,1.3515625,-1.3125,3.046875,5.34765625,1.0
4460133,,,,,,,,-3.27734375,12.4765625,2.44921875,-0.439453125,0.337890625,1.765625,0.52734375,3.50390625,3.08984375,1.0
4460134,,,,,,,,-1.42578125,12.44921875,0.65234375,-0.41015625,-0.064453125,1.671875,2.51953125,1.3203125,1.59375,1.0
4460135,,,,,,,,-0.20703125,8.703125,-0.34375,-0.3125,-0.775390625,0.62109375,2.25,-3.12109375,1.09765625,1.0
4460136,,,,,,,,-0.3515625,-9.6015625,4.078125,-0.1171875,-1.251953125,0.109375,2.2890625,-18.828125,5.6953125,1.0
4460137,,,,,,,,0.7890625,-21.4765625,7.48046875,0.037109375,-1.0078125,0.236328125,-0.3515625,-52.19140625,18.4140625,1.0
4460138,,,,,,,,-6.78515625,-47.2578125,16.3125,-0.033203125,-0.140625,0.48828125,-7.2109375,-53.2265625,15.1953125,1.0
4460139,,,,,,,,-10.45703125,-28.2421875,15.25,-0.24609375,1.01953125,0.333984375,-4.71875,-26.37890625,13.81640625,1.0
4460140,36.01293483333333,129.31993483333332,120.33383907718328,59.34552195116943,3.6,226.0,,-2.32421875,-4.94921875,5.28125,-0.53515625,1.8671875,-0.150390625,0.22265625,-14.19140625,6.84375,1.0
4460141,,,,,,,,6.2265625,-1.80078125,-1.58203125,0.025390625,2.0859375,-0.763671875,8.765625,-11.05078125,-0.01171875,1.0
4460142,,,,,,,,8.35546875,-9.31640625,0.30859375,0.52734375,1.56640625,-0.080078125,10.91015625,-18.5546875,1.90234375,1.0
4460143,,,,,,,,7.03125,-14.47265625,3.078125,0.556640625,-1.279296875,1.509765625,9.4921875,-23.73046875,4.7734375,1.0
4460144,,,,,,,,3.9609375,-17.28515625,4.12890625,0.44140625,-3.646484375,1.06640625,6.3515625,-26.5625,5.80859375,1.0
4460145,,,,,,,,0.70703125,-13.19140625,4.40625,0.033203125,-1.888671875,1.904296875,3.01953125,-22.50390625,6.0390625,1.0
4460146,,,,,,,,-1.078125,-8.79296875,2.98828125,0.009765625,0.146484375,2.40625,1.140625,-18.1328125,4.62109375,1.0
4460147,,,,,,,,-2.0703125,-5.7890625,0.2890625,0.396484375,2.234375,2.9921875,-0.125,-15.1875,1.9765625,1.0
4460148,,,,,,,,-3.23828125,-4.83203125,-0.9140625,0.990234375,0.53125,3.03125,-1.76953125,-14.3046875,0.90625,1.0
4460149,,,,,,,,-4.0390625,-3.8203125,-0.2734375,1.404296875,-0.49609375,2.822265625,-2.84375,-13.31640625,1.671875,1.0
4460150,36.01293283333334,129.31993216666666,120.09344487985604,59.12360018089951,3.4000000000000004,227.0,,-5.28125,-0.78515625,-0.375,-0.53515625,1.8671875,-0.150390625,0.22265625,-14.19140625,6.84375,1.0
4460151,,,,,,,,-5.4140625,2.6171875,-1.3359375,1.619140625,0.0859375,2.806640625,-4.71875,-6.875,0.90625,1.0
4460152,,,,,,,,-5.2734375,4.02734375,-1.68359375,1.630859375,0.314453125,2.85546875,-4.71875,-5.45703125,0.63671875,1.0
4460153,,,,,,,,-4.734375,6.4609375,-2.75,1.517578125,0.455078125,2.75,-4.45703125,-3.0078125,-0.28125,1.0
4460154,,,,,,,,-4.36328125,8.4375,-3.40234375,1.421875,0.40625,2.654296875,-4.21875,-1.015625,-0.85546875,1.0
4460155,,,,,,,,-3.68359375,9.90234375,-3.4140625,1.177734375,0.251953125,2.544921875,-3.796875,0.48046875,-0.7421875,1.0
4460156,,,,,,,,-2.671875,12.55078125,-1.68359375,0.892578125,0.236328125,2.326171875,-3.26953125,3.19921875,1.17578125,1.0
4460157,,,,,,,,-2.1328125,13.64453125,-1.703125,0.873046875,0.3203125,2.298828125,-2.84375,4.30859375,1.2109375,1.0
4460158,,,,,,,,-1.13671875,13.0,-3.19140625,0.796875,0.599609375,2.12890625,-2.19140625,3.73828125,-0.16796875,1.0
4460159,,,,,,,,-0.59765625,11.4609375,-4.28515625,0.724609375,0.65234375,1.7734375,-1.84765625,2.2421875,-1.19921875,1.0
4460160,36.012930833333336,129.31992983333333,119.88310032585305,58.90167882747387,3.3000000000000003,225.0,,-0.625,8.38671875,-4.80859375,-0.53515625,1.8671875,-0.150390625,-2.04296875,-0.78515625,-1.66015625,1.0
4460161,,,,,,,,-0.8828125,5.59765625,-4.6328125,0.623046875,0.34765625,0.28515625,-2.3828125,-3.5390625,-1.4296875,1.0
4460162,,,,,,,,-0.69140625,3.96484375,-4.14453125,0.548828125,0.2578125,-0.34375,-2.19140625,-5.15234375,-0.89453125,1.0
4460163,,,,,,,,-0.1875,4.2578125,-3.609375,0.484375,0.375,-0.560546875,-1.65625,-4.84375,-0.3203125,1.0
4460164,,,,,,,,0.44140625,5.8125,-3.2578125,0.423828125,0.609375,-0.41015625,-1.00390625,-3.2734375,0.0625,1.0
4460165,,,,,,,,1.3671875,8.4765625,-3.09765625,0.396484375,0.759765625,-0.138671875,-0.0859375,-0.59375,0.25390625,1.0
4460166,,,,,,,,1.875,9.734375,-2.98828125,0.400390625,0.75390625,-0.052734375,0.4140625,0.67578125,0.37109375,1.0
4460167,,,,,,,,2.28125,10.20703125,-2.75390625,0.478515625,0.517578125,-0.0546875,0.796875,1.1640625,0.63671875,1.0
4460168,,,,,,,,2.2421875,10.30078125,-2.02734375,0.5859375,-0.01953125,-0.21875,0.7578125,1.28515625,1.3984375,1.0
4460169,,,,,,,,1.89453125,8.890625,-1.7421875,0.662109375,-0.556640625,-0.458984375,0.44921875,-0.09375,1.75,1.0
4460170,36.012928333333335,129.31992683333334,119.61265720510085,58.62427704029455,3.6,226.0,,2.1328125,5.65625,-1.35546875,-0.53515625,1.8671875,-0.150390625,-2.04296875,-0.78515625,-1.66015625,1.0
4460171,,,,,,,,3.74609375,-15.4921875,9.76953125,0.5,-1.33203125,-0.564453125,2.51953125,-24.42578125,13.43359375,1.0
4460172,,,,,,,,2.51171875,-30.66796875,19.2890625,0.427734375,-1.451171875,-0.34375,1.37109375,-39.58984375,23.0078125,1.0
4460173,,,,,,,,11.59765625,-27.703125,10.5078125,0.376953125,-1.19140625,-0.0390625,10.52734375,-36.60546875,14.2734375,1.0
4460174,,,,,,,,3.23046875,-9.67578125,5.17578125,0.333984375,-0.052734375,0.3046875,2.17578125,-18.5546875,8.98828125,1.0
4460175,,,,,,,,-2.453125,-5.5546875,1.1015625,0.25390625,1.783203125,0.169921875,-3.5703125,-14.421875,4.9296875,1.0
4460176,,,,,,,,1.5078125,-13.32421875,0.5703125,-0.11328125,1.5,-1.62890625,0.375,-22.19921875,4.390625,1.0
4460177,,,,,,,,2.91796875,-16.25,2.83984375,-0.0703125,-3.484375,-0.568359375,2.09765625,-25.15234375,6.69140625,1.0
4460178,,,,,,,,3.75,-12.375,0.71484375,-0.0390625,-1.873046875,-1.833984375,3.1328125,-21.28515625,4.58203125,1.0
4460179,,,,,,,,3.8046875,-9.26953125,-1.03125,-0.658203125,0.388671875,-2.8984375,3.4375,-18.21484375,2.8203125,1.0
4460180,36.012926500000006,129.31992316666668,119.28211374751815,58.42084727166029,3.8000000000000003,230.0,,3.83203125,-8.1328125,-1.52734375,-1.048828125,0.177734375,-2.263671875,3.78515625,-17.14453125,2.20703125,1.0
4460181,,,,,,,,3.3984375,-6.35546875,-1.2265625,-1.3125,-0.15234375,-2.177734375,3.5546875,-15.4140625,2.3984375,1.0
4460182,,,,,,,,3.14453125,-4.609375,-1.39453125,-1.361328125,-0.171875,-2.234375,3.40234375,-13.6953125,2.16796875,1.0
4460183,,,,,,,,3.1171875,-1.3828125,-2.234375,-1.419921875,-0.044921875,-2.458984375,3.59375,-10.515625,1.2109375,1.0
4460184,,,,,,,,3.17578125,-0.171875,-2.4609375,-1.462890625,0.02734375,-2.576171875,3.78515625,-9.33203125,0.90625,1.0
4460185,,,,,,,,3.73828125,3.19921875,-3.27734375,-1.49609375,0.13671875,-2.5703125,4.58984375,-5.9921875,-0.05078125,1.0
4460186,,,,,,,,3.98046875,4.1640625,-3.078125,-1.494140625,0.150390625,-2.470703125,4.93359375,-5.0390625,0.1015625,1.0
4460187,,,,,,,,3.48828125,8.16015625,-2.0390625,-1.3984375,0.076171875,-2.119140625,4.85546875,-1.08984375,0.8671875,1.0
4460188,,,,,,,,2.91796875,8.7109375,-2.0,-1.197265625,0.064453125,-2.046875,4.46875,-0.5546875,0.7890625,1.0
4460189,,,,,,,,1.3671875,10.81640625,-3.046875,-0.974609375,0.08984375,-1.943359375,3.1328125,1.55078125,-0.359375,1.0
4460190,36.01292483333334,129.31992033333333,119.02669416660612,58.23591174118429,3.4000000000000004,232.0,,0.51171875,11.8125,-3.54296875,-0.76953125,0.119140625,-1.791015625,2.44140625,2.546875,-0.93359375,1.0
4460191,,,,,,,,0.015625,12.37890625,-3.77734375,-0.69140625,0.0859375,-1.6484375,2.0234375,3.1171875,-1.19921875,1.0
4460192,,,,,,,,-0.74609375,12.81640625,-4.59765625,-0.60546875,-0.0859375,-1.466796875,1.41015625,3.578125,-2.08203125,1.0
4460193,,,,,,,,-0.3671875,11.890625,-5.05859375,-0.60546875,-0.1875,-1.4453125,1.8671875,2.6640625,-2.58203125,1.0
4460194,,,,,,,,0.2734375,10.953125,-5.078125,-0.611328125,-0.412109375,-1.34375,2.6328125,1.7421875,-2.66015625,1.0
4460195,,,,,,,,3.0078125,7.1015625,-5.7421875,-0.552734375,-0.580078125,-1.193359375,5.5078125,-2.0859375,-3.3828125,1.0
4460196,,,,,,,,3.11328125,6.578125,-5.828125,-0.490234375,-0.63671875,-1.10546875,5.73828125,-2.5859375,-3.5390625,1.0
4460197,,,,,,,,2.484375,6.1875,-5.52734375,-0.48828125,-0.576171875,-1.07421875,5.1640625,-2.96875,-3.26953125,1.0
4460198,,,,,,,,0.53515625,6.0859375,-4.1640625,-0.5546875,-0.337890625,-1.115234375,3.32421875,-3.046875,-1.96875,1.0
4460199,,,,,,,,-4.4765625,8.5078125,0.05078125,-0.453125,0.14453125,-0.693359375,-1.5390625,-0.59375,2.16796875,1.0
4460200,36.012922499999995,129.31991683333334,118.71117625926016,57.977002576426244,3.8000000000000003,231.0,0.0,-5.078125,9.3125,1.26171875,-0.76953125,0.119140625,-1.791015625,2.44140625,2.546875,-0.93359375,1.0
4460201,,,,,,,,-7.3515625,11.7265625,7.5,-0.41796875,0.443359375,0.693359375,-4.4140625,2.625,9.5625,1.0
4460202,,,,,,,,-6.58984375,12.78515625,6.859375,-0.5234375,0.4296875,1.9453125,-3.83984375,3.62109375,8.87890625,1.0
4460203,,,,,,,,-3.23046875,13.19921875,3.578125,-0.546875,0.357421875,2.173828125,-0.58203125,4.00390625,5.578125,1.0
4460204,,,,,,,,1.421875,14.40234375,2.0546875,-0.521484375,0.1015625,2.150390625,3.859375,5.15234375,4.0078125,1.0
4460205,,,,,,,,1.88671875,9.99609375,0.5390625,-0.453125,-0.41796875,1.11328125,4.16796875,0.70703125,2.4375,1.0
4460206,,,,,,,,-2.03125,-13.8671875,5.8515625,-0.390625,-1.2578125,-0.6796875,0.2578125,-23.15625,7.6875,1.0
4460207,,,,,,,,-3.6875,-41.73828125,12.875,-0.1953125,-1.494140625,-1.13671875,-1.2734375,-51.00390625,14.65625,1.0
4460208,,,,,,,,-6.26171875,-52.48046875,15.55078125,-0.080078125,-1.04296875,-0.52734375,-3.80078125,-61.7265625,17.30078125,1.0
4460209,,,,,,,,-11.44140625,-28.5703125,15.6953125,-0.08984375,1.28515625,0.64453125,-9.01171875,-37.828125,17.453125,1.0
4460210,36.01292016666666,129.319914,118.4557576531959,57.718094234622015,3.7,227.0,,3.40234375,-0.96484375,1.26953125,-0.76953125,0.119140625,-1.791015625,5.73828125,-10.2421875,3.05078125,1.0
4460211,,,,,,,,9.96875,-4.7578125,-3.95703125,-0.39453125,1.814453125,-0.361328125,12.25,-14.04296875,-2.16015625,1.0
4460212,,,,,,,,8.7265625,-11.9296875,2.01953125,0.427734375,1.2265625,-0.580078125,11.0625,-21.203125,3.85546875,1.0
4460213,,,,,,,,5.83984375,-13.953125,4.39453125,0.208984375,-1.49609375,1.2578125,8.11328125,-23.234375,6.26953125,1.0
4460214,,,,,,,,2.64453125,-10.55078125,3.4765625,0.3046875,-3.51171875,1.23828125,4.85546875,-19.86328125,5.3125,1.0
4460215,,,,,,,,-0.59765625,-5.8203125,1.62109375,0.21484375,0.52734375,2.611328125,1.41015625,-15.19140625,3.43359375,1.0
4460216,,,,,,,,-1.91796875,-4.3125,-0.32421875,0.72265625,2.158203125,2.96484375,-0.19921875,-13.73828125,1.55859375,1.0
4460217,,,,,,,,-2.21875,-3.859375,-1.125,0.87109375,1.095703125,2.716796875,-0.8125,-13.31640625,0.8671875,1.0
4460218,,,,,,,,-3.03515625,-2.953125,-1.42578125,1.19921875,-0.08203125,2.59375,-1.88671875,-12.4296875,0.67578125,1.0
4460219,,,,,,,,-5.31640625,3.828125,-2.48828125,1.525390625,0.232421875,2.65234375,-4.64453125,-5.6484375,-0.12890625,1.0
4460220,36.012918166666665,129.31991116666669,118.20033853513843,57.49617231411632,3.4000000000000004,228.0,,-5.86328125,5.796875,-2.328125,1.47265625,0.474609375,2.583984375,5.73828125,-10.2421875,3.05078125,1.0
4460221,,,,,,,,-5.63671875,7.7265625,-2.39453125,1.29296875,0.578125,2.505859375,-5.484375,-1.703125,0.25390625,1.0
4460222,,,,,,,,-5.21875,9.73828125,-1.8359375,1.181640625,0.60546875,2.478515625,-5.18359375,0.32421875,0.8671875,1.0
4460223,,,,,,,,-3.625,13.03515625,-1.79296875,0.951171875,0.66015625,2.333984375,-3.953125,3.66015625,1.05859375,1.0
4460224,,,,,,,,-2.578125,13.80078125,-2.1015625,0.767578125,0.583984375,2.3125,-3.1484375,4.46484375,0.828125,1.0
4460225,,,,,,,,-1.1875,13.18359375,-3.12890625,0.6484375,0.548828125,2.201171875,-2.0,3.8828125,-0.12890625,1.0
4460226,,,,,,,,-0.75,12.36328125,-3.6875,0.59765625,0.529296875,2.017578125,-1.65625,3.08203125,-0.6640625,1.0
4460227,,,,,,,,-0.21875,8.984375,-4.43359375,0.58203125,0.421875,1.404296875,-1.3125,-0.25,-1.3515625,1.0
4460228,,,,,,,,-0.50390625,6.6875,-4.3125,0.533203125,0.18359375,0.314453125,-1.73046875,-2.51171875,-1.1640625,1.0
4460229,,,,,,,,-0.65234375,5.453125,-3.953125,0.4765625,0.150390625,-0.03125,-1.88671875,-3.734375,-0.78125,1.0
4460230,36.01291583333333,129.31990833333333,117.94491989747826,57.237263986935446,3.6,227.0,,-0.69140625,5.5078125,-3.1953125,0.22265625,0.212890625,-0.64453125,-1.88671875,-3.66015625,0.0234375,1.0
4460231,,,,,,,,-0.125,6.9609375,-2.6640625,0.12890625,0.44140625,-0.646484375,-1.2734375,-2.203125,0.5625,1.0
4460232,,,,,,,,1.140625,9.98046875,-2.51171875,0.037109375,0.626953125,-0.462890625,0.03125,0.8203125,0.71484375,1.0
4460233,,,,,,,,1.4453125,10.5546875,-2.4375,0.0546875,0.6015625,-0.248046875,0.3359375,1.3984375,0.7890625,1.0
4460234,,,,,,,,2.43359375,11.54296875,-2.359375,0.146484375,0.30859375,-0.185546875,1.33203125,2.39453125,0.8671875,1.0
4460235,,,,,,,,2.3046875,11.87109375,-1.953125,0.201171875,-0.1328125,-0.337890625,1.21875,2.73828125,1.2890625,1.0
4460236,,,,,,,,-0.00390625,10.62890625,-0.66796875,0.25,-0.50390625,-0.6328125,-1.04296875,1.51171875,2.5859375,1.0
4460237,,,,,,,,-2.89453125,8.71484375,2.21484375,0.251953125,-0.79296875,-0.76953125,-3.83984375,-0.40234375,5.5,1.0
4460238,,,,,,,,-5.30859375,6.1328125,4.796875,0.24609375,-0.884765625,-0.708984375,-6.21484375,-2.96875,8.109375,1.0
4460239,,,,,,,,-2.3125,-1.12109375,0.296875,0.224609375,-0.873046875,-0.1796875,-3.1484375,-10.203125,3.625,1.0
4460240,36.01291383333333,129.31990499999998,117.64442625560152,57.01534147805359,3.6,230.0,,4.296875,-12.8203125,0.03515625,0.22265625,0.212890625,-0.64453125,-1.88671875,-3.66015625,0.0234375,1.0
4460241,,,,,,,,15.40625,-49.6875,10.30078125,0.017578125,-0.328125,0.041015625,14.5859375,-58.7421875,13.66015625,1.0
4460242,,,,,,,,13.8046875,-28.3359375,17.88671875,-0.001953125,0.05859375,-1.529296875,13.09375,-37.41015625,21.24609375,1.0
4460243,,,,,,,,3.24609375,-5.7734375,5.28515625,0.125,0.322265625,-2.103515625,2.59765625,-14.84375,8.64453125,1.0
4460244,,,,,,,,-4.6640625,-2.85546875,-0.25390625,0.166015625,1.04296875,-1.62890625,-5.140625,-11.93359375,3.12890625,1.0
4460245,,,,,,,,-5.64453125,-9.56640625,-1.03515625,0.138671875,1.15234375,0.31640625,-6.13671875,-18.6328125,2.36328125,1.0
4460246,,,,,,,,-2.390625,-12.5859375,0.75390625,-0.20703125,-2.740234375,-0.439453125,-2.84375,-21.66796875,4.16015625,1.0
4460247,,,,,,,,-0.2421875,-11.6171875,1.484375,0.009765625,-4.806640625,-0.736328125,-0.5078125,-20.70703125,4.890625,1.0
4460248,,,,,,,,1.17578125,-10.61328125,1.0546875,-0.00390625,-4.138671875,-1.326171875,1.02734375,-19.703125,4.46875,1.0
4460249,,,,,,,,4.2734375,-8.078125,0.3046875,-0.5,-0.74609375,-2.724609375,4.3984375,-17.18359375,3.703125,1.0
4460250,36.012912,129.319902,117.373982020175,56.81191258696514,3.5,231.0,,4.625,-7.08984375,-0.30859375,0.22265625,0.212890625,-0.64453125,5.0078125,-16.22265625,3.01171875,1.0
4460251,,,,,,,,3.48828125,-4.37890625,-1.41015625,-0.982421875,0.3046875,-2.009765625,4.16796875,-13.54296875,1.78515625,1.0
4460252,,,,,,,,2.80078125,-2.35546875,-2.11328125,-1.126953125,0.017578125,-2.119140625,3.66796875,-11.546875,0.98046875,1.0
4460253,,,,,,,,2.1015625,2.03515625,-3.20703125,-1.19140625,0.115234375,-2.314453125,3.171875,-7.18359375,-0.20703125,1.0
4460254,,,,,,,,2.08203125,3.65234375,-2.828125,-1.162109375,0.166015625,-2.33203125,3.36328125,-5.57421875,0.0625,1.0
4460255,,,,,,,,2.03515625,6.53515625,-1.60546875,-1.0,0.263671875,-2.244140625,3.625,-2.69921875,1.13671875,1.0
4460256,,,,,,,,1.94140625,8.48046875,-1.421875,-0.931640625,0.37109375,-2.2421875,3.62890625,-0.74609375,1.2890625,1.0
4460257,,,,,,,,1.13671875,10.38671875,-1.49609375,-0.85546875,0.6328125,-2.150390625,3.015625,1.16796875,1.13671875,1.0
4460258,,,,,,,,0.34375,11.78125,-1.93359375,-0.73046875,0.787109375,-1.9296875,2.40625,2.5859375,0.63671875,1.0
4460259,,,,,,,,-0.07421875,12.1953125,-2.25390625,-0.669921875,0.767578125,-1.75,2.05859375,3.0078125,0.29296875,1.0
4460260,36.01291033333334,129.3198991666667,117.11856235466848,56.62697711218535,3.4000000000000004,232.0,,-0.3671875,12.82421875,-4.34375,-0.49609375,0.44921875,-0.994140625,1.9453125,3.65625,-1.8515625,1.0
4460261,,,,,,,,3.546875,10.05078125,-5.1484375,-0.421875,0.021484375,-0.607421875,5.97265625,0.90234375,-2.734375,1.0
4460262,,,,,,,,4.76953125,8.34765625,-5.953125,-0.373046875,-0.064453125,-0.990234375,7.26953125,-0.78515625,-3.578125,1.0
4460263,,,,,,,,4.34765625,6.67578125,-5.60546875,-0.279296875,0.046875,-1.447265625,6.96484375,-2.43359375,-3.26953125,1.0
4460264,,,,,,,,3.578125,6.4609375,-5.25390625,-0.255859375,0.185546875,-1.654296875,6.27734375,-2.625,-2.92578125,1.0
4460265,,,,,,,,-0.4375,6.4609375,-3.40625,-0.140625,0.478515625,-1.87109375,2.40625,-2.5859375,-1.0859375,1.0
4460266,,,,,,,,-1.88671875,6.5,-2.79296875,-0.095703125,0.609375,-1.78515625,1.02734375,-2.5078125,-0.47265625,1.0
4460267,,,,,,,,-6.14453125,7.87890625,-0.2265625,-0.19140625,0.8125,-0.8984375,-3.11328125,-1.08984375,2.09375,1.0
4460268,,,,,,,,-9.18359375,9.4765625,5.17578125,-0.302734375,0.830078125,-0.18359375,-6.13671875,0.515625,7.49609375,1.0
4460269,,,,,,,,-8.9921875,11.37890625,4.9609375,-0.529296875,0.669921875,1.458984375,-6.0234375,2.39453125,7.265625,1.0
4460270,36.012908,129.31989583333333,116.81806916271152,56.36806821750549,3.7,230.0,,-7.41796875,11.74609375,3.4375,-0.49609375,0.44921875,-0.994140625,1.9453125,3.65625,-1.8515625,1.0
4460271,,,,,,,,-4.25,12.4453125,0.84765625,-0.59765625,0.1796875,3.333984375,-1.6171875,3.35546875,3.08984375,1.0
4460272,,,,,,,,3.1484375,13.15234375,-0.71484375,-0.5234375,-0.15234375,3.234375,5.47265625,3.96484375,1.48046875,1.0
4460273,,,,,,,,4.078125,11.60546875,-0.37890625,-0.48828125,-0.35546875,2.51171875,6.27734375,2.39453125,1.78515625,1.0
4460274,,,,,,,,-0.5078125,-0.66796875,-0.13671875,-0.353515625,-1.3046875,-0.890625,1.6015625,-9.8984375,1.94140625,1.0
4460275,,,,,,,,-5.64453125,-23.4609375,9.1875,-0.052734375,-1.36328125,-1.623046875,-3.37890625,-32.65625,11.2109375,1.0
4460276,,,,,,,,-11.953125,-34.2265625,13.80078125,-0.123046875,0.962890625,0.74609375,-9.546875,-43.3828125,15.80859375,1.0
4460277,,,,,,,,-0.18359375,-5.65625,2.52734375,-0.396484375,2.046875,0.982421875,2.09765625,-14.84765625,4.54296875,1.0
4460278,,,,,,,,5.15625,-3.37890625,-0.51171875,-0.5078125,2.271484375,0.439453125,7.3828125,-12.58203125,1.51953125,1.0
4460279,,,,,,,,11.28125,-7.81640625,-2.18359375,-0.6171875,2.26953125,-1.451171875,13.515625,-17.02734375,-0.16796875,1.0
4460280,36.0129055,129.31989299999998,116.56265069759434,56.090666725427134,3.6,226.0,,7.5234375,-12.7265625,1.52734375,-0.00390625,0.103515625,0.607421875,9.796875,-21.93359375,3.55078125,1.0
4460281,,,,,,,,4.70703125,-15.00390625,2.0859375,0.220703125,-3.255859375,1.07421875,6.92578125,-24.23046875,4.0859375,1.0
4460282,,,,,,,,1.7421875,-10.99609375,0.67578125,0.2421875,-2.826171875,1.0,3.9375,-20.2421875,2.62890625,1.0
4460283,,,,,,,,0.546875,-8.58984375,1.15234375,0.03125,0.3984375,1.771484375,2.6328125,-17.87109375,3.08984375,1.0
4460284,,,,,,,,-0.94140625,-6.17578125,0.1015625,0.564453125,1.837890625,2.087890625,0.94921875,-15.4921875,2.09375,1.0
4460285,,,,,,,,-1.671875,-4.42578125,-2.08984375,0.70703125,1.07421875,1.951171875,-0.0078125,-13.76953125,-0.01171875,1.0
4460286,,,,,,,,-1.76171875,-2.7578125,-3.09765625,0.87890625,0.5234375,2.033203125,-0.19921875,-12.125,-0.97265625,1.0
4460287,,,,,,,,-2.30859375,-0.59765625,-3.15234375,1.12890625,-0.052734375,2.603515625,-0.96484375,-9.98046875,-0.93359375,1.0
4460288,,,,,,,,-3.73828125,2.5546875,-2.203125,1.25390625,-0.03125,2.86328125,-2.65234375,-6.83984375,0.140625,1.0
4460289,,,,,,,,-4.015625,4.58984375,-1.5546875,1.328125,0.142578125,2.78515625,-3.1875,-4.80859375,0.90625,1.0
4460290,36.01290383333333,129.31989066666665,116.35230549199471,55.905731868993854,3.1,226.0,,-3.98046875,6.8828125,-1.87109375,-0.00390625,0.103515625,0.607421875,-3.41796875,-2.5078125,0.71484375,1.0
4460291,,,,,,,,-3.94921875,8.7265625,-2.89453125,1.23046875,0.79296875,2.375,-3.76171875,-0.6328125,-0.12890625,1.0
4460292,,,,,,,,-4.171875,9.44921875,-2.95703125,1.142578125,0.880859375,2.2109375,-4.109375,0.09765625,-0.12890625,1.0
4460293,,,,,,,,-4.875,10.6953125,-2.78515625,0.71875,0.5625,1.61328125,-5.22265625,1.3984375,0.21484375,1.0
4460294,,,,,,,,-4.796875,10.9765625,-3.10546875,0.556640625,0.33984375,1.59375,-5.296875,1.703125,-0.05078125,1.0
4460295,,,,,,,,-4.77734375,11.828125,-3.26171875,0.38671875,0.244140625,1.705078125,-5.4453125,2.5859375,-0.16796875,1.0
4460296,,,,,,,,-4.58203125,11.359375,-3.16015625,0.306640625,0.220703125,1.671875,-5.328125,2.125,-0.05078125,1.0
4460297,,,,,,,,-4.05078125,10.1875,-3.22265625,0.19140625,0.154296875,1.38671875,-4.94921875,0.9765625,-0.08984375,1.0
4460298,,,,,,,,-3.3671875,8.80078125,-3.14453125,0.17578125,0.125,1.14453125,-4.33984375,-0.40234375,-0.01171875,1.0
4460299,,,,,,,,-1.63671875,7.1015625,-2.90234375,0.212890625,0.099609375,0.646484375,-2.6875,-2.0859375,0.25390625,1.0
4460300,36.01290166666667,129.319888,116.11191134483055,55.66531700371383,3.3000000000000003,225.0,0.0,-0.9453125,6.80859375,-2.7265625,-0.00390625,0.103515625,0.607421875,-2.0390625,-2.3515625,0.4453125,1.0
4460301,,,,,,,,1.015625,7.94921875,-0.94140625,0.18359375,0.140625,-0.404296875,-0.0859375,-1.20703125,2.2421875,1.0
4460302,,,,,,,,1.11328125,9.0625,0.26953125,0.1875,0.224609375,-0.99609375,0.06640625,-0.09375,3.47265625,1.0
4460303,,,,,,,,1.10546875,9.48828125,0.68359375,0.203125,0.22265625,-1.28515625,0.10546875,0.32421875,3.89453125,1.0
4460304,,,,,,,,1.27734375,10.8984375,0.58203125,0.271484375,0.005859375,-1.84765625,0.48828125,1.7421875,3.81640625,1.0
4460305,,,,,,,,0.53125,11.89453125,-0.59765625,0.296875,-0.294921875,-2.0,-0.0859375,2.73828125,2.66796875,1.0
4460306,,,,,,,,-0.55078125,11.61328125,-1.80859375,0.326171875,-0.642578125,-2.064453125,-0.96484375,2.47265625,1.48046875,1.0
4460307,,,,,,,,-1.59765625,10.9140625,-1.6171875,0.310546875,-0.923828125,-1.951171875,-1.8046875,1.78125,1.7109375,1.0
4460308,,,,,,,,-2.12109375,10.37109375,-1.12890625,0.30859375,-0.978515625,-1.796875,-2.2265625,1.24609375,2.20703125,1.0
4460309,,,,,,,,-2.171875,3.796875,-3.640625,0.271484375,-0.87109375,-1.330078125,-2.1171875,-5.3046875,-0.28125,1.0
4460310,36.01289966666666,129.3198845,115.79639277368378,55.44339435791008,3.6,229.0,,0.5,-18.359375,-2.9296875,-0.00390625,0.103515625,0.607421875,-2.0390625,-2.3515625,0.4453125,1.0
4460311,,,,,,,,27.234375,-64.57421875,16.26171875,-0.076171875,0.21875,-1.185546875,27.609375,-73.64453125,19.63671875,1.0
4460312,,,,,,,,15.57421875,-19.9921875,2.28125,0.095703125,0.8359375,-1.34765625,16.04296875,-29.05859375,5.65625,1.0
4460313,,,,,,,,2.203125,-8.01171875,-2.80078125,0.212890625,1.580078125,-1.291015625,2.75,-17.06640625,0.59765625,1.0
4460314,,,,,,,,-3.71484375,-5.52734375,-0.33203125,-0.109375,1.625,-1.880859375,-3.03515625,-14.57421875,3.08984375,1.0
4460315,,,,,,,,-8.859375,-8.1796875,-2.78515625,-0.0703125,0.517578125,-1.953125,-8.0546875,-17.22265625,0.63671875,1.0
4460316,,,,,,,,-4.5859375,-10.875,-2.72265625,0.103515625,-3.5859375,-0.30078125,-3.609375,-19.90234375,0.67578125,1.0
4460317,,,,,,,,-1.4765625,-8.33984375,-1.58203125,0.01171875,-3.9375,0.314453125,-0.390625,-17.37109375,1.78515625,1.0
4460318,,,,,,,,3.21484375,-7.66796875,1.890625,-0.572265625,-3.013671875,-0.736328125,4.43359375,-16.71875,5.1953125,1.0
4460319,,,,,,,,4.9921875,-7.88671875,0.8671875,-0.79296875,-0.630859375,-2.095703125,6.390625,-16.94921875,4.0859375,1.0
4460320,36.012897833333334,129.31988166666667,115.54097327810237,55.23996572234748,3.4000000000000004,230.0,,3.4375,-1.421875,-4.30078125,-0.837890625,1.0859375,-2.916015625,5.1640625,-10.4765625,-1.19921875,1.0
4460321,,,,,,,,2.91015625,3.15234375,-4.625,-0.884765625,0.76171875,-2.974609375,4.89453125,-5.87890625,-1.5859375,1.0
4460322,,,,,,,,2.5234375,4.09375,-4.4375,-0.9609375,0.333984375,-2.689453125,4.625,-4.921875,-1.4296875,1.0
4460323,,,,,,,,1.72265625,6.5078125,-2.64453125,-1.07421875,-0.474609375,-1.25390625,4.08984375,-2.5078125,0.21484375,1.0
4460324,,,,,,,,1.0390625,8.73828125,-1.99609375,-1.08203125,-0.0703125,-1.125,3.515625,-0.28515625,0.75390625,1.0
4460325,,,,,,,,-0.10546875,10.7265625,-2.1015625,-0.974609375,0.638671875,-1.34765625,2.4765625,1.703125,0.5625,1.0
4460326,,,,,,,,-0.57421875,11.2265625,-2.0703125,-0.87109375,0.990234375,-1.369140625,2.05859375,2.203125,0.5625,1.0
4460327,,,,,,,,-1.43359375,12.16796875,-2.25390625,-0.705078125,1.4140625,-1.240234375,1.29296875,3.15625,0.33203125,1.0
4460328,,,,,,,,-1.87890625,12.62109375,-2.69921875,-0.521484375,1.3828125,-1.017578125,0.91015625,3.62109375,-0.12890625,1.0
4460329,,,,,,,,-1.984375,12.56640625,-2.99609375,-0.41796875,1.2578125,-0.8671875,0.8359375,3.578125,-0.43359375,1.0
4460330,36.012896,129.31987900000001,115.30057860545774,55.03653729045503,3.2,231.0,,-1.796875,12.12890625,-3.92578125,-0.837890625,1.0859375,-2.916015625,5.1640625,-10.4765625,-1.19921875,1.0
4460331,,,,,,,,0.05078125,9.09375,-4.4140625,-0.177734375,0.564453125,-0.24609375,2.94140625,0.1328125,-1.8515625,1.0
4460332,,,,,,,,1.125,7.515625,-4.109375,-0.099609375,0.521484375,-0.185546875,4.01953125,-1.4375,-1.546875,1.0
4460333,,,,,,,,1.30859375,5.82421875,-3.1953125,-0.001953125,0.65625,-0.259765625,4.20703125,-3.12109375,-0.625,1.0
4460334,,,,,,,,-0.05078125,6.61328125,-2.578125,-0.03515625,1.1015625,-0.390625,2.86328125,-2.31640625,0.0234375,1.0
4460335,,,,,,,,-0.921875,8.08984375,-2.36328125,-0.107421875,1.236328125,-0.18359375,1.984375,-0.82421875,0.25390625,1.0
4460336,,,,,,,,-2.21875,10.3984375,-1.765625,-0.16015625,1.12890625,0.02734375,0.6796875,1.4765625,0.8671875,1.0
4460337,,,,,,,,-2.30859375,10.703125,-1.421875,-0.3828125,0.220703125,0.857421875,0.375,2.39453125,1.25,1.0
4460338,,,,,,,,-2.46875,11.5390625,-1.50390625,-0.380859375,-0.7578125,1.51171875,0.375,2.546875,0.9453125,1.0
4460339,,,,,,,,-2.3359375,11.515625,-1.625,-0.33203125,-1.19921875,1.7578125,0.56640625,2.47265625,0.8671875,1.0
4460340,36.012893999999996,129.31987583333333,115.0151096554986,54.81461506896018,3.4000000000000004,230.0,,-1.796875,12.12890625,-3.92578125,-0.169921875,-1.703125,1.853515625,5.1640625,-10.4765625,-1.19921875,1.0
4460341,,,,,,,,-2.62109375,6.62109375,-0.12109375,-0.07421875,-1.783203125,1.423828125,-1.3125,-5.73046875,2.16796875,1.0
4460342,,,,,,,,-8.015625,-11.2734375,7.5546875,-0.017578125,-1.509765625,0.880859375,-7.36328125,-31.1640625,14.2734375,1.0
4460343,,,,,,,,-8.96484375,-33.8203125,12.0859375,0.064453125,-0.890625,0.71484375,0.64453125,-55.71875,5.92578125,1.0
4460344,,,,,,,,2.14453125,-46.453125,-1.0390625,0.08203125,-0.123046875,0.748046875,3.9765625,-36.83203125,2.74609375,1.0
4460345,,,,,,,,2.4453125,-17.5546875,-0.578125,-0.068359375,0.90625,0.775390625,5.31640625,-19.44140625,1.01953125,1.0
4460346,,,,,,,,3.13671875,-10.30859375,-1.31640625,-0.205078125,1.45703125,0.31640625,4.05078125,-17.91015625,2.515625,1.0
4460347,,,,,,,,0.83203125,-8.1015625,1.83203125,-0.828125,1.779296875,-0.337890625,3.24609375,-17.75390625,4.890625,1.0
4460348,,,,,,,,1.8828125,-9.25,2.984375,-0.369140625,1.021484375,1.787109375,3.8984375,-18.44921875,5.2734375,1.0
4460349,,,,,,,,2.59375,-8.703125,0.41796875,0.125,-1.34375,3.076171875,4.359375,-17.94921875,2.70703125,1.0
4460350,36.012891833333335,129.319873,114.75969060711626,54.57420004268851,3.5,228.0,,3.046875,-6.89453125,-2.70703125,-0.169921875,-1.703125,1.853515625,4.625,-16.18359375,-0.43359375,1.0
4460351,,,,,,,,1.9453125,-5.234375,-3.0703125,0.587890625,-2.14453125,0.99609375,3.4375,-14.5390625,-0.78125,1.0
4460352,,,,,,,,1.1953125,-4.6875,-2.50390625,0.65234375,-1.72265625,0.802734375,2.671875,-14.0,-0.20703125,1.0
4460353,,,,,,,,-0.1953125,-4.84375,-0.21875,0.990234375,-0.443359375,1.078125,1.21875,-14.15625,2.1328125,1.0
4460354,,,,,,,,0.01171875,-5.65234375,-0.0546875,1.029296875,0.60546875,1.865234375,1.29296875,-14.953125,2.3984375,1.0
4460355,,,,,,,,-0.3984375,-2.15234375,-1.61328125,1.126953125,1.552734375,2.677734375,0.375,-11.47265625,1.05859375,1.0
4460356,,,,,,,,-1.17578125,1.5625,-2.703125,1.044921875,1.533203125,2.599609375,-0.54296875,-7.7578125,0.0234375,1.0
4460357,,,,,,,,-1.5546875,4.16015625,-3.140625,0.89453125,0.9375,2.1875,-1.3125,-5.15234375,-0.28125,1.0
4460358,,,,,,,,-2.63671875,8.51171875,-2.61328125,0.853515625,0.525390625,2.044921875,-2.609375,-0.78515625,0.33203125,1.0
4460359,,,,,,,,-2.8125,9.0703125,-2.33984375,0.79296875,0.384765625,1.998046875,-2.88671875,-0.2109375,0.63671875,1.0
4460360,36.012889666666666,129.31987066666667,114.54934605078921,54.33378561152932,3.4000000000000004,225.0,,-3.0234375,10.08984375,-2.2109375,-0.169921875,-1.703125,1.853515625,-3.3046875,0.82421875,0.828125,1.0
4460361,,,,,,,,-3.515625,11.33203125,-2.65625,0.30078125,0.36328125,1.986328125,-4.07421875,2.08984375,0.4453125,1.0
4460362,,,,,,,,-3.6875,12.15625,-3.91796875,0.20703125,0.37890625,2.02734375,-4.33984375,2.9296875,-0.81640625,1.0
