time,latitude,longitude,enu_x,enu_y,speed,course,ecg,accX,accY,accZ,gyrX,gyrY,gyrZ,eulR,eulP,eulY,motion
3437700,36.01304783333333,129.31899299999998,35.42849139242183,71.88316352489215,2.1,159.0,0.0,0.84765625,-9.18359375,5.3828125,-3.400390625,-2.337890625,0.357421875,-1.28515625,-15.203125,-0.5390625,2.0
3437701,,,,,,,,-0.0234375,-7.73828125,4.40625,-3.373046875,-2.259765625,0.3125,-5.421875,-8.2265625,-0.1171875,2.0
3437702,,,,,,,,-0.28515625,-6.1796875,4.87109375,-3.37109375,-2.048828125,0.662109375,-5.76953125,-6.546875,0.45703125,2.0
3437703,,,,,,,,-0.4375,-5.29296875,5.1328125,-3.3671875,-1.892578125,0.8828125,-5.96484375,-5.58984375,0.765625,2.0
3437704,,,,,,,,-0.2421875,-0.58203125,6.00390625,-3.296875,-1.353515625,1.24609375,-5.84765625,-0.64453125,1.76171875,2.0
3437705,,,,,,,,0.515625,3.1796875,4.74609375,-2.6015625,-0.869140625,1.169921875,-5.16015625,3.4140625,0.61328125,2.0
3437706,,,,,,,,0.109375,3.078125,4.62109375,-1.962890625,-0.740234375,0.9296875,-5.58203125,3.4140625,0.53515625,2.0
3437707,,,,,,,,-0.30078125,1.015625,5.4921875,-1.49609375,-0.626953125,0.658203125,-5.99609375,1.421875,1.453125,2.0
3437708,,,,,,,,-1.6640625,-0.9609375,6.62890625,-1.36328125,-0.59375,0.5390625,-7.375,-0.53125,2.60546875,2.0
3437709,,,,,,,,-1.54296875,-1.65234375,6.90234375,-1.23828125,-0.48046875,0.310546875,-7.26171875,-1.18359375,2.91015625,2.0
3437710,36.013045166666664,129.31899183333334,35.32331894594448,71.5872717885219,2.6,179.0,,0.07421875,-1.765625,6.00390625,-3.400390625,-2.337890625,0.357421875,-5.6484375,-1.296875,2.02734375,2.0
3437711,,,,,,,,2.83203125,-1.26953125,5.0234375,-0.1484375,-0.2578125,0.375,-2.89453125,-0.80078125,1.0703125,2.0
3437712,,,,,,,,4.44140625,-0.53125,4.48828125,0.0078125,-0.265625,0.37109375,-1.28515625,-0.0703125,0.53515625,2.0
3437713,,,,,,,,6.47265625,1.484375,4.359375,0.16015625,-0.357421875,0.291015625,0.74609375,1.921875,0.421875,2.0
3437714,,,,,,,,8.28515625,3.30859375,4.44140625,0.337890625,-0.546875,0.224609375,2.54296875,3.68359375,0.53515625,2.0
3437715,,,,,,,,8.87109375,3.64453125,4.84765625,0.291015625,-0.611328125,0.33203125,3.12109375,3.98828125,0.95703125,2.0
3437716,,,,,,,,8.76953125,3.5078125,5.09375,0.234375,-0.6484375,0.439453125,3.00390625,3.8359375,1.2265625,2.0
3437717,,,,,,,,6.9765625,1.6015625,5.8203125,-0.099609375,-0.70703125,0.69140625,1.203125,1.921875,1.99609375,2.0
3437718,,,,,,,,4.6171875,-0.8359375,6.46875,-0.5078125,-0.76171875,0.87890625,-1.171875,-0.4921875,2.6796875,2.0
3437719,,,,,,,,3.4765625,-3.45703125,6.5625,-0.583984375,-0.80859375,0.935546875,-2.3203125,-3.09375,2.796875,2.0
3437720,36.01304316666666,129.318991,35.24819580539181,71.3653530015223,2.3000000000000003,186.0,,0.07421875,-1.765625,6.00390625,-0.16015625,-0.96484375,0.953125,-2.78125,-11.33984375,0.87890625,2.0
3437721,,,,,,,,2.8125,-18.5078125,5.09375,0.1875,-1.029296875,1.150390625,-3.046875,-30.828125,5.4765625,2.0
3437722,,,,,,,,2.8359375,-31.29296875,9.0234375,-0.076171875,-1.029296875,1.28515625,-1.09375,-34.08984375,6.39453125,2.0
3437723,,,,,,,,9.1328125,-36.56640625,13.91015625,0.306640625,-0.75,0.650390625,4.57421875,-29.87890625,14.36328125,2.0
3437724,,,,,,,,10.48046875,-30.3671875,17.82421875,0.732421875,-0.548828125,0.3515625,4.0,-27.19140625,10.37890625,2.0
3437725,,,,,,,,7.30859375,-24.87890625,10.4296875,0.736328125,-0.376953125,0.3671875,-4.42578125,-22.25,5.8984375,2.0
3437726,,,,,,,,-0.3125,-23.5625,9.18359375,-0.076171875,0.162109375,-1.1328125,-7.4921875,-24.359375,5.20703125,2.0
3437727,,,,,,,,-1.5859375,-24.703125,8.61328125,-0.443359375,0.197265625,-1.619140625,-7.796875,-25.16796875,4.6328125,2.0
3437728,,,,,,,,-0.375,-26.0390625,8.1640625,0.35546875,0.255859375,-1.0,-5.421875,-25.7734375,5.0546875,2.0
3437729,,,,,,,,0.4609375,-25.87109375,8.4765625,0.775390625,0.2734375,-0.609375,-4.46484375,-25.2734375,5.32421875,2.0
3437730,36.013041333333334,129.31899033333332,35.18809739365146,71.16192748263676,2.0,188.0,,0.07421875,-1.765625,6.00390625,1.076171875,0.3984375,-0.421875,-2.78125,-11.33984375,0.87890625,2.0
3437731,,,,,,,,6.00390625,-21.53515625,7.92578125,1.361328125,0.658203125,-0.662109375,0.16796875,-21.67578125,4.48046875,2.0
3437732,,,,,,,,6.40234375,-18.4453125,7.09375,1.484375,0.931640625,-0.529296875,0.62890625,-18.80859375,3.6015625,2.0
3437733,,,,,,,,7.15234375,-14.61328125,5.75390625,1.287109375,1.1328125,-0.22265625,1.43359375,-15.08984375,2.22265625,2.0
3437734,,,,,,,,8.1015625,-12.14453125,4.6796875,0.970703125,1.20703125,0.001953125,2.4296875,-12.7109375,1.109375,2.0
3437735,,,,,,,,8.7421875,-9.0,3.41796875,0.87109375,1.169921875,0.404296875,3.15625,-9.6875,-0.23046875,2.0
3437736,,,,,,,,8.7109375,-8.09375,3.171875,0.91796875,1.119140625,0.548828125,3.15625,-8.8046875,-0.5,2.0
3437737,,,,,,,,8.703125,-5.55078125,3.81640625,0.87109375,0.955078125,0.8359375,3.1953125,-6.3125,0.11328125,2.0
3437738,,,,,,,,8.3203125,-3.15234375,4.26953125,0.658203125,0.845703125,1.078125,2.8515625,-3.94140625,0.53515625,2.0
3437739,,,,,,,,8.71875,-2.0234375,4.58984375,0.548828125,0.708984375,1.158203125,3.2734375,-2.828125,0.83984375,2.0
3437740,36.01303983333333,129.318988,34.97775076210284,70.99548777850691,2.6,208.0,,9.40625,-0.9765625,4.875,0.615234375,0.65625,1.16015625,4.00390625,-1.796875,1.109375,2.0
3437741,,,,,,,,9.19140625,0.02734375,4.96875,0.80859375,0.591796875,1.13671875,3.8046875,-0.80078125,1.1875,2.0
3437742,,,,,,,,9.7734375,0.671875,4.1953125,0.8515625,0.421875,0.97265625,4.421875,-0.1875,0.421875,2.0
3437743,,,,,,,,10.484375,0.08984375,4.1171875,0.6015625,0.3671875,0.630859375,5.1484375,-0.80078125,0.34375,2.0
3437744,,,,,,,,10.84375,-0.94921875,4.15625,0.306640625,0.345703125,0.32421875,5.53125,-1.87109375,0.3828125,2.0
3437745,,,,,,,,8.76171875,-0.12109375,5.49609375,-0.16015625,0.384765625,0.03515625,3.50390625,-1.14453125,1.72265625,2.0
3437746,,,,,,,,5.6171875,1.81640625,6.98828125,-0.984375,0.423828125,-0.26953125,0.3984375,0.76953125,3.21484375,2.0
3437747,,,,,,,,3.75,3.98046875,6.35546875,-1.73828125,0.478515625,-0.7109375,-1.4375,2.91796875,2.56640625,2.0
3437748,,,,,,,,3.43359375,5.49609375,5.046875,-1.830078125,0.546875,-1.201171875,-1.70703125,4.40625,1.2265625,2.0
3437749,,,,,,,,3.83984375,7.03515625,3.92578125,-1.43359375,0.541015625,-1.560546875,-1.24609375,5.8984375,0.07421875,2.0
3438140,36.01305933333333,129.31894866666667,31.43188856191651,73.15917960716389,2.9000000000000004,55.0,,5.3828125,2.25390625,1.07421875,0.912109375,0.31640625,0.73828125,0.8203125,-1.06640625,-0.61328125,2.0
3438141,,,,,,,,5.66015625,4.56640625,0.796875,1.060546875,0.14453125,0.998046875,1.08984375,1.2265625,-0.84375,2.0
3438142,,,,,,,,7.17578125,6.13671875,1.30078125,1.29296875,-0.0390625,1.33984375,2.58203125,2.80078125,-0.26953125,2.0
3438143,,,,,,,,7.62890625,6.65625,1.72265625,1.53125,-0.189453125,1.546875,3.00390625,3.33984375,0.23046875,2.0
3438144,,,,,,,,9.57421875,7.37890625,2.41015625,1.462890625,-0.294921875,1.54296875,4.91796875,4.06640625,0.99609375,2.0
3438145,,,,,,,,10.91796875,7.140625,1.78515625,1.26953125,-0.443359375,1.203125,6.21875,3.8359375,0.45703125,2.0
3438146,,,,,,,,13.8046875,5.53125,0.20703125,1.203125,-0.56640625,0.689453125,9.09765625,2.2265625,-1.03515625,2.0
3438147,,,,,,,,15.3828125,3.09375,-0.69140625,1.099609375,-0.625,0.369140625,10.6640625,-0.2265625,-1.83984375,2.0
3438148,,,,,,,,13.8203125,1.50390625,-1.20703125,0.994140625,-0.60546875,0.373046875,9.09765625,-1.83203125,-2.30078125,2.0
3438149,,,,,,,,9.76953125,0.66796875,-0.37890625,0.1640625,-0.291015625,1.044921875,5.03515625,-2.67578125,-1.37890625,2.0
3438150,36.0130605,129.31895183333333,31.717359358549167,73.28863308321455,3.0,59.0,,7.1796875,0.63671875,0.69921875,-0.552734375,-0.15625,1.40625,0.8203125,-1.06640625,-0.61328125,2.0
3438151,,,,,,,,4.375,1.8359375,2.74609375,-1.47265625,0.048828125,1.40625,-0.40625,-1.4140625,1.7578125,2.0
3438152,,,,,,,,3.81640625,2.83203125,3.25390625,-2.822265625,0.5,0.712890625,-1.24609375,0.08203125,2.6015625,2.0
3438153,,,,,,,,3.55859375,3.26953125,3.69140625,-3.205078125,0.583984375,0.33203125,-1.59375,1.0390625,3.40625,2.0
3438154,,,,,,,,3.1875,4.6640625,4.54296875,-3.578125,0.609375,-0.41796875,-1.32421875,1.84375,2.9453125,2.0
3438155,,,,,,,,4.16015625,5.51953125,3.234375,-2.791015625,0.478515625,-1.552734375,-0.25,2.07421875,1.64453125,2.0
3438156,,,,,,,,4.88671875,2.328125,5.85546875,-2.0390625,0.431640625,-2.130859375,0.859375,-3.44140625,3.6328125,2.0
3438157,,,,,,,,7.4296875,-3.984375,3.54296875,-1.63671875,0.349609375,-2.228515625,3.3125,-17.0,5.09375,2.0
3438158,,,,,,,,7.8046875,-13.62109375,6.640625,-1.318359375,0.259765625,-2.01953125,2.890625,-30.44921875,10.9921875,2.0
3438159,,,,,,,,-8.11328125,-58.5078125,26.7890625,-2.126953125,0.49609375,0.048828125,-12.51171875,-61.98046875,25.203125,2.0
3438160,36.01306216666667,129.31895483333335,31.98780514206235,73.47356613560808,3.2,60.0,,-13.65234375,-57.00390625,16.96875,0.021484375,-0.396484375,3.2421875,0.8203125,-1.06640625,-0.61328125,2.0
3438161,,,,,,,,-1.57421875,-14.08984375,5.74609375,-0.806640625,0.1875,1.7265625,-6.07421875,-17.421875,4.13671875,2.0
3438162,,,,,,,,6.31640625,-9.64453125,-1.1640625,-4.30859375,0.71484375,-1.16796875,1.81640625,-12.98046875,-2.796875,2.0
3438163,,,,,,,,9.02734375,-11.97265625,-4.21875,-3.9296875,0.62890625,-5.580078125,4.69140625,-15.43359375,-6.015625,2.0
3438164,,,,,,,,14.8984375,-17.56640625,9.015625,-1.578125,-0.470703125,-4.3515625,10.78125,-21.25,7.125,2.0
3438165,,,,,,,,9.359375,-22.890625,10.8359375,-2.384765625,-1.166015625,2.31640625,5.3046875,-26.65625,8.9609375,2.0
3438166,,,,,,,,8.80078125,-24.515625,8.68359375,-3.65625,-1.560546875,2.89453125,4.69140625,-28.2265625,6.77734375,2.0
3438167,,,,,,,,5.4296875,-14.56640625,0.47265625,-4.447265625,-1.328125,0.9765625,1.2421875,-18.15234375,-1.49609375,2.0
3438168,,,,,,,,3.25390625,-9.17578125,0.68359375,-4.564453125,-1.609375,-0.66015625,-0.94140625,-12.7109375,-1.37890625,2.0
3438169,,,,,,,,2.44140625,-7.88671875,1.6796875,-4.8984375,-1.96875,-0.6015625,-1.74609375,-11.41015625,-0.4609375,2.0
3438170,36.013063,129.31895766666668,32.243226448990534,73.56603310518396,3.0,63.0,,1.76953125,-6.79296875,2.59375,0.021484375,-0.396484375,3.2421875,0.8203125,-1.06640625,-0.61328125,2.0
3438171,,,,,,,,0.54296875,-4.83203125,0.921875,-4.1640625,-2.2578125,0.419921875,-3.69921875,-8.23046875,-1.34375,2.0
3438172,,,,,,,,-0.94921875,-3.9296875,0.11328125,-3.890625,-2.244140625,0.21484375,-5.23046875,-7.2734375,-2.18359375,2.0
3438173,,,,,,,,-5.40234375,-1.87890625,0.79296875,-3.96484375,-2.1484375,0.212890625,-9.71484375,-5.16796875,-1.53515625,2.0
3438174,,,,,,,,-6.234375,-0.8359375,1.72265625,-4.005859375,-1.900390625,0.599609375,-10.59375,-4.0546875,-0.65234375,2.0
3438175,,,,,,,,-5.8515625,1.828125,1.73046875,-3.650390625,-1.177734375,1.16796875,-10.29296875,-1.2578125,-0.73046875,2.0
3438176,,,,,,,,-5.4140625,2.546875,1.7265625,-3.466796875,-0.9765625,1.1875,-9.87109375,-0.4921875,-0.765625,2.0
3438177,,,,,,,,-3.95703125,5.140625,1.21875,-2.943359375,-0.736328125,1.08203125,-8.4453125,2.1875,-1.34375,2.0
3438178,,,,,,,,-2.43359375,4.06640625,1.265625,-2.14453125,-0.716796875,1.009765625,-6.953125,1.19140625,-1.34375,2.0
3438179,,,,,,,,-1.43359375,2.3359375,2.09375,-1.1484375,-0.80859375,1.046875,-5.9921875,-0.4921875,-0.5390625,2.0
3438180,36.013063833333334,129.31896116666667,32.55874696202826,73.65850030389583,3.1,65.0,,-0.20703125,0.16015625,4.0703125,0.021484375,-0.396484375,3.2421875,-4.80859375,-2.63671875,1.453125,2.0
3438181,,,,,,,,0.3359375,-0.69921875,5.53515625,0.501953125,-0.64453125,1.267578125,-4.3125,-3.48046875,2.94921875,2.0
3438182,,,,,,,,1.78515625,-0.66015625,6.60546875,1.02734375,-0.421875,1.009765625,-2.89453125,-3.44140625,4.05859375,2.0
3438183,,,,,,,,3.9453125,1.7890625,5.953125,1.294921875,-0.271484375,0.306640625,-0.75,-1.03125,3.4453125,2.0
3438184,,,,,,,,5.4609375,4.7421875,4.64453125,1.34375,-0.267578125,-0.6015625,0.78125,1.84375,2.18359375,2.0
3438185,,,,,,,,7.66796875,10.515625,2.3046875,1.18359375,-0.509765625,-1.58984375,3.04296875,7.44140625,-0.078125,2.0
3438186,,,,,,,,7.96484375,11.8359375,1.24609375,0.7890625,-0.68359375,-1.5703125,3.38671875,8.625,-1.07421875,2.0
3438187,,,,,,,,7.62109375,9.9765625,1.1328125,0.123046875,-0.80859375,-0.955078125,3.08203125,6.67578125,-1.1484375,2.0
3438188,,,,,,,,6.83984375,7.65625,2.515625,-0.396484375,-0.9296875,-0.01953125,2.31640625,4.30078125,0.265625,2.0
3438189,,,,,,,,5.30859375,1.43359375,5.08203125,-0.611328125,-0.998046875,0.96484375,0.74609375,-1.91015625,2.87109375,2.0
3438190,36.013064,129.31896433333335,32.84421814078089,73.67699457433655,3.0,73.0,,5.90625,-9.4609375,6.3828125,-0.1484375,-0.869140625,1.14453125,1.28125,-12.75,4.2109375,2.0
3438191,,,,,,,,5.63671875,-19.8203125,8.56640625,0.28515625,-0.845703125,1.125,0.97265625,-23.09375,6.43359375,2.0
3438192,,,,,,,,5.25390625,-45.46484375,8.97265625,0.255859375,-0.8984375,0.94921875,0.55078125,-48.72265625,6.89453125,2.0
3438193,,,,,,,,8.10546875,-52.8203125,9.71484375,0.001953125,-0.935546875,0.822265625,3.38671875,-56.08203125,7.66015625,2.0
3438194,,,,,,,,12.19140625,-56.06640625,16.06640625,-0.01953125,-0.830078125,0.46484375,7.44921875,-59.328125,14.05859375,2.0
3438195,,,,,,,,12.61328125,-22.79296875,17.3828125,0.267578125,-0.099609375,0.314453125,7.87109375,-26.08203125,15.3984375,2.0
3438196,,,,,,,,1.35546875,-9.4296875,3.77734375,-0.25,0.08203125,-2.107421875,-3.35546875,-12.7890625,1.80078125,2.0
3438197,,,,,,,,-3.8515625,-12.3203125,2.0625,-1.486328125,-0.11328125,-4.302734375,-8.3359375,-15.96875,0.0390625,2.0
3438198,,,,,,,,-4.234375,-15.0625,3.03515625,-1.09375,-0.208984375,-3.162109375,-8.640625,-18.80859375,0.99609375,2.0
3438199,,,,,,,,-2.85546875,-14.5,5.6015625,-0.1640625,-0.416015625,-0.4140625,-7.18359375,-18.34765625,3.5625,2.0
3438200,36.01306483333334,129.31896733333332,33.11466423220405,73.76946162502452,3.0,76.0,0.0,0.70703125,-11.44140625,4.58984375,0.3515625,-0.150390625,0.87890625,-3.62109375,-15.31640625,2.56640625,2.0
3438201,,,,,,,,3.70703125,-9.58203125,4.40625,0.798828125,-0.130859375,0.42578125,-0.63671875,-13.48046875,2.4140625,2.0
3438202,,,,,,,,8.015625,-6.78125,5.33984375,0.8671875,0.3046875,0.0,3.6953125,-10.7578125,3.41015625,2.0
3438203,,,,,,,,10.09765625,-5.42578125,5.3984375,1.13671875,0.646484375,0.28515625,5.80078125,-9.45703125,3.484375,2.0
3438204,,,,,,,,9.69921875,-5.265625,4.48828125,1.048828125,0.724609375,0.486328125,5.41796875,-9.34765625,2.60546875,2.0
3438205,,,,,,,,8.08203125,-3.9296875,2.6796875,0.45703125,0.603515625,0.568359375,3.80859375,-8.0390625,0.8046875,2.0
3438206,,,,,,,,7.65234375,-3.0703125,2.03515625,0.158203125,0.552734375,0.646484375,3.38671875,-7.1953125,0.15234375,2.0
3438207,,,,,,,,6.55078125,-0.3125,0.96875,-0.271484375,0.400390625,0.99609375,2.27734375,-4.4375,-0.921875,2.0
3438208,,,,,,,,6.34375,1.5390625,1.953125,-0.48046875,0.162109375,1.583984375,2.046875,-2.56640625,0.0390625,2.0
3438209,,,,,,,,6.7890625,3.33203125,4.6875,-0.52734375,-0.07421875,2.103515625,2.4296875,-0.72265625,2.76171875,2.0
3438210,36.013064,129.31897066666667,33.4151606325086,73.67699672737577,3.0,86.0,,7.625,4.21875,5.15234375,-0.5625,-0.287109375,2.189453125,3.15625,0.2734375,3.2109375,2.0
3438211,,,,,,,,8.26171875,5.7734375,3.65234375,-0.384765625,-0.46484375,1.546875,3.7265625,1.8828125,1.72265625,2.0
3438212,,,,,,,,9.6796875,8.0859375,1.7890625,-0.037109375,-0.576171875,0.828125,5.109375,4.21875,-0.1171875,2.0
3438213,,,,,,,,11.26953125,8.21484375,0.21875,0.26953125,-0.548828125,0.400390625,6.6796875,4.33203125,-1.6484375,2.0
3438214,,,,,,,,11.15234375,4.2109375,-0.9375,0.2734375,-0.55859375,0.26171875,6.56640625,0.3125,-2.7578125,2.0
3438215,,,,,,,,10.47265625,1.97265625,-0.671875,-0.154296875,-0.515625,0.447265625,5.875,-1.94921875,-2.453125,2.0
3438216,,,,,,,,9.40625,1.54296875,0.24609375,-0.515625,-0.40625,0.693359375,4.8046875,-2.37109375,-1.53515625,2.0
3438217,,,,,,,,8.2734375,2.1015625,1.44140625,-1.314453125,-0.095703125,1.12890625,3.66015625,-1.796875,-0.34765625,2.0
3438218,,,,,,,,6.3828125,3.34375,2.46484375,-2.263671875,0.13671875,1.125,1.7421875,-0.4921875,0.61328125,2.0
3438219,,,,,,,,5.0546875,4.046875,2.87890625,-3.0234375,0.4609375,0.794921875,0.3984375,0.2734375,0.9140625,2.0
3438220,36.0130635,129.3189735,33.670582485309716,73.62151808099007,2.8000000000000003,93.0,,3.31640625,4.40625,3.79296875,-3.37890625,0.755859375,0.341796875,-1.32421875,0.6953125,1.6796875,2.0
3438221,,,,,,,,2.7265625,4.02734375,4.83203125,-3.23828125,0.814453125,-0.26953125,-1.859375,0.38671875,2.484375,2.0
3438222,,,,,,,,2.81640625,3.78125,5.24609375,-2.9921875,0.724609375,-0.4375,-1.74609375,0.15625,2.828125,2.0
3438223,,,,,,,,3.71875,1.27734375,7.85546875,-2.44140625,0.490234375,-0.765625,-0.7890625,-2.33203125,5.32421875,2.0
3438224,,,,,,,,2.73046875,-11.73828125,15.76171875,-2.119140625,0.251953125,-1.150390625,-1.70703125,-15.3515625,13.13671875,2.0
3438225,,,,,,,,-0.08984375,-43.6953125,20.8203125,-2.09765625,0.0078125,-1.353515625,-4.46484375,-47.34375,18.1171875,2.0
3438226,,,,,,,,-4.75,-53.859375,21.54296875,-2.146484375,0.05078125,-0.439453125,-9.0625,-57.53515625,18.76953125,2.0
3438227,,,,,,,,-22.265625,-46.52734375,16.1953125,-0.83203125,0.13671875,0.564453125,-26.5703125,-50.171875,13.3671875,2.0
3438228,,,,,,,,3.00390625,-11.30859375,0.8984375,-1.404296875,0.06640625,-0.36328125,-1.28515625,-14.97265625,-1.953125,2.0
3438229,,,,,,,,6.7265625,-8.13671875,-6.87109375,-3.6796875,0.775390625,-1.115234375,2.46875,-11.79296875,-9.76953125,2.0
3438230,36.01306366666667,129.31897733333332,34.016152872301916,73.64001261957743,3.2,94.0,,2.30078125,-13.140625,-2.2734375,-3.37890625,0.755859375,0.341796875,-1.70703125,-16.81640625,-5.515625,2.0
3438231,,,,,,,,4.50390625,-19.94140625,7.734375,-3.4453125,-1.212890625,-2.53125,0.62890625,-23.6640625,4.3671875,2.0
3438232,,,,,,,,5.53125,-27.62109375,13.984375,-1.861328125,-1.3671875,1.001953125,1.6640625,-31.328125,10.5703125,2.0
3438233,,,,,,,,7.36328125,-28.51953125,10.76953125,-1.71875,-1.994140625,2.642578125,3.38671875,-32.1328125,7.35546875,2.0
3438234,,,,,,,,3.16015625,-21.04296875,6.9453125,-2.232421875,-2.08203125,1.216796875,-0.94140625,-24.546875,3.5625,2.0
3438235,,,,,,,,-2.1875,-14.1796875,4.2109375,-4.55078125,-2.291015625,-0.8828125,-6.34375,-17.6171875,0.8046875,2.0
3438236,,,,,,,,-4.62109375,-11.0859375,4.32421875,-5.462890625,-2.419921875,-1.541015625,-8.79296875,-14.48046875,0.87890625,2.0
3438237,,,,,,,,-5.2578125,-9.32421875,4.11328125,-6.07421875,-2.455078125,-1.701171875,-9.4453125,-12.6328125,0.57421875,2.0
3438238,,,,,,,,-4.46875,-6.32421875,3.80859375,-5.037109375,-2.556640625,-1.064453125,-8.6796875,-9.53125,0.19140625,2.0
3438239,,,,,,,,-3.9140625,-5.56640625,3.2734375,-3.92578125,-2.43359375,-0.384765625,-8.1796875,-8.6875,-0.3828125,2.0
3438240,36.013062500000004,129.31897983333334,34.24152541630984,73.5105610449175,2.8000000000000003,100.0,,-2.82421875,-2.04296875,3.10546875,-3.015625,-2.1796875,0.34375,-1.70703125,-16.81640625,-5.515625,2.0
3438241,,,,,,,,-2.1640625,-0.453125,4.90625,-2.607421875,-2.021484375,0.849609375,-6.61328125,-3.3671875,1.2265625,2.0
3438242,,,,,,,,-1.46875,0.95703125,6.51171875,-2.423828125,-1.900390625,1.078125,-5.9609375,-1.91015625,2.83203125,2.0
3438243,,,,,,,,0.03515625,3.31640625,6.99609375,-1.939453125,-1.677734375,1.24609375,-4.5390625,0.54296875,3.33203125,2.0
3438244,,,,,,,,1.4921875,5.99609375,6.40625,-1.353515625,-1.515625,0.931640625,-3.1640625,3.296875,2.7578125,2.0
3438245,,,,,,,,1.578125,6.23046875,5.41796875,-0.86328125,-1.4296875,0.486328125,-3.125,3.56640625,1.80078125,2.0
3438246,,,,,,,,1.50390625,5.03515625,4.90234375,-0.72265625,-1.359375,0.28125,-3.23828125,2.37890625,1.30078125,2.0
3438247,,,,,,,,-0.83203125,1.15234375,6.1953125,-0.708984375,-1.181640625,-0.04296875,-5.609375,-1.52734375,2.640625,2.0
3438248,,,,,,,,-0.87109375,0.68359375,7.015625,-0.83984375,-0.994140625,0.53515625,-5.5390625,-1.44921875,3.828125,2.0
3438249,,,,,,,,-0.703125,1.21484375,7.34375,-0.6796875,-0.8828125,0.681640625,-5.23046875,-0.83984375,3.63671875,2.0
3438250,36.013060833333334,129.31898216666664,34.45187337731098,73.3256297959373,2.7,111.0,,-2.82421875,-2.04296875,3.10546875,-0.08984375,-0.63671875,0.4140625,-3.31640625,1.53515625,2.10546875,2.0
3438251,,,,,,,,2.36328125,5.7578125,4.80859375,0.328125,-0.46875,0.017578125,-2.3203125,4.0234375,1.2265625,2.0
3438252,,,,,,,,2.83203125,7.48046875,4.6640625,0.646484375,-0.38671875,-0.185546875,-1.859375,5.3671875,1.453125,2.0
3438253,,,,,,,,4.01953125,8.38671875,5.13671875,0.71484375,-0.3046875,-0.14453125,-0.90234375,5.6328125,1.72265625,2.0
3438254,,,,,,,,5.0078125,7.64453125,4.9140625,0.595703125,-0.2421875,0.025390625,0.09375,4.83203125,1.53125,2.0
3438255,,,,,,,,6.69921875,2.51171875,4.77734375,0.541015625,-0.33203125,0.453125,1.7734375,-0.33984375,1.41796875,2.0
3438256,,,,,,,,6.78515625,0.45703125,4.9140625,0.52734375,-0.388671875,0.80078125,1.85546875,-2.40625,1.5703125,2.0
3438257,,,,,,,,7.296875,-8.765625,7.06640625,0.482421875,-0.57421875,1.556640625,2.3515625,-11.64453125,3.75390625,2.0
3438258,,,,,,,,8.3515625,-18.87109375,11.9453125,0.44921875,-0.87109375,2.31640625,3.3125,-21.67578125,8.6953125,2.0
3438259,,,,,,,,14.7265625,-40.11328125,17.88671875,0.697265625,-1.201171875,3.0390625,9.59375,-42.8203125,14.70703125,2.0
3438260,36.01305966666666,129.31898416666667,34.63217152534401,73.19617805402297,2.5,118.0,,11.82421875,-26.8046875,13.91796875,-0.08984375,-0.63671875,0.4140625,6.56640625,-29.4140625,10.83984375,2.0
3438261,,,,,,,,-1.046875,-16.203125,10.17578125,0.19140625,-0.5,0.19140625,-6.3828125,-18.765625,7.19921875,2.0
3438262,,,,,,,,-3.57421875,-15.21484375,9.9765625,-0.640625,-0.48046875,-1.2734375,-8.91015625,-17.80859375,7.0078125,2.0
3438263,,,,,,,,-2.234375,-17.30078125,10.1171875,-2.162109375,-0.41015625,-3.75390625,-7.453125,-20.1015625,7.125,2.0
3438264,,,,,,,,3.38671875,-19.7578125,9.87109375,-0.818359375,-0.390625,-1.982421875,-1.74609375,-22.71484375,6.85546875,2.0
3438265,,,,,,,,5.953125,-16.6171875,10.46875,0.28125,-0.1796875,0.001953125,0.859375,-19.6484375,7.46875,2.0
3438266,,,,,,,,6.13671875,-15.12890625,9.3046875,-0.06640625,-0.072265625,0.197265625,1.05078125,-18.1875,6.3203125,2.0
3438267,,,,,,,,7.8046875,-12.5546875,6.546875,-0.794921875,0.15234375,-0.6328125,2.734375,-15.66796875,3.5625,2.0
3438268,,,,,,,,8.82421875,-10.69140625,5.58984375,-0.31640625,0.65625,-0.716796875,3.80859375,-13.859375,2.56640625,2.0
3438269,,,,,,,,8.33984375,-10.046875,5.52734375,0.01171875,0.81640625,-0.396484375,3.34765625,-13.25390625,2.48828125,2.0
3438270,36.01305816666666,129.31898583333336,34.78242022011983,73.02973978383554,2.3000000000000003,125.0,,6.80859375,-8.8515625,5.21484375,-0.08984375,-0.63671875,0.4140625,6.56640625,-29.4140625,10.83984375,2.0
3438271,,,,,,,,6.01953125,-6.58984375,4.14453125,-0.3671875,0.5546875,0.931640625,1.08984375,-9.8359375,1.03515625,2.0
3438272,,,,,,,,6.25,-5.08203125,4.3828125,-0.728515625,0.548828125,1.11328125,1.3203125,-8.3046875,1.2265625,2.0
3438273,,,,,,,,6.70703125,-3.53515625,4.47265625,-0.90234375,0.466796875,1.1875,1.77734375,-6.734375,1.30078125,2.0
3438274,,,,,,,,7.3046875,-1.08984375,4.07421875,-1.240234375,0.205078125,1.3671875,2.3515625,-4.203125,0.83984375,2.0
3438275,,,,,,,,7.90625,1.51953125,4.0390625,-1.12109375,0.080078125,1.44140625,2.9296875,-1.52734375,0.765625,2.0
3438276,,,,,,,,8.51171875,3.21875,4.55859375,-0.9296875,-0.052734375,1.41796875,3.5,0.234375,1.26171875,2.0
3438277,,,,,,,,9.1171875,3.5078125,4.60546875,-0.724609375,-0.19921875,1.2578125,4.08203125,0.578125,1.30078125,2.0
3438278,,,,,,,,9.73828125,3.484375,4.453125,-0.537109375,-0.236328125,1.12890625,4.69140625,0.578125,1.1484375,2.0
3438279,,,,,,,,11.98046875,3.1171875,4.16796875,-0.05078125,-0.22265625,0.818359375,6.90625,0.234375,0.87890625,2.0
3438280,36.01305516666666,129.31898666666666,34.85754555491078,72.69686235313021,2.5,144.0,,13.90625,2.359375,3.6875,-0.08984375,-0.63671875,0.4140625,8.83203125,-0.53125,0.421875,2.0
3438281,,,,,,,,12.78515625,2.3046875,2.828125,-0.337890625,-0.197265625,0.0234375,7.7109375,-0.609375,-0.421875,2.0
3438282,,,,,,,,11.16015625,2.6953125,2.69140625,-1.857421875,-0.09765625,-0.390625,6.1015625,-0.2265625,-0.57421875,2.0
3438283,,,,,,,,9.67578125,3.8984375,2.98046875,-3.0390625,0.017578125,-0.556640625,4.6484375,1.0,-0.34765625,2.0
3438284,,,,,,,,7.18359375,5.1171875,3.3828125,-3.509765625,0.103515625,-0.65625,2.19921875,2.26953125,-0.0390625,2.0
3438285,,,,,,,,5.375,6.01953125,3.33203125,-3.890625,0.125,-0.771484375,0.4375,3.21875,-0.19140625,2.0
3438286,,,,,,,,2.03515625,7.7421875,3.21875,-4.21875,0.169921875,-0.923828125,-2.85546875,5.02734375,-0.421875,2.0
3438287,,,,,,,,0.1015625,7.93359375,3.375,-4.33203125,0.18359375,-1.0078125,-4.734375,5.2890625,-0.3828125,2.0
3438288,,,,,,,,-1.37109375,8.06640625,2.5703125,-4.103515625,0.08984375,-0.876953125,-6.1484375,5.51953125,-1.3046875,2.0
3438289,,,,,,,,-1.83203125,6.1875,3.203125,-3.470703125,-0.044921875,-0.615234375,-6.5703125,3.71875,-0.765625,2.0
3438290,36.01305333333333,129.31898833333335,35.00779440856742,72.49343767248484,2.5,147.0,,-1.35546875,3.125,6.40625,-2.5390625,-0.330078125,0.298828125,-5.69140625,-1.296875,3.21484375,2.0
3438291,,,,,,,,-0.703125,-5.828125,11.27734375,-1.7421875,-0.61328125,1.18359375,-7.26171875,-13.21484375,12.83203125,2.0
3438292,,,,,,,,-4.15234375,-18.41015625,21.97265625,-0.8203125,-0.7421875,1.71875,-7.8359375,-29.6015625,20.80078125,2.0
3438293,,,,,,,,1.01953125,-49.484375,21.98828125,0.423828125,-0.791015625,1.408203125,-3.77734375,-51.59375,17.92578125,2.0
3438294,,,,,,,,2.8671875,-55.96875,9.63671875,0.970703125,-0.6875,0.255859375,-3.5859375,-54.16015625,0.6875,2.0
3438295,,,,,,,,-1.94140625,-26.1171875,9.69921875,-2.875,-0.77734375,-1.26953125,-6.80078125,-28.265625,5.74609375,2.0
3438296,,,,,,,,-0.87109375,-20.82421875,11.078125,-5.169921875,-0.611328125,-2.01953125,-6.2265625,-20.296875,6.89453125,2.0
3438297,,,,,,,,-2.44140625,-16.55078125,9.34765625,-4.556640625,-0.302734375,-2.96484375,-5.1171875,-18.34765625,2.56640625,2.0
3438298,,,,,,,,2.33203125,-17.32421875,6.69921875,-2.439453125,-1.353515625,-2.107421875,-1.09375,-20.22265625,2.7578125,2.0
3438299,,,,,,,,-0.4453125,-20.78515625,9.05859375,-3.072265625,-1.359375,-0.15625,-5.1953125,-22.8984375,4.98046875,2.0
3438300,36.013051499999996,129.31899,35.15804326828989,72.29001299442149,2.5,145.0,0.0,-1.35546875,3.125,6.40625,-2.5390625,-0.330078125,0.298828125,-5.4609375,-20.26171875,4.82421875,2.0
3438301,,,,,,,,0.5,-17.15625,8.359375,-3.89453125,-2.087890625,0.529296875,-2.20703125,-16.85546875,3.0625,2.0
3438302,,,,,,,,3.25390625,-14.00390625,6.87109375,-3.171875,-2.369140625,0.443359375,-1.66796875,-14.05859375,3.1015625,2.0
3438303,,,,,,,,3.26171875,-12.15234375,7.046875,-2.740234375,-2.55859375,0.525390625,-1.9765625,-13.4765625,2.91015625,2.0
3438304,,,,,,,,2.703125,-11.6328125,6.50390625,-2.859375,-2.640625,0.681640625,-3.4296875,-12.55859375,1.68359375,2.0
3438305,,,,,,,,1.265625,-10.65234375,5.22265625,-3.140625,-2.533203125,0.78515625,-4.42578125,-11.60546875,1.53125,2.0
3438306,,,,,,,,0.5234375,-9.63671875,5.6328125,-3.357421875,-2.32421875,0.904296875,-5.4609375,-9.19140625,2.60546875,2.0
3438307,,,,,,,,-0.09375,-7.17578125,6.13671875,-3.310546875,-1.998046875,1.015625,-5.5,-7.62109375,2.18359375,2.0
3438308,,,,,,,,0.18359375,-2.61328125,5.46875,-2.689453125,-1.68359375,0.771484375,-5.34765625,-3.55859375,1.9921875,2.0
3438309,,,,,,,,0.8515625,0.328125,5.57421875,-2.267578125,-1.439453125,0.740234375,-4.734375,-0.53125,2.14453125,2.0
3438310,36.0130485,129.31898933333332,35.097945375817375,71.95713502613528,2.7,164.0,,1.11328125,2.90234375,4.80078125,-2.5390625,-0.330078125,0.298828125,-4.5,2.11328125,1.41796875,2.0
3438311,,,,,,,,0.875,5.3671875,4.40625,-1.904296875,-1.083984375,0.53515625,-4.7734375,4.640625,1.0703125,2.0
3438312,,,,,,,,-0.01171875,5.43359375,4.26171875,-1.7890625,-0.96875,0.412109375,-5.69140625,4.75390625,0.95703125,2.0
3438313,,,,,,,,-1.03125,2.0703125,5.80078125,-1.4453125,-0.787109375,0.294921875,-6.7265625,1.421875,2.52734375,2.0
3438314,,,,,,,,-0.70703125,1.3671875,6.61328125,-1.02734375,-0.580078125,0.169921875,-6.4140625,0.734375,3.37109375,2.0
3438315,,,,,,,,1.55859375,1.78515625,6.10546875,-0.412109375,-0.466796875,0.158203125,-4.16015625,1.15234375,2.87109375,2.0
3438316,,,,,,,,2.32421875,1.984375,5.6015625,0.06640625,-0.416015625,0.1953125,-3.39453125,1.34375,2.375,2.0
3438317,,,,,,,,3.94140625,2.33203125,4.55078125,0.794921875,-0.3125,0.21484375,-1.78515625,1.65234375,1.33984375,2.0
3438318,,,,,,,,6.1640625,3.3359375,3.00390625,1.072265625,-0.296875,0.224609375,0.4375,2.609375,-0.19140625,2.0
3438319,,,,,,,,6.82421875,3.90625,3.1640625,0.85546875,-0.341796875,0.455078125,1.08984375,3.11328125,0.0,2.0
3438320,36.0130455,129.318989,35.067897094570185,71.624257179175,3.0,177.0,,7.51171875,3.8828125,3.40625,0.423828125,-0.369140625,0.6875,1.77734375,3.0703125,0.265625,2.0
3438321,,,,,,,,6.80078125,1.046875,3.58203125,0.099609375,-0.421875,0.853515625,1.046875,0.234375,0.45703125,2.0
3438322,,,,,,,,5.7265625,-1.92578125,5.12109375,0.00390625,-0.5078125,0.986328125,-0.0234375,-2.71484375,2.02734375,2.0
3438323,,,,,,,,4.984375,-5.625,6.40234375,-0.02734375,-0.576171875,1.185546875,-0.7890625,-6.39453125,3.33203125,2.0
3438324,,,,,,,,5.0,-14.29296875,7.2890625,0.068359375,-0.712890625,1.365234375,-0.7890625,-15.0078125,4.25,2.0
3438325,,,,,,,,4.375,-26.9140625,10.35546875,0.3515625,-0.87890625,1.44140625,-1.4375,-27.578125,7.35546875,2.0
3438326,,,,,,,,4.3046875,-31.44921875,11.42578125,0.39453125,-0.962890625,1.498046875,-1.515625,-32.09375,8.46484375,2.0
3438327,,,,,,,,7.171875,-38.19140625,11.90625,0.3515625,-1.072265625,1.517578125,1.3203125,-38.796875,9.0,2.0
3438328,,,,,,,,8.6953125,-24.73046875,15.4140625,0.546875,-0.669921875,0.783203125,2.8125,-25.3125,12.5625,2.0
3438329,,,,,,,,6.16796875,-19.7421875,10.98046875,0.765625,-0.216796875,-0.609375,0.28515625,-20.375,8.16015625,2.0
3438330,36.0130435,129.31898883333332,35.05287317409423,71.40233863414099,2.6,178.0,,-1.1796875,-17.828125,9.15625,-0.486328125,-0.076171875,-2.578125,-7.03125,-18.69140625,6.359375,2.0
3438331,,,,,,,,-1.86328125,-21.49609375,8.83984375,-0.740234375,-0.115234375,-1.98828125,-7.68359375,-22.515625,6.05078125,2.0
3438332,,,,,,,,0.7890625,-22.3359375,8.52734375,0.26953125,-0.0625,-0.826171875,-5.0,-23.48046875,5.74609375,2.0
3438333,,,,,,,,2.42578125,-21.28515625,7.90625,1.21875,-0.01171875,-0.3046875,-3.35546875,-22.515625,5.1328125,2.0
3438334,,,,,,,,4.2421875,-18.80859375,7.34765625,1.49609375,0.154296875,-0.390625,-1.515625,-20.14453125,4.59765625,2.0
3438335,,,,,,,,5.55859375,-17.51953125,6.75390625,1.328125,0.345703125,-0.34375,-0.17578125,-18.953125,4.01953125,2.0
3438336,,,,,,,,7.2890625,-16.1171875,6.640625,1.251953125,0.55078125,-0.060546875,1.5859375,-17.65625,3.90625,2.0
3438337,,,,,,,,8.1015625,-14.62890625,6.37890625,1.06640625,0.798828125,0.255859375,2.4296875,-16.234375,3.63671875,2.0
3438338,,,,,,,,8.64453125,-10.75,4.98046875,0.90234375,0.921875,0.404296875,3.00390625,-12.40625,2.22265625,2.0
3438339,,,,,,,,8.7578125,-8.3984375,3.78515625,0.923828125,0.84375,0.484375,3.15625,-10.109375,0.99609375,2.0
3438340,36.013041,129.31898766666666,34.94770063366159,71.1249401090726,2.7,188.0,,8.58984375,-6.015625,3.1015625,1.080078125,0.7421875,0.642578125,3.00390625,-7.7734375,0.3046875,2.0
3438341,,,,,,,,8.8203125,-3.4140625,3.30859375,0.890625,0.677734375,1.12890625,3.2734375,-5.20703125,0.49609375,2.0
3438342,,,,,,,,8.8515625,-1.8828125,3.5859375,0.69921875,0.6328125,1.40234375,3.3125,-3.67578125,0.765625,2.0
3438343,,,,,,,,9.34765625,0.4765625,3.515625,0.716796875,0.5546875,1.572265625,3.80859375,-1.296875,0.6875,2.0
3438344,,,,,,,,10.03125,1.6015625,3.5859375,0.75390625,0.482421875,1.4921875,4.5,-0.1484375,0.765625,2.0
3438345,,,,,,,,11.8671875,2.3515625,3.515625,0.68359375,0.439453125,1.2578125,6.33984375,0.6171875,0.6875,2.0
3438346,,,,,,,,14.11328125,0.4140625,1.81640625,0.4609375,0.3203125,0.533203125,8.59375,-1.3359375,-0.99609375,2.0
3438347,,,,,,,,14.6015625,-0.49609375,1.43359375,0.34375,0.27734375,0.22265625,9.09375,-2.25390625,-1.37890625,2.0
3438348,,,,,,,,13.3828125,-0.87109375,1.9609375,-0.0859375,0.2265625,-0.21875,7.90625,-2.67578125,-0.84375,2.0
3438349,,,,,,,,12.2578125,-0.2265625,2.87890625,-0.5,0.244140625,-0.279296875,6.796875,-2.0625,0.07421875,2.0
3438350,36.0130385,129.3189855,34.752379241598234,70.84754122793576,3.2,202.0,,8.78515625,0.8203125,4.734375,1.080078125,0.7421875,0.642578125,3.34375,-1.03125,1.9140625,2.0
3438351,,,,,,,,6.609375,1.58203125,5.69140625,-2.53515625,0.318359375,-0.1875,1.203125,-0.26171875,2.83203125,2.0
3438352,,,,,,,,5.40625,1.94921875,6.52734375,-2.732421875,0.353515625,-0.302734375,0.015625,0.12109375,3.6328125,2.0
3438353,,,,,,,,3.56640625,3.37890625,5.84765625,-2.69921875,0.38671875,-0.580078125,-1.78515625,1.57421875,2.91015625,2.0
3438354,,,,,,,,3.52734375,4.421875,4.140625,-2.037109375,0.38671875,-0.888671875,-1.78515625,2.609375,1.1484375,2.0
3438355,,,,,,,,4.5625,6.8203125,2.2421875,-1.474609375,0.25390625,-1.134765625,-0.671875,4.94921875,-0.8046875,2.0
3438356,,,,,,,,4.65234375,6.453125,1.9140625,-1.51171875,0.158203125,-1.080078125,-0.55859375,4.5625,-1.1484375,2.0
3438357,,,,,,,,2.4921875,2.29296875,3.78125,-1.791015625,-0.05078125,-0.673828125,-2.6640625,0.34765625,0.6875,2.0
3438358,,,,,,,,0.58203125,-4.1875,6.78515625,-1.951171875,-0.150390625,-0.15625,-4.54296875,-6.125,3.67578125,2.0
3438359,,,,,,,,-1.0625,-10.1015625,10.5859375,-1.94140625,-0.130859375,0.201171875,-6.1875,-12.0234375,7.46875,2.0
3438780,36.01305833333333,129.3189525,31.77745943946769,73.04822160764763,2.8000000000000003,58.0,,2.6015625,-15.03125,4.234375,-2.255859375,-1.119140625,0.130859375,-5.2265625,3.14453125,-1.609375,2.0
3438781,,,,,,,,-1.421875,6.46484375,3.07421875,-1.962890625,-1.025390625,0.341796875,-5.38671875,4.2578125,-1.41796875,2.0
3438782,,,,,,,,-2.18359375,5.796875,3.6484375,-1.544921875,-1.1015625,0.66015625,-5.9921875,3.3359375,-0.8828125,2.0
3438783,,,,,,,,-2.3203125,3.03125,4.96484375,-1.107421875,-1.083984375,0.958984375,-6.1875,0.6171875,0.45703125,2.0
3438784,,,,,,,,-1.76171875,-0.34765625,6.24609375,-0.548828125,-0.884765625,1.115234375,-5.34765625,-3.21484375,2.06640625,2.0
3438785,,,,,,,,-0.01953125,-0.83203125,7.69921875,0.1875,-0.740234375,0.939453125,-4.00390625,-3.17578125,3.25390625,2.0
3438786,,,,,,,,1.09765625,0.2265625,8.3046875,0.671875,-0.62890625,0.408203125,-2.93359375,-2.140625,3.91015625,2.0
3438787,,,,,,,,2.546875,2.3515625,7.18359375,0.82421875,-0.603515625,-0.359375,-1.515625,-0.0703125,2.83203125,2.0
3438788,,,,,,,,5.0078125,6.52734375,5.3984375,0.97265625,-0.654296875,-0.986328125,0.9375,4.02734375,1.109375,2.0
3438789,,,,,,,,6.64453125,9.296875,4.68359375,0.931640625,-0.763671875,-1.0546875,2.58203125,6.671875,0.45703125,2.0
3438790,36.013059,129.31895583333335,32.0779552424228,73.1221955283464,2.9000000000000004,64.0,,6.8671875,9.10546875,4.46875,0.533203125,-0.8671875,-0.560546875,2.8125,6.36328125,0.3046875,2.0
3438791,,,,,,,,6.38671875,5.46875,5.5859375,-0.119140625,-0.890625,0.21484375,2.31640625,2.6484375,1.4921875,2.0
3438792,,,,,,,,6.29296875,1.890625,6.87890625,-0.533203125,-0.875,0.87890625,2.19921875,-0.953125,2.83203125,2.0
3438793,,,,,,,,7.64453125,-7.328125,6.08203125,-0.458984375,-0.89453125,1.228515625,3.50390625,-10.15234375,2.06640625,2.0
3438794,,,,,,,,9.0859375,-21.234375,9.03125,-0.16796875,-0.962890625,1.458984375,4.8828125,-24.015625,5.0546875,2.0
3438795,,,,,,,,19.9140625,-71.0390625,20.20703125,-0.345703125,-1.169921875,1.669921875,15.609375,-73.77734375,16.31640625,2.0
3438796,,,,,,,,15.64453125,-78.140625,18.125,-0.5234375,-1.357421875,1.619140625,15.64453125,-78.140625,27.92578125,2.0
3438797,,,,,,,,8.55859375,-26.42578125,5.0234375,-1.001953125,-1.7109375,1.396484375,8.55859375,-26.421875,14.82421875,2.0
3438798,,,,,,,,-7.18359375,0.1953125,-2.1796875,-0.359375,0.056640625,-1.361328125,-7.18359375,0.1953125,7.6171875,2.0
3438799,,,,,,,,-13.23828125,-7.2734375,-11.9453125,-2.181640625,0.80859375,-5.966796875,-13.234375,-7.2734375,-2.14453125,2.0
3438800,36.013059500000004,129.31895866666667,32.33337669475527,73.17767608649737,2.8000000000000003,71.0,0.0,-10.7109375,-13.90234375,-12.17578125,0.533203125,-0.8671875,-0.560546875,-10.7109375,-13.8984375,-2.375,2.0
3438801,,,,,,,,-8.5625,-19.80078125,-7.15625,-0.345703125,-0.86328125,-0.85546875,-8.5625,-19.80078125,2.640625,2.0
3438802,,,,,,,,-7.796875,-19.875,-6.3515625,-0.34765625,-0.35546875,1.666015625,-7.796875,-19.87890625,3.4453125,2.0
3438803,,,,,,,,-0.40625,-17.80859375,-4.5546875,1.40625,-0.328125,1.48046875,-0.40625,-17.8046875,5.24609375,2.0
3438804,,,,,,,,6.796875,-15.1640625,-1.21875,2.32421875,-0.0078125,1.0390625,6.796875,-15.16796875,8.578125,2.0
3438805,,,,,,,,5.49609375,-12.71484375,-5.05078125,2.21875,0.216796875,0.87109375,5.49609375,-12.71484375,4.75,2.0
3438806,,,,,,,,3.80859375,-11.52734375,-6.46875,0.66015625,0.5625,0.740234375,3.80859375,-11.5234375,3.33203125,2.0
3438807,,,,,,,,2.5078125,-10.94921875,-9.49609375,0.0234375,0.658203125,0.611328125,2.5078125,-10.9453125,0.3046875,2.0
3438808,,,,,,,,2.8125,-10.22265625,-11.2578125,0.1796875,0.44140625,0.607421875,2.8125,-10.22265625,-1.45703125,2.0
3438809,,,,,,,,2.734375,-8.34765625,-11.48828125,0.42578125,0.251953125,1.05859375,2.734375,-8.34765625,-1.6875,2.0
3438810,36.013059500000004,129.318962,32.63387275829544,73.17767719740641,2.9000000000000004,79.0,,2.4296875,-6.8515625,-9.76171875,0.30859375,0.078125,1.755859375,2.4296875,-6.85546875,0.0390625,2.0
3438811,,,,,,,,2.5078125,-4.62890625,-6.58203125,-0.17578125,-0.060546875,2.2421875,2.5078125,-4.62890625,3.21484375,2.0
3438812,,,,,,,,2.31640625,-3.3671875,-6.890625,-0.525390625,-0.169921875,2.046875,2.31640625,-3.37109375,2.91015625,2.0
3438813,,,,,,,,2.5078125,-1.87109375,-7.92578125,-0.537109375,-0.263671875,1.701171875,2.51171875,-1.87109375,1.875,2.0
3438814,,,,,,,,2.4296875,1.5,-9.76171875,-0.4296875,-0.318359375,0.931640625,2.4296875,1.5,0.0390625,2.0
3438815,,,,,,,,2.8515625,3.64453125,-11.10546875,-0.259765625,-0.298828125,0.486328125,2.8515625,3.640625,-1.3046875,2.0
3438816,,,,,,,,4.421875,2.953125,-11.640625,-0.033203125,-0.298828125,0.34765625,4.421875,2.953125,-1.83984375,2.0
3438817,,,,,,,,5.72265625,1.3828125,-11.9453125,0.09765625,-0.357421875,0.5,5.71875,1.3828125,-2.14453125,2.0
3438818,,,,,,,,6.4921875,-0.4921875,-11.83203125,0.1328125,-0.392578125,0.626953125,6.49609375,-0.4921875,-2.03125,2.0
3438819,,,,,,,,5.9921875,-1.71875,-11.10546875,-0.060546875,-0.404296875,0.935546875,5.99609375,-1.71875,-1.3046875,2.0
3438820,36.01305933333333,129.318965,32.90431928861109,73.15918499902506,2.9000000000000004,86.0,,3.65625,-1.83203125,-9.5703125,0.30859375,0.078125,1.755859375,3.65625,-1.83203125,0.23046875,2.0
3438821,,,,,,,,2.125,-1.14453125,-8.95703125,-1.5390625,-0.05078125,1.09765625,2.125,-1.14453125,0.83984375,2.0
3438822,,,,,,,,0.32421875,0.15625,-8.765625,-2.068359375,0.20703125,0.728515625,0.32421875,0.15625,1.03125,2.0
3438823,,,,,,,,-0.328125,0.6171875,-8.61328125,-2.29296875,0.4921875,0.236328125,-0.328125,0.6171875,1.1875,2.0
3438824,,,,,,,,-1.01953125,1.4609375,-7.6171875,-2.265625,0.693359375,-0.197265625,-1.01953125,1.4609375,2.1796875,2.0
3438825,,,,,,,,-0.90234375,2.07421875,-7.3125,-2.068359375,0.7265625,-0.5703125,-0.90234375,2.07421875,2.48828125,2.0
3438826,,,,,,,,0.1328125,2.33984375,-7.50390625,-1.91796875,0.673828125,-0.771484375,0.1328125,2.33984375,2.296875,2.0
3438827,,,,,,,,1.51171875,1.8828125,-7.46484375,-1.60546875,0.49609375,-1.193359375,1.51171875,1.8828125,2.33984375,2.0
3438828,,,,,,,,4.15234375,1.0,-5.47265625,-1.58984375,0.23046875,-1.310546875,4.34375,-0.26171875,7.4296875,2.0
3438829,,,,,,,,-0.13671875,-6.5078125,-1.6015625,-2.396484375,0.078125,-0.482421875,-5.1171875,-13.3984375,11.109375,2.0
3438830,36.013059500000004,129.31896866666665,33.234864889334624,73.1776794505848,3.1,88.0,,3.65625,-1.83203125,-9.5703125,-3.55078125,0.00390625,1.11328125,-16.1484375,-39.5234375,19.84375,2.0
3438831,,,,,,,,-18.41015625,-71.1328125,8.9296875,-2.125,-0.009765625,1.625,-18.41015625,-71.13671875,18.73046875,2.0
3438832,,,,,,,,-27.2578125,-69.33203125,-6.890625,1.7109375,0.513671875,0.89453125,-27.2578125,-69.33203125,2.91015625,2.0
3438833,,,,,,,,-20.09375,-30.10546875,6.48046875,-2.091796875,1.265625,-0.2734375,-20.09375,-30.1015625,16.28125,2.0
3438834,,,,,,,,0.74609375,-9.5703125,-13.32421875,-5.349609375,1.66796875,-3.458984375,2.390625,-11.5625,-5.78515625,2.0
3438835,,,,,,,,8.40625,-14.7421875,-13.70703125,-2.607421875,0.0078125,-4.478515625,8.40625,-14.7421875,-3.91015625,2.0
3438836,,,,,,,,13.00390625,-14.8984375,-13.48046875,-2.064453125,-0.919921875,-3.775390625,13.00390625,-14.8984375,-3.6796875,2.0
3438837,,,,,,,,11.0859375,-25.0859375,4.640625,-0.81640625,-1.6640625,-0.759765625,11.0859375,-25.08984375,14.44140625,2.0
3438838,,,,,,,,6.8359375,-30.6015625,2.83984375,-2.205078125,-2.11328125,2.970703125,6.8359375,-30.60546875,12.640625,2.0
3438839,,,,,,,,-1.1328125,-22.98046875,-4.8984375,-3.595703125,-2.19921875,2.10546875,-1.1328125,-22.98046875,4.90234375,2.0
3438840,36.013059500000004,129.318972,33.535360957849186,73.17768059271901,3.1,90.0,,-5.8828125,-14.55078125,-8.53515625,-3.55078125,0.00390625,1.11328125,-16.1484375,-39.5234375,19.84375,2.0
3438841,,,,,,,,-6.609375,-8.99609375,-9.6875,-4.26171875,-2.546875,-2.04296875,-6.609375,-8.99609375,0.11328125,2.0
3438842,,,,,,,,-7.0703125,-7.08203125,-11.140625,-3.80078125,-2.6953125,-1.380859375,-7.0703125,-7.078125,-1.34375,2.0
3438843,,,,,,,,-7.30078125,-5.85546875,-12.67578125,-3.181640625,-2.607421875,-0.46875,-7.30078125,-5.85546875,-2.875,2.0
3438844,,,,,,,,-8.44921875,-2.71484375,-11.140625,-3.01171875,-2.287109375,0.390625,-8.44921875,-2.71484375,-1.34375,2.0
3438845,,,,,,,,-0.421875,2.05078125,2.42578125,-3.001953125,-1.943359375,1.4296875,-8.64453125,-1.22265625,0.61328125,2.0
3438846,,,,,,,,0.4375,1.625,4.0859375,-2.5625,-1.5078125,2.0703125,-7.87890625,-1.4140625,2.375,2.0
3438847,,,,,,,,1.375,1.73046875,3.484375,-1.96875,-1.1796875,1.90625,-7.03125,-1.06640625,1.875,2.0
3438848,,,,,,,,2.30078125,2.3984375,2.6328125,-1.349609375,-1.087890625,1.423828125,-6.1484375,-0.1875,1.1484375,2.0
3438849,,,,,,,,2.70703125,3.53125,1.734375,-0.76953125,-0.958984375,1.0234375,-5.76953125,1.1171875,0.3828125,2.0
3438850,36.01305833333333,129.31897483333333,33.790783111490825,73.04822912126845,2.9000000000000004,97.0,,3.08203125,2.46875,2.8203125,-0.357421875,-0.91796875,0.771484375,-5.3828125,0.1953125,1.609375,2.0
3438851,,,,,,,,4.01953125,1.72265625,2.8984375,-0.2109375,-0.82421875,0.669921875,-4.421875,-0.41796875,1.8359375,2.0
3438852,,,,,,,,4.890625,1.4140625,2.7578125,0.04296875,-0.7421875,0.5859375,-3.51171875,-0.609375,1.8359375,2.0
3438853,,,,,,,,5.51171875,1.70703125,3.1015625,0.3359375,-0.66796875,0.572265625,-2.8515625,-0.26171875,2.2578125,2.0
3438854,,,,,,,,6.24609375,2.32421875,3.8046875,0.92578125,-0.46484375,0.5546875,-2.05078125,0.46484375,3.10546875,2.0
3438855,,,,,,,,7.140625,3.6015625,3.80078125,1.279296875,-0.361328125,0.462890625,-1.0546875,1.84375,3.25390625,2.0
3438856,,,,,,,,8.5703125,5.8671875,2.46484375,1.462890625,-0.333984375,0.23828125,0.515625,4.21875,2.06640625,2.0
3438857,,,,,,,,10.43359375,7.09765625,2.1640625,1.6171875,-0.326171875,0.072265625,2.54296875,5.55859375,1.9140625,2.0
3438858,,,,,,,,10.8359375,6.84375,2.21484375,1.533203125,-0.279296875,0.205078125,3.15625,5.44921875,2.10546875,2.0
3438859,,,,,,,,11.33203125,2.14453125,2.7734375,1.029296875,-0.30078125,0.626953125,3.8828125,0.92578125,2.796875,2.0
3438860,36.013057,129.31897733333332,34.016155736392236,72.90028433440682,2.8000000000000003,108.0,,10.95703125,-2.49609375,2.234375,-0.357421875,-0.91796875,0.771484375,3.765625,-3.51953125,2.375,2.0
3438861,,,,,,,,11.40625,-9.1171875,0.61328125,0.05859375,-0.501953125,1.779296875,4.5,-9.953125,0.87890625,2.0
3438862,,,,,,,,14.453125,-41.30859375,9.65234375,-0.001953125,-0.92578125,2.576171875,8.0234375,-42.01953125,10.11328125,2.0
3438863,,,,,,,,26.078125,-50.8046875,26.765625,-0.32421875,-1.572265625,3.13671875,20.28125,-52.01953125,27.65625,2.0
3438864,,,,,,,,9.22265625,-21.78125,2.5859375,-0.85546875,-0.73828125,2.341796875,3.88671875,-23.59375,3.828125,2.0
3438865,,,,,,,,-1.51171875,-11.4375,3.89453125,-1.73046875,0.1953125,-1.595703125,-6.41796875,-13.98046875,5.36328125,2.0
3438866,,,,,,,,-8.84765625,-8.6640625,4.15234375,-3.98046875,0.515625,-4.8203125,-13.3125,-12.1015625,5.74609375,2.0
3438867,,,,,,,,-8.9375,-8.75390625,0.16796875,-2.3359375,-0.19921875,-5.005859375,-12.9296875,-13.09765625,1.80078125,2.0
3438868,,,,,,,,-0.8984375,-15.98046875,0.4296875,1.138671875,-0.583984375,-0.7890625,-4.3125,-21.40625,2.296875,2.0
3438869,,,,,,,,1.99609375,-16.10546875,2.75390625,1.06640625,-0.3515625,1.40234375,-1.24609375,-22.09375,4.82421875,2.0
3438870,36.01305583333333,129.31897949999998,34.211478689767056,72.77083264283442,2.6,116.0,,5.25,-12.39453125,8.296875,0.431640625,0.001953125,1.5390625,2.0859375,-18.9140625,10.5703125,2.0
3438871,,,,,,,,4.05078125,-9.4140625,5.14453125,-0.162109375,0.869140625,0.880859375,0.97265625,-16.47265625,7.58203125,2.0
3438872,,,,,,,,3.69921875,-7.8828125,3.67578125,-0.255859375,1.201171875,0.34765625,0.66796875,-15.203125,6.16796875,2.0
3438873,,,,,,,,3.296875,-4.5625,0.70703125,-0.4296875,1.548828125,-0.31640625,0.3984375,-12.41015625,3.29296875,2.0
3438874,,,,,,,,4.421875,-3.390625,0.58203125,-0.44140625,1.419921875,-0.083984375,1.6640625,-11.71875,3.21484375,2.0
3438875,,,,,,,,4.3671875,-2.09765625,-0.15234375,-0.3046875,1.025390625,0.78125,1.7421875,-11.0234375,2.56640625,2.0
3438876,,,,,,,,4.52734375,-1.734375,-0.59765625,-0.423828125,0.818359375,0.92578125,1.93359375,-10.8359375,2.14453125,2.0
3438877,,,,,,,,4.9296875,0.80859375,-1.45703125,-0.818359375,0.607421875,0.98828125,2.390625,-8.61328125,1.30078125,2.0
3438878,,,,,,,,5.44140625,4.37109375,-0.93359375,-1.44921875,0.330078125,1.171875,2.96484375,-5.43359375,1.72265625,2.0
3438879,,,,,,,,5.45703125,6.546875,-0.34375,-1.54296875,0.203125,1.30859375,3.00390625,-3.3671875,2.2578125,2.0
3438880,36.0130535,129.31898099999998,34.34670293763228,72.5119282700611,2.5,126.0,,5.359375,8.57421875,0.3203125,0.431640625,0.001953125,1.5390625,2.93359375,-1.48828125,2.796875,2.0
3438881,,,,,,,,6.15234375,10.91015625,-0.25390625,-1.55078125,-0.32421875,1.21484375,3.76953125,0.76953125,2.10546875,2.0
3438882,,,,,,,,6.44140625,12.0390625,-0.7421875,-1.376953125,-0.2890625,0.64453125,4.1484375,1.8828125,1.4921875,2.0
3438883,,,,,,,,6.5390625,12.94140625,-1.55078125,-1.08203125,-0.228515625,0.041015625,4.421875,2.83984375,0.57421875,2.0
3438884,,,,,,,,6.84765625,12.76171875,-3.02734375,-0.947265625,-0.244140625,-0.46484375,4.95703125,2.76171875,-0.99609375,2.0
3438885,,,,,,,,6.63671875,11.6875,-3.71484375,-1.107421875,-0.21875,-0.81640625,5.03125,1.84375,-1.80078125,2.0
3438886,,,,,,,,4.953125,10.25,-3.46875,-1.59375,-0.169921875,-0.912109375,3.65625,0.578125,-1.7265625,2.0
3438887,,,,,,,,3.09375,10.34765625,-2.046875,-2.484375,-0.1328125,-0.728515625,2.0859375,0.88671875,-0.5390625,2.0
3438888,,,,,,,,1.50390625,11.0,-1.234375,-3.34375,-0.044921875,-0.3828125,0.74609375,1.76953125,-0.0390625,2.0
3438889,,,,,,,,-0.5703125,12.27734375,-0.7890625,-3.666015625,0.021484375,-0.189453125,-1.1328125,3.296875,0.0390625,2.0
3438890,36.01305133333334,129.31898216666664,34.45187751102031,72.27151699008222,2.4000000000000004,139.0,,-1.76953125,12.9765625,-0.76171875,-3.626953125,0.001953125,-0.158203125,-2.16796875,4.296875,-0.30859375,2.0
3438891,,,,,,,,-2.8125,13.20703125,-0.96875,-3.4375,-0.103515625,-0.1953125,-3.0859375,4.8671875,-0.8046875,2.0
3438892,,,,,,,,-2.484375,11.7265625,-0.23046875,-3.171875,-0.279296875,-0.177734375,-2.6640625,3.76171875,-0.34765625,2.0
3438893,,,,,,,,-1.796875,10.64453125,0.234375,-2.974609375,-0.35546875,-0.146484375,-1.9375,2.87890625,0.0,2.0
3438894,,,,,,,,1.2890625,6.10546875,1.703125,-2.109375,-0.56640625,0.25,1.20703125,-1.06640625,1.1875,2.0
3438895,,,,,,,,2.23046875,-6.8984375,8.8359375,-1.556640625,-0.64453125,0.70703125,2.16015625,-13.71484375,8.234375,2.0
3438896,,,,,,,,-7.02734375,-34.70703125,30.5546875,-2.01171875,-0.654296875,2.419921875,-7.18359375,-41.2109375,29.9921875,2.0
3438897,,,,,,,,-9.73046875,-50.265625,20.1328125,-0.716796875,-0.43359375,3.943359375,-10.13671875,-56.88671875,19.765625,2.0
3438898,,,,,,,,-8.78515625,-50.875,6.64453125,0.62890625,-0.775390625,3.341796875,-9.33203125,-57.65234375,6.43359375,2.0
3438899,,,,,,,,-16.6640625,-25.84375,5.8515625,-0.5625,-0.669921875,0.017578125,-17.453125,-33.0546875,5.9765625,2.0
3438900,36.01304983333333,129.31898433333333,34.64720063114641,72.10507889441108,2.5,139.0,0.0,4.29296875,-11.24609375,-6.1328125,-5.373046875,-0.8984375,-3.33203125,3.50390625,-18.95703125,-5.9765625,2.0
3438901,,,,,,,,0.5859375,-8.2421875,0.4296875,-3.857421875,-0.2109375,-4.296875,0.015625,-16.47265625,0.3828125,2.0
3438902,,,,,,,,1.578125,-10.1171875,7.1328125,-2.0078125,-1.13671875,-2.853515625,1.28125,-18.84765625,7.0078125,2.0
3438903,,,,,,,,2.1640625,-12.7734375,5.5625,-1.830078125,-1.501953125,0.00390625,1.96875,-21.984375,5.4375,2.0
3438904,,,,,,,,-0.19921875,-11.15625,2.84375,-2.783203125,-1.736328125,1.1484375,-0.48046875,-20.83984375,2.6796875,2.0
3438905,,,,,,,,-3.38671875,-6.14453125,3.46875,-4.1875,-2.169921875,0.578125,-3.77734375,-16.27734375,3.1015625,2.0
3438906,,,,,,,,-3.0234375,-3.19921875,2.96875,-4.18359375,-2.5390625,0.357421875,-3.5078125,-13.74609375,2.296875,2.0
3438907,,,,,,,,-3.2265625,-0.40625,3.02734375,-3.5546875,-2.60546875,0.283203125,-3.8125,-11.296875,2.06640625,2.0
3438908,,,,,,,,-2.94921875,0.3125,2.48828125,-2.873046875,-2.6796875,0.4921875,-3.66015625,-10.875,1.30078125,2.0
3438909,,,,,,,,-3.21484375,1.75,1.328125,-2.52734375,-2.439453125,0.763671875,-4.08203125,-9.6875,-0.0390625,2.0
3438910,36.013047666666665,129.31898483333333,34.6922759968878,71.86466737909701,2.3000000000000003,150.0,,-3.3203125,3.546875,1.62109375,-5.373046875,-0.8984375,-3.33203125,-4.390625,-8.078125,0.07421875,2.0
3438911,,,,,,,,-3.2734375,5.42578125,2.66015625,-2.841796875,-1.8359375,1.462890625,-4.6171875,-6.31640625,0.87890625,2.0
3438912,,,,,,,,-2.77734375,8.26953125,3.72265625,-3.09375,-1.46484375,1.865234375,-4.42578125,-3.51953125,1.72265625,2.0
3438913,,,,,,,,-1.73046875,11.76953125,4.04296875,-3.115234375,-1.126953125,1.947265625,-3.73828125,0.04296875,1.76171875,2.0
3438914,,,,,,,,-1.484375,13.8671875,3.37890625,-2.822265625,-0.8984375,1.72265625,-3.8125,2.265625,0.87890625,2.0
3438915,,,,,,,,-1.51953125,14.24609375,3.046875,-2.287109375,-0.70703125,1.005859375,-4.390625,2.6484375,0.07421875,2.0
3438916,,,,,,,,-1.671875,13.9296875,2.81640625,-2.173828125,-0.654296875,0.697265625,-6.15234375,1.421875,0.07421875,2.0
3438917,,,,,,,,-3.8671875,11.2265625,3.69140625,-2.208984375,-0.5859375,0.236328125,-7.57421875,-0.76171875,1.9140625,2.0
3438918,,,,,,,,-5.45703125,9.23046875,5.51171875,-2.390625,-0.53125,0.09765625,-8.484375,-1.52734375,2.56640625,2.0
3438919,36.01304483333333,129.318985,34.70730204492242,71.55028291911746,2.5,164.0,,-3.3203125,3.546875,1.62109375,-0.587890625,-0.369140625,0.21875,-4.390625,-8.078125,0.07421875,2.0
3438920,,,,,,,,0.16796875,11.12890625,3.6875,0.28125,-0.279296875,0.15234375,-2.55078125,1.65234375,0.3046875,2.0
3438921,,,,,,,,2.35546875,12.375,2.1171875,1.02734375,-0.220703125,-0.109375,0.66796875,4.37109375,-0.57421875,2.0
3438922,,,,,,,,4.29296875,13.65234375,1.92578125,1.1015625,-0.22265625,-0.13671875,1.5859375,4.9453125,-0.4609375,2.0
3438923,,,,,,,,6.0,14.328125,1.94140625,0.724609375,-0.353515625,0.1015625,3.76953125,5.828125,-0.15625,2.0
3438924,,,,,,,,9.08984375,13.68359375,1.53125,0.298828125,-0.6171875,0.3828125,5.45703125,5.29296875,-0.421875,2.0
3438925,,,,,,,,10.15234375,11.4609375,1.06640625,-0.04296875,-0.705078125,0.8046875,6.56640625,3.4921875,-0.73046875,2.0
3438926,,,,,,,,8.91015625,5.58203125,2.0234375,-0.544921875,-0.7109375,1.490234375,4.3828125,-4.3984375,1.4921875,2.0
3438927,,,,,,,,7.8828125,2.92578125,3.125,-0.84765625,-0.728515625,1.880859375,3.00390625,-7.8828125,3.71484375,2.0
3438928,,,,,,,,3.80078125,-11.5390625,10.1640625,-1.35546875,-0.744140625,2.439453125,0.32421875,-18.46484375,8.6171875,2.0
3438929,36.01304266666667,129.31898516666666,34.72232780129089,71.30987128586942,2.5,171.0,,-3.3203125,3.546875,1.62109375,-1.158203125,-0.626953125,2.548828125,-4.390625,-8.078125,0.07421875,2.0
3438930,,,,,,,,8.07421875,-45.8359375,12.703125,-0.16015625,-0.5234375,2.4765625,4.57421875,-52.3984375,11.4140625,2.0
3438931,,,,,,,,2.21484375,-30.90234375,15.82421875,0.15625,-0.1015625,1.025390625,-1.24609375,-37.6875,14.78515625,2.0
3438932,,,,,,,,-0.921875,-11.28125,8.43359375,-1.28515625,-0.119140625,-1.4765625,-4.2734375,-18.46484375,7.69921875,2.0
3438933,,,,,,,,-6.390625,-6.78125,5.6171875,-1.689453125,0.44140625,-4.263671875,-9.484375,-14.4375,5.09375,2.0
3438934,,,,,,,,-7.875,-7.1015625,2.62109375,-1.376953125,-0.001953125,-4.787109375,-10.5546875,-15.28125,2.22265625,2.0
3438935,,,,,,,,-7.25,-7.6328125,1.8359375,-0.845703125,-0.23828125,-3.83984375,-9.484375,-16.31640625,1.5703125,2.0
3438936,,,,,,,,-5.72265625,-8.35546875,3.27734375,0.189453125,-0.25,-1.046875,-7.72265625,-17.4609375,3.21484375,2.0
3438937,,,,,,,,-0.3046875,-5.4140625,4.72265625,0.458984375,-0.095703125,0.353515625,-2.28125,-14.90234375,4.90234375,2.0
3438938,,,,,,,,3.6640625,-3.734375,6.39453125,0.748046875,0.302734375,0.31640625,1.625,-13.7109375,6.97265625,2.0
3438939,36.0130405,129.31898516666666,34.72232875146666,71.06945959473363,2.5,177.0,,7.48828125,-4.23828125,5.7109375,0.958984375,0.63671875,0.25,5.45703125,-14.51171875,6.5859375,2.0
3438940,,,,,,,,6.57421875,-3.25390625,1.8828125,1.06640625,1.041015625,0.287109375,4.57421875,-13.78125,3.0625,2.0
3438941,,,,,,,,4.8828125,-1.2109375,0.4609375,0.76171875,1.12890625,0.431640625,2.9296875,-11.984375,1.9140625,2.0
3438942,,,,,,,,4.4375,-0.01171875,-0.63671875,0.52734375,0.841796875,0.599609375,2.5078125,-10.984375,1.03515625,2.0
3438943,,,,,,,,4.15234375,0.265625,-1.69921875,0.41796875,0.728515625,0.732421875,2.23828125,-10.87890625,0.15234375,2.0
3438944,,,,,,,,4.05859375,1.2109375,-1.83203125,0.205078125,0.65625,0.904296875,2.16015625,-10.0703125,0.15234375,2.0
3438945,,,,,,,,4.0234375,1.984375,-1.6875,0.087890625,0.61328125,1.05859375,2.125,-9.34375,0.34375,2.0
3438946,,,,,,,,3.70703125,5.3828125,-0.953125,-0.0859375,0.513671875,1.44921875,1.77734375,-6.046875,1.1484375,2.0
3438947,,,,,,,,4.23828125,8.2109375,-0.3046875,-0.146484375,0.376953125,1.69140625,2.23828125,-3.25,1.8359375,2.0
3438948,,,,,,,,5.75,11.48046875,0.953125,-0.1796875,0.322265625,1.42578125,3.66015625,0.08203125,3.140625,2.0
3439400,36.01305716666666,129.31895383333332,31.897658337256154,72.91876959288209,3.2,65.0,0.0,4.26171875,5.01171875,5.82421875,0.09375,-0.623046875,0.5625,-0.55859375,0.34765625,3.63671875,2.0
3439401,,,,,,,,5.39453125,-0.85546875,4.59765625,0.359375,-0.6328125,0.68359375,0.55078125,-5.5078125,2.44921875,2.0
3439402,,,,,,,,6.9609375,-9.3671875,1.6328125,0.677734375,-0.625,0.89453125,2.0859375,-14.01953125,-0.4609375,2.0
3439403,,,,,,,,6.77734375,-27.45703125,3.10546875,0.78125,-0.654296875,1.05078125,1.89453125,-32.09375,1.03515625,2.0
3439404,,,,,,,,12.39453125,-73.53125,14.25,0.46875,-0.892578125,1.556640625,7.44921875,-78.140625,12.2578125,2.0
3439405,,,,,,,,6.03125,-62.97265625,30.84375,-0.6171875,-1.234375,1.986328125,6.03125,-62.96875,40.64453125,2.0
3439406,,,,,,,,6.14453125,-18.87890625,-1.6015625,0.23828125,-1.935546875,2.802734375,6.14453125,-18.87890625,8.1953125,2.0
3439407,,,,,,,,-9.71484375,-6.27734375,-6.96484375,-0.76171875,1.015625,-3.5703125,-9.71484375,-6.27734375,2.83203125,2.0
3439408,,,,,,,,-12.203125,-7.46484375,-9.76171875,-2.51953125,0.525390625,-5.541015625,-12.20703125,-7.46484375,0.0390625,2.0
3439409,,,,,,,,-13.0078125,-12.3671875,-13.36328125,-1.30859375,0.01953125,-4.87890625,-13.0078125,-12.3671875,-3.5625,2.0
3439410,36.01305816666666,129.31895683333332,32.16810439919556,73.0297298214368,3.0,69.0,,-8.48828125,-18.11328125,-12.0234375,0.09375,-0.623046875,0.5625,-0.55859375,0.34765625,3.63671875,2.0
3439411,,,,,,,,-8.7578125,-17.2734375,-9.953125,0.140625,-0.171875,1.767578125,-8.7578125,-17.27734375,-0.15625,2.0
3439412,,,,,,,,-2.58984375,-16.66015625,-7.46484375,0.576171875,-0.13671875,1.521484375,-2.58984375,-16.65625,2.3359375,2.0
3439413,,,,,,,,3.15625,-14.015625,-6.3515625,1.6796875,0.34765625,1.138671875,3.15625,-14.01953125,3.4453125,2.0
3439414,,,,,,,,6.4921875,-10.9140625,-5.12890625,2.48828125,0.630859375,0.791015625,6.4921875,-10.9140625,4.671875,2.0
3439415,,,,,,,,7.9453125,-8.421875,-5.81640625,2.501953125,0.6328125,0.509765625,7.9453125,-8.42578125,3.984375,2.0
3439416,,,,,,,,6.68359375,-8.34765625,-7.65625,2.130859375,0.615234375,0.40625,6.68359375,-8.34765625,2.14453125,2.0
3439417,,,,,,,,4.34375,-8.4609375,-10.68359375,0.859375,0.541015625,0.271484375,4.34375,-8.46484375,-0.8828125,2.0
3439418,,,,,,,,1.625,-6.8515625,-11.33203125,0.138671875,0.564453125,0.52734375,1.625,-6.8515625,-1.53515625,2.0
3439419,,,,,,,,0.4765625,-4.4765625,-9.37890625,-0.4453125,0.40625,1.072265625,0.4765625,-4.48046875,0.421875,2.0
3439420,36.01305833333333,129.31895983333334,32.43855079552876,73.048224023922,2.9000000000000004,73.0,,1.5859375,-2.33203125,-7.6171875,0.09375,-0.623046875,0.5625,1.5859375,-2.328125,2.18359375,2.0
3439421,,,,,,,,2.54296875,-0.4921875,-7.9609375,0.03125,-0.03515625,1.748046875,2.5390625,-0.4921875,1.8359375,2.0
3439422,,,,,,,,3.88671875,1.765625,-8.69140625,0.45703125,-0.314453125,1.345703125,3.8828125,1.765625,1.109375,2.0
3439423,,,,,,,,4.421875,3.30078125,-9.07421875,0.587890625,-0.564453125,0.8125,4.421875,3.30078125,0.7265625,2.0
3439424,,,,,,,,5.53125,4.140625,-10.4921875,0.630859375,-0.689453125,0.46875,5.53125,4.140625,-0.69140625,2.0
3439425,,,,,,,,6.14453125,2.9921875,-11.37109375,0.908203125,-0.720703125,0.3359375,6.14453125,2.9921875,-1.5703125,2.0
3439426,,,,,,,,5.609375,-0.76171875,-11.75390625,0.7421875,-0.609375,0.509765625,5.609375,-0.76171875,-1.953125,2.0
3439427,,,,,,,,4.0390625,-3.2890625,-10.98828125,0.091796875,-0.380859375,0.853515625,4.0390625,-3.2890625,-1.1875,2.0
3439428,,,,,,,,2.19921875,-2.5625,-8.765625,-0.65234375,-0.142578125,1.0078125,2.19921875,-2.56640625,1.03515625,2.0
3439429,,,,,,,,0.015625,-0.4921875,-7.2734375,-1.8671875,0.3046875,0.4765625,0.015625,-0.4921875,2.5234375,2.0
3439430,36.01305833333333,129.3189631666667,32.739046867001214,73.04822513879702,2.8000000000000003,77.0,,-0.828125,0.38671875,-6.66015625,0.09375,-0.623046875,0.5625,1.5859375,-2.328125,2.18359375,2.0
3439431,,,,,,,,-1.59375,1.53515625,-5.93359375,-2.45703125,0.828125,-1.197265625,-1.59375,1.53515625,3.8671875,2.0
3439432,,,,,,,,2.66015625,3.52734375,-5.89453125,-1.89453125,0.69921875,-1.693359375,2.66015625,3.52734375,3.90625,2.0
3439433,,,,,,,,5.37890625,1.23046875,-4.58984375,-1.0703125,0.330078125,-1.7890625,5.375,1.23046875,5.20703125,2.0
3439434,,,,,,,,1.3203125,-6.46875,-6.0859375,-2.146484375,0.046875,-0.521484375,1.3203125,-6.46875,3.71484375,2.0
3439435,,,,,,,,-8.1796875,-41.75,9.734375,-3.240234375,-0.03515625,1.3828125,-8.1796875,-41.75,19.53515625,2.0
3439436,,,,,,,,-8.41015625,-57.2265625,11.99609375,-3.333984375,0.0859375,1.767578125,-8.41015625,-57.2265625,21.796875,2.0
3439437,,,,,,,,-14.9609375,-68.640625,4.5625,-1.93359375,0.61328125,0.888671875,-14.9609375,-68.64453125,14.36328125,2.0
3439438,,,,,,,,-15.7265625,-31.67578125,5.90625,0.990234375,0.62890625,0.0,-15.7265625,-31.671875,15.703125,2.0
3439439,,,,,,,,-3.546875,-15.625,-4.78125,-4.5078125,0.986328125,-1.232421875,-3.546875,-15.62890625,5.015625,2.0
3439440,36.01305916666667,129.31896666666668,33.054567392894484,73.14069235601059,3.1,79.0,,3.80859375,-14.8984375,-15.27734375,-6.076171875,0.833984375,-3.642578125,3.80859375,-14.90234375,-5.48046875,2.0
3439441,,,,,,,,5.3046875,-17.38671875,-9.609375,-3.845703125,-0.603515625,-3.22265625,5.3046875,-17.38671875,0.19140625,2.0
3439442,,,,,,,,3.34765625,-21.67578125,-1.6015625,-2.94921875,-1.4921875,-0.259765625,3.34765625,-21.67578125,8.1953125,2.0
3439443,,,,,,,,2.58203125,-24.05078125,-0.875,-3.015625,-1.58203125,1.248046875,2.58203125,-24.046875,8.92578125,2.0
3439444,,,,,,,,0.4375,-22.94140625,-7.65625,-3.935546875,-1.740234375,1.73046875,0.4375,-22.9375,2.14453125,2.0
3439445,,,,,,,,-2.6640625,-17.76953125,-10.8359375,-4.3984375,-1.810546875,0.05078125,-2.6640625,-17.76953125,-1.03515625,2.0
3439446,,,,,,,,-4.50390625,-12.98046875,-8.0390625,-4.765625,-1.978515625,-0.81640625,-4.50390625,-12.9765625,1.76171875,2.0
3439447,,,,,,,,-4.3515625,-10.8359375,-8.0,-4.765625,-2.02734375,-0.744140625,-4.3515625,-10.8359375,1.80078125,2.0
3439448,,,,,,,,-4.80859375,-9.34375,-8.69140625,-4.46875,-2.03125,-0.716796875,-4.80859375,-9.34375,1.109375,2.0
3439449,,,,,,,,-6.07421875,-5.81640625,-11.140625,-3.8828125,-2.060546875,-0.8046875,-6.0703125,-5.81640625,-1.34375,2.0
3439450,36.013058666666666,129.31896966666667,33.32501406227038,73.08521375608693,2.9000000000000004,85.0,,-8.21875,-1.60546875,-12.98046875,-6.076171875,0.833984375,-3.642578125,-8.21875,-1.60546875,-3.1796875,2.0
3439451,,,,,,,,-9.484375,-0.72265625,-12.4453125,-3.720703125,-1.755859375,0.201171875,-9.91015625,0.42578125,-1.83984375,2.0
3439452,,,,,,,,-0.31640625,1.6328125,1.0390625,-3.251953125,-1.5234375,0.978515625,-9.671875,2.609375,-0.57421875,2.0
3439453,,,,,,,,0.01171875,2.8125,1.73046875,-2.552734375,-1.248046875,1.435546875,-8.83203125,3.26171875,-0.26953125,2.0
3439454,,,,,,,,3.26953125,3.12109375,1.984375,-1.701171875,-0.939453125,1.52734375,-5.65234375,3.0703125,0.0,2.0
3439455,,,,,,,,4.75390625,1.74609375,2.05078125,-0.935546875,-0.6953125,1.37890625,-4.62109375,0.88671875,0.15234375,2.0
3439456,,,,,,,,5.0625,-1.19140625,2.32421875,-0.49609375,-0.576171875,1.138671875,-5.00390625,-3.05859375,2.18359375,2.0
3439457,,,,,,,,4.26171875,-4.16796875,5.28125,-0.43359375,-0.3125,0.865234375,-5.7265625,-3.7109375,5.36328125,2.0
3439458,,,,,,,,3.83984375,-4.3984375,7.06640625,-0.466796875,-0.15234375,0.73828125,-5.7265625,-3.44140625,5.515625,2.0
3439459,,,,,,,,4.12890625,-3.79296875,6.7578125,-0.265625,0.0546875,0.37890625,-4.6953125,-2.41015625,4.55859375,2.0
3439460,36.013057499999995,129.31897266666667,33.595461020989625,72.95576233601821,2.8000000000000003,93.0,,-8.21875,-1.60546875,-12.98046875,0.125,0.05859375,-0.068359375,-8.21875,-1.60546875,-3.1796875,2.0
3439461,,,,,,,,8.1875,2.0234375,4.0703125,0.4140625,-0.07421875,-0.328125,-1.0546875,2.7265625,2.71875,2.0
3439462,,,,,,,,9.109375,4.671875,3.640625,0.654296875,-0.279296875,-0.310546875,0.015625,5.328125,2.4140625,2.0
3439463,,,,,,,,9.4375,5.078125,3.7109375,0.732421875,-0.4609375,-0.03125,0.515625,5.71484375,2.640625,2.0
3439464,,,,,,,,8.3046875,4.93359375,4.046875,0.5390625,-0.57421875,0.390625,-0.40625,5.59375,3.140625,2.0
3439465,,,,,,,,7.89453125,3.58984375,3.4765625,0.2421875,-0.70703125,0.71484375,-0.59765625,4.328125,2.7578125,2.0
3439466,,,,,,,,7.94921875,-1.31640625,2.3984375,0.234375,-0.78515625,0.935546875,-0.17578125,-0.37890625,1.95703125,2.0
3439467,,,,,,,,8.10546875,-16.05859375,0.21875,0.408203125,-0.923828125,1.232421875,0.24609375,-15.0078125,-0.0390625,2.0
3439468,,,,,,,,7.09765625,-34.46875,2.66015625,0.578125,-1.041015625,1.685546875,-0.48046875,-33.40234375,2.56640625,2.0
3439469,,,,,,,,3.6875,-67.4921875,14.51171875,-0.4609375,-1.1953125,2.619140625,-3.46875,-66.8046875,14.74609375,2.0
3439470,36.013056666666664,129.31897566666666,33.86590784260052,72.86329733807155,3.0,104.0,,17.82421875,-37.984375,22.4296875,-1.26171875,-1.373046875,2.634765625,10.93359375,-37.8828125,22.984375,2.0
3439471,,,,,,,,19.54296875,-21.15234375,8.44140625,0.775390625,0.255859375,1.06640625,12.96484375,-21.7890625,9.30859375,2.0
3439472,,,,,,,,-0.0625,-10.109375,2.10546875,0.701171875,0.892578125,-3.56640625,-6.3046875,-11.64453125,3.21484375,2.0
3439473,,,,,,,,-4.10546875,-10.03515625,0.5234375,-1.814453125,-0.328125,-4.453125,-9.98046875,-12.59375,1.8359375,2.0
3439474,,,,,,,,-8.16015625,-14.484375,0.390625,-1.322265625,0.0,-1.654296875,-13.69921875,-17.96484375,1.875,2.0
3439475,,,,,,,,-8.421875,-15.734375,-0.69140625,-0.623046875,-0.1171875,0.1796875,-13.7734375,-19.95703125,0.91796875,2.0
3439476,,,,,,,,-6.02734375,-14.984375,-1.05859375,-0.271484375,-0.19921875,0.45703125,-11.32421875,-19.53125,0.61328125,2.0
3439477,,,,,,,,-1.71484375,-13.296875,-0.08984375,0.97265625,0.048828125,0.185546875,-6.91796875,-18.80859375,1.80078125,2.0
3439478,,,,,,,,5.05078125,-10.7421875,1.23828125,1.578125,0.53125,0.0859375,-0.09765625,-16.8515625,3.29296875,2.0
3439479,,,,,,,,8.55078125,-5.58984375,2.63671875,1.529296875,1.037109375,0.236328125,3.46484375,-12.25,4.86328125,2.0
3439480,36.01305583333333,129.31897816666665,34.091280257981445,72.77083217549097,2.7,110.0,,7.890625,-3.265625,1.84375,1.08984375,1.119140625,0.353515625,2.890625,-10.4140625,4.2109375,2.0
3439481,,,,,,,,6.1484375,-3.5546875,-0.203125,0.79296875,0.9453125,0.37109375,1.2421875,-11.140625,2.296875,2.0
3439482,,,,,,,,5.01953125,-3.2421875,-0.37890625,0.498046875,0.84765625,0.537109375,0.20703125,-11.21875,2.22265625,2.0
3439483,,,,,,,,5.43359375,-2.01953125,0.0078125,0.05859375,0.69140625,0.8515625,0.70703125,-10.3359375,2.6796875,2.0
3439484,,,,,,,,6.7109375,0.42578125,0.19140625,-0.224609375,0.435546875,1.046875,2.046875,-8.1875,2.91015625,2.0
3439485,,,,,,,,7.20703125,2.8125,-0.30078125,-0.16796875,0.158203125,0.947265625,2.62109375,-6.05078125,2.44921875,2.0
3439486,,,,,,,,7.8359375,5.44140625,-0.7734375,-0.05078125,0.029296875,0.810546875,3.3125,-3.51953125,1.9921875,2.0
3439487,,,,,,,,8.19140625,8.96875,-1.12890625,0.095703125,-0.19921875,0.505859375,3.80859375,-0.1484375,1.68359375,2.0
3439488,,,,,,,,8.2734375,11.734375,-1.53515625,0.09765625,-0.453125,0.24609375,4.08203125,2.53125,1.33984375,2.0
3439489,,,,,,,,9.30078125,12.91796875,-1.71875,-0.07421875,-0.693359375,0.013671875,5.3359375,3.68359375,1.1875,2.0
3439490,36.01305333333333,129.31898016666668,34.27157898858867,72.4934347695429,2.8000000000000003,122.0,,10.24609375,12.49609375,-2.36328125,1.08984375,1.119140625,0.353515625,6.56640625,3.30078125,0.57421875,2.0
3439491,,,,,,,,11.45703125,11.7109375,-3.11328125,-0.3359375,-0.896484375,-0.314453125,8.09765625,2.609375,-0.19140625,2.0
3439492,,,,,,,,11.0625,10.57421875,-3.84765625,-0.400390625,-0.90625,-0.24609375,8.0625,1.61328125,-0.95703125,2.0
3439493,,,,,,,,9.546875,9.72265625,-4.34765625,-0.57421875,-0.892578125,-0.095703125,6.71875,0.84765625,-1.49609375,2.0
3439494,,,,,,,,8.1796875,9.265625,-4.390625,-1.544921875,-0.751953125,0.29296875,3.5,0.3125,-1.609375,2.0
3439495,,,,,,,,4.01171875,8.83984375,-3.7109375,-2.322265625,-0.615234375,0.318359375,1.81640625,0.34765625,-1.1484375,2.0
3439496,,,,,,,,2.53515625,8.515625,-2.86328125,-3.005859375,-0.5234375,0.2421875,0.74609375,0.3125,-0.73046875,2.0
3439497,,,,,,,,1.140625,8.52734375,-0.98046875,-3.1640625,-0.4375,0.09765625,-0.40625,0.54296875,0.8359375,2.0
3439498,,,,,,,,1.0234375,8.5390625,-0.77734375,-3.0703125,-0.408203125,0.0390625,-0.40625,0.65625,0.87890625,2.0
3439499,,,,,,,,2.078125,8.94921875,-0.9609375,-2.337890625,-0.361328125,-0.1640625,0.8203125,1.34375,2.640625,2.0
3439500,36.01305183333333,129.31898199999998,34.43685248939923,72.32699655161336,2.6,128.0,0.0,0.296875,6.8828125,7.578125,-2.29296875,-0.41015625,-0.201171875,-2.3203125,-2.5625,12.5234375,2.0
3439501,,,,,,,,-4.05859375,1.17578125,15.25,-2.486328125,-0.5234375,-0.154296875,-7.72265625,-12.0625,19.53125,2.0
3439502,,,,,,,,-7.859375,-15.0546875,18.0,-2.115234375,-0.52734375,-0.099609375,-7.8359375,-29.53125,17.66015625,2.0
3439503,,,,,,,,-4.67578125,-33.94140625,12.73828125,-0.701171875,-0.28515625,-0.109375,-5.8046875,-52.4765625,9.0390625,2.0
3439504,,,,,,,,-14.87890625,-54.39453125,6.65625,-0.546875,-0.3125,-0.611328125,-15.49609375,-61.4375,7.7734375,2.0
3439505,,,,,,,,-18.3203125,-10.96875,13.48828125,-4.5,-0.841796875,-2.55078125,-10.9375,-8.0390625,11.4140625,2.0
3439506,,,,,,,,0.21875,6.57421875,-2.33984375,-4.6875,-0.14453125,-4.33984375,-0.3671875,-1.22265625,-1.11328125,2.0
3439507,,,,,,,,11.1171875,-4.25,-2.41015625,-1.81640625,-1.146484375,-3.51171875,10.78125,-12.37109375,-1.37890625,2.0
3439508,,,,,,,,-0.80078125,-18.39453125,12.3984375,-3.017578125,-1.814453125,0.591796875,-0.86328125,-26.8046875,13.40625,2.0
3439509,,,,,,,,-4.44140625,-19.22265625,6.6328125,-3.822265625,-2.015625,2.703125,-4.54296875,-27.9921875,7.546875,2.0
3439510,36.0130505,129.3189845,34.66222514410488,72.17905178212617,2.8000000000000003,127.0,,-4.16015625,-15.58984375,-1.9375,-4.185546875,-1.951171875,1.0078125,-4.58203125,-25.01171875,-1.265625,2.0
3439511,,,,,,,,-6.1015625,-9.6171875,-0.7265625,-4.65625,-2.19140625,-0.111328125,-6.609375,-19.49609375,-0.3828125,2.0
3439512,,,,,,,,-5.61328125,-7.8984375,0.5234375,-4.8359375,-2.3125,-0.134765625,-6.15234375,-18.00390625,0.6875,2.0
3439513,,,,,,,,-4.1328125,-5.19921875,3.92578125,-4.728515625,-2.283203125,0.189453125,-4.7734375,-15.69921875,3.63671875,2.0
3439514,,,,,,,,-4.9921875,-3.3671875,2.95703125,-3.935546875,-2.33203125,0.169921875,-5.84375,-14.40234375,2.14453125,2.0
3439515,,,,,,,,-6.62109375,-0.34765625,1.671875,-4.234375,-2.353515625,0.04296875,-7.72265625,-11.7890625,0.3046875,2.0
3439516,,,,,,,,-7.25390625,1.79296875,0.7265625,-4.376953125,-2.31640625,0.107421875,-8.44921875,-9.76171875,-0.84375,2.0
3439517,,,,,,,,-5.80078125,5.77734375,1.4609375,-4.16796875,-2.265625,0.337890625,-7.21875,-5.93359375,-0.5390625,2.0
3439518,,,,,,,,-4.34765625,8.19140625,2.2578125,-3.521484375,-2.1015625,0.626953125,-6.03125,-3.59765625,-0.1171875,2.0
3439519,,,,,,,,-3.6953125,9.46484375,2.18359375,-3.244140625,-1.958984375,0.6953125,-5.5390625,-2.33203125,-0.34765625,2.0
3439520,36.013048166666664,129.3189855,34.75237499884968,71.92014723845347,2.5,137.0,,-2.07421875,15.36328125,2.96484375,-4.185546875,-1.951171875,1.0078125,-4.19921875,3.60546875,0.15234375,2.0
3439521,,,,,,,,-2.0,17.7109375,4.35546875,-2.857421875,-1.595703125,0.48828125,-4.390625,6.09765625,1.30078125,2.0
3439522,,,,,,,,-2.91796875,13.015625,6.73046875,-2.310546875,-1.314453125,0.615234375,-5.6875,1.765625,3.41015625,2.0
3439523,,,,,,,,-4.41015625,10.00390625,6.46875,-1.984375,-1.15234375,0.603515625,-7.30078125,-1.10546875,3.1015625,2.0
3439524,,,,,,,,-4.08984375,7.6953125,6.66796875,-1.3671875,-0.798828125,0.34375,-7.30078125,-2.984375,3.29296875,2.0
3439525,,,,,,,,-3.3515625,7.4453125,6.3984375,-1.333984375,-0.595703125,0.486328125,-6.76953125,-2.9453125,3.0625,2.0
3439526,,,,,,,,-1.1640625,9.44140625,5.953125,-1.376953125,-0.490234375,0.361328125,-4.77734375,-0.64453125,2.6796875,2.0
3439527,,,,,,,,2.04296875,11.38671875,5.30078125,-1.119140625,-0.544921875,0.076171875,-1.70703125,1.61328125,2.10546875,2.0
3439528,,,,,,,,2.83203125,11.68359375,5.4296875,-0.83984375,-0.57421875,-0.029296875,-0.98046875,2.07421875,2.296875,2.0
3439529,,,,,,,,4.28125,12.47265625,6.140625,-0.337890625,-0.732421875,-0.087890625,0.3984375,3.18359375,3.1796875,2.0
3439530,36.01304583333333,129.31898616666666,34.812475247625116,71.6612425768966,2.4000000000000004,151.0,,5.09375,12.328125,6.984375,-4.185546875,-1.951171875,1.0078125,1.1640625,3.375,4.25,2.0
3439531,,,,,,,,4.484375,10.734375,6.0859375,-0.119140625,-1.06640625,0.41796875,0.515625,2.1484375,3.60546875,2.0
3439532,,,,,,,,2.63671875,7.83203125,4.921875,-0.333984375,-1.21484375,0.65625,-1.36328125,-0.37890625,2.6796875,2.0
3439533,,,,,,,,1.49609375,4.76171875,4.265625,-0.51171875,-1.345703125,0.759765625,-2.55078125,-3.05859375,2.2578125,2.0
3439534,,,,,,,,-0.08203125,-2.9921875,4.34765625,-0.416015625,-1.466796875,0.87109375,-4.16015625,-10.45703125,2.56640625,2.0
3439535,,,,,,,,-1.22265625,-12.19921875,6.43359375,-0.154296875,-1.505859375,1.095703125,-5.34765625,-19.37890625,4.90234375,2.0
3439536,,,,,,,,-1.45703125,-18.84375,8.140625,-0.076171875,-1.501953125,1.279296875,-5.61328125,-25.93359375,6.7421875,2.0
3439537,,,,,,,,8.96484375,-33.8203125,15.42578125,0.130859375,-1.2421875,1.5546875,4.69140625,-40.87109375,14.48046875,2.0
3439538,,,,,,,,11.1484375,-20.5859375,16.14453125,0.599609375,-0.798828125,1.111328125,6.875,-27.80859375,15.58984375,2.0
3439539,,,,,,,,1.98046875,-13.54296875,10.66796875,-0.021484375,-0.4921875,-0.435546875,-2.20703125,-21.0234375,10.49609375,2.0
3439540,36.013043833333334,129.31898666666666,34.85755054470077,71.43932427115126,2.4000000000000004,159.0,,-4.68359375,-11.15625,7.91796875,-1.62890625,-0.259765625,-2.23046875,-8.52734375,-19.23046875,8.16015625,2.0
3439541,,,,,,,,-2.40234375,-12.9921875,8.01953125,-0.599609375,-0.384765625,-1.509765625,-6.03515625,-21.48828125,8.50390625,2.0
3439542,,,,,,,,-0.765625,-12.546875,7.828125,0.513671875,-0.431640625,-0.806640625,-4.234375,-21.44921875,8.65625,2.0
3439543,,,,,,,,0.02734375,-12.0859375,7.28125,0.83203125,-0.43359375,-0.60546875,-3.39453125,-21.1796875,8.3125,2.0
3439544,,,,,,,,1.765625,-10.8515625,6.14453125,0.81640625,-0.32421875,-0.4609375,-1.5546875,-20.3359375,7.58203125,2.0
3439545,,,,,,,,2.37109375,-9.6953125,5.38671875,0.42578125,-0.080078125,-0.208984375,-0.86328125,-19.57421875,7.19921875,2.0
3439546,,,,,,,,3.80078125,-8.1640625,3.765625,0.26953125,0.216796875,0.078125,0.62890625,-18.42578125,5.8984375,2.0
3439547,,,,,,,,4.09765625,-5.97265625,2.7421875,0.349609375,0.5,0.3828125,0.97265625,-16.578125,5.171875,2.0
3439548,,,,,,,,4.0078125,-2.375,1.05859375,0.4609375,0.5703125,0.6640625,0.8984375,-13.29296875,3.75390625,2.0
3439549,,,,,,,,3.66796875,-0.125,-0.87890625,0.482421875,0.5234375,0.814453125,0.55078125,-11.296875,2.06640625,2.0
3439550,36.013041333333334,129.31898633333333,34.82750203273668,71.16192604564293,2.5,173.0,,3.9140625,2.421875,-1.9765625,0.419921875,0.515625,0.94140625,0.78125,-8.9609375,1.1875,2.0
3439551,,,,,,,,4.60546875,4.11328125,-2.1796875,0.3359375,0.5078125,1.166015625,1.43359375,-7.42578125,1.1484375,2.0
3439552,,,,,,,,5.59375,7.33984375,-2.8203125,0.119140625,0.419921875,1.34375,2.3515625,-4.32421875,0.6875,2.0
3439553,,,,,,,,6.59375,10.3203125,-3.296875,0.16015625,0.2734375,1.263671875,3.31640625,-1.3359375,0.3046875,2.0
3439554,,,,,,,,7.6171875,12.41796875,-3.11328125,0.390625,0.177734375,1.19921875,4.34765625,0.84765625,0.53515625,2.0
3439555,,,,,,,,8.30078125,13.10546875,-3.12890625,0.6171875,0.064453125,1.103515625,5.0703125,1.69140625,0.57421875,2.0
3439556,,,,,,,,9.30859375,13.3828125,-3.8828125,0.6640625,-0.04296875,0.826171875,6.1796875,2.1875,-0.1171875,2.0
3439557,,,,,,,,10.21875,12.25390625,-4.91796875,0.697265625,-0.185546875,0.45703125,7.26171875,1.30859375,-1.11328125,2.0
3439558,,,,,,,,10.81640625,10.36328125,-5.0,0.48046875,-0.166015625,0.125,8.09375,-0.30078125,-1.1875,2.0
3439559,,,,,,,,8.0078125,10.01953125,-3.67578125,-0.119140625,-0.0625,-0.0390625,5.57421875,-0.37890625,0.07421875,2.0
3440020,36.01305683333333,129.3189515,31.6873112202955,72.88178241700963,3.0,67.0,,7.6328125,-9.109375,4.5,0.244140625,-1.123046875,1.24609375,3.3125,-11.98828125,1.109375,2.0
3440021,,,,,,,,12.82421875,-8.93359375,8.890625,2.232421875,0.671875,0.439453125,8.51953125,-11.91015625,5.5546875,2.0
3440022,,,,,,,,11.73046875,-8.2265625,9.5390625,2.3125,0.76953125,0.927734375,7.44921875,-11.296875,6.28125,2.0
3440023,,,,,,,,7.27734375,-7.3203125,5.859375,0.765625,0.658203125,1.04296875,3.00390625,-10.45703125,2.640625,2.0
3440024,,,,,,,,5.5546875,-6.125,4.16015625,-0.583984375,0.66796875,0.71875,1.08984375,-8.57421875,0.61328125,2.0
3440025,,,,,,,,5.37890625,-3.91015625,3.71484375,-0.935546875,0.44140625,0.599609375,1.12890625,-6.23828125,0.3046875,2.0
3440026,,,,,,,,5.37109375,-2.2265625,3.34765625,-0.6484375,0.07421875,0.77734375,1.203125,-4.32421875,0.11328125,2.0
3440027,,,,,,,,6.19140625,0.6796875,3.72265625,0.037109375,-0.28125,1.01171875,1.93359375,-2.4453125,0.49609375,2.0
3440028,,,,,,,,6.75,2.40234375,3.8359375,0.486328125,-0.466796875,1.08203125,2.7734375,-0.03515625,0.53515625,2.0
3440029,,,,,,,,7.82421875,4.9453125,3.35546875,0.66015625,-0.626953125,0.84765625,3.5,1.8046875,0.23046875,2.0
3440030,36.01305683333333,129.3189545,31.95775768777856,72.88178339704073,2.9000000000000004,72.0,,7.84765625,6.42578125,2.6171875,0.654296875,-0.6953125,0.48828125,3.42578125,4.41015625,-1.3046875,2.0
3440031,,,,,,,,7.75390625,7.734375,1.54296875,0.689453125,-0.701171875,0.123046875,3.34765625,4.37109375,-1.6875,2.0
3440032,,,,,,,,7.80078125,7.24609375,0.7734375,0.564453125,-0.55078125,-0.146484375,3.6171875,3.30078125,-2.4140625,2.0
3440033,,,,,,,,8.18359375,5.59375,0.23828125,0.2734375,-0.28515625,-0.2578125,4.00390625,1.1171875,-2.4921875,2.0
3440034,,,,,,,,8.7734375,2.27734375,0.62109375,-0.12109375,-0.01953125,-0.1328125,4.421875,-1.10546875,-2.14453125,2.0
3440035,,,,,,,,8.7109375,0.96875,1.23828125,-0.525390625,0.171875,0.126953125,4.38671875,-2.4453125,-1.49609375,2.0
3440036,,,,,,,,8.359375,0.75390625,2.3125,-1.0234375,0.267578125,0.3125,4.04296875,-2.67578125,-0.421875,2.0
3440037,,,,,,,,7.30078125,1.51171875,5.015625,-1.611328125,0.322265625,0.228515625,2.8125,-1.60546875,3.1015625,2.0
3440038,,,,,,,,5.78515625,2.56640625,11.30859375,-2.111328125,0.3984375,-0.197265625,1.51171875,-0.83984375,8.50390625,2.0
3440039,,,,,,,,6.671875,4.4296875,11.78515625,-2.44140625,0.39453125,-0.947265625,2.4296875,1.0390625,8.921875,2.0
3440040,36.01305716666666,129.31895816666665,32.288303235327724,72.91877101995291,3.0,77.0,,9.13671875,7.9296875,8.97265625,-2.1015625,0.283203125,-1.7734375,4.99609375,4.5234375,6.01171875,2.0
3440041,,,,,,,,2.73046875,-1.1015625,7.43359375,-2.666015625,0.078125,-1.771484375,-1.32421875,-4.5546875,4.40234375,2.0
3440042,,,,,,,,0.59765625,-7.66796875,10.953125,-3.412109375,-0.0859375,-0.326171875,-3.39453125,-11.1015625,7.8515625,2.0
3440043,,,,,,,,-6.48828125,-39.70703125,28.1171875,-2.8125,0.2734375,1.630859375,-10.48046875,-43.046875,24.9375,2.0
3440044,,,,,,,,-11.46484375,-57.0390625,8.05859375,-0.763671875,0.322265625,1.8984375,-15.49609375,-60.29296875,4.82421875,2.0
3440045,,,,,,,,-1.67578125,-16.83984375,8.6484375,2.34375,-0.078125,0.775390625,-5.73046875,-20.10546875,5.4765625,2.0
3440046,,,,,,,,2.62890625,-14.12109375,3.546875,-4.013671875,-0.203125,-1.36328125,-1.40234375,-17.421875,0.3828125,2.0
3440047,,,,,,,,10.16796875,-10.23828125,0.0703125,-4.681640625,-0.09765625,-3.283203125,6.22265625,-13.51953125,-3.21875,2.0
3440048,,,,,,,,10.81640625,-9.171875,8.60546875,-2.791015625,-0.796875,-1.896484375,7.02734375,-12.5234375,5.20703125,2.0
3440049,,,,,,,,10.80078125,-16.87109375,7.85546875,-2.5390625,-1.208984375,-0.61328125,7.02734375,-20.21875,4.44140625,2.0
3440050,36.01305816666666,129.31896166666667,32.603823701970114,73.02973142803295,3.2,76.0,,7.70703125,-19.4453125,7.82421875,-2.638671875,-1.685546875,1.734375,4.99609375,4.5234375,6.01171875,2.0
3440051,,,,,,,,2.7109375,-17.140625,8.15625,-4.642578125,-1.7265625,1.490234375,-1.2109375,-20.30078125,4.7109375,2.0
3440052,,,,,,,,1.9765625,-12.35546875,2.7109375,-4.9296875,-1.83984375,0.310546875,-2.015625,-15.3515625,-0.8046875,2.0
3440053,,,,,,,,1.18359375,-10.19921875,2.2109375,-4.46484375,-2.162109375,-0.490234375,-2.85546875,-13.09765625,-1.34375,2.0
3440054,,,,,,,,-1.18359375,-6.34765625,3.37890625,-4.255859375,-2.333984375,-0.248046875,-5.26953125,-9.15234375,-0.19140625,2.0
3440055,,,,,,,,-0.96875,-4.6015625,2.8203125,-4.03125,-2.20703125,0.318359375,-5.1171875,-7.3125,-0.765625,2.0
3440056,,,,,,,,-1.015625,-4.12109375,2.3671875,-3.828125,-2.064453125,0.537109375,-5.1953125,-6.77734375,-1.2265625,2.0
3440057,,,,,,,,-1.90234375,-1.203125,2.05859375,-3.486328125,-1.849609375,0.787109375,-6.15234375,-3.75,-1.53515625,2.0
3440058,,,,,,,,-1.640625,0.7265625,2.296875,-3.240234375,-1.759765625,1.064453125,-5.9609375,-1.71875,-1.3046875,2.0
3440059,,,,,,,,-1.9140625,3.7421875,3.1796875,-3.11328125,-1.4140625,1.330078125,-6.30859375,1.421875,-0.421875,2.0
3440060,36.01305766666667,129.31896466666666,32.87427037261222,72.97425281551243,2.9000000000000004,81.0,,-2.15625,5.6953125,4.0390625,-2.92578125,-1.052734375,1.42578125,-6.61328125,3.4921875,0.421875,2.0
3440061,,,,,,,,-2.42578125,5.62109375,4.08984375,-2.529296875,-0.8046875,1.314453125,-6.9140625,3.52734375,0.45703125,2.0
3440062,,,,,,,,-3.18359375,2.77734375,2.99609375,-2.083984375,-0.6484375,1.046875,-7.72265625,0.76953125,-0.65234375,2.0
3440063,,,,,,,,-3.2421875,0.6796875,2.3125,-1.919921875,-0.6640625,0.73828125,-7.80078125,-1.2578125,-1.34375,2.0
3440064,,,,,,,,-2.8984375,-0.7109375,2.40625,-1.884765625,-0.73828125,0.6953125,-7.49609375,-2.6015625,-1.265625,2.0
3440065,,,,,,,,-1.80078125,-1.1171875,4.8984375,-1.6484375,-0.642578125,0.986328125,-6.4140625,-2.9453125,1.2265625,2.0
3440066,,,,,,,,-1.6328125,-0.8046875,5.44140625,-1.41796875,-0.529296875,1.154296875,-6.265625,-2.6015625,1.76171875,2.0
3440067,,,,,,,,-0.59765625,0.15234375,6.359375,-0.125,-0.158203125,1.26171875,-5.26953125,-1.56640625,2.6796875,2.0
3440068,,,,,,,,0.55859375,1.234375,6.390625,0.84375,0.02734375,0.92578125,-4.1171875,-0.4921875,2.71875,2.0
3440069,,,,,,,,2.4453125,3.39453125,5.1484375,1.58984375,0.03515625,0.392578125,-2.2421875,1.61328125,1.4921875,2.0
3440070,36.013057499999995,129.31896833333334,33.204816124178095,72.95576085065467,3.1,88.0,,3.8515625,4.9140625,4.53515625,-2.92578125,-1.052734375,1.42578125,-6.61328125,3.4921875,0.421875,2.0
3440071,,,,,,,,6.3359375,7.19921875,4.13671875,2.345703125,-0.185546875,-0.458984375,1.6640625,5.17578125,0.57421875,2.0
3440072,,,,,,,,7.4296875,8.14453125,5.26953125,2.072265625,-0.330078125,-0.53515625,2.7734375,5.9765625,1.76171875,2.0
3440073,,,,,,,,7.61328125,6.73046875,6.2421875,1.587890625,-0.513671875,-0.2890625,2.96484375,4.4453125,2.796875,2.0
3440074,,,,,,,,7.28515625,0.640625,7.13671875,1.3828125,-0.609375,0.43359375,2.62109375,-1.71875,3.75,2.0
3440075,,,,,,,,7.01171875,-6.484375,7.10546875,1.2421875,-0.748046875,2.2109375,2.23828125,-14.0546875,3.37109375,2.0
3440076,,,,,,,,6.96484375,-11.6640625,6.65234375,1.125,-0.8671875,2.736328125,2.27734375,-20.1015625,5.0546875,2.0
3440077,,,,,,,,8.27734375,-40.5234375,7.80078125,0.79296875,-1.2890625,3.77734375,3.46484375,-42.86328125,4.59765625,2.0
3440078,,,,,,,,20.94921875,-75.921875,22.34765625,0.13671875,-1.541015625,4.384765625,16.02734375,-78.140625,19.23046875,2.0
3440079,,,,,,,,19.08203125,-32.1015625,22.296875,-1.5703125,-0.548828125,3.205078125,14.03515625,-34.16796875,19.265625,2.0
3440080,36.01305683333333,129.31897166666667,33.505312480554,72.88178916304882,3.2,96.0,,3.78515625,-20.58984375,6.24609375,-1.494140625,0.32421875,-0.71875,-1.32421875,-22.48046875,3.21484375,2.0
3440081,,,,,,,,-2.33984375,-5.44140625,1.64453125,-4.00390625,1.099609375,-6.349609375,-7.33984375,-7.5,-1.45703125,2.0
3440082,,,,,,,,-10.5703125,-8.5703125,-0.93359375,-3.037109375,1.1484375,-6.07421875,-15.38671875,-10.875,-4.17578125,2.0
3440083,,,,,,,,-10.98828125,-14.296875,2.34765625,-1.095703125,-0.380859375,-3.0859375,-15.65234375,-16.81640625,-0.95703125,2.0
3440084,,,,,,,,-8.390625,-13.3359375,5.1484375,-0.3125,-0.25390625,1.91796875,-13.046875,-15.93359375,1.875,2.0
3440085,,,,,,,,-6.92578125,-12.375,4.95703125,-0.16796875,0.1796875,2.447265625,-11.62890625,-14.8984375,1.68359375,2.0
3440086,,,,,,,,-1.69921875,-11.66796875,4.5,0.216796875,0.087890625,2.0390625,-6.41796875,-14.1640625,1.2265625,2.0
3440087,,,,,,,,3.1875,-8.91796875,5.40234375,0.8515625,0.4296875,1.173828125,-1.5546875,-11.41015625,2.14453125,2.0
3440088,,,,,,,,9.1171875,-5.8828125,6.0625,1.111328125,0.982421875,0.5859375,4.3828125,-8.421875,2.796875,2.0
3440089,,,,,,,,11.22265625,-3.9375,6.0234375,1.828125,1.1953125,0.216796875,6.52734375,-6.546875,2.7578125,2.0
3440090,36.013056166666665,129.318974,33.715660018009594,72.80781713975364,2.8000000000000003,101.0,,12.2109375,-3.16796875,5.125,2.486328125,1.099609375,-0.021484375,7.56640625,-5.89453125,1.875,2.0
3440091,,,,,,,,11.4375,-3.9921875,5.171875,2.09375,0.912109375,-0.369140625,6.8359375,-6.85546875,1.953125,2.0
3440092,,,,,,,,8.5078125,-2.734375,4.96484375,0.109375,0.771484375,-0.53125,3.9609375,-5.70703125,1.76171875,2.0
3440093,,,,,,,,6.73046875,-1.8515625,4.359375,-1.77734375,0.439453125,-0.232421875,2.23828125,-4.86328125,1.109375,2.0
3440094,,,,,,,,6.33203125,0.94140625,4.74609375,-1.7578125,-0.115234375,0.607421875,1.85546875,-2.0234375,1.41796875,2.0
3440095,,,,,,,,6.5078125,4.54296875,5.6484375,-1.220703125,-0.376953125,1.076171875,2.0078125,1.61328125,2.30078125,2.0
3440096,,,,,,,,7.19140625,6.640625,5.55859375,-0.689453125,-0.58984375,1.240234375,2.66015625,3.7578125,2.22265625,2.0
3440097,,,,,,,,8.45703125,6.65625,4.0703125,-0.30859375,-0.775390625,0.93359375,3.88671875,3.796875,0.765625,2.0
3440098,,,,,,,,11.90234375,5.0546875,1.3125,-0.0078125,-0.833984375,0.30859375,7.29296875,2.1875,-1.953125,2.0
3440099,,,,,,,,13.55859375,4.0234375,-0.62109375,-0.041015625,-0.81640625,-0.228515625,8.9375,1.1171875,-3.83203125,2.0
3440100,36.013054333333336,129.31897650000002,33.941032864920054,72.60439272933351,2.8000000000000003,112.0,0.0,12.984375,2.99609375,-1.5390625,2.486328125,1.099609375,-0.021484375,7.56640625,-5.89453125,1.875,2.0
3440101,,,,,,,,8.6640625,3.08203125,0.55078125,-1.603515625,-0.841796875,0.111328125,4.04296875,0.12109375,-2.60546875,2.0
3440102,,,,,,,,5.39453125,4.359375,3.8515625,-3.921875,-0.599609375,0.607421875,0.74609375,1.50390625,0.6484375,2.0
3440103,,,,,,,,2.91796875,4.44921875,6.71484375,-4.75,-0.357421875,0.591796875,-1.74609375,1.73046875,3.41015625,2.0
3440104,,,,,,,,2.34375,3.84765625,8.8359375,-4.451171875,-0.322265625,0.298828125,-2.3203125,1.26953125,5.4375,2.0
3440105,,,,,,,,1.72265625,0.375,10.1328125,-3.140625,-0.42578125,-0.345703125,-2.93359375,-2.0625,6.62890625,2.0
3440106,,,,,,,,-8.0078125,-23.79296875,25.94140625,-2.580078125,-0.4765625,-0.4609375,-12.6640625,-26.19921875,22.41015625,2.0
3440107,,,,,,,,-0.5546875,-47.51953125,19.63671875,-1.369140625,-0.466796875,-0.23828125,-5.1953125,-49.90625,16.08984375,2.0
3440108,,,,,,,,0.91015625,-69.890625,10.546875,-0.025390625,-0.162109375,0.99609375,-3.73828125,-72.28515625,7.0078125,2.0
3440109,,,,,,,,-22.203125,-33.109375,24.0078125,1.26953125,0.384765625,1.81640625,-26.875,-35.51171875,20.4921875,2.0
3440110,36.013053166666666,129.31897949999998,34.21147984220379,72.47494132838658,3.0,115.0,,-1.06640625,-4.609375,1.78515625,-5.701171875,-0.607421875,-1.365234375,-5.73046875,-6.96875,-1.76171875,2.0
3440111,,,,,,,,6.9609375,-6.66015625,-1.796875,-3.650390625,0.56640625,-5.234375,2.46875,-9.03125,-5.5546875,2.0
3440112,,,,,,,,9.88671875,-14.51953125,-1.15234375,-2.49609375,-0.611328125,-4.03125,5.45703125,-16.9609375,-4.94140625,2.0
3440113,,,,,,,,3.87890625,-24.5625,12.24609375,-1.744140625,-1.58203125,-0.5234375,-0.51953125,-27.078125,8.46484375,2.0
3440114,,,,,,,,1.3046875,-27.0625,10.62109375,-3.111328125,-1.54296875,2.408203125,-3.1640625,-29.4921875,6.85546875,2.0
3440115,,,,,,,,1.24609375,-21.2734375,3.234375,-4.244140625,-1.548828125,1.724609375,-3.31640625,-23.515625,-0.5390625,2.0
3440116,,,,,,,,1.046875,-19.8046875,2.37109375,-4.421875,-1.603515625,0.8359375,-3.546875,-21.9453125,-1.41796875,2.0
3440117,,,,,,,,-0.484375,-15.83203125,4.04296875,-4.337890625,-1.77734375,-0.3125,-5.15625,-17.80859375,0.23046875,2.0
3440118,,,,,,,,-0.54296875,-13.59765625,5.48828125,-4.0703125,-1.84375,-0.064453125,-5.26953125,-15.47265625,1.68359375,2.0
3440119,,,,,,,,-0.6640625,-12.76953125,5.328125,-3.85546875,-1.876953125,0.029296875,-5.421875,-14.5859375,1.53125,2.0
3440120,36.01305183333333,129.3189815,34.39177807660605,72.32699637492226,2.6,119.0,,-1.98828125,-9.5546875,3.12890625,-3.5390625,-1.958984375,-0.01171875,-6.80078125,-11.296875,-0.65234375,2.0
3440121,,,,,,,,-2.87109375,-7.2265625,3.11328125,-3.474609375,-2.091796875,0.05078125,-7.76171875,-8.84765625,-0.61328125,2.0
3440122,,,,,,,,-2.5234375,-5.62890625,4.14453125,-3.421875,-1.994140625,0.42578125,-7.4921875,-7.16015625,0.45703125,2.0
3440123,,,,,,,,-1.79296875,-4.1875,3.625,-3.275390625,-1.87890625,0.59765625,-6.80078125,-5.6640625,-0.0390625,2.0
3440124,,,,,,,,-1.625,-3.09375,3.515625,-2.654296875,-1.5546875,0.703125,-6.34765625,-3.51953125,-0.421875,2.0
3440125,,,,,,,,-1.03515625,-0.796875,3.02734375,-2.302734375,-1.427734375,0.654296875,-5.34375,1.53515625,-0.30859375,2.0
3440126,,,,,,,,0.8515625,5.22265625,4.15234375,-2.00390625,-1.28515625,0.744140625,-4.31640625,3.98828125,0.57421875,2.0
3440127,,,,,,,,1.51953125,6.02734375,6.6015625,-1.53515625,-1.19140625,0.8203125,-3.69921875,4.87109375,3.0625,2.0
3440128,,,,,,,,1.7890625,4.67578125,7.19140625,-1.236328125,-1.169921875,0.763671875,-3.46875,3.56640625,3.671875,2.0
3440129,,,,,,,,1.8671875,-0.13671875,7.15234375,-0.62109375,-1.021484375,0.47265625,-3.4296875,-1.22265625,3.67578125,2.0
3440130,36.01304983333333,129.318983,34.527002190509066,72.10507842071321,2.4000000000000004,125.0,,2.109375,-1.078125,7.78125,-3.5390625,-1.958984375,-0.01171875,-6.80078125,-11.296875,-0.65234375,2.0
3440131,,,,,,,,2.2890625,-0.546875,7.6328125,-0.1640625,-0.6484375,0.18359375,-3.046875,-1.6796875,4.2109375,2.0
3440132,,,,,,,,2.49609375,2.68359375,5.62890625,-0.40625,-0.4921875,0.169921875,-2.85546875,1.53515625,2.22265625,2.0
3440133,,,,,,,,2.91796875,3.49609375,4.96875,-0.54296875,-0.498046875,0.107421875,-2.4296875,2.33984375,1.5703125,2.0
3440134,,,,,,,,3.8515625,5.12109375,3.65625,-0.662109375,-0.5078125,0.037109375,-1.515625,3.94921875,0.265625,2.0
3440135,,,,,,,,4.34765625,6.44140625,4.29296875,-0.490234375,-0.595703125,0.076171875,-1.01953125,5.25,0.91796875,2.0
3440136,,,,,,,,5.421875,5.71875,5.09765625,-0.49609375,-0.8125,0.404296875,0.015625,4.52734375,1.76171875,2.0
3440137,,,,,,,,6.9765625,0.6953125,5.6875,-0.306640625,-0.84765625,0.658203125,1.546875,-0.4921875,2.375,2.0
3440138,,,,,,,,7.30078125,-3.02734375,6.3125,-0.18359375,-0.87109375,0.744140625,1.85546875,-4.20703125,3.0234375,2.0
3440139,,,,,,,,7.79296875,-8.64453125,6.765625,-0.1953125,-0.9140625,0.966796875,2.31640625,-9.80078125,3.5234375,2.0
3440140,36.013048000000005,129.318984,34.617151823275734,71.90165349733073,2.3000000000000003,135.0,,7.68359375,-23.609375,10.6171875,-3.5390625,-1.958984375,-0.01171875,-6.80078125,-11.296875,-0.65234375,2.0
3440141,,,,,,,,9.07421875,-40.87109375,12.40234375,-0.5390625,-1.1015625,1.626953125,3.50390625,-41.90234375,9.26953125,2.0
3440142,,,,,,,,6.75390625,-29.78515625,13.98046875,-0.009765625,-0.873046875,0.9296875,1.12890625,-30.75390625,10.91796875,2.0
3440143,,,,,,,,3.0078125,-22.27734375,12.30859375,0.0546875,-0.642578125,0.1484375,-2.625,-23.2421875,9.26953125,2.0
3440144,,,,,,,,-1.9375,-15.07421875,8.30078125,-1.01953125,-0.478515625,-1.951171875,-7.5703125,-16.12109375,5.28515625,2.0
3440145,,,,,,,,-1.1640625,-16.8359375,5.92578125,-1.19921875,-0.23046875,-2.7265625,-6.765625,-18.04296875,2.91015625,2.0
3440146,,,,,,,,-0.6875,-19.94921875,7.14453125,-0.234375,-0.16015625,-1.66015625,-6.265625,-21.29296875,4.13671875,2.0
3440147,,,,,,,,-1.25390625,-21.92578125,8.37109375,-0.134765625,-0.072265625,-0.318359375,-6.80078125,-23.36328125,5.36328125,2.0
3440148,,,,,,,,-0.15234375,-21.5859375,8.40625,-0.0703125,-0.0390625,-0.1015625,-5.69140625,-23.0546875,5.3984375,2.0
3440149,,,,,,,,5.31640625,-19.12109375,7.796875,0.236328125,0.185546875,-0.1640625,-0.21484375,-20.640625,4.7890625,2.0
3440150,36.013046333333335,129.318985,34.70730138691358,71.71672178219814,2.3000000000000003,144.0,,5.71484375,-17.32421875,7.3125,-3.5390625,-1.958984375,-0.01171875,-6.80078125,-11.296875,-0.65234375,2.0
3440151,,,,,,,,5.953125,-16.0,6.953125,0.072265625,0.630859375,-0.095703125,0.4765625,-17.66015625,3.90625,2.0
3440152,,,,,,,,6.12890625,-14.671875,6.73828125,0.109375,0.8125,0.25390625,0.70703125,-16.390625,3.63671875,2.0
3440153,,,,,,,,6.36328125,-11.30859375,5.32421875,0.033203125,0.806640625,0.5,0.97265625,-13.05859375,2.18359375,2.0
3440154,,,,,,,,6.33984375,-8.2265625,4.703125,-0.23046875,0.66796875,0.716796875,0.97265625,-9.99609375,1.53125,2.0
3440155,,,,,,,,6.5078125,-6.3984375,4.24609375,-0.478515625,0.580078125,0.919921875,1.1640625,-8.15625,1.03515625,2.0
3440156,,,,,,,,6.69921875,-5.484375,4.3046875,-0.521484375,0.568359375,1.001953125,1.35546875,-7.234375,1.0703125,2.0
3440157,,,,,,,,7.49609375,-2.8671875,4.4921875,-0.521484375,0.5078125,1.14453125,2.16015625,-4.59765625,1.2265625,2.0
3440158,,,,,,,,8.640625,-0.7890625,4.359375,-0.443359375,0.38671875,1.220703125,3.31640625,-2.484375,1.0703125,2.0
3440159,,,,,,,,9.4453125,1.4765625,4.33984375,-0.298828125,0.29296875,1.140625,4.1171875,-0.1875,1.03515625,2.0
3440160,36.01304316666666,129.3189845,34.662228354617945,71.36535066983069,2.6,167.0,,10.27734375,2.6484375,4.515625,-3.5390625,-1.958984375,-0.01171875,-6.80078125,-11.296875,-0.65234375,2.0
3440161,,,,,,,,11.88671875,3.36328125,4.0078125,-0.35546875,0.068359375,0.76171875,6.5625,1.73046875,0.6875,2.0
3440162,,,,,,,,13.640625,1.64453125,2.21484375,-0.392578125,0.0625,0.408203125,8.328125,0.00390625,-1.11328125,2.0
3440163,,,,,,,,13.94140625,0.84765625,2.140625,-0.404296875,0.03125,0.2265625,8.6328125,-0.80078125,-1.1875,2.0
3440164,,,,,,,,12.46875,0.3046875,3.91015625,-0.896484375,-0.16796875,-0.10546875,7.1796875,-1.375,0.57421875,2.0
3440165,,,,,,,,9.78125,0.87890625,6.29296875,-1.7890625,-0.234375,-0.072265625,4.50390625,-0.80078125,2.94921875,2.0
3440166,,,,,,,,6.0859375,2.00390625,7.45703125,-2.603515625,-0.1484375,-0.1484375,0.8203125,0.34765625,4.09765625,2.0
3440167,,,,,,,,5.2265625,3.16015625,6.0390625,-2.591796875,0.01953125,-0.337890625,-0.0234375,1.53515625,2.640625,2.0
3440168,,,,,,,,5.17578125,5.24609375,3.19140625,-2.404296875,0.109375,-0.46875,-0.05859375,3.64453125,-0.23046875,2.0
3440169,,,,,,,,4.8203125,6.83984375,1.59765625,-2.150390625,0.189453125,-0.61328125,-0.3671875,5.25,-1.87890625,2.0
3440170,36.0130405,129.31898433333333,34.647204715563205,71.06945929842277,2.7,174.0,,4.54296875,6.39453125,2.08203125,-3.5390625,-1.958984375,-0.01171875,-0.59765625,4.83203125,-1.45703125,2.0
3440171,,,,,,,,2.99609375,3.20703125,6.09765625,-2.474609375,-0.044921875,0.134765625,-2.12890625,1.69140625,2.52734375,2.0
3440172,,,,,,,,1.48828125,-2.76953125,9.8046875,-2.412109375,-0.21875,0.583984375,-3.62109375,-4.20703125,6.203125,2.0
3440173,,,,,,,,-8.91796875,-37.90234375,22.15625,-1.95703125,-0.3515625,0.896484375,-14.04296875,-39.26171875,18.5390625,2.0
3440174,,,,,,,,-4.54296875,-58.1953125,17.859375,-1.0234375,-0.318359375,1.009765625,-9.67578125,-59.48828125,14.25,2.0
3440175,,,,,,,,-15.22265625,-45.83984375,15.16015625,-0.158203125,-0.216796875,0.59765625,-20.36328125,-47.11328125,11.56640625,2.0
3440176,,,,,,,,-2.05078125,-19.66796875,12.51953125,-1.294921875,-0.173828125,-0.197265625,-7.18359375,-20.9453125,8.92578125,2.0
3440177,,,,,,,,5.484375,-13.625,2.7109375,-4.515625,-0.732421875,-1.712890625,0.359375,-14.90234375,-0.8828125,2.0
3440178,,,,,,,,5.9375,-16.6328125,8.19921875,-2.30078125,0.283203125,-3.4140625,0.859375,-17.9609375,4.55859375,2.0
3440179,,,,,,,,3.453125,-22.63671875,13.546875,-1.2578125,-1.30859375,-1.8203125,-1.59375,-24.08984375,9.921875,2.0
3440660,36.013057499999995,129.31895233333336,31.7624349727056,72.9557555172457,3.1,65.0,,4.96484375,10.94140625,3.734375,-5.16015625,-1.451171875,1.404296875,1.47265625,-21.140625,7.125,2.0
3440661,,,,,,,,3.8046875,-12.203125,8.59375,-4.8046875,-1.703125,0.916015625,3.5390625,-18.30859375,2.375,2.0
3440662,,,,,,,,5.28125,-9.8984375,5.25,-4.05078125,-1.9609375,0.548828125,2.23828125,-15.9296875,1.72265625,2.0
3440663,,,,,,,,0.08984375,-3.8671875,4.90234375,-3.712890625,-2.615234375,0.240234375,-2.89453125,-10.56640625,1.0703125,2.0
3440664,,,,,,,,-0.93359375,-2.43359375,4.5390625,-3.904296875,-2.5390625,0.2578125,-3.39453125,-10.30078125,0.6484375,2.0
3440665,,,,,,,,-4.05859375,-0.5,2.67578125,-4.470703125,-2.216796875,0.177734375,-7.453125,-7.8046875,-1.41796875,2.0
3440666,,,,,,,,-5.3515625,0.11328125,2.42578125,-4.734375,-2.087890625,0.1796875,-8.140625,-7.50390625,-1.5703125,2.0
3440667,,,,,,,,-6.21484375,0.484375,2.5,-4.8125,-1.98828125,0.380859375,-8.828125,-6.23828125,-1.41796875,2.0
3440668,,,,,,,,-6.58984375,1.42578125,2.87890625,-4.841796875,-1.787109375,0.552734375,-8.91015625,-5.51171875,-1.53515625,2.0
3440669,,,,,,,,-6.578125,2.63671875,3.21484375,-4.486328125,-1.376953125,0.9140625,-8.640625,-2.0625,-1.37890625,2.0
3440670,36.013058,129.3189555,32.0479060385317,73.01123617633544,3.1,68.0,,4.96484375,10.94140625,3.734375,-3.015625,-1.287109375,1.095703125,-7.9140625,0.08203125,-1.34375,2.0
3440671,,,,,,,,-4.390625,8.703125,4.1328125,-1.931640625,-1.158203125,1.224609375,-7.109375,1.84375,-1.1484375,2.0
3440672,,,,,,,,-3.21484375,9.49609375,4.41015625,-1.16796875,-1.0390625,1.18359375,-6.0703125,2.76171875,-0.95703125,2.0
3440673,,,,,,,,-3.50390625,7.46484375,5.12890625,-0.90234375,-0.98828125,0.91796875,-6.49609375,0.80859375,-0.26953125,2.0
3440674,,,,,,,,-3.70703125,5.71875,6.0625,-0.998046875,-0.9140625,0.52734375,-6.796875,-0.875,0.6484375,2.0
3440675,,,,,,,,-3.33984375,5.6484375,6.890625,-0.75,-0.7578125,0.265625,-6.53515625,-0.875,1.453125,2.0
3440676,,,,,,,,-2.39453125,5.640625,7.49609375,-0.458984375,-0.708984375,0.208984375,-5.609375,-0.875,2.06640625,2.0
3440677,,,,,,,,-0.05859375,6.3203125,7.2734375,0.17578125,-0.65234375,0.154296875,-3.3125,-0.1875,1.875,2.0
3440678,,,,,,,,1.66796875,6.98046875,6.8984375,0.8515625,-0.59765625,0.087890625,-1.62890625,0.42578125,1.5703125,2.0
3440679,,,,,,,,3.8046875,8.19921875,6.9921875,1.494140625,-0.572265625,-0.03515625,0.4765625,1.53515625,1.83984375,2.0
3440680,36.01305816666666,129.31895883333334,32.34840204266308,73.02973048378112,3.0,74.0,,6.01171875,9.828125,7.83984375,1.552734375,-0.59375,-0.01171875,2.66015625,3.0703125,2.83203125,2.0
3440681,,,,,,,,8.21875,10.2578125,8.88671875,1.451171875,-0.5625,0.048828125,4.84765625,3.4140625,4.01953125,2.0
3440682,,,,,,,,8.234375,9.9921875,9.171875,1.328125,-0.51171875,0.1171875,4.84765625,3.109375,4.3671875,2.0
3440683,,,,,,,,6.609375,6.54296875,9.59765625,0.7890625,-0.44921875,0.44140625,3.1953125,-0.37890625,4.8984375,2.0
3440684,,,,,,,,5.8671875,4.4921875,9.015625,0.396484375,-0.451171875,0.732421875,2.4296875,-2.4453125,4.37109375,2.0
3440685,,,,,,,,5.96875,-8.234375,7.65625,-0.201171875,-0.455078125,1.73046875,2.390625,-15.12890625,3.0625,2.0
3440686,,,,,,,,11.83203125,-39.42578125,12.69140625,-0.302734375,-0.615234375,2.447265625,8.09765625,-46.2265625,8.12109375,2.0
3440687,,,,,,,,17.10546875,-53.234375,17.2421875,-0.423828125,-0.76953125,2.70703125,13.26953125,-59.98828125,12.6796875,2.0
3440688,,,,,,,,13.671875,-18.8203125,17.01953125,-0.2421875,-0.7890625,2.685546875,9.6328125,-25.46875,12.48828125,2.0
3440689,,,,,,,,2.44140625,-4.50390625,8.17578125,-0.56640625,-0.55859375,-0.54296875,-1.78515625,-11.06640625,3.71484375,2.0
3440690,36.013058,129.318962,32.63387337687275,73.01123833354976,3.1,83.0,,-6.625,-4.1796875,6.34765625,-2.771484375,0.03515625,-4.189453125,-10.671875,-10.796875,1.80078125,2.0
3440691,,,,,,,,-7.57421875,-6.76171875,6.9921875,-2.23828125,-0.384765625,-4.087890625,-11.32421875,-13.44140625,2.296875,2.0
3440692,,,,,,,,-1.6171875,-11.02734375,7.4453125,-0.16015625,-0.732421875,-1.349609375,-5.1953125,-17.765625,2.71875,2.0
3440693,,,,,,,,-1.31640625,-10.84375,7.64453125,0.6640625,-0.62109375,0.146484375,-4.88671875,-17.6171875,2.94921875,2.0
3440694,,,,,,,,-0.82421875,-10.58203125,7.609375,1.06640625,-0.181640625,1.267578125,-3.8515625,-16.77734375,2.83203125,2.0
3440695,,,,,,,,0.86328125,-8.0625,7.1171875,0.689453125,0.171875,0.5625,-1.9765625,-14.36328125,2.48828125,2.0
3440696,,,,,,,,4.1796875,-6.8515625,6.85546875,1.060546875,0.59765625,0.490234375,0.4375,-13.71484375,2.44921875,2.0
3440697,,,,,,,,6.546875,-6.02734375,7.58203125,1.357421875,0.81640625,0.865234375,2.8125,-12.94140625,3.25390625,2.0
3440698,,,,,,,,7.88671875,-5.35546875,8.5078125,1.3359375,0.84375,1.06640625,4.15234375,-12.29296875,4.2109375,2.0
3440699,,,,,,,,7.58984375,-4.92578125,7.49609375,0.966796875,0.794921875,1.19140625,3.80859375,-11.90625,3.33203125,2.0
3440700,36.01305783333333,129.318965,32.904319912135826,72.99274613413323,2.9000000000000004,87.0,0.0,6.09765625,-1.8125,4.60546875,0.306640625,0.669921875,0.83984375,2.27734375,-8.80859375,0.49609375,2.0
3440701,,,,,,,,5.75390625,2.171875,3.42578125,0.083984375,0.494140625,0.951171875,1.89453125,-4.82421875,-0.65234375,2.0
3440702,,,,,,,,5.9140625,2.890625,3.72265625,0.095703125,0.408203125,1.109375,2.046875,-4.09765625,-0.34765625,2.0
3440703,,,,,,,,6.7421875,5.83203125,5.90625,0.009765625,0.1953125,1.5078125,2.77734375,-1.10546875,1.875,2.0
3440704,,,,,,,,7.01171875,6.95703125,6.25390625,-0.046875,0.091796875,1.5,3.00390625,0.04296875,2.22265625,2.0
3440705,,,,,,,,8.35546875,11.0859375,5.26171875,-0.18359375,-0.208984375,0.943359375,4.23046875,4.21875,1.26171875,2.0
3440706,,,,,,,,9.12890625,13.390625,2.97265625,-0.1640625,-0.322265625,0.373046875,4.95703125,6.55859375,-0.99609375,2.0
3440707,,,,,,,,9.59765625,13.734375,1.921875,-0.146484375,-0.380859375,0.140625,5.41796875,6.8984375,-2.03125,2.0
3440708,,,,,,,,9.8359375,12.82421875,1.19921875,-0.23046875,-0.390625,-0.01953125,5.6484375,5.98046875,-2.72265625,2.0
3440709,,,,,,,,9.828125,11.8671875,0.95703125,-0.267578125,-0.373046875,0.07421875,5.65234375,5.0234375,-2.94921875,2.0
3440710,36.01305716666666,129.31896783333335,33.15974185387963,72.91877426581274,2.7,93.0,,9.390625,6.95703125,0.94140625,0.306640625,0.669921875,0.83984375,2.27734375,-8.80859375,0.49609375,2.0
3440711,,,,,,,,8.52734375,2.6953125,1.4609375,-0.458984375,-0.25390625,1.236328125,4.265625,-4.09375,-2.4140625,2.0
3440712,,,,,,,,8.06640625,1.828125,2.03515625,-0.654296875,-0.181640625,1.595703125,3.76953125,-4.9375,-1.83984375,2.0
3440713,,,,,,,,7.02734375,0.5703125,3.25390625,-1.20703125,-0.041015625,2.197265625,2.62109375,-6.0859375,-0.65234375,2.0
3440714,,,,,,,,5.25390625,0.390625,6.3046875,-2.404296875,0.21875,2.490234375,0.62890625,-6.0078125,2.2578125,2.0
3440715,,,,,,,,3.33984375,1.76953125,8.24609375,-2.96484375,0.53515625,2.04296875,-1.40234375,-4.40234375,4.01953125,2.0
3440716,,,,,,,,3.83203125,2.34375,7.20703125,-2.994140625,0.671875,1.587890625,-0.94140625,-3.75,2.91015625,2.0
3440717,,,,,,,,5.82421875,5.40625,4.71484375,-2.244140625,0.83203125,0.185546875,1.046875,-0.53125,0.23046875,2.0
3440718,,,,,,,,7.390625,7.2890625,3.3359375,-1.490234375,0.6328125,-1.85546875,2.77734375,1.3828125,-1.3046875,2.0
3440719,,,,,,,,8.80859375,7.61328125,3.765625,-1.650390625,0.470703125,-2.3125,4.26953125,1.69140625,-0.921875,2.0
3440720,36.01305683333333,129.318971,33.44521326405899,72.88178893391391,2.9000000000000004,97.0,,4.625,-7.78515625,12.4296875,0.306640625,0.669921875,0.83984375,0.3984375,-13.74609375,7.546875,2.0
3440721,,,,,,,,-8.01171875,-60.6015625,18.78125,-3.04296875,0.25390625,1.36328125,-11.97265625,-66.34765625,13.484375,2.0
3440722,,,,,,,,-10.6328125,-45.36328125,17.15625,-1.759765625,0.181640625,1.6328125,-14.6171875,-51.01953125,11.796875,2.0
3440723,,,,,,,,2.0546875,-0.85546875,2.58203125,-4.650390625,1.076171875,-1.517578125,-1.8984375,-6.3515625,-2.94921875,2.0
3440724,,,,,,,,5.8046875,-6.5390625,-3.27734375,-6.447265625,1.203125,-3.662109375,1.96875,-11.94921875,-8.96484375,2.0
3440725,,,,,,,,4.88671875,-16.171875,3.76953125,-4.294921875,0.2109375,-4.6328125,1.35546875,-21.4453125,-2.22265625,2.0
3440726,,,,,,,,3.140625,-19.4609375,10.47265625,-3.048828125,-0.623046875,-3.53125,-0.2890625,-24.70703125,4.40234375,2.0
3440727,,,,,,,,0.41796875,-25.32421875,14.84375,-3.181640625,-1.595703125,1.1328125,-3.01171875,-30.41015625,8.65625,2.0
3440728,,,,,,,,0.91796875,-23.82421875,12.01171875,-3.42578125,-1.701171875,1.634765625,-2.58984375,-28.796875,5.78515625,2.0
3440729,,,,,,,,0.4609375,-17.04296875,6.84765625,-3.724609375,-1.787109375,0.380859375,-3.203125,-21.7890625,0.53515625,2.0
3440730,36.0130565,129.31897433333333,33.7457094827364,72.8448036691365,3.0,99.0,,-0.609375,-13.68359375,8.0234375,-4.18359375,-1.693359375,-0.80078125,0.3984375,-13.74609375,7.546875,2.0
3440731,,,,,,,,-0.33203125,-10.984375,7.56640625,-4.37890625,-1.658203125,-0.51953125,-4.16015625,-15.20703125,0.99609375,2.0
3440732,,,,,,,,-0.8359375,-9.078125,6.31640625,-4.248046875,-1.65234375,-0.37109375,-4.6953125,-13.17578125,-0.30859375,2.0
3440733,,,,,,,,-1.046875,-6.28125,5.21484375,-4.3046875,-1.81640625,-0.314453125,-5.0,-10.1484375,-1.49609375,2.0
3440734,,,,,,,,-1.0078125,-5.1015625,5.33203125,-4.333984375,-1.892578125,-0.322265625,-5.0,-8.84765625,-1.41796875,2.0
3440735,,,,,,,,-2.5625,-4.52734375,6.20703125,-3.8984375,-2.15234375,0.201171875,-6.7265625,-7.92578125,-0.61328125,2.0
3440736,,,,,,,,-4.7578125,-4.609375,7.03515625,-3.384765625,-2.0078125,0.6171875,-9.140625,-7.65625,0.19140625,2.0
3440737,,,,,,,,-5.0078125,-4.3515625,7.6484375,-3.154296875,-1.775390625,0.73828125,-9.52734375,-7.1953125,0.8046875,2.0
3440738,,,,,,,,-3.76953125,-0.51171875,7.9140625,-2.94140625,-1.548828125,0.724609375,-8.40625,-3.13671875,1.0703125,2.0
3440739,,,,,,,,-3.109375,0.78125,7.41796875,-2.7890625,-1.412109375,0.66796875,-7.796875,-1.7578125,0.57421875,2.0
3440740,36.01305466666667,129.31897683333332,33.971082327320694,72.6413792595282,2.8000000000000003,107.0,,-1.4140625,3.67578125,6.48828125,-2.373046875,-1.154296875,0.462890625,-6.19140625,1.30859375,-0.34765625,2.0
3440741,,,,,,,,0.02734375,5.234375,6.92578125,-1.654296875,-0.90625,0.361328125,-4.84765625,3.03125,0.11328125,2.0
3440742,,,,,,,,0.35546875,4.0390625,7.8828125,-1.470703125,-0.85546875,0.4296875,-4.5390625,1.8828125,1.0703125,2.0
3440743,,,,,,,,0.01171875,1.21484375,10.07421875,-0.7890625,-0.68359375,0.548828125,-4.96484375,-0.83984375,3.29296875,2.0
3440744,,,,,,,,-0.484375,0.04296875,12.609375,-0.447265625,-0.55078125,0.44140625,-5.5,-1.98828125,5.859375,2.0
3440745,,,,,,,,1.53125,2.03515625,11.0859375,-0.041015625,-0.306640625,0.048828125,-3.5078125,0.00390625,4.3671875,2.0
3440746,,,,,,,,1.53125,2.05859375,11.078125,0.330078125,-0.072265625,-0.552734375,-2.93359375,1.0390625,3.6015625,2.0
3440747,,,,,,,,2.6640625,4.12890625,9.52734375,0.517578125,-0.0625,-0.94140625,-0.828125,3.640625,1.41796875,2.0
3440748,,,,,,,,4.96875,6.61328125,7.390625,0.576171875,-0.1328125,-0.763671875,0.74609375,5.17578125,0.15234375,2.0
3440749,,,,,,,,5.73046875,7.48046875,6.79296875,0.537109375,-0.1953125,-0.51171875,1.47265625,5.55859375,-0.3828125,2.0
3440750,36.01305283333333,129.31897866666668,34.13635596537337,72.43795462222064,2.7,118.0,,-1.4140625,3.67578125,6.48828125,0.326171875,-0.421875,0.162109375,3.34765625,4.87109375,0.53515625,2.0
3440751,,,,,,,,8.87109375,3.97265625,8.5234375,0.04296875,-0.662109375,0.90234375,3.88671875,1.53515625,1.953125,2.0
3440752,,,,,,,,8.38671875,-6.0390625,11.203125,0.009765625,-0.7578125,1.5234375,3.34765625,-8.46484375,4.671875,2.0
3440753,,,,,,,,8.45703125,-10.96484375,11.70703125,-0.001953125,-0.763671875,1.81640625,3.38671875,-13.36328125,5.20703125,2.0
3440754,,,,,,,,7.03515625,-38.03515625,23.30859375,-0.240234375,-0.80859375,2.291015625,1.89453125,-40.3671875,16.85546875,2.0
3440755,,,,,,,,11.6875,-57.98046875,25.734375,-0.861328125,-0.798828125,2.234375,6.453125,-60.21484375,19.34375,2.0
3440756,,,,,,,,9.07421875,-23.72265625,22.26953125,-0.6640625,-0.4296875,1.0,3.73046875,-25.77734375,15.93359375,2.0
3440757,,,,,,,,0.03515625,-9.81640625,13.89453125,-1.025390625,-0.06640625,-0.943359375,-5.30859375,-11.8671875,7.58203125,2.0
3440758,,,,,,,,-4.27734375,-8.421875,13.21484375,-1.91796875,0.1015625,-2.55859375,-9.59765625,-10.49609375,6.89453125,2.0
3440759,,,,,,,,-5.0234375,-13.9453125,9.64453125,-2.287109375,-0.224609375,-3.517578125,-10.25,-16.0859375,3.29296875,2.0
3440760,36.01305133333334,129.3189805,34.30162946621484,72.2715164021528,2.6,127.0,,-5.8359375,-17.55859375,12.140625,-0.533203125,-0.306640625,0.50390625,-11.015625,-19.80078125,5.8203125,2.0
3440761,,,,,,,,-2.55859375,-16.9765625,11.3125,-0.2421875,-0.19921875,0.951171875,-7.76171875,-19.1875,5.015625,2.0
3440762,,,,,,,,1.7421875,-16.66796875,11.47265625,0.34765625,0.099609375,0.630859375,-3.46875,-18.87890625,5.20703125,2.0
3440763,,,,,,,,2.40625,-15.95703125,11.56640625,0.935546875,0.501953125,0.484375,-2.78125,-18.23046875,5.32421875,2.0
3440764,,,,,,,,3.2109375,-13.3125,11.40625,0.93359375,0.82421875,0.515625,-1.9375,-15.66796875,5.171875,2.0
3440765,,,,,,,,2.7734375,-11.6328125,10.1484375,0.662109375,0.9375,0.482421875,-2.3203125,-14.0546875,3.90625,2.0
3440766,,,,,,,,2.75,-10.3125,8.203125,0.6171875,0.822265625,0.48828125,-2.28125,-12.79296875,1.953125,2.0
3440767,,,,,,,,2.51953125,-9.1015625,8.00390625,0.580078125,0.728515625,0.59375,-2.47265625,-11.64453125,1.76171875,2.0
3440768,,,,,,,,2.6953125,-8.5859375,8.109375,0.55859375,0.6796875,0.701171875,-2.28125,-11.14453125,1.875,2.0
3440769,,,,,,,,3.92578125,-7.09375,8.140625,0.51953125,0.5390625,0.939453125,-1.01953125,-9.6875,1.9140625,2.0
3440770,36.01304883333333,129.31898183333334,34.42182899176913,71.99411876554578,2.5,137.0,,6.02734375,-4.84765625,7.62890625,-0.533203125,-0.306640625,0.50390625,1.08984375,-7.4609375,1.41796875,2.0
3440771,,,,,,,,7.359375,-3.19921875,7.40625,0.482421875,0.140625,0.796875,2.4296875,-5.85546875,1.2265625,2.0
3440772,,,,,,,,9.92578125,-0.52734375,7.09765625,0.439453125,-0.107421875,0.580078125,4.9921875,-3.21484375,0.95703125,2.0
3440773,,,,,,,,10.66796875,0.68359375,6.99609375,0.47265625,-0.244140625,0.47265625,5.71875,-2.02734375,0.87890625,2.0
3440774,,,,,,,,12.484375,3.57421875,6.78125,0.580078125,-0.48828125,0.29296875,7.5234375,0.80859375,0.7265625,2.0
3440775,,,,,,,,12.9609375,5.4765625,6.04296875,0.732421875,-0.939453125,0.04296875,7.9453125,2.609375,0.11328125,2.0
3440776,,,,,,,,13.65234375,4.99609375,4.75390625,0.716796875,-1.0625,-0.203125,8.59375,2.03515625,-1.07421875,2.0
3440777,,,,,,,,12.7734375,3.51171875,4.421875,0.36328125,-0.724609375,-0.400390625,7.68359375,0.42578125,-1.265625,2.0
3440778,,,,,,,,11.32421875,2.59375,4.65234375,0.04296875,-0.61328125,-0.361328125,6.21875,-0.53125,-0.99609375,2.0
3440779,,,,,,,,8.22265625,2.6484375,5.5390625,-1.064453125,-0.4453125,-0.236328125,3.12109375,-0.4921875,-0.078125,2.0
3440780,36.01304616666666,129.31898216666664,34.451879759630586,71.69822756947855,2.5,150.0,,6.52734375,3.6640625,7.4609375,-0.533203125,-0.306640625,0.50390625,1.43359375,0.578125,1.8359375,2.0
3440781,,,,,,,,3.6015625,4.875,11.078125,-3.548828125,-0.095703125,-0.2109375,-1.4765625,1.921875,5.3984375,2.0
3440782,,,,,,,,5.03125,6.39453125,6.58984375,-3.70703125,0.013671875,-0.248046875,-0.0234375,3.60546875,0.83984375,2.0
3440783,,,,,,,,5.7890625,6.8046875,5.51953125,-2.203125,-0.015625,-0.357421875,0.78125,4.18359375,-0.30859375,2.0
3440784,,,,,,,,6.46484375,6.8359375,4.5859375,-2.26953125,-0.244140625,-0.1875,1.47265625,4.30078125,-1.265625,2.0
3440785,,,,,,,,5.96484375,5.875,5.109375,-2.521484375,-0.427734375,0.26171875,0.97265625,3.4921875,-0.765625,2.0
3440786,,,,,,,,5.8203125,4.30078125,6.578125,-2.71875,-0.501953125,0.455078125,0.8203125,1.99609375,0.6875,2.0
3440787,,,,,,,,5.96875,0.7578125,7.31640625,-3.0546875,-0.64453125,0.953125,0.9375,-1.375,1.4140625,2.0
3440788,,,,,,,,1.8671875,-14.1328125,18.81640625,-3.103515625,-0.77734375,1.673828125,-3.203125,-16.046875,12.91015625,2.0
3440789,,,,,,,,-5.1015625,-40.5625,32.63671875,-2.845703125,-0.8203125,2.478515625,-10.25,-42.2109375,26.73828125,2.0
3440790,36.0130435,129.31898366666667,34.587104178810094,71.40233678810563,3.0,156.0,,-5.61328125,-60.79296875,10.37109375,-0.533203125,-0.306640625,0.50390625,1.43359375,0.578125,1.8359375,2.0
3440791,,,,,,,,-6.76171875,-15.3515625,11.74609375,-1.1640625,-0.666015625,-0.31640625,-12.05078125,-16.8515625,6.01171875,2.0
3440792,,,,,,,,-0.125,-13.59765625,5.53515625,-4.5234375,-0.8046875,-1.552734375,-5.421875,-15.05078125,-0.19140625,2.0
3440793,,,,,,,,5.6328125,-13.921875,1.07421875,-5.458984375,-0.1171875,-3.52734375,0.359375,-15.24609375,-4.67578125,2.0
3440794,,,,,,,,7.43359375,-15.34765625,6.33203125,-2.5078125,-0.830078125,-2.4140625,2.19921875,-16.65625,0.57421875,2.0
3440795,,,,,,,,8.1953125,-20.45703125,13.1328125,-2.173828125,-1.39453125,0.244140625,2.9296875,-21.75390625,7.4296875,2.0
3440796,,,,,,,,6.46875,-22.3671875,13.25390625,-2.220703125,-1.474609375,1.46484375,1.1640625,-23.59765625,7.58203125,2.0
3440797,,,,,,,,4.6484375,-22.62109375,9.34765625,-3.447265625,-1.654296875,2.060546875,-0.75,-23.62890625,3.75390625,2.0
3440798,,,,,,,,2.68359375,-18.73046875,7.53515625,-4.173828125,-2.134765625,0.775390625,-2.85546875,-19.375,2.06640625,2.0
3440799,,,,,,,,2.0390625,-16.90234375,7.03125,-4.126953125,-2.4140625,0.560546875,-3.546875,-17.4609375,1.609375,2.0
3440800,36.013041333333334,129.31898416666667,34.63217954466108,71.16192527340307,2.7,160.0,0.0,1.34765625,-13.08203125,6.96484375,-3.546875,-2.74609375,0.654296875,-4.42578125,-13.359375,1.76171875,2.0
3440801,,,,,,,,-1.26171875,-11.0859375,5.640625,-3.056640625,-2.5546875,0.71484375,-7.22265625,-11.14453125,0.6875,2.0
3440802,,,,,,,,-1.63671875,-8.4765625,4.91796875,-2.837890625,-2.2578125,0.67578125,-7.68359375,-8.42578125,0.11328125,2.0
3440803,,,,,,,,-1.55859375,-3.875,5.3828125,-2.765625,-1.689453125,0.90625,-7.71875,-3.6328125,0.765625,2.0
3440804,,,,,,,,-0.8515625,-1.01171875,5.76953125,-2.51171875,-1.365234375,0.908203125,-7.07421875,-0.64453125,1.26171875,2.0
3440805,,,,,,,,0.55078125,3.18359375,5.2265625,-2.076171875,-1.064453125,0.7109375,-5.6875,3.64453125,0.8046875,2.0
3440806,,,,,,,,1.109375,3.796875,4.6875,-1.79296875,-0.94140625,0.576171875,-5.16015625,4.296875,0.3046875,2.0
3440807,,,,,,,,2.20703125,4.29296875,3.31640625,-1.30859375,-0.7421875,0.19140625,-4.08203125,4.83203125,-0.99609375,2.0
3440808,,,,,,,,1.1796875,-2.2109375,4.42578125,-0.994140625,-0.544921875,-0.048828125,-5.1171875,-1.6796875,0.15234375,2.0
3440809,,,,,,,,0.99609375,-5.4609375,6.1484375,-1.255859375,-0.439453125,-0.142578125,-5.3046875,-4.9375,1.9140625,2.0
3441300,36.013055333333334,129.31895566666665,32.062931921965166,72.71534491634968,3.0,70.0,0.0,-1.4375,-12.21484375,-5.93359375,-3.083984375,-1.30859375,1.17578125,-1.4375,-12.21484375,3.8671875,2.0
3441301,,,,,,,,-10.51953125,-15.1640625,-7.12109375,-1.822265625,0.455078125,-4.0625,-10.51953125,-15.16796875,2.6796875,2.0
3441302,,,,,,,,-11.20703125,-17.04296875,-7.00390625,-3.033203125,-0.416015625,-5.58203125,-11.20703125,-17.0390625,2.796875,2.0
3441303,,,,,,,,-5.9609375,-19.1875,-6.27734375,-0.966796875,-0.75,-3.556640625,-5.9609375,-19.19140625,3.5234375,2.0
3441304,,,,,,,,-5.76953125,-18.0390625,-7.1953125,0.646484375,-0.048828125,0.255859375,-5.76953125,-18.04296875,2.60546875,2.0
3441305,,,,,,,,-3.23828125,-15.43359375,-5.05078125,-0.0234375,-0.470703125,0.087890625,-3.23828125,-15.4296875,4.75,2.0
3441306,,,,,,,,0.32421875,-14.4765625,-1.94921875,-0.18359375,-0.345703125,-0.03515625,0.32421875,-14.48046875,7.8515625,2.0
3441307,,,,,,,,4.26953125,-13.7109375,-2.140625,0.4765625,0.181640625,0.34375,4.26953125,-13.7109375,7.66015625,2.0
3441308,,,,,,,,4.23046875,-12.828125,-4.4375,0.474609375,0.533203125,0.357421875,4.23046875,-12.828125,5.36328125,2.0
3441309,,,,,,,,3.15625,-11.52734375,-7.80859375,-0.0703125,0.630859375,0.16015625,3.15625,-11.5234375,1.9921875,2.0
3441310,36.013055666666666,129.31895783333331,32.258254236867344,72.75233204608774,2.5,74.0,,2.890625,-9.53515625,-8.8046875,-0.07421875,0.53515625,0.2421875,2.890625,-9.53125,0.99609375,2.0
3441311,,,,,,,,-1.19140625,1.43359375,1.6484375,-0.048828125,0.353515625,0.6171875,1.77734375,-8.34375,2.640625,2.0
3441312,,,,,,,,-1.9453125,2.64453125,3.265625,-0.23828125,0.240234375,1.08984375,0.9375,-7.15625,4.25,2.0
3441313,,,,,,,,-1.6171875,3.04296875,2.890625,-0.38671875,0.197265625,1.259765625,1.203125,-6.77734375,3.8671875,2.0
3441314,,,,,,,,-0.7265625,4.76953125,1.828125,-0.619140625,0.193359375,1.1484375,1.96875,-5.08984375,2.7578125,2.0
3441315,,,,,,,,0.6328125,8.75390625,0.2734375,-0.587890625,0.052734375,0.748046875,3.234375,-1.14453125,1.1484375,2.0
3441316,,,,,,,,1.453125,11.3671875,0.05859375,-0.466796875,-0.158203125,0.443359375,4.0,1.4609375,0.87890625,2.0
3441317,,,,,,,,1.6171875,16.09375,-1.2109375,-0.46484375,-0.33984375,0.25,4.1171875,6.17578125,-0.4609375,2.0
3441318,,,,,,,,1.74609375,15.90234375,-1.5703125,-0.666015625,-0.421875,0.083984375,4.23046875,5.98046875,-0.8828125,2.0
3441319,,,,,,,,1.90625,13.18359375,-2.01953125,-0.859375,-0.353515625,0.064453125,4.3828125,3.26171875,-1.41796875,2.0
3441320,36.0130555,129.31896049999997,32.49865116933137,72.73383972472512,2.4000000000000004,81.0,,1.72265625,11.0390625,-1.7734375,-0.07421875,0.53515625,0.2421875,2.890625,-9.53125,0.99609375,2.0
3441321,,,,,,,,1.01171875,8.83203125,-0.21484375,-1.1015625,-0.375,0.73828125,3.421875,-1.10546875,0.19140625,2.0
3441322,,,,,,,,-0.015625,8.07421875,1.05078125,-1.3046875,-0.349609375,0.916015625,2.3515625,-1.87109375,1.37890625,2.0
3441323,,,,,,,,-2.265625,8.43359375,3.2734375,-1.759765625,-0.1953125,0.99609375,0.015625,-1.52734375,3.44921875,2.0
3441324,,,,,,,,-2.984375,9.015625,3.55859375,-1.9453125,-0.087890625,0.927734375,-0.75,-0.953125,3.63671875,2.0
3441325,,,,,,,,-3.7109375,10.40234375,3.08203125,-2.064453125,0.17578125,0.599609375,-1.5546875,0.42578125,2.9453125,2.0
3441326,,,,,,,,-3.59375,12.21875,1.1171875,-1.623046875,0.439453125,-0.134765625,-1.4765625,2.26953125,0.7265625,2.0
3441327,,,,,,,,-3.1875,13.0546875,0.11328125,-1.5078125,0.43359375,-0.3203125,-1.0546875,3.11328125,-0.34765625,2.0
3441328,,,,,,,,-2.86328125,13.71875,0.37890625,-1.546875,0.26171875,-0.37109375,-0.63671875,3.83984375,-0.34765625,2.0
3441329,,,,,,,,-2.640625,13.55078125,0.60546875,-1.6015625,0.23046875,-0.2421875,-0.40625,3.68359375,-0.19140625,2.0
3441330,36.01305583333333,129.31896383333333,32.79914711518922,72.77082725630108,2.7,86.0,,-1.8046875,11.55859375,2.00390625,-0.07421875,0.53515625,0.2421875,0.4375,1.7265625,1.03515625,2.0
3441331,,,,,,,,-2.35546875,8.9296875,6.06640625,-1.7734375,0.087890625,0.484375,-0.13671875,-0.875,4.9375,2.0
3441332,,,,,,,,-2.515625,7.07421875,6.42578125,-1.755859375,0.07421875,0.7109375,-0.328125,-2.71484375,5.203125,2.0
3441333,,,,,,,,-7.0390625,-11.56640625,13.81640625,-1.423828125,0.134765625,1.330078125,-5.0,-21.33203125,12.37109375,2.0
3441334,,,,,,,,-5.9375,-41.9921875,17.3125,-1.208984375,0.181640625,1.4609375,-3.96875,-51.75,15.8203125,2.0
3441335,,,,,,,,-10.55859375,-59.671875,10.94140625,0.330078125,0.61328125,1.158203125,-8.79296875,-69.4453125,9.34765625,2.0
3441336,,,,,,,,-9.9140625,-11.96484375,13.51171875,-0.1171875,0.529296875,0.23046875,-8.21875,-21.75390625,11.98828125,2.0
3441337,,,,,,,,-1.79296875,-2.96875,1.4296875,-2.6015625,0.416015625,-0.30078125,-0.09765625,-12.75,-0.15625,2.0
3441338,,,,,,,,-0.02734375,-10.98046875,-3.171875,-4.587890625,1.126953125,-3.328125,1.85546875,-20.640625,-5.171875,2.0
3441339,,,,,,,,1.91796875,-11.80859375,2.171875,-1.859375,0.298828125,-3.64453125,4.15234375,-21.33203125,-0.078125,2.0
3441340,36.01305583333333,129.31896716666668,33.09964319519081,72.77082838334826,2.8000000000000003,89.0,,2.3671875,-16.35546875,13.29296875,-0.07421875,0.53515625,0.2421875,0.4375,1.7265625,1.03515625,2.0
3441341,,,,,,,,-3.23828125,-10.81640625,4.6796875,-2.69140625,-1.2890625,0.3828125,-1.01953125,-20.1796875,1.8359375,2.0
3441342,,,,,,,,-6.796875,-5.8984375,4.03515625,-3.662109375,-1.58984375,-0.515625,-4.6171875,-15.1640625,0.83984375,2.0
3441343,,,,,,,,-6.453125,-5.02734375,4.33984375,-3.984375,-1.662109375,-0.5625,-4.2734375,-14.2421875,0.99609375,2.0
3441344,,,,,,,,-5.16796875,-4.1015625,4.96875,-4.029296875,-1.80078125,-0.341796875,-3.01171875,-13.171875,1.2265625,2.0
3441345,,,,,,,,-4.99609375,-1.8359375,4.421875,-3.6796875,-1.908203125,-0.203125,-2.89453125,-10.7578125,0.3046875,2.0
