time,latitude,longitude,enu_x,enu_y,speed,course,ecg,accX,accY,accZ,gyrX,gyrY,gyrZ,eulR,eulP,eulY,motion
3354550,36.0130435,129.3189925,35.383418916197584,71.40233995935414,2.9000000000000004,39.0,,5.0859375,-19.76953125,-6.66015625,3.28515625,1.546875,-0.02734375,5.0859375,-19.765625,3.13671875,2.0
3354551,,,,,,,,6.1953125,-17.35546875,-4.8984375,4.140625,1.748046875,0.18359375,6.1953125,-17.3515625,4.8984375,2.0
3354552,,,,,,,,3.70703125,-14.05859375,-9.53515625,3.833984375,1.8984375,-0.048828125,3.70703125,-14.05859375,0.265625,2.0
3354553,,,,,,,,3.20703125,-11.5703125,-12.0625,3.404296875,2.068359375,-0.384765625,3.20703125,-11.57421875,-2.26171875,2.0
3354554,,,,,,,,4.01171875,-7.43359375,-15.08984375,3.30859375,1.978515625,-0.31640625,4.01171875,-7.4296875,-5.2890625,2.0
3354555,,,,,,,,4.05078125,-4.98046875,-14.36328125,3.255859375,1.890625,0.34375,4.05078125,-4.9765625,-4.5625,2.0
3354556,,,,,,,,3.66796875,-2.68359375,-12.5625,3.251953125,1.7890625,0.84375,3.6640625,-2.68359375,-2.76171875,2.0
3354557,,,,,,,,3.09375,-1.80078125,-10.80078125,3.181640625,1.48828125,1.673828125,3.09765625,-1.80078125,-1.0,2.0
3354558,,,,,,,,3.3984375,-2.0703125,-10.875,2.94921875,1.16796875,1.904296875,3.3984375,-2.0703125,-1.07421875,2.0
3354559,,,,,,,,3.8984375,-2.03125,-10.72265625,2.63671875,0.880859375,1.65625,3.90234375,-2.03125,-0.921875,2.0
3354560,36.01304583333333,129.31899266666667,35.398442678519956,71.66124491851504,3.0,30.0,,4.5859375,0.0,-10.30078125,2.435546875,0.5078125,1.484375,4.58984375,0.0,-0.5,2.0
3354561,,,,,,,,5.23828125,0.99609375,-10.33984375,2.326171875,0.244140625,1.421875,5.234375,0.99609375,-0.5390625,2.0
3354562,,,,,,,,6.76953125,0.6875,-9.83984375,2.21484375,-0.080078125,1.19140625,6.765625,0.6875,-0.04296875,2.0
3354563,,,,,,,,7.19140625,0.53515625,-9.53515625,2.18359375,-0.15625,1.1484375,7.19140625,0.53515625,0.265625,2.0
3354564,,,,,,,,7.65234375,-0.34765625,-8.69140625,1.994140625,-0.376953125,1.041015625,7.65234375,-0.34765625,1.109375,2.0
3354565,,,,,,,,6.04296875,-1.41796875,-9.421875,1.564453125,-0.58203125,0.794921875,6.0390625,-1.41796875,0.37890625,2.0
3354566,,,,,,,,3.20703125,-0.84375,-9.6875,0.9453125,-0.65625,0.40234375,3.20703125,-0.84375,0.11328125,2.0
3354567,,,,,,,,0.44921875,0.45703125,-8.5390625,0.236328125,-0.5,0.138671875,0.44921875,0.45703125,1.26171875,2.0
3354568,,,,,,,,-0.8515625,1.03125,-7.58203125,-0.1484375,-0.357421875,0.060546875,-0.8515625,1.03125,2.22265625,2.0
3354569,,,,,,,,-2.84375,1.4921875,-6.69921875,-0.71875,-0.080078125,-0.033203125,-2.84375,1.4921875,3.1015625,2.0
3354570,36.0130485,129.318994,35.518639929199864,71.9571367169289,3.1,24.0,,-2.69140625,1.9921875,-6.31640625,-0.521484375,0.181640625,-0.0703125,-2.69140625,1.9921875,3.484375,2.0
3354571,,,,,,,,-1.6953125,2.60546875,-6.43359375,-0.01171875,0.322265625,-0.1484375,-1.6953125,2.60546875,3.37109375,2.0
3354572,,,,,,,,0.02734375,4.13671875,-6.66015625,0.5625,0.49609375,-0.650390625,0.02734375,4.1328125,3.13671875,2.0
3354573,,,,,,,,1.5625,3.79296875,-8.578125,0.8515625,0.5078125,-1.060546875,1.5625,3.79296875,1.22265625,2.0
3354574,,,,,,,,2.48046875,-0.26953125,-8.578125,0.884765625,0.515625,-1.21875,2.4765625,-0.26953125,1.22265625,2.0
3354575,,,,,,,,2.6328125,-4.13671875,-7.65625,0.51171875,0.69140625,-0.66796875,2.6328125,-4.1328125,2.140625,2.0
3354576,,,,,,,,2.48046875,-6.8203125,-7.3515625,0.302734375,0.78125,-0.162109375,2.48046875,-6.82421875,2.44921875,2.0
3354577,,,,,,,,1.59765625,-20.3046875,-5.015625,-0.033203125,0.890625,0.97265625,1.59765625,-20.30859375,4.78515625,2.0
3354578,,,,,,,,1.90625,-55.8515625,-4.25,-0.1875,0.982421875,1.8671875,1.90625,-55.8515625,5.55078125,2.0
3354579,,,,,,,,-19.01171875,-75.390625,17.703125,0.64453125,1.123046875,2.11328125,-19.01171875,-75.39453125,27.5,2.0
3354580,36.01305083333333,129.318995,35.608787709783485,72.21604198202844,2.8000000000000003,21.0,,-13.53125,-38.421875,3.7578125,1.646484375,0.658203125,1.927734375,-13.53125,-38.42578125,13.55859375,2.0
3354581,,,,,,,,7.99609375,-16.3203125,-16.31640625,1.994140625,-0.185546875,0.12890625,7.99609375,-16.3203125,-6.515625,2.0
3354582,,,,,,,,14.69921875,-15.40234375,-19.953125,2.669921875,0.3359375,-3.283203125,14.69921875,-15.3984375,-10.15625,2.0
3354583,,,,,,,,21.09765625,-15.74609375,-15.89453125,3.419921875,0.228515625,-4.48828125,21.09375,-15.74609375,-6.09375,2.0
3354584,,,,,,,,18.109375,-11.5703125,-6.73828125,1.912109375,0.42578125,-2.701171875,18.109375,-11.5703125,3.0625,2.0
3354585,,,,,,,,13.7421875,-15.1328125,-2.29296875,-2.39453125,-0.171875,0.408203125,13.7421875,-15.1328125,7.50390625,2.0
3354586,,,,,,,,8.9140625,-14.13671875,-6.46875,-3.0390625,0.025390625,1.03125,8.9140625,-14.13671875,3.328125,2.0
3354587,,,,,,,,4.2421875,-10.57421875,-9.3046875,-0.75,-0.025390625,0.490234375,4.2421875,-10.5703125,0.49609375,2.0
3354588,,,,,,,,-5.09375,2.78515625,0.8828125,-0.642578125,-0.31640625,0.330078125,-0.8515625,-7.7734375,1.375,2.0
3354589,,,,,,,,-7.67578125,3.52734375,1.0859375,-1.5078125,-0.458984375,0.322265625,-3.45703125,-7.05078125,1.453125,2.0
3354590,36.01305283333333,129.318995,35.608786810312,72.43796046711228,2.4000000000000004,15.0,,-8.85546875,4.35546875,-0.80859375,1.646484375,0.658203125,1.927734375,-4.68359375,-6.2421875,-0.65234375,2.0
3354591,,,,,,,,-9.40625,5.421875,-1.3671875,-1.771484375,-0.48828125,0.6796875,-5.30078125,-5.2109375,-1.421875,2.0
3354592,,,,,,,,-10.34765625,7.32421875,-1.57421875,-1.802734375,-0.234375,0.890625,-6.33203125,-3.33203125,-1.83984375,2.0
3354593,,,,,,,,-10.375,7.59765625,-1.359375,-1.8046875,-0.048828125,1.005859375,-6.40625,-3.06640625,-1.7265625,2.0
3354594,,,,,,,,-10.671875,8.77734375,-0.84375,-1.6484375,0.375,1.271484375,-6.828125,-1.91796875,-1.3828125,2.0
3354595,,,,,,,,-9.91796875,11.046875,0.29296875,-1.298828125,0.642578125,1.484375,-6.2109375,0.3046875,-0.38671875,2.0
3354596,,,,,,,,-9.0859375,12.20703125,1.95703125,-0.865234375,0.74609375,1.50390625,-5.5625,1.41796875,1.18359375,2.0
3354597,,,,,,,,-8.6796875,11.81640625,2.08203125,-0.271484375,0.58984375,1.0546875,-4.30078125,-0.73046875,0.6875,2.0
3354598,,,,,,,,-7.61328125,10.10546875,1.515625,-0.083984375,0.548828125,0.806640625,-3.83984375,-1.53515625,0.2265625,2.0
3354599,,,,,,,,-6.5625,8.28515625,0.3203125,0.248046875,0.48046875,0.38671875,-3.30859375,-2.72265625,-0.76953125,2.0
3354600,36.013054333333336,129.3189935,35.47356289753748,72.60439878397004,2.3000000000000003,0.0,0.0,-8.85546875,4.35546875,-0.80859375,1.646484375,0.658203125,1.927734375,-2.921875,-2.22265625,-1.07421875,2.0
3354601,,,,,,,,-5.83984375,8.8671875,-0.25,0.7890625,0.255859375,0.060546875,-2.58203125,-1.87890625,-0.84765625,2.0
3354602,,,,,,,,-5.71875,8.98046875,-0.17578125,0.998046875,0.232421875,0.013671875,-2.2265625,-1.6484375,0.07421875,2.0
3354603,,,,,,,,-5.171875,9.43359375,1.046875,1.5390625,0.119140625,-0.28515625,-1.84765625,-0.61328125,1.64453125,2.0
3354604,,,,,,,,-4.98828125,10.23828125,2.05078125,1.681640625,0.083984375,-0.408203125,-1.88671875,-0.078125,2.18359375,2.0
3354605,,,,,,,,-5.171875,11.28515625,2.828125,2.236328125,0.099609375,-0.724609375,-2.19140625,1.68359375,3.44921875,2.0
3354606,,,,,,,,-5.4296875,13.33984375,3.234375,2.654296875,0.216796875,-0.865234375,-2.15625,2.94921875,3.51953125,2.0
3354607,,,,,,,,-5.4609375,13.70703125,3.25390625,2.818359375,0.275390625,-0.8828125,-2.0,3.71484375,2.6015625,2.0
3354608,,,,,,,,-5.5234375,14.2578125,2.10546875,2.89453125,0.3515625,-0.828125,-2.84375,3.1015625,3.4453125,2.0
3354609,,,,,,,,-6.3125,13.7421875,2.5546875,2.771484375,0.400390625,-0.736328125,-3.609375,2.06640625,4.29296875,2.0
3354610,36.013056666666664,129.3189935,35.47356185230485,72.86330368266022,2.4000000000000004,356.0,,-6.28515625,-0.78515625,-2.828125,2.357421875,0.630859375,-0.15234375,-2.76953125,-11.30078125,-1.3828125,2.0
3354611,,,,,,,,-4.3828125,-23.2890625,-0.54296875,2.462890625,0.30078125,0.39453125,-0.890625,-33.75,1.18359375,2.0
3354612,,,,,,,,5.640625,-46.78515625,2.14453125,1.45703125,-0.4609375,1.162109375,9.03125,-57.23046875,4.05859375,2.0
3354613,,,,,,,,28.48828125,-61.87890625,39.1171875,1.33984375,-0.328125,0.755859375,31.82421875,-72.3203125,41.1015625,2.0
3354614,,,,,,,,12.84375,-11.0078125,4.828125,2.70703125,0.400390625,-0.283203125,16.15625,-21.4140625,7.0078125,2.0
3354615,,,,,,,,-5.1171875,-6.0625,-1.33984375,2.984375,0.337890625,-2.552734375,-1.6953125,-16.359375,1.14453125,2.0
3354616,,,,,,,,-13.6953125,-8.45703125,-3.375,2.22265625,0.673828125,-4.025390625,-9.9296875,-18.5390625,-0.578125,2.0
3354617,,,,,,,,-5.84375,-12.12890625,-1.2421875,2.53125,0.931640625,-2.61328125,-1.7734375,-22.02734375,1.796875,2.0
3354618,,,,,,,,-1.67578125,-12.4609375,1.078125,4.5390625,1.283203125,-0.033203125,2.48046875,-22.18359375,4.515625,2.0
3354619,,,,,,,,2.91015625,-15.1328125,3.71484375,4.52734375,1.119140625,0.998046875,6.84765625,-24.63671875,7.92578125,2.0
3354620,36.01305883333334,129.31899299999998,35.42848646989915,73.10371519466592,2.3000000000000003,354.0,,1.08984375,-10.67578125,-3.9921875,2.357421875,0.630859375,-0.15234375,4.93359375,-20.03125,0.609375,2.0
3354621,,,,,,,,2.67578125,-7.33203125,-4.0546875,2.767578125,2.0078125,-0.34765625,6.42578125,-16.47265625,1.03125,2.0
3354622,,,,,,,,3.06640625,-6.4140625,-3.73828125,2.86328125,1.990234375,-0.13671875,6.76953125,-15.4765625,1.52734375,2.0
3354623,,,,,,,,2.06640625,-4.6796875,-3.015625,2.787109375,1.890625,0.126953125,5.66015625,-13.6015625,2.5625,2.0
3354624,,,,,,,,1.4453125,-4.3671875,-3.70703125,2.736328125,1.82421875,0.17578125,4.96875,-13.21875,2.02734375,2.0
3354625,,,,,,,,0.140625,-2.62890625,-6.55078125,2.51953125,1.65625,0.1484375,3.4765625,-11.26171875,-0.38671875,2.0
3354626,,,,,,,,0.16015625,2.58984375,-8.69921875,2.736328125,1.4453125,0.830078125,3.20703125,-5.74609375,-1.99609375,2.0
3354627,,,,,,,,0.140625,4.9609375,-8.640625,2.8203125,1.35546875,1.0390625,3.09375,-3.30078125,-1.8046875,2.0
3354628,,,,,,,,-0.27734375,7.41796875,-8.1015625,2.724609375,1.224609375,1.423828125,2.48046875,-0.69140625,-1.0,2.0
3354629,,,,,,,,-0.4375,8.296875,-7.95703125,2.517578125,1.16015625,1.556640625,2.2109375,0.265625,-0.73046875,2.0
3354630,36.01306,129.31899033333332,35.1880890967942,73.23316667870834,2.5,333.0,,-0.27734375,9.3203125,-8.125,1.763671875,0.97265625,1.560546875,2.0546875,1.453125,-0.6171875,2.0
3354631,,,,,,,,0.45703125,9.1953125,-8.01171875,1.384765625,0.71875,1.259765625,2.515625,1.453125,-0.30859375,2.0
3354632,,,,,,,,2.41015625,7.2734375,-8.11328125,1.333984375,0.611328125,1.16015625,4.390625,-0.421875,-0.34765625,2.0
3354633,,,,,,,,4.73828125,5.78125,-7.55859375,1.56640625,0.248046875,0.654296875,6.5,-1.7265625,0.41796875,2.0
3354634,,,,,,,,5.34375,5.52734375,-7.3515625,1.646484375,0.21875,0.525390625,7.078125,-1.91796875,0.6875,2.0
3354635,,,,,,,,5.3203125,5.671875,-6.62890625,1.720703125,0.248046875,0.2578125,7.0,-1.6484375,1.52734375,2.0
3354636,,,,,,,,4.6640625,6.265625,-6.125,1.423828125,0.25,-0.021484375,6.3125,-0.921875,2.140625,2.0
3354637,,,,,,,,4.09765625,6.59375,-5.98046875,1.130859375,0.212890625,-0.171875,5.73828125,-0.5390625,2.33203125,2.0
3354638,,,,,,,,1.52734375,8.74609375,-5.51953125,0.36328125,0.205078125,-0.51171875,3.16796875,1.68359375,2.83203125,2.0
3354639,,,,,,,,0.32421875,9.49609375,-5.14453125,-0.140625,0.201171875,-0.693359375,1.98046875,2.44921875,3.21484375,2.0
3354640,36.013061500000006,129.31898783333332,34.962716387143274,73.39960464300695,2.6,314.0,,-5.3828125,11.63671875,-1.7265625,1.763671875,0.97265625,1.560546875,-3.6875,4.55859375,6.58984375,2.0
3354641,,,,,,,,-7.046875,12.25,-2.70703125,-1.30078125,0.275390625,-1.16796875,-5.296875,5.09375,5.51171875,2.0
3354642,,,,,,,,-3.32421875,8.51953125,-6.09765625,0.46484375,0.4296875,-0.244140625,-1.54296875,1.33984375,2.0625,2.0
3354643,,,,,,,,-1.91796875,1.80078125,-6.71875,0.775390625,0.443359375,0.703125,-0.19921875,-5.32421875,1.4921875,2.0
3354644,,,,,,,,-2.890625,-12.7421875,-3.34375,0.513671875,0.525390625,1.541015625,-1.3515625,-19.80859375,4.9375,2.0
3354645,,,,,,,,-4.84375,-39.93359375,5.23046875,0.01953125,0.53515625,2.095703125,-3.5703125,-47.00390625,13.51953125,2.0
3354646,,,,,,,,-11.69140625,-47.765625,10.24609375,1.009765625,0.4375,2.345703125,-10.62109375,-54.8203125,18.57421875,2.0
3354647,,,,,,,,-1.51953125,-14.4921875,-0.2109375,1.5,-0.1015625,-0.396484375,-0.62109375,-21.4140625,8.234375,2.0
3354648,,,,,,,,5.6015625,-6.58984375,-11.0625,2.41796875,0.435546875,-3.498046875,6.6171875,-13.328125,-2.4921875,2.0
3354649,,,,,,,,10.99609375,-8.48828125,-7.296875,1.673828125,0.30078125,-3.775390625,12.36328125,-14.859375,1.4921875,2.0
3354650,36.013064,129.31898366666667,34.5870952230501,73.67700126342196,2.4000000000000004,300.0,,-4.75,7.1640625,-8.4296875,0.40234375,0.126953125,0.240234375,-3.2265625,-0.5390625,-0.8828125,2.0
3354651,,,,,,,,-4.75,7.1640625,-8.4296875,0.40234375,0.126953125,0.240234375,-3.2265625,-0.5390625,-0.8828125,2.0
3354652,,,,,,,,-4.75,7.1640625,-8.4296875,0.40234375,0.126953125,0.240234375,-3.2265625,-0.5390625,-0.8828125,2.0
3354653,,,,,,,,-4.75,7.1640625,-8.4296875,0.40234375,0.126953125,0.240234375,-3.2265625,-0.5390625,-0.8828125,2.0
3354654,,,,,,,,-4.75,7.1640625,-8.4296875,0.40234375,0.126953125,0.240234375,-3.2265625,-0.5390625,-0.8828125,2.0
3354655,,,,,,,,-4.75,7.1640625,-8.4296875,0.40234375,0.126953125,0.240234375,-3.2265625,-0.5390625,-0.8828125,2.0
3354656,,,,,,,,-4.75,7.1640625,-8.4296875,0.40234375,0.126953125,0.240234375,-3.2265625,-0.5390625,-0.8828125,2.0
3354657,,,,,,,,-4.75,7.1640625,-8.4296875,0.40234375,0.126953125,0.240234375,-3.2265625,-0.5390625,-0.8828125,2.0
3354658,,,,,,,,-4.75,7.1640625,-8.4296875,0.40234375,0.126953125,0.240234375,-3.2265625,-0.5390625,-0.8828125,2.0
3354659,,,,,,,,-4.75,7.1640625,-8.4296875,0.40234375,0.126953125,0.240234375,-3.2265625,-0.5390625,-0.8828125,2.0
3354660,36.013064,129.3189805,34.30162397816471,73.67700014396299,2.8000000000000003,283.0,,-4.4453125,6.078125,-8.41796875,0.40234375,0.126953125,0.240234375,-3.2265625,-0.5390625,-0.8828125,2.0
3354661,,,,,,,,-3.546875,4.26171875,-7.62109375,0.423828125,-0.216796875,0.9140625,-2.1171875,-3.41015625,-0.04296875,2.0
3354662,,,,,,,,-3.0234375,4.3671875,-7.63671875,0.494140625,-0.26171875,1.01171875,-1.6171875,-3.30078125,-0.04296875,2.0
3354663,,,,,,,,-1.53515625,6.0625,-7.88671875,0.818359375,-0.2578125,0.94140625,-0.19921875,-1.5703125,-0.26953125,2.0
3354664,,,,,,,,-1.046875,6.64453125,-7.91796875,1.08203125,-0.24609375,0.822265625,0.2578125,-0.953125,-0.26953125,2.0
3354665,,,,,,,,-0.0859375,7.62109375,-8.2265625,1.552734375,-0.287109375,0.5625,1.1796875,0.11328125,-0.5,2.0
3354666,,,,,,,,-1.98828125,8.94140625,-5.82421875,1.650390625,-0.216796875,0.091796875,-0.73828125,1.68359375,2.10546875,2.0
3354667,,,,,,,,-2.72265625,8.7421875,-5.56640625,1.36328125,-0.12109375,-0.17578125,-1.46484375,1.609375,2.44921875,2.0
3354668,,,,,,,,-5.6953125,6.203125,-5.1015625,1.169921875,0.056640625,-0.486328125,-4.4140625,-0.765625,3.0234375,2.0
3354669,,,,,,,,-5.09765625,4.4609375,-6.015625,1.2578125,0.09375,-0.5,-3.80078125,-2.453125,2.140625,2.0
3354670,36.013065,129.31897816666665,34.091276310926055,73.78795856781606,2.4000000000000004,284.0,,-3.34375,-5.09375,-6.29296875,0.40234375,0.126953125,0.240234375,-3.2265625,-0.5390625,-0.8828125,2.0
3354671,,,,,,,,-0.1015625,-23.69921875,3.14453125,1.8671875,-0.033203125,0.384765625,1.1796875,-30.33984375,11.48828125,2.0
3354672,,,,,,,,2.53125,-35.640625,6.94921875,1.658203125,-0.21875,0.396484375,3.78125,-42.14453125,15.39453125,2.0
3354673,,,,,,,,4.86328125,-36.8203125,6.26171875,1.724609375,-0.1640625,-0.046875,6.12109375,-43.25,14.74609375,2.0
3354674,,,,,,,,2.83984375,-13.38671875,1.36328125,2.080078125,0.23046875,-1.072265625,4.12890625,-19.65234375,9.95703125,2.0
3354675,,,,,,,,-0.37890625,-9.8359375,-2.515625,2.505859375,0.494140625,-1.7578125,0.94921875,-15.90234375,6.203125,2.0
3354676,,,,,,,,-2.49609375,-11.6796875,-2.45703125,2.056640625,0.71484375,-2.93359375,-1.08203125,-17.5078125,6.39453125,2.0
3354677,,,,,,,,0.27734375,-17.7421875,-2.27734375,2.490234375,0.916015625,-1.59765625,1.75390625,-23.3671875,6.69921875,2.0
3354678,,,,,,,,1.21875,-19.32421875,-2.22265625,2.85546875,1.1015625,-0.69921875,2.671875,-24.82421875,6.81640625,2.0
3354679,,,,,,,,3.7265625,-19.30859375,-2.59765625,3.20703125,1.357421875,0.203125,5.0078125,-24.3984375,6.69921875,2.0
3354680,36.013065833333336,129.318976,33.89595352462176,73.880423847464,2.2,282.0,,4.11328125,-16.6875,-4.90625,0.40234375,0.126953125,0.240234375,-3.2265625,-0.5390625,-0.8828125,2.0
3354681,,,,,,,,3.3203125,-15.40625,-6.38671875,3.439453125,1.65234375,0.361328125,4.203125,-19.8046875,3.29296875,2.0
3354682,,,,,,,,2.45703125,-14.23828125,-7.30078125,3.48046875,1.69921875,0.421875,3.24609375,-18.46484375,2.44921875,2.0
3354683,,,,,,,,1.59765625,-12.23046875,-8.37890625,3.39453125,1.77734375,0.65234375,2.17578125,-16.12890625,1.52734375,2.0
3354684,,,,,,,,1.9765625,-11.47265625,-9.0,3.1640625,1.84375,1.015625,2.25,-14.94140625,1.0703125,2.0
3354685,,,,,,,,3.0390625,-8.56640625,-9.82421875,2.97265625,1.87109375,1.0234375,3.09375,-11.7578125,0.33984375,2.0
3354686,,,,,,,,4.36328125,-6.28125,-10.23046875,2.662109375,1.8046875,0.892578125,4.08984375,-9.08203125,0.03515625,2.0
3354687,,,,,,,,4.9921875,-4.4453125,-10.67578125,2.60546875,1.748046875,0.841796875,4.625,-7.12890625,-0.38671875,2.0
3354688,,,,,,,,5.82421875,-1.234375,-11.14453125,2.5859375,1.55859375,0.794921875,5.234375,-3.640625,-0.80859375,2.0
3354689,,,,,,,,5.81640625,-0.0625,-11.08203125,2.623046875,1.44921875,0.826171875,5.15625,-2.375,-0.73046875,2.0
3354690,36.01306533333333,129.31897266666667,33.595457696743104,73.82494307150998,3.1,270.0,,5.33203125,1.890625,-10.65234375,0.40234375,0.126953125,0.240234375,-3.2265625,-0.5390625,-0.8828125,2.0
3354691,,,,,,,,4.3984375,3.95703125,-10.37890625,2.40625,1.119140625,0.978515625,3.44140625,2.14453125,0.03515625,2.0
3354692,,,,,,,,4.2109375,4.16796875,-10.6171875,1.931640625,0.96875,0.787109375,3.13671875,2.56640625,-0.1953125,2.0
3354693,,,,,,,,5.24609375,0.98046875,-11.8046875,1.1875,0.73046875,0.04296875,3.96875,-0.34765625,-1.3828125,2.0
3354694,,,,,,,,7.1875,-1.48828125,-9.796875,1.19921875,0.552734375,0.15234375,5.8515625,-2.72265625,0.609375,2.0
3354695,,,,,,,,8.19921875,-3.40234375,-7.94921875,1.142578125,0.4140625,0.48046875,6.80859375,-4.51953125,2.44921875,2.0
3354696,,,,,,,,8.0390625,-3.296875,-7.8671875,1.1328125,0.3203125,0.451171875,6.6171875,-4.328125,2.5234375,2.0
3354697,,,,,,,,5.328125,-0.7109375,-6.77734375,0.912109375,0.26953125,0.00390625,3.86328125,-1.609375,3.59765625,2.0
3354698,,,,,,,,1.21484375,4.14453125,-5.19140625,0.419921875,0.33984375,-0.5703125,-0.27734375,3.29296875,5.16796875,2.0
3354699,,,,,,,,0.08203125,6.91015625,-7.3671875,0.103515625,0.38671875,-0.876953125,-1.42578125,6.046875,2.984375,2.0
3354700,36.013064666666665,129.31896933333334,33.29496193335103,73.75096909872022,3.3000000000000003,264.0,0.0,5.33203125,1.890625,-10.65234375,-0.044921875,0.5546875,-1.578125,-1.7734375,8.3828125,0.265625,2.0
3354701,,,,,,,,-0.31640625,8.84375,-10.765625,0.001953125,0.583984375,-1.24609375,-2.1171875,7.234375,-0.4609375,2.0
3354702,,,,,,,,-0.8046875,7.04296875,-10.55078125,-0.142578125,0.529296875,-0.474609375,-2.9609375,2.21875,1.18359375,2.0
3354703,,,,,,,,-1.5859375,0.609375,-7.7109375,-0.544921875,0.43359375,0.58984375,-3.6484375,-7.31640625,6.125,2.0
3354704,,,,,,,,-1.8515625,-10.75,-2.27734375,-0.318359375,0.412109375,1.103515625,-3.91796875,-18.08203125,11.03125,2.0
3354705,,,,,,,,-2.56640625,-24.625,5.03125,0.26953125,0.3515625,1.263671875,-1.50390625,-39.2265625,15.625,2.0
3354706,,,,,,,,0.29296875,-38.0703125,5.4609375,0.599609375,0.337890625,1.189453125,-0.890625,-44.24609375,12.33203125,2.0
3354707,,,,,,,,-1.29296875,-45.078125,1.46484375,2.015625,0.326171875,0.517578125,-2.5,-36.97265625,12.8671875,2.0
3354708,,,,,,,,2.6328125,-16.6796875,2.91796875,1.15625,-0.033203125,-0.3125,0.7578125,-17.55078125,13.05859375,2.0
3354709,,,,,,,,6.4921875,-11.8828125,-5.5,0.458984375,0.09765625,-1.419921875,4.625,-12.72265625,4.6328125,2.0
3354710,36.013064666666665,129.31896566666668,32.964416282169914,73.75096785217255,3.1,260.0,,11.3359375,-15.18359375,-4.87109375,0.26171875,-0.134765625,-2.6171875,-1.7734375,8.3828125,0.265625,2.0
3354711,,,,,,,,9.42578125,-21.48046875,-0.19921875,-0.271484375,-0.64453125,-0.701171875,7.65234375,-22.40625,9.91796875,2.0
3354712,,,,,,,,8.3984375,-21.9765625,-0.3046875,-0.669921875,-0.572265625,0.380859375,6.65625,-22.9453125,9.8046875,2.0
3354713,,,,,,,,6.80859375,-18.328125,-4.21875,-1.47265625,-0.654296875,0.71875,5.16015625,-19.50390625,5.859375,2.0
3354714,,,,,,,,6.1640625,-17.640625,-4.6171875,-1.751953125,-0.841796875,0.1328125,4.5859375,-19.0,5.4375,2.0
3354715,,,,,,,,4.2109375,-15.515625,-5.046875,-2.2421875,-1.09765625,0.158203125,2.75,-17.125,4.9765625,2.0
3354716,,,,,,,,2.4375,-10.70703125,-6.234375,-2.404296875,-1.36328125,0.40625,1.1015625,-12.56640625,3.75,2.0
3354717,,,,,,,,1.6015625,-8.14453125,-7.703125,-2.37890625,-1.46875,0.44921875,0.3359375,-10.1484375,2.2578125,2.0
3354718,,,,,,,,0.2421875,-6.61328125,-8.5078125,-2.388671875,-1.537109375,0.640625,-0.8125,-9.00390625,1.375,2.0
3354719,,,,,,,,-1.28515625,-5.4453125,-8.70703125,-2.376953125,-1.546875,0.78515625,-2.26953125,-7.96875,1.14453125,2.0
3354720,36.013064,129.31896266666666,32.69397011483835,73.67699401377537,3.1,257.0,,-2.65234375,-4.18359375,-8.62890625,0.26171875,-0.134765625,-2.6171875,-1.7734375,8.3828125,0.265625,2.0
3354721,,,,,,,,-3.296875,-2.546875,-8.7578125,-2.044921875,-1.36328125,1.22265625,-4.03125,-5.55859375,0.953125,2.0
3354722,,,,,,,,-3.84375,-1.625,-8.7109375,-2.001953125,-1.25390625,1.212890625,-4.53125,-4.75,0.953125,2.0
3354723,,,,,,,,-5.4921875,3.90234375,-10.0234375,-1.9453125,-0.734375,0.869140625,-6.02734375,0.23046875,-0.578125,2.0
3354724,,,,,,,,-5.77734375,5.52734375,-10.3671875,-1.896484375,-0.65234375,0.822265625,-6.2890625,1.76171875,-0.9609375,2.0
3354725,,,,,,,,-4.7421875,6.46875,-10.25,-1.546875,-0.54296875,0.73828125,-5.21875,2.4140625,-1.0,2.0
3354726,,,,,,,,-4.34375,5.296875,-10.41015625,-1.07421875,-0.57421875,0.71484375,-4.796875,1.109375,-1.23046875,2.0
3354727,,,,,,,,-4.0859375,4.5546875,-10.484375,-0.78125,-0.630859375,0.6953125,-4.53125,0.3046875,-1.34375,2.0
3354728,,,,,,,,-2.73828125,2.703125,-10.24609375,-0.1328125,-0.697265625,0.62890625,-3.1484375,-1.609375,-1.15234375,2.0
3354729,,,,,,,,-1.44921875,1.71484375,-10.046875,0.166015625,-0.701171875,0.623046875,-1.84765625,-2.6015625,-0.9609375,2.0
3354730,36.01306266666666,129.31895966666667,32.42352421787707,73.52904735348989,3.4000000000000004,251.0,,0.37890625,1.26953125,-9.12109375,0.740234375,-0.666015625,0.60546875,0.02734375,-3.0234375,-0.04296875,2.0
3354731,,,,,,,,1.3515625,1.66796875,-8.359375,1.091796875,-0.662109375,0.525390625,1.0234375,-2.56640625,0.7265625,2.0
3354732,,,,,,,,1.28515625,2.69921875,-6.62109375,1.158203125,-0.650390625,0.416015625,0.98828125,-1.45703125,2.48828125,2.0
3354733,,,,,,,,1.0078125,3.04296875,-6.24609375,0.962890625,-0.58203125,0.166015625,0.7578125,-1.03515625,2.87109375,2.0
3354734,,,,,,,,0.1171875,4.3671875,-5.71875,0.666015625,-0.4921875,-0.21484375,-0.0859375,0.34375,3.41015625,2.0
3354735,,,,,,,,-0.51171875,5.4921875,-6.77734375,0.369140625,-0.37109375,-0.697265625,-0.66015625,1.4921875,2.328125,2.0
3354736,,,,,,,,-1.109375,6.7578125,-8.98046875,0.1953125,-0.294921875,-1.1171875,-1.1953125,2.7578125,0.11328125,2.0
3354737,,,,,,,,-2.22265625,6.60546875,-9.6484375,0.126953125,-0.2421875,-1.20703125,-2.23046875,2.6015625,-0.578125,2.0
3354738,,,,,,,,-2.62109375,6.14453125,-9.48046875,0.146484375,-0.234375,-1.080078125,-2.609375,2.14453125,-0.42578125,2.0
3354739,,,,,,,,-3.640625,5.30078125,-8.46875,0.3515625,-0.21484375,-0.703125,-3.57421875,1.30078125,0.5703125,2.0
3355200,36.013044,129.31899383333334,35.50361714187637,71.457820065339,3.0,31.0,0.0,8.82421875,-4.3828125,-11.75390625,0.888671875,0.828125,-0.861328125,8.83984375,-10.34765625,-5.44140625,2.0
3355201,,,,,,,,14.953125,-3.94921875,-4.21875,1.9453125,0.634765625,-4.888671875,15.35546875,-10.49609375,2.296875,2.0
3355202,,,,,,,,11.375,-7.58203125,-0.24609375,-1.119140625,0.435546875,-0.1875,11.4453125,-17.77734375,5.51171875,2.0
3355203,,,,,,,,10.5625,-10.58984375,-1.02734375,-1.51171875,0.279296875,1.255859375,11.40625,-17.125,4.09765625,2.0
3355204,,,,,,,,10.4921875,-7.19140625,-5.10546875,-0.244140625,0.171875,1.62890625,10.75390625,-14.09375,0.6484375,2.0
3355205,,,,,,,,5.9453125,-4.11328125,-4.64453125,0.203125,-0.046875,1.291015625,4.47265625,-12.296875,3.25390625,2.0
3355206,,,,,,,,0.89453125,-3.4453125,-1.5234375,-0.34765625,-0.349609375,1.357421875,0.21875,-12.1796875,5.4375,2.0
3355207,,,,,,,,-2.01953125,-2.91015625,-0.45703125,-0.728515625,-0.546875,1.41015625,-0.1640625,-11.65234375,3.67578125,2.0
3355208,,,,,,,,-1.5078125,-2.2265625,-2.33203125,-0.58203125,-0.572265625,1.37109375,0.2578125,-11.0703125,2.140625,2.0
3355209,,,,,,,,-1.19140625,0.15625,-6.359375,-0.466796875,-0.5703125,1.216796875,-0.39453125,-9.00390625,-1.19140625,2.0
3355210,36.0130465,129.31899466666667,35.57874004793821,71.7352184761771,2.9000000000000004,26.0,,-2.578125,1.53515625,-6.953125,-0.7890625,-0.515625,1.26171875,-1.84765625,-8.19921875,-0.9609375,2.0
3355211,,,,,,,,-4.9140625,3.24609375,-5.35546875,-0.947265625,-0.35546875,1.45703125,-4.18359375,-6.5078125,0.41796875,2.0
3355212,,,,,,,,-5.80078125,4.5078125,-4.609375,-0.810546875,-0.134765625,1.39453125,-5.1015625,-4.71484375,0.33984375,2.0
3355213,,,,,,,,-6.26171875,5.93359375,-4.76171875,-0.67578125,0.0,1.216796875,-5.22265625,-3.91015625,0.1484375,2.0
3355214,,,,,,,,-6.82421875,9.5,-4.953125,-0.36328125,0.232421875,0.810546875,-6.2109375,0.34375,-0.1171875,2.0
3355215,,,,,,,,-7.1796875,13.41015625,-4.94921875,-0.021484375,0.37890625,0.619140625,-6.3671875,3.484375,-0.30859375,2.0
3355216,,,,,,,,-6.92578125,14.87890625,-5.0078125,0.400390625,0.5859375,0.599609375,-6.2890625,4.3671875,-0.65234375,2.0
3355217,,,,,,,,-6.453125,13.77734375,-5.55859375,0.904296875,0.77734375,0.603515625,-5.83203125,2.18359375,-1.3828125,2.0
3355218,,,,,,,,-6.01953125,12.54296875,-5.671875,1.001953125,0.720703125,0.650390625,-5.30078125,1.109375,-1.6875,2.0
3355219,,,,,,,,-3.86328125,8.734375,-6.3515625,1.146484375,0.544921875,0.8515625,-3.9140625,-1.34375,-2.1484375,2.0
3355220,36.013049,129.31899433333334,35.54868931467315,72.01261646055491,2.9000000000000004,15.0,,-2.578125,1.53515625,-6.953125,1.28125,0.447265625,1.02734375,-1.84765625,-8.19921875,-0.9609375,2.0
3355221,,,,,,,,-0.609375,4.76171875,-5.48046875,1.525390625,0.337890625,1.025390625,-1.2734375,-4.59375,-1.49609375,2.0
3355222,,,,,,,,0.24609375,5.4609375,-3.92578125,1.84375,0.23046875,0.935546875,-0.62109375,-3.60546875,-0.00390625,2.0
3355223,,,,,,,,0.71484375,6.41015625,-0.84375,2.10546875,0.109375,0.6953125,-0.31640625,-2.33984375,3.06640625,2.0
3355224,,,,,,,,0.47265625,7.2890625,2.09765625,2.259765625,0.013671875,0.201171875,-0.66015625,-1.1484375,6.01171875,2.0
3355225,,,,,,,,2.5859375,8.3828125,0.9296875,2.48046875,0.037109375,-0.4453125,1.40625,0.265625,4.8984375,2.0
3355226,,,,,,,,1.93359375,9.19140625,-2.10546875,2.69921875,0.16796875,-1.083984375,0.79296875,1.41796875,1.9453125,2.0
3355227,,,,,,,,0.41796875,9.6875,-4.88671875,1.529296875,0.275390625,-1.30859375,-0.62109375,2.4140625,-0.80859375,2.0
3355228,,,,,,,,-0.48046875,9.75,-4.9921875,1.380859375,0.4296875,-1.021484375,-1.46484375,2.80078125,-0.9609375,2.0
3355229,,,,,,,,-1.72265625,9.2890625,-3.97265625,1.474609375,0.587890625,-0.779296875,-2.69140625,2.6796875,-0.00390625,2.0
3355230,36.01305133333334,129.31899516666667,35.623812292268696,72.27152166432775,2.7,14.0,,-2.51953125,7.63671875,-2.5703125,1.740234375,0.76953125,-0.662109375,-3.4921875,1.37890625,1.3359375,2.0
3355231,,,,,,,,-3.55078125,-1.86328125,-1.44921875,2.193359375,0.9453125,-0.63671875,-4.56640625,-7.77734375,2.41015625,2.0
3355232,,,,,,,,0.1015625,-16.73046875,1.31640625,2.689453125,0.974609375,-0.33203125,-0.96875,-22.3671875,5.16796875,2.0
3355233,,,,,,,,21.171875,-69.98828125,19.05859375,3.06640625,0.6796875,0.55859375,20.0625,-75.578125,22.98046875,2.0
3355234,,,,,,,,22.0546875,-78.109375,6.9375,1.376953125,0.7578125,-0.603515625,22.0546875,-78.11328125,16.73828125,2.0
3355235,,,,,,,,12.44140625,-26.85546875,-8.00390625,0.6796875,0.1953125,-3.47265625,12.44140625,-26.85546875,1.796875,2.0
3355236,,,,,,,,3.515625,-14.98046875,-11.71875,2.625,-0.1015625,-3.505859375,3.515625,-14.9765625,-1.91796875,2.0
3355237,,,,,,,,-3.37890625,-15.4375,-10.33984375,3.51171875,-0.44140625,-4.146484375,-3.37890625,-15.44140625,-0.5390625,2.0
3355238,,,,,,,,0.91015625,-24.25,-7.54296875,2.017578125,0.62890625,-2.923828125,0.91015625,-24.25,2.2578125,2.0
3355239,,,,,,,,1.484375,-27.54296875,2.875,3.107421875,1.830078125,-0.3515625,1.484375,-27.54296875,12.67578125,2.0
3355240,36.0130535,129.31899583333333,35.68391053335963,72.51193360000481,2.4000000000000004,14.0,,3.74609375,-21.0703125,-5.8203125,3.0703125,1.69140625,0.33203125,3.74609375,-21.0703125,3.98046875,2.0
3355241,,,,,,,,6.08203125,-16.01171875,-8.76953125,3.33984375,2.17578125,-1.93359375,6.08203125,-16.0078125,1.03125,2.0
3355242,,,,,,,,6.46484375,-12.7578125,-8.0390625,3.458984375,2.279296875,-1.681640625,6.46484375,-12.7578125,1.7578125,2.0
3355243,,,,,,,,6.3125,-11.41796875,-6.69921875,3.208984375,2.478515625,-0.373046875,6.3125,-11.4140625,3.1015625,2.0
3355244,,,,,,,,6.34765625,-10.49609375,-8.65234375,2.681640625,2.232421875,-0.1484375,6.1953125,-8.1171875,1.0703125,2.0
3355245,,,,,,,,5.96484375,-7.125,-7.84765625,2.5625,1.98046875,0.52734375,5.16015625,-6.01953125,3.63671875,2.0
3355246,,,,,,,,5.16015625,-6.015625,-6.1640625,2.451171875,1.5859375,1.287109375,3.97265625,-5.171875,3.25390625,2.0
3355247,,,,,,,,3.32421875,-4.75,-7.0078125,2.19140625,1.2265625,1.349609375,2.328125,-4.0234375,2.296875,2.0
3355248,,,,,,,,2.17578125,-3.640625,-7.92578125,1.880859375,0.958984375,1.212890625,2.2109375,-2.98828125,1.7578125,2.0
3355249,,,,,,,,2.2109375,-2.98828125,-8.0390625,1.8671875,0.884765625,1.255859375,2.55859375,-1.11328125,2.06640625,2.0
3355250,36.013055333333334,129.3189935,35.473562449851684,72.71535802642711,3.0,354.0,,3.74609375,-21.0703125,-5.8203125,3.0703125,1.69140625,0.33203125,2.90234375,0.6875,1.796875,2.0
3355251,,,,,,,,3.4765625,2.18359375,-8.921875,1.82421875,0.50390625,1.203125,3.7421875,2.83203125,0.33984375,2.0
3355252,,,,,,,,3.859375,3.33203125,-9.91796875,1.775390625,0.39453125,0.888671875,3.859375,3.87109375,-0.578125,2.0
3355253,,,,,,,,3.8203125,4.44140625,-11.06640625,1.6796875,0.30078125,0.736328125,3.515625,4.515625,-1.3828125,2.0
3355254,,,,,,,,2.44140625,4.55859375,-11.52734375,1.431640625,0.283203125,0.755859375,2.44140625,4.5546875,-1.7265625,2.0
3355255,,,,,,,,0.56640625,3.984375,-11.06640625,0.8515625,0.236328125,0.880859375,0.56640625,3.98828125,-1.265625,2.0
3355256,,,,,,,,0.2578125,2.6796875,-10.26171875,0.486328125,0.205078125,0.970703125,0.2578125,2.68359375,-0.4609375,2.0
3355257,,,,,,,,0.10546875,1.1875,-9.421875,-0.1015625,0.21875,1.08984375,0.10546875,1.1875,0.37890625,2.0
3355258,,,,,,,,0.18359375,0.45703125,-8.65234375,-0.224609375,0.236328125,1.232421875,0.18359375,0.45703125,1.14453125,2.0
3355259,,,,,,,,0.21875,0.11328125,-7.46484375,-0.107421875,0.29296875,1.37890625,0.21875,0.11328125,2.33203125,2.0
3355260,36.01305716666666,129.318992,35.338338395313066,72.91878275974925,2.5,342.0,,-0.046875,-0.4609375,-6.69921875,3.0703125,1.69140625,0.33203125,-0.046875,-0.4609375,3.10546875,2.0
3355261,,,,,,,,-0.5078125,-0.73046875,-6.81640625,0.171875,0.291015625,1.1796875,-0.5078125,-0.73046875,2.984375,2.0
3355262,,,,,,,,-0.62109375,-0.65234375,-7.08203125,0.525390625,0.263671875,0.712890625,-0.62109375,-0.65234375,2.71484375,2.0
3355263,,,,,,,,-0.1640625,-0.84375,-7.50390625,0.693359375,0.322265625,0.451171875,-0.1640625,-0.84375,2.30078125,2.0
3355264,,,,,,,,1.25390625,-2.453125,-7.58203125,0.8203125,0.40234375,0.349609375,1.25390625,-2.45703125,2.21875,2.0
3355265,,,,,,,,3.0546875,-7.1640625,-6.46875,0.736328125,0.498046875,0.3671875,3.0546875,-7.1640625,3.328125,2.0
3355266,,,,,,,,3.4765625,-9.84765625,-6.203125,0.609375,0.544921875,0.40234375,3.4765625,-9.84375,3.59765625,2.0
3355267,,,,,,,,3.97265625,-23.0234375,-6.46875,0.4140625,0.576171875,0.5703125,3.97265625,-23.02734375,3.328125,2.0
3355268,,,,,,,,3.859375,-39.45703125,-6.69921875,0.685546875,0.662109375,1.123046875,3.859375,-39.453125,3.1015625,2.0
3355269,,,,,,,,-10.734375,-62.328125,12.68359375,1.265625,0.5859375,1.6171875,-10.734375,-62.33203125,22.484375,2.0
3355270,36.013059,129.31899149999998,35.293263165259276,73.12220785739619,2.1,342.0,,-6.67578125,-29.11328125,7.20703125,3.0703125,1.69140625,0.33203125,-6.67578125,-29.11328125,17.00390625,2.0
3355271,,,,,,,,5.7734375,-19.23046875,-7.3125,0.3984375,-0.77734375,-0.01171875,5.7734375,-19.2265625,2.48828125,2.0
3355272,,,,,,,,17.23046875,-14.90234375,-13.90234375,2.728515625,0.306640625,-4.416015625,17.23046875,-14.90234375,-4.1015625,2.0
3355273,,,,,,,,18.26171875,-13.140625,-8.1171875,1.318359375,0.044921875,-3.515625,18.2578125,-13.140625,1.68359375,2.0
3355274,,,,,,,,12.44140625,-15.9375,-5.85546875,-1.69921875,0.0078125,-0.66015625,12.44140625,-15.9375,3.94140625,2.0
3355275,,,,,,,,10.9453125,-17.8515625,-6.5078125,-2.296875,-0.078125,0.865234375,10.9453125,-17.85546875,3.29296875,2.0
3355276,,,,,,,,9.94921875,-17.890625,-8.00390625,-1.646484375,-0.10546875,0.951171875,9.94921875,-17.890625,1.796875,2.0
3355277,,,,,,,,7.15234375,-16.6640625,-7.12109375,-1.078125,-0.5703125,0.96875,7.15234375,-16.6640625,2.6796875,2.0
3355278,,,,,,,,0.02734375,-15.8984375,-2.1015625,-0.83203125,-1.099609375,1.244140625,0.02734375,-15.8984375,7.6953125,2.0
3355279,,,,,,,,-1.80859375,-15.2109375,-3.4453125,-0.966796875,-1.3984375,1.296875,-1.80859375,-15.21484375,6.35546875,2.0
3355280,36.01306066666667,129.31898983333335,35.14301439499035,73.30713932688839,2.1,330.0,,-1.46484375,-11.72265625,-6.546875,-0.5234375,-1.30078125,0.962890625,-1.46484375,-11.71875,3.25390625,2.0
3355281,,,,,,,,-1.3125,-7.546875,-9.95703125,-0.5078125,-0.978515625,0.646484375,-1.3125,-7.55078125,-0.15625,2.0
3355282,,,,,,,,-1.4453125,3.2109375,-2.46875,-1.357421875,-0.458984375,0.337890625,-2.84375,-6.09375,-1.3828125,2.0
3355283,,,,,,,,-2.48046875,3.15234375,-2.3125,-2.4453125,-0.095703125,0.37109375,-3.91796875,-6.125,-1.421875,2.0
3355284,,,,,,,,-3.40625,5.01171875,-1.75390625,-2.775390625,0.10546875,0.765625,-4.9140625,-4.21484375,-1.15234375,2.0
3355285,,,,,,,,-3.578125,6.87890625,-0.390625,-2.29296875,0.291015625,1.26171875,-5.22265625,-2.26171875,-0.078125,2.0
3355286,,,,,,,,-3.37890625,7.62890625,0.12890625,-1.859375,0.341796875,1.498046875,-5.10546875,-1.45703125,0.33984375,2.0
3355287,,,,,,,,-2.1015625,9.08984375,1.0234375,-0.953125,0.44921875,1.66796875,-4.03515625,0.15234375,1.0703125,2.0
3355288,,,,,,,,-1.1484375,8.671875,0.58203125,0.01171875,0.412109375,1.001953125,-3.34375,0.0390625,0.53515625,2.0
3355289,,,,,,,,-0.546875,8.0,-0.37109375,0.154296875,0.26171875,0.3125,-2.84765625,-0.421875,-0.42578125,2.0
3355290,36.01306116666667,129.3189871666667,34.90261732603674,73.36261798969393,2.4000000000000004,305.0,,-0.53125,7.51171875,-1.01171875,0.0703125,0.09375,-0.2265625,-1.46484375,-11.71875,3.25390625,2.0
3355291,,,,,,,,-0.33203125,7.37890625,-0.96875,0.03515625,-0.0390625,-0.541015625,-2.6875,-0.61328125,-1.0390625,2.0
3355292,,,,,,,,0.00390625,7.7265625,-0.4609375,0.2421875,-0.126953125,-0.55859375,-2.34375,-0.0390625,-0.5390625,2.0
3355293,,,,,,,,0.609375,8.2265625,0.671875,0.57421875,-0.16015625,-0.45703125,-1.73828125,0.6875,0.609375,2.0
3355294,,,,,,,,0.71875,8.28515625,1.23828125,0.943359375,-0.130859375,-0.365234375,-1.6171875,0.99609375,1.22265625,2.0
3355295,,,,,,,,0.06640625,8.0625,2.35546875,1.19140625,-0.041015625,-0.302734375,-2.26953125,1.03125,2.41015625,2.0
3355296,,,,,,,,-0.31640625,7.80859375,2.61328125,1.248046875,-0.001953125,-0.279296875,-2.65234375,0.91796875,2.7109375,2.0
3355297,,,,,,,,-1.234375,7.3125,2.66796875,1.328125,0.12890625,-0.330078125,-3.57421875,0.6875,2.87109375,2.0
3355298,,,,,,,,-3.0,6.6171875,3.140625,1.447265625,0.271484375,-0.505859375,-5.33984375,0.265625,3.4453125,2.0
3355299,,,,,,,,-3.41015625,4.71484375,2.1328125,1.494140625,0.384765625,-0.607421875,-5.75390625,-1.37890625,2.5625,2.0
3355300,36.01306233333333,129.318985,34.70729437298116,73.49206966477725,2.3000000000000003,303.0,0.0,-3.28125,-2.69140625,-0.50390625,0.0703125,0.09375,-0.2265625,-5.640625,-8.54296875,0.03515625,2.0
3355301,,,,,,,,-2.8828125,-10.45703125,1.44921875,1.71484375,0.26953125,-0.083984375,-5.296875,-16.125,2.10546875,2.0
3355302,,,,,,,,14.80859375,-39.984375,18.33203125,1.4921875,-0.021484375,0.474609375,12.32421875,-45.5859375,19.11328125,2.0
3355303,,,,,,,,21.14453125,-41.84765625,27.73828125,1.7421875,-0.017578125,0.47265625,18.64453125,-47.5,28.61328125,2.0
3355304,,,,,,,,20.5234375,-19.5078125,16.0625,2.841796875,0.46875,-0.392578125,18.109375,-25.3984375,17.2734375,2.0
3355305,,,,,,,,2.7734375,-7.9609375,5.73046875,2.466796875,1.0,-2.34375,0.71875,-14.33203125,7.50390625,2.0
3355306,,,,,,,,-4.734375,-9.40234375,-0.2578125,1.466796875,0.787109375,-2.923828125,-6.484375,-16.08984375,1.875,2.0
3355307,,,,,,,,3.765625,-15.625,2.80859375,2.14453125,0.84375,-2.068359375,2.2890625,-22.64453125,5.24609375,2.0
3355308,,,,,,,,8.828125,-19.25390625,8.55078125,3.025390625,0.970703125,-1.02734375,7.4609375,-26.4296875,11.18359375,2.0
3355309,,,,,,,,7.7578125,-18.2421875,4.8203125,3.576171875,1.38671875,0.890625,6.5390625,-25.859375,8.15625,2.0
3355310,36.013063833333334,129.31898283333334,34.5119712829476,73.65850776008199,2.2,304.0,,6.73046875,-12.75,-0.22265625,2.546875,1.65625,0.375,-5.640625,-8.54296875,0.03515625,2.0
3355311,,,,,,,,6.484375,-10.7734375,-1.640625,2.763671875,1.904296875,-0.005859375,5.4296875,-19.04296875,2.5234375,2.0
3355312,,,,,,,,4.55859375,-8.83203125,-1.01171875,2.84765625,2.107421875,0.1484375,3.58984375,-17.39453125,3.55859375,2.0
3355313,,,,,,,,3.5234375,-7.4765625,-1.5625,2.529296875,2.166015625,0.515625,2.59375,-16.32421875,3.3671875,2.0
3355314,,,,,,,,4.25390625,-5.6640625,-3.4765625,2.419921875,2.14453125,0.625,3.32421875,-14.75,1.796875,2.0
3355315,,,,,,,,4.71875,-2.71875,-5.16015625,2.455078125,2.12890625,0.615234375,3.78125,-12.03515625,0.41796875,2.0
3355316,,,,,,,,5.03515625,-1.85546875,-5.5859375,2.439453125,2.068359375,0.59375,4.08984375,-11.26171875,0.1484375,2.0
3355317,,,,,,,,5.38671875,1.5078125,-5.49609375,2.330078125,1.947265625,0.595703125,4.43359375,-8.046875,0.49609375,2.0
3355318,,,,,,,,5.78515625,3.91796875,-5.4921875,2.23828125,1.810546875,0.7109375,4.81640625,-5.74609375,0.7265625,2.0
3355319,,,,,,,,6.1015625,7.15625,-5.70703125,2.423828125,1.501953125,0.740234375,5.12890625,-2.53125,0.80078125,2.0
3355320,36.01306366666667,129.31898,34.25654971375729,73.64001355394348,2.7,288.0,,5.9609375,8.95703125,-5.90234375,2.546875,1.65625,0.375,-5.640625,-8.54296875,0.03515625,2.0
3355321,,,,,,,,5.6171875,10.85546875,-6.30859375,2.234375,1.1015625,0.27734375,4.74609375,1.37890625,0.53515625,2.0
3355322,,,,,,,,5.3828125,11.01953125,-6.41015625,1.892578125,0.943359375,-0.068359375,4.62890625,1.72265625,0.53515625,2.0
3355323,,,,,,,,5.37890625,8.546875,-5.875,1.580078125,0.8203125,-0.330078125,4.77734375,-0.5390625,1.109375,2.0
3355324,,,,,,,,4.75,6.99609375,-5.1875,1.296875,0.69921875,-0.287109375,4.3203125,-1.87890625,1.796875,2.0
3355325,,,,,,,,3.46484375,6.6171875,-4.02734375,0.84375,0.611328125,0.0,3.20703125,-2.03125,2.91015625,2.0
3355326,,,,,,,,2.8671875,6.66796875,-3.60546875,0.595703125,0.6015625,0.11328125,2.671875,-1.87890625,3.29296875,2.0
3355327,,,,,,,,1.38671875,8.05078125,-2.265625,-0.048828125,0.564453125,0.09375,1.33203125,-0.30859375,4.515625,2.0
3355328,,,,,,,,-0.5,10.25390625,-1.07421875,-0.591796875,0.5625,-0.158203125,-0.4296875,2.06640625,5.546875,2.0
3355329,,,,,,,,-1.5078125,13.21484375,-2.05078125,-0.76171875,0.546875,-0.451171875,-1.3125,5.203125,4.40234375,2.0
3355330,36.013063833333334,129.31897650000002,33.94102879207528,73.65850553549666,3.0,277.0,,-1.9375,13.91015625,-3.96484375,2.546875,1.65625,0.375,-5.640625,-8.54296875,0.03515625,2.0
3355331,,,,,,,,-2.8828125,13.44140625,-5.71484375,-0.013671875,0.228515625,-0.50390625,-2.421875,6.125,0.37890625,2.0
3355332,,,,,,,,-5.6796875,8.4140625,-4.64453125,-0.30078125,-0.01953125,0.201171875,-5.18359375,1.609375,1.22265625,2.0
3355333,,,,,,,,-7.2734375,-2.83984375,-0.6953125,-0.228515625,-0.140625,0.818359375,-6.828125,-9.34375,5.015625,2.0
3355334,,,,,,,,-10.3203125,-16.14453125,6.30078125,0.3125,-0.046875,1.677734375,-10.0078125,-22.4453125,11.91015625,2.0
3355335,,,,,,,,-6.03125,-30.40234375,5.7265625,1.275390625,0.09765625,2.48046875,-5.9453125,-36.6171875,11.3359375,2.0
3355336,,,,,,,,-7.95703125,-26.296875,3.234375,2.8984375,0.4453125,1.88671875,-8.16796875,-32.52734375,8.9609375,2.0
3355337,,,,,,,,1.66796875,-8.98046875,1.30078125,2.181640625,0.142578125,0.005859375,1.25390625,-15.28515625,7.19921875,2.0
3355338,,,,,,,,3.73046875,-10.546875,0.04296875,1.150390625,0.267578125,-1.123046875,3.24609375,-17.01171875,6.05078125,2.0
3355339,,,,,,,,6.52734375,-11.41796875,1.44140625,1.240234375,0.005859375,-1.232421875,8.07421875,-18.92578125,9.53515625,2.0
3355340,36.013064,129.318974,33.715656682156315,73.67699787541035,2.6,272.0,,9.55859375,-13.03125,4.48828125,0.505859375,0.0078125,-0.009765625,-5.640625,-8.54296875,0.03515625,2.0
3355341,,,,,,,,6.2890625,-12.3046875,2.06640625,-0.369140625,-0.216796875,0.28125,5.9296875,-19.50390625,8.38671875,2.0
3355342,,,,,,,,5.0,-12.0390625,0.77734375,-0.65234375,-0.3203125,0.330078125,4.6640625,-19.421875,7.12109375,2.0
3355343,,,,,,,,4.00390625,-11.265625,0.12890625,-0.822265625,-0.671875,0.515625,3.74609375,-19.04296875,6.47265625,2.0
3355344,,,,,,,,3.49609375,-9.34375,-0.38671875,-0.861328125,-0.982421875,0.734375,3.32421875,-17.55078125,5.93359375,2.0
3355345,,,,,,,,2.19921875,-5.796875,-1.6640625,-1.08203125,-1.248046875,0.767578125,2.17578125,-14.63671875,4.59375,2.0
3355346,,,,,,,,1.453125,-4.4765625,-2.296875,-1.21484375,-1.369140625,0.759765625,1.484375,-13.52734375,3.90625,2.0
3355347,,,,,,,,0.31640625,-2.1953125,-3.36328125,-1.400390625,-1.5078125,0.74609375,0.44921875,-11.65234375,2.71484375,2.0
3355348,,,,,,,,-0.640625,1.24609375,-4.53125,-1.505859375,-1.4765625,0.82421875,-0.4296875,-8.578125,1.375,2.0
3355349,,,,,,,,-1.41015625,2.4765625,-4.6171875,-1.55859375,-1.341796875,0.994140625,-1.16015625,-7.6640625,1.0703125,2.0
3355350,36.013063833333334,129.31897116666667,33.46023510934945,73.65850369109474,2.8000000000000003,268.0,,-2.42578125,3.51953125,-4.56640625,0.505859375,0.0078125,-0.009765625,-2.19140625,-6.89453125,0.87890625,2.0
3355351,,,,,,,,-3.8671875,5.98828125,-4.5859375,-1.458984375,-1.060546875,1.25,-3.6875,-4.63671875,0.609375,2.0
3355352,,,,,,,,-4.5234375,7.9453125,-5.0390625,-1.51171875,-0.80859375,1.228515625,-4.453125,-2.8359375,-0.1171875,2.0
3355353,,,,,,,,-5.2265625,9.83203125,-5.48046875,-1.498046875,-0.576171875,1.166015625,-5.30078125,-1.03515625,-0.84765625,2.0
3355354,,,,,,,,-6.39453125,12.55859375,-5.06640625,-1.322265625,-0.404296875,1.1875,-6.6328125,1.68359375,-0.73046875,2.0
3355355,,,,,,,,-5.71484375,14.08203125,-4.1875,-0.931640625,-0.330078125,1.25,-6.171875,3.29296875,-0.1171875,2.0
3355356,,,,,,,,-4.83203125,13.6875,-3.33984375,-0.259765625,-0.25390625,1.234375,-5.52734375,3.0625,0.53515625,2.0
3355357,,,,,,,,-2.95703125,10.7578125,-4.08984375,0.51953125,-0.341796875,1.05859375,-3.875,0.3828125,-0.34765625,2.0
3355358,,,,,,,,-1.61328125,8.84375,-4.38671875,1.12109375,-0.376953125,0.810546875,-2.73046875,-1.2265625,-0.69140625,2.0
3355359,,,,,,,,0.71875,6.8828125,-4.73828125,1.427734375,-0.400390625,0.669921875,-0.546875,-2.875,-1.07421875,2.0
3355360,36.013062833333336,129.31896783333335,33.159739480619294,73.54754330830923,3.3000000000000003,259.0,,2.25390625,6.44140625,-3.99609375,1.650390625,-0.408203125,0.48046875,0.87109375,-2.984375,-0.34765625,2.0
3355361,,,,,,,,2.59375,6.578125,-2.88671875,1.623046875,-0.431640625,0.201171875,1.140625,-2.53515625,0.76171875,2.0
3355362,,,,,,,,1.62109375,7.80078125,-1.453125,1.353515625,-0.455078125,-0.060546875,0.14453125,-0.99609375,2.18359375,2.0
3355363,,,,,,,,1.15234375,8.140625,-1.4765625,1.24609375,-0.447265625,-0.208984375,-0.31640625,-0.5,2.140625,2.0
3355364,,,,,,,,-0.13671875,9.07421875,-1.6796875,0.9296875,-0.40234375,-0.740234375,-1.54296875,0.87890625,1.875,2.0
3355365,,,,,,,,-1.15625,9.8828125,-1.98046875,0.791015625,-0.30078125,-0.984375,-2.5,1.9921875,1.52734375,2.0
3355366,,,,,,,,-2.78125,9.11328125,-1.01171875,0.953125,-0.158203125,-0.953125,-4.03515625,1.68359375,2.41015625,2.0
3355367,,,,,,,,-4.55859375,7.96484375,1.15625,1.216796875,-0.064453125,-0.763671875,-5.79296875,0.87890625,4.5546875,2.0
3355368,,,,,,,,-3.9375,4.66015625,0.58984375,1.375,-0.029296875,-0.642578125,-5.18359375,-2.26171875,3.98046875,2.0
3355369,,,,,,,,-1.76171875,-2.203125,-0.92578125,2.025390625,0.0703125,-0.3359375,-3.03515625,-8.81640625,2.48828125,2.0
3355370,36.01306266666666,129.318965,32.90431790297798,73.52904914083165,2.9000000000000004,259.0,,5.46484375,-30.26171875,13.8203125,2.494140625,-0.015625,0.1640625,4.12890625,-36.62109375,17.3125,2.0
3355371,,,,,,,,15.31640625,-43.3125,15.21875,2.40234375,-0.189453125,0.59765625,13.93359375,-49.609375,18.8828125,2.0
3355372,,,,,,,,14.7890625,-27.14453125,9.8046875,2.689453125,0.18359375,0.26171875,13.4375,-33.5546875,13.7109375,2.0
3355373,,,,,,,,4.7109375,-10.515625,0.31640625,2.4375,0.44921875,-0.3828125,3.4765625,-17.12890625,4.48046875,2.0
3355374,,,,,,,,-4.2265625,-11.29296875,0.4765625,2.17578125,0.427734375,-2.240234375,-5.296875,-18.1171875,4.8984375,2.0
3355375,,,,,,,,1.15625,-19.0,0.89453125,2.822265625,0.482421875,-0.625,0.375,-26.2421875,5.66796875,2.0
3355376,,,,,,,,4.06640625,-11.890625,-2.375,4.255859375,1.169921875,0.251953125,3.32421875,-19.46484375,2.9453125,2.0
3355377,,,,,,,,5.50390625,-10.4921875,-3.0,3.310546875,1.439453125,-0.05859375,4.77734375,-18.2734375,2.6796875,2.0
3355378,,,,,,,,5.86328125,-9.8671875,-3.25390625,3.224609375,1.6171875,0.21875,5.16015625,-17.89453125,2.71484375,2.0
3355379,,,,,,,,5.26953125,-8.76171875,-3.6484375,3.5390625,1.8046875,0.533203125,4.55078125,-16.97265625,2.640625,2.0
3355380,36.01306233333333,129.31896216666667,32.64889639594753,73.49206177356913,2.8000000000000003,256.0,,4.90625,-6.4140625,-5.1328125,3.46484375,1.859375,0.671875,4.12890625,-36.62109375,17.3125,2.0
3355381,,,,,,,,5.1171875,-4.5625,-6.07421875,3.29296875,1.8828125,0.685546875,4.3203125,-13.06640625,0.80078125,2.0
3355382,,,,,,,,5.60546875,-2.00390625,-6.56640625,3.099609375,1.8125,0.681640625,4.77734375,-10.61328125,0.53515625,2.0
3355383,,,,,,,,5.8515625,-1.265625,-6.6328125,2.970703125,1.748046875,0.67578125,5.0078125,-9.92578125,0.5703125,2.0
3355384,,,,,,,,5.984375,0.8203125,-6.58984375,2.7109375,1.5859375,0.64453125,5.125,-7.890625,0.80078125,2.0
3355385,,,,,,,,6.25,2.671875,-7.2734375,2.513671875,1.4140625,0.548828125,5.390625,-6.0546875,0.265625,2.0
3355386,,,,,,,,6.234375,7.53125,-8.80859375,2.423828125,1.283203125,0.3828125,5.43359375,-1.1875,-1.19140625,2.0
3355387,,,,,,,,5.65625,10.01171875,-9.66015625,2.259765625,1.08984375,0.181640625,4.97265625,1.41796875,-1.95703125,2.0
3355388,,,,,,,,4.921875,10.98828125,-9.56640625,2.26171875,1.033203125,0.171875,4.28125,2.48828125,-1.83984375,2.0
3355389,,,,,,,,4.54296875,10.6875,-8.96875,1.982421875,0.939453125,0.11328125,4.01171875,2.375,-1.265625,2.0
3355390,36.013060833333334,129.318959,32.363425755242325,73.32562185406125,3.6,250.0,,4.83984375,9.07421875,-8.078125,1.294921875,0.849609375,0.015625,4.51171875,-0.0390625,-0.234375,2.0
3355391,,,,,,,,4.9453125,6.1953125,-7.125,0.91796875,0.697265625,0.025390625,4.9296875,-2.33984375,1.22265625,2.0
3355392,,,,,,,,5.0234375,4.99609375,-5.4765625,0.630859375,0.6875,0.037109375,4.5078125,-2.60546875,2.83203125,2.0
3355393,,,,,,,,4.49609375,4.90234375,-4.34765625,0.353515625,0.68359375,-0.04296875,4.08984375,-2.33984375,3.328125,2.0
3355394,,,,,,,,1.96875,5.984375,-1.76953125,0.02734375,0.66015625,-0.2578125,0.94921875,-0.61328125,6.20703125,2.0
3355395,,,,,,,,-0.4375,7.27734375,0.02734375,-0.326171875,0.630859375,-0.59375,-0.69921875,1.03125,6.6640625,2.0
3355396,,,,,,,,-1.65234375,8.90625,-0.3671875,-0.306640625,0.63671875,-1.1171875,-0.9296875,4.29296875,3.98046875,2.0
3355397,,,,,,,,-1.5703125,12.1875,-3.71875,-0.1640625,0.48046875,-1.41015625,-0.890625,5.4765625,2.640625,2.0
3355398,,,,,,,,-1.87890625,12.1015625,-3.7265625,-0.169921875,0.380859375,-1.3046875,-1.12109375,5.51953125,2.5625,2.0
3355399,,,,,,,,-3.7265625,9.921875,-2.07421875,-0.3671875,0.232421875,-0.669921875,-2.84375,3.6015625,4.0546875,2.0
3355840,36.013042000000006,129.31899183333334,35.323320358751154,71.23590085406917,2.8000000000000003,33.0,,-0.38671875,-1.68359375,-5.19921875,-0.25,0.681640625,0.142578125,11.98046875,-16.70703125,2.48828125,2.0
3355841,,,,,,,,-0.109375,0.37890625,-5.7265625,-0.94140625,-0.25390625,0.78125,-2.42578125,-1.87890625,-0.5390625,2.0
3355842,,,,,,,,-0.4921875,1.75,-6.01953125,-0.93359375,-0.181640625,0.712890625,-2.8046875,-0.5390625,-0.84765625,2.0
3355843,,,,,,,,-1.88671875,6.19921875,-5.375,-0.71484375,0.0859375,0.70703125,-4.21875,3.79296875,-0.234375,2.0
3355844,,,,,,,,-2.484375,7.64453125,-5.05078125,-0.5859375,0.1796875,0.765625,-4.8359375,5.20703125,0.07421875,2.0
3355845,,,,,,,,-3.2578125,8.21484375,-5.91796875,-0.177734375,0.314453125,0.87890625,-5.640625,5.74609375,-0.80859375,2.0
3355846,,,,,,,,-3.50390625,8.05859375,-6.25390625,0.111328125,0.314453125,0.90234375,-5.90625,5.58984375,-1.15234375,2.0
3355847,,,,,,,,-3.1875,6.0546875,-6.30078125,0.828125,0.232421875,0.9921875,-5.640625,3.6015625,-1.19140625,2.0
3355848,,,,,,,,-2.98046875,5.1875,-6.26171875,1.142578125,0.1796875,1.103515625,-5.4453125,2.7578125,-1.15234375,2.0
3355849,,,,,,,,-2.328125,3.27734375,-6.28515625,1.53515625,0.21875,1.392578125,-4.83984375,0.91796875,-1.15234375,2.0
3355850,36.013044,129.3189925,35.3834186925795,71.45781958023954,2.7,26.0,,-1.4921875,1.125,-6.33984375,-0.25,0.681640625,0.142578125,-4.03125,-1.1875,-1.19140625,2.0
3355851,,,,,,,,-0.3359375,-1.09375,-6.37890625,2.044921875,0.23828125,1.69921875,-2.921875,-3.296875,-1.19140625,2.0
3355852,,,,,,,,1.21484375,-2.6796875,-6.265625,2.287109375,0.197265625,1.75390625,-1.42578125,-4.75,-1.0390625,2.0
3355853,,,,,,,,2.86328125,-3.3203125,-5.875,2.396484375,0.078125,1.57421875,0.18359375,-5.25390625,-0.6171875,2.0
3355854,,,,,,,,4.9296875,-2.3046875,-4.5703125,2.345703125,-0.087890625,1.12109375,2.2109375,-4.10546875,0.7265625,2.0
3355855,,,,,,,,4.78515625,-0.0859375,-1.76171875,1.888671875,-0.26953125,0.1015625,2.05859375,-1.7265625,3.59375,2.0
3355856,,,,,,,,0.65625,3.31640625,-0.890625,1.373046875,-0.26953125,-1.0,-2.0390625,1.76171875,4.51953125,2.0
3355857,,,,,,,,-0.296875,4.6484375,-3.6328125,1.509765625,-0.212890625,-1.380859375,-2.9609375,3.10546875,1.796875,2.0
3355858,,,,,,,,-0.234375,4.81640625,-4.71875,1.755859375,-0.17578125,-1.275390625,-2.8828125,3.2890625,0.7265625,2.0
3355859,,,,,,,,-1.21484375,1.91015625,-5.93359375,2.166015625,-0.10546875,0.005859375,-3.83984375,0.53515625,-0.42578125,2.0
3355860,36.01304566666667,129.31899416666664,35.533666003608175,71.64275225821041,2.5,29.0,,-4.35546875,-10.6484375,-0.71484375,2.365234375,0.01953125,0.357421875,-6.98046875,-11.9140625,4.82421875,2.0
3355861,,,,,,,,-5.84375,-21.30859375,0.78515625,2.392578125,-0.001953125,0.599609375,-8.4765625,-22.44921875,6.35546875,2.0
3355862,,,,,,,,14.57421875,-60.015625,-6.36328125,2.8828125,-0.34765625,0.69140625,11.94140625,-61.02734375,-0.76953125,2.0
3355863,,,,,,,,31.25,-78.1484375,11.87890625,3.857421875,-0.53515625,0.76171875,31.25,-78.1484375,21.6796875,2.0
3355864,,,,,,,,29.37109375,-51.984375,22.03125,1.705078125,0.16796875,0.23046875,29.37109375,-51.984375,31.83203125,2.0
3355865,,,,,,,,6.12109375,-16.93359375,-11.296875,1.21484375,-0.703125,-0.830078125,6.12109375,-16.9296875,-1.49609375,2.0
3355866,,,,,,,,0.44921875,-13.79296875,-12.984375,3.78125,-0.638671875,-2.8125,0.44921875,-13.7890625,-3.18359375,2.0
3355867,,,,,,,,-11.34765625,-18.7734375,-7.65625,2.828125,-0.33984375,-4.876953125,-11.34765625,-18.77734375,2.140625,2.0
3355868,,,,,,,,-2.73046875,-19.1171875,-4.05859375,3.0390625,1.501953125,-1.689453125,-2.73046875,-19.12109375,5.7421875,2.0
3355869,,,,,,,,1.21484375,-21.1484375,-4.74609375,4.779296875,1.736328125,0.822265625,1.21484375,-21.1484375,5.0546875,2.0
3355870,36.01304733333333,129.31899583333333,35.68391331313404,71.82768493776175,2.3000000000000003,34.0,,5.16015625,-19.19140625,-7.6953125,4.513671875,1.146484375,0.521484375,5.16015625,-19.1875,2.10546875,2.0
3355871,,,,,,,,4.5859375,-19.19140625,-5.93359375,3.62890625,1.544921875,-0.36328125,4.5859375,-19.1875,3.8671875,2.0
3355872,,,,,,,,5.125,-18.42578125,-7.50390625,3.5,1.87890625,-0.173828125,5.125,-18.42578125,2.296875,2.0
3355873,,,,,,,,5.31640625,-16.625,-9.8046875,3.671875,2.029296875,-0.033203125,5.31640625,-16.62890625,-0.00390625,2.0
3355874,,,,,,,,5.0859375,-13.828125,-11.296875,3.744140625,2.025390625,0.041015625,5.0859375,-13.828125,-1.49609375,2.0
3355875,,,,,,,,4.5859375,-10.84375,-11.98828125,3.3125,1.7578125,0.3125,4.5859375,-10.84375,-2.1875,2.0
3355876,,,,,,,,4.39453125,-8.46875,-11.44921875,3.1953125,1.69140625,0.546875,4.39453125,-8.46875,-1.6484375,2.0
3355877,,,,,,,,3.8984375,-6.4375,-11.14453125,3.048828125,1.640625,1.09375,3.8984375,-6.44140625,-1.34375,2.0
3355878,,,,,,,,3.66796875,-4.25390625,-11.02734375,3.009765625,1.5078125,1.3671875,3.66796875,-4.25390625,-1.23046875,2.0
3355879,,,,,,,,3.78125,-2.64453125,-10.875,2.875,1.400390625,1.3984375,3.78515625,-2.64453125,-1.07421875,2.0
3355880,36.01304883333333,129.31899533333333,35.63883822185274,71.99412361859063,2.3000000000000003,26.0,,3.74609375,-1.265625,-10.68359375,2.607421875,1.392578125,1.359375,3.7421875,-1.265625,-0.8828125,2.0
3355881,,,,,,,,3.8984375,1.0703125,-10.4140625,2.322265625,1.3359375,1.255859375,3.90234375,1.0703125,-0.6171875,2.0
3355882,,,,,,,,4.2421875,2.14453125,-10.37890625,2.04296875,1.240234375,1.048828125,4.2421875,2.14453125,-0.578125,2.0
3355883,,,,,,,,4.43359375,2.60546875,-10.4921875,1.921875,1.177734375,0.8984375,4.43359375,2.60546875,-0.69140625,2.0
3355884,,,,,,,,5.390625,3.140625,-10.72265625,1.798828125,0.98828125,0.599609375,5.39453125,3.140625,-0.921875,2.0
3355885,,,,,,,,5.23828125,1.64453125,-11.21875,1.759765625,0.798828125,0.359375,5.234375,1.64453125,-1.421875,2.0
3355886,,,,,,,,4.77734375,0.87890625,-11.14453125,1.517578125,0.666015625,0.134765625,4.7734375,0.87890625,-1.34375,2.0
3355887,,,,,,,,3.32421875,0.07421875,-10.22265625,0.97265625,0.78515625,0.189453125,3.32421875,0.07421875,-0.42578125,2.0
3355888,,,,,,,,2.05859375,-0.57421875,-9.15234375,0.615234375,0.826171875,0.2734375,2.05859375,-0.57421875,0.6484375,2.0
3355889,,,,,,,,1.21484375,-1.1484375,-7.96484375,-0.060546875,0.857421875,0.466796875,1.21484375,-1.1484375,1.83984375,2.0
3355890,36.0130505,129.318995,35.608787859613614,72.17905556775405,2.3000000000000003,13.0,,-0.69921875,-1.265625,-5.89453125,-0.560546875,0.80078125,0.615234375,-0.69921875,-1.265625,3.91015625,2.0
3355891,,,,,,,,-3.49609375,-0.95703125,-2.2578125,-0.671875,0.59765625,0.5234375,-3.49609375,-0.95703125,7.5390625,2.0
3355892,,,,,,,,-2.1640625,0.89453125,0.96484375,-0.015625,0.439453125,-0.21875,-3.609375,-0.26953125,5.625,2.0
3355893,,,,,,,,-0.9296875,1.73046875,-2.1015625,0.435546875,0.4609375,-0.60546875,-2.3828125,0.57421875,2.5625,2.0
3355894,,,,,,,,0.2734375,1.8203125,-4.28515625,1.33984375,0.46875,-1.166015625,-1.19921875,0.6875,0.37890625,2.0
3355895,,,,,,,,0.85546875,-0.109375,-4.75,1.599609375,0.408203125,-0.96484375,-0.62109375,-1.19140625,-0.078125,2.0
3355896,,,,,,,,-0.125,-7.60546875,-3.34375,1.107421875,0.396484375,-0.224609375,-1.6171875,-8.6171875,1.3359375,2.0
3355897,,,,,,,,-2.37109375,-24.61328125,3.62890625,0.41015625,0.369140625,0.666015625,-3.87890625,-25.5859375,8.30859375,2.0
3355898,,,,,,,,-2.625,-32.97265625,5.7734375,0.185546875,0.365234375,1.03515625,-4.1484375,-33.9375,10.453125,2.0
3355899,,,,,,,,-3.51171875,-49.55078125,10.45703125,0.82421875,0.4609375,1.400390625,-5.06640625,-50.48828125,15.12890625,2.0
3355900,36.01305216666666,129.31899483333333,35.59376230550893,72.36398757768437,1.8,6.0,0.0,-2.0390625,-24.140625,7.4140625,-0.560546875,0.80078125,0.615234375,-3.6484375,-24.94140625,12.1015625,2.0
3355901,,,,,,,,4.75,-16.08984375,-1.375,1.466796875,0.232421875,-1.228515625,3.1328125,-16.8125,3.328125,2.0
3355902,,,,,,,,6.25,-17.515625,-5.7109375,1.3515625,0.720703125,-3.3046875,4.625,-18.234375,-1.0,2.0
3355903,,,,,,,,8.77734375,-18.24609375,-1.7265625,1.361328125,0.283203125,-2.794921875,7.15234375,-18.96484375,2.984375,2.0
3355904,,,,,,,,6.78515625,-17.69921875,2.984375,0.328125,0.337890625,-0.6953125,5.16015625,-18.421875,7.6953125,2.0
3355905,,,,,,,,6.11328125,-17.890625,1.4140625,-0.73828125,0.24609375,-0.1015625,4.47265625,-18.65625,6.125,2.0
3355906,,,,,,,,6.2578125,-17.62890625,0.00390625,-0.96484375,0.189453125,-0.21875,4.625,-18.42578125,4.70703125,2.0
3355907,,,,,,,,5.875,-17.3671875,-0.984375,-1.060546875,-0.0546875,-0.08984375,4.2421875,-18.234375,3.7109375,2.0
3355908,,,,,,,,3.76171875,-16.26171875,0.3984375,-0.99609375,-0.416015625,0.310546875,2.13671875,-17.19921875,5.09375,2.0
3355909,,,,,,,,3.5390625,-15.6953125,1.24609375,-1.15625,-0.72265625,0.599609375,1.9453125,-16.703125,5.93359375,2.0
3355910,36.013053666666664,129.31899333333334,35.458538392569736,72.53042589468973,2.0,350.0,,2.44921875,-12.8046875,-0.4140625,-0.560546875,0.80078125,0.615234375,-3.6484375,-24.94140625,12.1015625,2.0
3355911,,,,,,,,0.41796875,-8.24609375,-2.58984375,-1.15625,-0.931640625,0.291015625,-1.08203125,-9.42578125,2.10546875,2.0
3355912,,,,,,,,-1.078125,-6.25,-3.50390625,-1.392578125,-0.71875,0.1328125,-2.5390625,-7.5078125,1.18359375,2.0
3355913,,,,,,,,-2.671875,-4.58984375,-4.0078125,-1.46484375,-0.630859375,0.146484375,-4.109375,-5.8984375,0.6875,2.0
3355914,,,,,,,,-4.84765625,-2.77734375,-3.2578125,-1.345703125,-0.419921875,0.5234375,-6.25,-4.21484375,1.4140625,2.0
3355915,,,,,,,,-5.62109375,-1.06640625,-2.765625,-0.978515625,-0.091796875,0.986328125,-7.015625,-2.60546875,1.875,2.0
3355916,,,,,,,,-4.91796875,1.0859375,-2.8359375,-0.634765625,0.107421875,0.9765625,-6.328125,-0.5,1.796875,2.0
3355917,,,,,,,,-3.8203125,1.81640625,-3.05078125,-0.271484375,0.24609375,0.80859375,-5.2578125,0.19140625,1.56640625,2.0
3355918,,,,,,,,-2.88671875,3.69921875,-4.0,-0.087890625,0.279296875,0.71484375,-4.3359375,2.06640625,0.609375,2.0
3355919,,,,,,,,-2.06640625,4.55078125,-4.6875,0.251953125,0.2265625,0.541015625,-3.53125,2.91015625,-0.078125,2.0
3355920,36.01305483333333,129.31899033333332,35.18809139343148,72.65987725661469,2.3000000000000003,321.0,,-1.3203125,5.15625,-5.140625,-0.560546875,0.80078125,0.615234375,-2.8046875,3.52734375,-0.5390625,2.0
3355921,,,,,,,,-0.1953125,4.08203125,-5.609375,0.56640625,0.037109375,0.458984375,-1.6953125,2.4453125,-1.0,2.0
3355922,,,,,,,,0.80859375,2.07421875,-5.41796875,0.57421875,-0.021484375,0.46875,-0.69921875,0.45703125,-0.80859375,2.0
3355923,,,,,,,,1.078125,1.609375,-5.30078125,0.587890625,-0.076171875,0.51171875,-0.4296875,0.0,-0.6875,2.0
3355924,,,,,,,,1.69921875,0.89453125,-5.125,0.716796875,-0.19921875,0.609375,0.18359375,-0.69140625,-0.5,2.0
3355925,,,,,,,,2.37890625,0.7734375,-4.64453125,1.17578125,-0.384765625,0.73046875,0.8671875,-0.765625,-0.00390625,2.0
3355926,,,,,,,,1.875,1.0234375,-3.5859375,1.341796875,-0.46875,0.71875,0.375,-0.4609375,1.07421875,2.0
3355927,,,,,,,,0.5859375,1.90234375,-2.58203125,1.185546875,-0.5390625,0.4609375,-0.890625,0.49609375,2.10546875,2.0
3355928,,,,,,,,0.234375,2.22265625,-2.5546875,1.130859375,-0.525390625,0.330078125,-1.234375,0.83984375,2.140625,2.0
3355929,,,,,,,,-0.3203125,2.76953125,-2.65234375,1.107421875,-0.470703125,0.0625,-1.7734375,1.41796875,2.06640625,2.0
3355930,36.0130565,129.318989,35.06789222235234,72.84480884765527,2.2,322.0,,-0.83984375,3.03515625,-3.43359375,1.16015625,-0.40625,-0.138671875,-2.8046875,3.52734375,-0.5390625,2.0
3355931,,,,,,,,-2.08984375,2.390625,-2.9140625,1.193359375,-0.353515625,-0.185546875,-3.49609375,1.109375,1.8359375,2.0
3355932,,,,,,,,-3.67578125,-0.30078125,-2.234375,1.19921875,-0.322265625,-0.05078125,-5.06640625,-1.53515625,2.5234375,2.0
3355933,,,,,,,,-4.7265625,-4.55859375,-2.32421875,1.41015625,-0.291015625,0.16015625,-6.10546875,-5.74609375,2.44921875,2.0
3355934,,,,,,,,-5.65234375,-16.26953125,-0.42578125,1.740234375,-0.3125,0.41015625,-7.01953125,-17.39453125,4.36328125,2.0
3355935,,,,,,,,-2.671875,-32.6171875,-1.484375,1.98046875,-0.546875,0.818359375,-4.03125,-33.67578125,3.328125,2.0
3355936,,,,,,,,25.11328125,-68.1171875,18.03125,2.396484375,-0.755859375,0.689453125,23.77734375,-69.0703125,22.8671875,2.0
3355937,,,,,,,,30.03515625,-44.26171875,26.46484375,2.302734375,-0.205078125,-0.802734375,28.72265625,-45.125,31.33203125,2.0
3355938,,,,,,,,5.203125,-15.4765625,0.41015625,0.412109375,0.2578125,-2.00390625,3.8984375,-16.3203125,5.28515625,2.0
3355939,,,,,,,,-6.796875,-6.6484375,-2.5859375,1.2109375,0.673828125,-3.21484375,-8.09375,-7.5078125,2.296875,2.0
3355940,36.01305833333333,129.318988,34.97774258867632,73.0482337671398,1.8,325.0,,-8.71875,-19.328125,-7.13671875,0.451171875,0.201171875,-2.9453125,-10.0078125,-20.23046875,-2.26171875,2.0
3355941,,,,,,,,-2.78125,-21.828125,-2.93359375,2.572265625,0.66796875,-0.671875,-4.0703125,-22.71875,1.94921875,2.0
3355942,,,,,,,,4.15234375,-22.08984375,4.9375,4.1796875,0.884765625,1.544921875,2.82421875,-22.83203125,9.84375,2.0
3355943,,,,,,,,3.5859375,-20.30078125,1.203125,4.111328125,0.8515625,1.44921875,2.2109375,-20.83984375,6.125,2.0
3355944,,,,,,,,2.33984375,-15.73046875,-5.69921875,3.05078125,1.16796875,0.091796875,0.91015625,-16.12890625,-0.76953125,2.0
3355945,,,,,,,,5.359375,-15.03515625,-5.17578125,2.74609375,1.92578125,0.072265625,3.8203125,-15.28125,-0.26953125,2.0
3355946,,,,,,,,8.40234375,-13.23046875,-1.71484375,2.947265625,2.189453125,0.9375,6.76953125,-13.37109375,3.17578125,2.0
3355947,,,,,,,,8.703125,-12.21484375,-2.21875,2.68359375,2.140625,1.328125,6.9609375,-12.21875,2.640625,2.0
3355948,,,,,,,,9.09765625,-10.0234375,-5.0546875,2.328125,1.857421875,0.708984375,7.23046875,-9.8828125,-0.234375,2.0
3355949,,,,,,,,9.18359375,-7.19921875,-6.32421875,2.4140625,1.724609375,0.57421875,7.2265625,-6.97265625,-1.53515625,2.0
3355950,36.01305933333333,129.318985,34.70729568820698,73.15919193734587,2.3000000000000003,307.0,,8.44921875,-3.30859375,-6.0546875,2.728515625,1.365234375,0.8828125,6.42578125,-2.98828125,-1.3046875,2.0
3355951,,,,,,,,7.421875,-1.7890625,-5.1796875,2.7421875,1.041015625,1.181640625,5.35546875,-1.34375,-0.4609375,2.0
3355952,,,,,,,,5.76171875,-0.33984375,-4.16015625,2.033203125,0.830078125,1.166015625,3.6640625,0.19140625,0.53515625,2.0
3355953,,,,,,,,5.27734375,-0.07421875,-4.0078125,1.625,0.7421875,1.0390625,3.16796875,0.49609375,0.6875,2.0
3355954,,,,,,,,4.34375,-0.08984375,-3.53515625,1.056640625,0.671875,0.654296875,2.21484375,0.53515625,1.14453125,2.0
3355955,,,,,,,,4.4453125,-1.1796875,-2.8671875,0.83984375,0.615234375,0.23046875,2.2890625,-0.5390625,1.796875,2.0
3355956,,,,,,,,5.12109375,-2.41015625,-1.86328125,0.78125,0.603515625,-0.056640625,2.94140625,-1.76171875,2.79296875,2.0
3355957,,,,,,,,5.09765625,-2.2109375,-2.1171875,0.724609375,0.591796875,-0.1953125,2.859375,-1.2265625,2.21875,2.0
3355958,,,,,,,,5.07421875,-1.875,-2.421875,0.65234375,0.60546875,-0.255859375,2.55859375,-0.23046875,1.98828125,2.0
3355959,,,,,,,,4.5703125,-0.2421875,-2.59765625,0.11328125,0.681640625,-0.431640625,2.17578125,1.109375,2.02734375,2.0
3355960,36.01305983333334,129.31898183333334,34.42182420945179,73.21467043511402,2.7,294.0,,8.44921875,-3.30859375,-6.0546875,-0.337890625,0.703125,-0.478515625,0.6015625,3.2890625,2.48828125,2.0
3355961,,,,,,,,2.25,3.40625,-1.96875,-0.66796875,0.646484375,-0.486328125,-0.69921875,4.515625,2.9453125,2.0
3355962,,,,,,,,0.546875,4.59375,-1.9609375,-0.638671875,0.56640625,-0.462890625,-1.7734375,5.05859375,2.640625,2.0
3355963,,,,,,,,-0.15625,2.78125,-2.6796875,-0.259765625,0.4296875,-0.375,-2.5,3.18359375,1.9140625,2.0
3355964,,,,,,,,-0.21875,0.23046875,-2.91015625,0.05859375,0.2421875,-0.06640625,-2.46484375,-1.53515625,1.7578125,2.0
3355965,,,,,,,,-0.8671875,-8.48046875,-1.80078125,0.2421875,0.177734375,0.486328125,-3.2265625,-8.15625,2.79296875,2.0
3355966,,,,,,,,-3.7421875,-18.96875,2.94921875,0.306640625,0.1953125,0.83984375,-6.1015625,-18.66015625,7.54296875,2.0
3355967,,,,,,,,-3.12890625,-31.81640625,6.16796875,0.373046875,0.265625,1.634765625,-5.48828125,-31.484375,10.76171875,2.0
3355968,,,,,,,,-3.12890625,-33.80859375,3.80078125,1.146484375,0.375,1.84765625,-5.48828125,-33.4375,8.38671875,2.0
3355969,,,,,,,,-0.9765625,-22.1875,3.1953125,1.357421875,0.140625,0.552734375,-3.34375,-21.7578125,7.7734375,2.0
3355970,36.0130605,129.31897933333332,34.19645187043902,73.28864238358469,2.2,288.0,,1.19921875,-17.9453125,1.5390625,-0.337890625,0.703125,-0.478515625,-1.16015625,-17.5078125,6.125,2.0
3355971,,,,,,,,4.15625,-21.09375,1.30859375,0.42578125,0.345703125,-0.849609375,1.7890625,-20.6875,5.89453125,2.0
3355972,,,,,,,,7.125,-21.58984375,2.66015625,0.2578125,0.220703125,-1.005859375,4.7421875,-21.21875,7.23828125,2.0
3355973,,,,,,,,8.72265625,-20.47265625,2.3359375,-0.005859375,-0.158203125,-0.13671875,6.34765625,-20.15234375,6.9296875,2.0
3355974,,,,,,,,7.51953125,-16.234375,1.28515625,-0.47265625,-0.2265625,0.125,5.16015625,-15.98046875,5.89453125,2.0
3355975,,,,,,,,6.9609375,-15.3046875,0.421875,-1.310546875,-0.427734375,-0.21875,4.625,-15.171875,5.0546875,2.0
3355976,,,,,,,,6.1953125,-15.80859375,-0.7421875,-1.5234375,-0.583984375,0.0390625,3.8984375,-15.78515625,3.90625,2.0
3355977,,,,,,,,5.0078125,-15.23828125,-0.65234375,-1.599609375,-0.7421875,0.5,2.75,-15.32421875,4.01953125,2.0
3355978,,,,,,,,3.796875,-13.84375,-1.3125,-1.6484375,-0.837890625,0.65625,1.5625,-13.984375,3.3671875,2.0
3355979,,,,,,,,2.5625,-11.51953125,-2.21484375,-1.693359375,-0.99609375,0.662109375,0.375,-11.7578125,2.48828125,2.0
3355980,36.013061,129.31897683333332,33.97107960973619,73.34412113099467,2.3000000000000003,284.0,,0.4765625,-8.14453125,-3.49609375,-0.337890625,0.703125,-0.478515625,-1.16015625,-17.5078125,6.125,2.0
3355981,,,,,,,,-0.56640625,-6.6328125,-4.546875,-2.107421875,-0.8984375,0.40625,-2.65234375,-7.12890625,0.1875,2.0
3355982,,,,,,,,-1.80078125,-4.921875,-4.9375,-2.119140625,-0.8359375,0.4921875,-3.83984375,-5.5546875,-0.1953125,2.0
3355983,,,,,,,,-2.74609375,-0.8359375,-4.66796875,-1.8359375,-0.640625,0.970703125,-4.72265625,-1.6484375,0.07421875,2.0
3355984,,,,,,,,-3.03515625,0.9609375,-4.8515625,-1.423828125,-0.48828125,1.177734375,-4.984375,0.0390625,-0.1171875,2.0
3355985,,,,,,,,-3.6953125,2.140625,-4.73046875,-1.01953125,-0.330078125,1.26953125,-5.640625,1.1484375,-0.00390625,2.0
3355986,,,,,,,,-3.84765625,2.59375,-4.60546875,-0.85546875,-0.279296875,1.279296875,-5.7890625,1.5703125,0.11328125,2.0
3355987,,,,,,,,-4.15625,2.71484375,-4.17578125,-0.5390625,-0.205078125,1.27734375,-6.1015625,1.64453125,0.53515625,2.0
3355988,,,,,,,,-3.96484375,2.1796875,-4.37109375,-0.212890625,-0.162109375,1.119140625,-5.90625,1.0703125,0.33984375,2.0
3355989,,,,,,,,-2.8125,0.92578125,-5.05078125,0.2265625,-0.185546875,0.84375,-4.76171875,-0.19140625,-0.34765625,2.0
3355990,36.013060833333334,129.31897333333333,33.65555881721622,73.3256267091846,2.9000000000000004,272.0,,-1.625,-0.0234375,-5.05078125,-0.337890625,0.703125,-0.478515625,-1.16015625,-17.5078125,6.125,2.0
3355991,,,,,,,,0.6171875,-1.06640625,-5.2578125,1.025390625,-0.33203125,0.42578125,-1.3125,-2.18359375,-0.5390625,2.0
3355992,,,,,,,,1.94921875,-1.47265625,-4.65234375,1.5703125,-0.3671875,0.375,0.02734375,-2.56640625,0.07421875,2.0
3355993,,,,,,,,2.25,-1.03125,-3.7109375,1.759765625,-0.39453125,0.296875,0.10546875,-1.7265625,1.60546875,2.0
3355994,,,,,,,,0.46484375,0.609375,-1.3984375,1.486328125,-0.388671875,0.125,-1.42578125,-0.3828125,3.3671875,2.0
3355995,,,,,,,,-1.3125,1.34375,-0.45703125,1.095703125,-0.376953125,-0.19921875,-3.1875,0.3828125,4.3203125,2.0
3355996,,,,,,,,-2.984375,2.21484375,-0.38671875,1.0234375,-0.318359375,-0.564453125,-4.83984375,1.26171875,4.40234375,2.0
3355997,,,,,,,,-4.5390625,2.9140625,-1.4296875,1.2265625,-0.2421875,-0.90625,-6.37109375,1.953125,3.3671875,2.0
3355998,,,,,,,,-5.359375,2.546875,-1.90234375,1.533203125,-0.21484375,-0.935546875,-7.17578125,1.609375,2.91015625,2.0
3355999,,,,,,,,-6.7265625,-1.171875,-1.390625,1.994140625,-0.232421875,-0.505859375,-8.51953125,-2.0703125,3.4453125,2.0
3356000,36.013061,129.31897033333334,33.38511229343342,73.34411888460153,2.7,271.0,0.0,-8.6875,-12.58984375,-2.546875,2.37109375,-0.140625,0.0390625,-10.46875,-13.41015625,2.296875,2.0
3356001,,,,,,,,-7.421875,-25.9453125,-1.19921875,2.779296875,-0.25,0.607421875,-9.203125,-26.62890625,3.67578125,2.0
3356002,,,,,,,,20.3046875,-65.2109375,22.83203125,3.0703125,-0.4296875,0.76171875,18.53125,-65.7734375,27.73046875,2.0
3356003,,,,,,,,32.9375,-67.62109375,35.49609375,3.646484375,-0.10546875,0.498046875,31.171875,-68.109375,40.41015625,2.0
3356004,,,,,,,,21.60546875,-27.37109375,-0.06640625,3.90625,0.234375,-0.294921875,8.37890625,-22.6796875,4.40234375,2.0
3356005,,,,,,,,0.0859375,-17.94140625,0.4609375,2.501953125,0.1796875,-2.85546875,-9.51171875,-18.84375,4.36328125,2.0
3356006,,,,,,,,-8.6484375,-21.6484375,-0.046875,1.505859375,0.265625,-2.857421875,-10.4296875,-21.80078125,4.8984375,2.0
3356007,,,,,,,,2.35546875,-22.1875,-0.08984375,4.685546875,0.875,-0.259765625,0.56640625,-22.3359375,4.86328125,2.0
3356008,,,,,,,,3.40234375,-20.86328125,-0.89453125,5.578125,1.080078125,0.671875,1.59765625,-20.95703125,4.05859375,2.0
3356009,,,,,,,,4.21875,-19.25,-3.37890625,4.91796875,1.1796875,0.4453125,2.3671875,-19.12109375,1.56640625,2.0
3356010,36.013061500000006,129.31896749999999,33.129690431464724,73.3995975389865,2.5,272.0,,6.1484375,-20.6015625,-1.8984375,3.841796875,1.259765625,-0.0625,-10.46875,-13.41015625,2.296875,2.0
3356011,,,,,,,,6.671875,-20.11328125,-1.90625,3.943359375,1.603515625,0.46875,4.703125,-19.61328125,2.984375,2.0
3356012,,,,,,,,6.16796875,-18.140625,-2.40234375,4.068359375,1.685546875,0.681640625,4.12890625,-17.5078125,2.44921875,2.0
3356013,,,,,,,,5.9296875,-14.375,-4.26953125,3.98046875,1.78125,0.60546875,3.8203125,-13.5625,0.53515625,2.0
3356014,,,,,,,,7.08203125,-11.19921875,-6.109375,3.58203125,1.6875,0.4375,4.85546875,-10.19140625,-1.3828125,2.0
3356015,,,,,,,,7.55859375,-9.4921875,-5.51953125,3.568359375,1.455078125,0.71875,5.27734375,-8.3515625,-0.84765625,2.0
3356016,,,,,,,,7.390625,-7.2578125,-3.609375,3.572265625,1.3125,0.951171875,5.0859375,-6.05859375,1.03125,2.0
3356017,,,,,,,,7.015625,-4.82421875,-3.453125,3.3125,0.91015625,1.17578125,4.66796875,-3.41015625,1.109375,2.0
3356018,,,,,,,,6.87890625,-2.57421875,-4.7578125,3.125,0.716796875,0.662109375,4.51171875,-1.03515625,-0.234375,2.0
3356019,,,,,,,,6.92578125,-0.4765625,-5.765625,3.037109375,0.623046875,0.40234375,4.546875,1.109375,-1.265625,2.0
3356020,36.0130605,129.31896416666666,32.82919478738088,73.28863716803603,3.3000000000000003,263.0,,7.3671875,1.9140625,-5.95703125,3.841796875,1.259765625,-0.0625,-10.46875,-13.41015625,2.296875,2.0
3356021,,,,,,,,9.140625,1.71875,-5.671875,2.546875,0.251953125,0.064453125,6.73828125,3.5234375,-1.265625,2.0
3356022,,,,,,,,11.0625,-1.1484375,-5.7265625,2.263671875,0.10546875,0.107421875,8.6484375,0.7265625,-1.34375,2.0
3356023,,,,,,,,10.81640625,-2.89453125,-5.6328125,1.931640625,-0.005859375,0.193359375,8.41796875,-0.95703125,-1.265625,2.0
3356024,,,,,,,,10.00390625,-3.34765625,-5.28125,1.322265625,0.015625,0.330078125,7.609375,-1.37890625,-0.921875,2.0
3356025,,,,,,,,8.41015625,-3.6796875,-4.36328125,0.7578125,-0.052734375,0.337890625,6.04296875,-1.6875,-0.00390625,2.0
3356026,,,,,,,,6.640625,-3.6796875,-3.48046875,0.529296875,-0.0546875,0.2890625,4.28515625,-1.6875,0.87890625,2.0
3356027,,,,,,,,4.640625,-3.47265625,-2.078125,0.14453125,-0.025390625,0.16015625,2.2890625,-1.49609375,2.296875,2.0
3356028,,,,,,,,1.0625,-3.125,0.65625,-0.15234375,0.037109375,-0.021484375,-1.2734375,-1.1875,5.05859375,2.0
3356029,,,,,,,,-0.046875,-2.13671875,-0.1796875,-0.201171875,0.201171875,-0.69140625,-2.3828125,-0.26953125,4.25,2.0
3356030,36.01305966666666,129.318961,32.54372387247298,73.19617006929413,3.2,256.0,,-0.2265625,0.0703125,-2.87890625,0.025390625,0.263671875,-1.267578125,-10.46875,-13.41015625,2.296875,2.0
3356031,,,,,,,,-0.65234375,1.63671875,-4.37890625,-0.0078125,0.294921875,-1.61328125,-3.03515625,3.37109375,0.07421875,2.0
3356032,,,,,,,,-1.1484375,3.046875,-5.54296875,-0.25390625,0.349609375,-1.603515625,-3.5703125,4.71484375,-1.07421875,2.0
3356033,,,,,,,,-0.94921875,3.20703125,-5.62109375,-0.361328125,0.365234375,-1.490234375,-3.37890625,4.8203125,-1.15234375,2.0
3356034,,,,,,,,-0.4609375,2.2890625,-4.10546875,-0.4765625,0.34765625,-1.0078125,-2.921875,3.83203125,0.37890625,2.0
3356035,,,,,,,,1.625,-1.5078125,-1.1328125,-0.42578125,0.251953125,-0.2578125,-0.8515625,-0.0390625,3.37109375,2.0
3356036,,,,,,,,2.7265625,-6.91796875,1.265625,-0.158203125,0.091796875,0.556640625,0.2578125,-5.48046875,5.78515625,2.0
3356037,,,,,,,,-1.47265625,-27.51953125,17.03125,0.068359375,-0.05859375,1.09375,-3.91796875,-26.08984375,21.5625,2.0
3356038,,,,,,,,-2.8046875,-37.2421875,17.23828125,-0.1953125,-0.111328125,1.2734375,-5.21875,-35.8203125,21.79296875,2.0
3356039,,,,,,,,-0.578125,-56.71484375,3.2421875,0.134765625,-0.115234375,0.833984375,-2.9609375,-55.3125,7.8125,2.0
3356540,36.01304233333334,129.31899166666665,35.30829540131151,71.27288720800891,2.8000000000000003,33.0,,6.91015625,3.09765625,-7.45703125,2.271484375,0.6015625,-4.095703125,11.328125,-15.2109375,-4.140625,2.0
3356541,,,,,,,,17.328125,-13.59375,-4.87109375,-0.22265625,0.4609375,-2.068359375,11.7890625,-11.87890625,5.12890625,2.0
3356542,,,,,,,,15.0,-11.90625,0.22265625,-1.61328125,0.060546875,0.0859375,10.296875,-14.9765625,2.44921875,2.0
3356543,,,,,,,,12.921875,-13.6796875,-3.421875,-1.24609375,0.17578125,0.787109375,8.07421875,-10.8046875,1.26171875,2.0
3356544,,,,,,,,11.27734375,-10.5703125,-3.66015625,-0.984375,-0.017578125,0.875,6.6171875,-9.4609375,1.52734375,2.0
3356545,,,,,,,,6.51171875,-8.515625,-2.2890625,-0.56640625,-0.43359375,1.16796875,-0.1640625,-9.765625,2.87109375,2.0
3356546,,,,,,,,1.421875,-9.2421875,-2.4296875,-0.88671875,-0.623046875,1.05859375,-2.34765625,-9.12109375,1.9140625,2.0
3356547,,,,,,,,0.78515625,-8.7578125,-3.0546875,-1.150390625,-0.685546875,0.90234375,-2.421875,-8.47265625,0.76171875,2.0
3356548,,,,,,,,0.203125,-6.2734375,-6.52734375,-1.26953125,-0.7421875,0.76953125,-3.3046875,-6.015625,-2.2265625,2.0
3356549,,,,,,,,-0.2421875,-5.53125,-7.2265625,-1.1796875,-0.5859375,0.794921875,-3.87890625,-5.63671875,-2.4921875,2.0
3356550,36.01304416666667,129.3189925,35.38341861797494,71.47631278783776,2.6,31.0,,-2.82421875,-3.7734375,-7.4765625,-1.154296875,-0.21875,1.240234375,-6.33203125,-4.21484375,-2.03515625,2.0
3356551,,,,,,,,-3.796875,-3.0625,-6.3359375,-1.009765625,-0.02734375,1.619140625,-6.59765625,-2.9140625,-0.578125,2.0
3356552,,,,,,,,-3.53125,-1.671875,-5.29296875,-0.83984375,0.341796875,1.673828125,-6.29296875,-1.9921875,0.11328125,2.0
3356553,,,,,,,,-3.09375,-0.90625,-4.67578125,-0.591796875,0.529296875,1.50390625,-5.79296875,-1.265625,0.41796875,2.0
3356554,,,,,,,,-2.41015625,-0.078125,-4.65234375,-0.146484375,0.525390625,1.185546875,-4.4140625,-0.421875,0.11328125,2.0
3356555,,,,,,,,-0.85546875,0.359375,-5.1328125,0.41015625,0.48046875,0.828125,-3.37890625,-1.41796875,-0.234375,2.0
3356556,,,,,,,,-0.30078125,-0.63671875,-5.2109375,0.638671875,0.46875,0.673828125,-2.9609375,-1.76171875,-0.65234375,2.0
3356557,,,,,,,,0.78515625,-2.55859375,-6.0078125,0.927734375,0.359375,0.451171875,-2.0390625,-3.828125,-1.0390625,2.0
3356558,,,,,,,,1.3828125,-3.46484375,-5.546875,1.0078125,0.203125,0.369140625,-1.6953125,-3.94921875,-0.1953125,2.0
3356559,,,,,,,,1.30859375,-2.23046875,-4.08984375,1.244140625,0.048828125,0.30859375,-1.88671875,-2.453125,1.56640625,2.0
3356560,36.013046333333335,129.31899216666667,35.35336803637219,71.71672435832548,2.5,19.0,,0.9609375,-0.73046875,-2.26171875,1.439453125,-0.017578125,0.01171875,-2.15625,-1.41796875,2.7109375,2.0
3356561,,,,,,,,0.83984375,0.37890625,-1.73046875,1.5859375,-0.08203125,-0.48046875,-2.26953125,-0.26953125,3.25,2.0
3356562,,,,,,,,1.0078125,2.29296875,-2.63671875,1.82421875,-0.09765625,-0.994140625,-2.078125,1.68359375,2.37109375,2.0
3356563,,,,,,,,1.15234375,3.51171875,-3.44921875,1.919921875,-0.083984375,-1.18359375,-1.92578125,2.90625,1.56640625,2.0
3356564,,,,,,,,1.0625,4.26171875,-3.9609375,1.947265625,-0.013671875,-1.30078125,-2.0,3.67578125,1.0703125,2.0
3356565,,,,,,,,0.31640625,4.5,-3.82421875,1.796875,0.0859375,-1.115234375,-2.73046875,3.9453125,1.22265625,2.0
3356566,,,,,,,,-0.37109375,3.38671875,-2.98828125,1.70703125,0.265625,-0.6171875,-3.4140625,2.87109375,2.06640625,2.0
3356567,,,,,,,,-1.4765625,-1.21875,-1.5703125,1.943359375,0.384765625,-0.380859375,-4.53515625,-1.6875,3.484375,2.0
3356568,,,,,,,,-1.12890625,-4.4609375,-2.18359375,2.126953125,0.41796875,-0.263671875,-4.18359375,-4.90625,2.87109375,2.0
3356569,,,,,,,,5.08984375,-30.6484375,-4.828125,2.6484375,0.359375,0.05859375,2.01953125,-30.99609375,0.2265625,2.0
3356570,36.0130485,129.31899299999998,35.42849109380802,71.95713635305087,2.5,16.0,,22.21484375,-63.05078125,5.125,1.439453125,-0.017578125,0.01171875,19.14453125,-63.28515625,10.1875,2.0
3356571,,,,,,,,34.43359375,-58.203125,26.1328125,1.755859375,-0.404296875,0.91796875,31.40234375,-58.34375,31.21875,2.0
3356572,,,,,,,,29.0234375,-37.38671875,11.26171875,1.255859375,0.001953125,0.33203125,26.0,-37.5,16.35546875,2.0
3356573,,,,,,,,10.46875,-18.8671875,-6.0703125,1.2890625,-0.19921875,-1.24609375,7.4609375,-19.00390625,-0.9609375,2.0
3356574,,,,,,,,-2.3046875,-12.3125,-3.39453125,3.388671875,-0.083984375,-3.720703125,-5.296875,-12.4140625,1.72265625,2.0
3356575,,,,,,,,-8.07421875,-18.4453125,-1.6484375,0.765625,0.4296875,-4.0546875,-11.04296875,-18.62109375,3.484375,2.0
3356576,,,,,,,,2.90625,-21.48828125,0.01171875,2.873046875,1.30078125,-1.791015625,-0.0859375,-21.72265625,5.12890625,2.0
3356577,,,,,,,,5.12109375,-22.57421875,1.0625,4.25390625,1.455078125,-0.2734375,2.09765625,-22.75390625,6.1640625,2.0
3356578,,,,,,,,6.9296875,-19.31640625,-2.03125,4.12890625,1.271484375,0.642578125,3.8203125,-19.19140625,3.0234375,2.0
3356579,,,,,,,,7.55078125,-18.03515625,-2.0546875,2.546875,1.869140625,-0.255859375,4.35546875,-17.734375,2.9453125,2.0
3356580,36.013050666666665,129.31899299999998,35.42849012425058,72.19754804588526,2.2,11.0,,9.046875,-15.5234375,-3.5234375,1.439453125,-0.017578125,0.01171875,5.7734375,-15.1328125,1.4140625,2.0
3356581,,,,,,,,7.984375,-13.93359375,-4.296875,3.64453125,2.173828125,0.333984375,4.625,-13.40625,0.5703125,2.0
3356582,,,,,,,,7.03515625,-12.80078125,-5.296875,3.3828125,2.1484375,0.482421875,3.58984375,-12.14453125,-0.5,2.0
3356583,,,,,,,,6.5859375,-11.25390625,-6.59765625,3.166015625,2.15234375,0.572265625,3.09375,-10.53125,-1.83984375,2.0
3356584,,,,,,,,6.9609375,-9.53125,-7.2109375,2.853515625,2.08203125,0.931640625,3.3984375,-8.6953125,-2.53125,2.0
3356585,,,,,,,,7.5703125,-5.69921875,-6.015625,2.76171875,1.896484375,1.525390625,3.9375,-4.71484375,-1.421875,2.0
3356586,,,,,,,,7.9375,-4.17578125,-4.84765625,2.81640625,1.44140625,2.265625,4.24609375,-2.98828125,-0.34765625,2.0
3356587,,,,,,,,7.68359375,-1.66796875,-4.1328125,2.810546875,1.126953125,2.314453125,3.96875,-0.30859375,0.3046875,2.0
3356588,,,,,,,,7.72265625,-0.98046875,-4.07421875,2.79296875,0.98046875,2.177734375,4.01171875,0.45703125,0.33984375,2.0
3356589,,,,,,,,8.05859375,0.86328125,-4.01953125,2.65625,0.79296875,1.73828125,4.35546875,2.44921875,0.33984375,2.0
3356590,36.013053,129.31899083333334,35.23316662319695,72.45645215938183,2.9000000000000004,351.0,,8.328125,2.28125,-4.515625,1.439453125,-0.017578125,0.01171875,5.7734375,-15.1328125,1.4140625,2.0
3356591,,,,,,,,10.12109375,0.66015625,-5.41796875,1.814453125,0.408203125,0.28125,6.421875,2.48828125,-1.15234375,2.0
3356592,,,,,,,,11.76953125,-2.359375,-5.5546875,1.607421875,0.298828125,-0.13671875,8.0703125,-0.5,-1.3046875,2.0
3356593,,,,,,,,11.26953125,-3.609375,-4.8125,1.4609375,0.20703125,-0.279296875,7.5703125,-1.7265625,-0.578125,2.0
3356594,,,,,,,,8.85546875,-3.9921875,-3.1953125,0.880859375,0.236328125,-0.26171875,5.15625,-2.109375,1.03125,2.0
3356595,,,,,,,,6.25390625,-2.93359375,-2.23828125,0.025390625,0.39453125,-0.19140625,2.55859375,-1.07421875,1.98828125,2.0
3356596,,,,,,,,2.8515625,-1.25390625,-0.4765625,-0.4296875,0.47265625,-0.18359375,-0.8515625,0.57421875,3.75,2.0
3356597,,,,,,,,-1.73828125,1.0078125,2.98828125,-1.248046875,0.6484375,-0.28125,-5.44921875,2.7578125,7.23828125,2.0
3356598,,,,,,,,-2.75,2.265625,2.47265625,-1.470703125,0.806640625,-0.375,-6.484375,3.90625,6.734375,2.0
3356599,,,,,,,,-0.07421875,2.4296875,-0.75390625,-0.30078125,0.90625,-0.25,-3.83984375,3.984375,3.51953125,2.0
3356600,36.01305483333333,129.31898933333332,35.09794256806822,72.65987689604704,2.4000000000000004,339.0,0.0,2.63671875,1.03515625,-3.01171875,1.111328125,0.798828125,0.05859375,-1.16015625,2.5625,1.22265625,2.0
3356601,,,,,,,,3.45703125,-2.015625,-2.91015625,1.130859375,0.685546875,0.318359375,-0.35546875,-0.4609375,1.296875,2.0
3356602,,,,,,,,3.12109375,-6.8203125,-1.890625,0.625,0.654296875,0.619140625,-0.69921875,-5.25,2.296875,2.0
3356603,,,,,,,,2.81640625,-13.15625,-0.8203125,0.171875,0.578125,0.990234375,-1.00390625,-11.5703125,3.3671875,2.0
3356604,,,,,,,,2.76171875,-24.86328125,2.3671875,0.076171875,0.517578125,1.49609375,-1.04296875,-23.25,6.546875,2.0
3356605,,,,,,,,-1.171875,-63.6015625,16.12109375,0.748046875,0.447265625,2.216796875,-4.953125,-61.94921875,20.30078125,2.0
3356606,,,,,,,,-2.02734375,-66.94921875,15.09375,1.51953125,0.484375,2.41796875,-5.79296875,-65.234375,19.265625,2.0
3356607,,,,,,,,-4.92578125,-50.2578125,8.12109375,2.69140625,0.333984375,1.8359375,-8.66796875,-48.421875,12.25390625,2.0
3356608,,,,,,,,2.59765625,-24.82421875,3.96875,1.953125,-0.388671875,-0.533203125,-1.12109375,-22.91015625,8.078125,2.0
3356609,,,,,,,,12.48828125,-19.58984375,-5.27734375,1.14453125,0.091796875,-3.162109375,8.76171875,-17.734375,-1.15234375,2.0
3356610,36.0130565,129.31898850000002,35.02281781371751,72.8448086679,1.8,335.0,,17.6640625,-14.54296875,-3.26171875,1.181640625,0.109375,-4.3203125,-1.16015625,2.5625,1.22265625,2.0
3356611,,,,,,,,12.74609375,-14.9140625,3.37890625,-0.880859375,-0.078125,-1.830078125,8.87890625,-13.4453125,7.50390625,2.0
3356612,,,,,,,,11.93359375,-17.2265625,1.07421875,-2.037109375,-0.00390625,0.169921875,8.07421875,-15.8984375,5.24609375,2.0
3356613,,,,,,,,11.49609375,-17.28515625,0.4453125,-1.58203125,0.234375,0.490234375,7.65234375,-16.0078125,4.6328125,2.0
3356614,,,,,,,,10.75390625,-17.0859375,0.10546875,-1.017578125,-0.02734375,0.330078125,6.92578125,-15.90234375,4.32421875,2.0
3356615,,,,,,,,8.72265625,-17.24609375,0.94140625,-0.791015625,-0.685546875,0.3984375,4.93359375,-16.12890625,5.20703125,2.0
3356616,,,,,,,,4.359375,-15.7734375,1.8046875,-0.642578125,-1.21484375,0.82421875,0.6796875,-14.75,6.1640625,2.0
3356617,,,,,,,,2.6640625,-13.58203125,0.39453125,-0.6953125,-1.341796875,0.76171875,-0.9296875,-12.60546875,4.82421875,2.0
3356618,,,,,,,,1.24609375,-10.1015625,-2.85546875,-0.908203125,-1.24609375,0.3671875,-2.26953125,-9.19921875,1.64453125,2.0
3356619,,,,,,,,-0.28125,-7.9765625,-5.90625,-1.21484375,-0.95703125,0.15234375,-3.7265625,-7.16796875,-1.34375,2.0
3356620,36.013057499999995,129.31898633333333,34.82749492110371,72.95576713388141,2.1,320.0,,-1.72265625,-5.8515625,-6.3046875,-1.28125,-0.736328125,0.466796875,-5.10546875,-5.1328125,-1.6875,2.0
3356621,,,,,,,,-2.96484375,-4.46484375,-4.58203125,-1.19921875,-0.439453125,1.15625,-6.2890625,-3.83203125,0.07421875,2.0
3356622,,,,,,,,-3.33984375,-2.140625,-3.6875,-1.072265625,0.04296875,1.69921875,-6.63671875,-1.5703125,0.9921875,2.0
3356623,,,,,,,,-2.859375,0.109375,-3.50390625,-0.681640625,0.333984375,1.767578125,-6.140625,0.6484375,1.18359375,2.0
3356624,,,,,,,,-2.13671875,1.16015625,-3.3515625,0.0234375,0.423828125,1.25,-4.984375,2.02734375,1.18359375,2.0
3356625,,,,,,,,-0.7578125,2.01953125,-4.14453125,0.623046875,0.216796875,0.521484375,-3.4140625,2.44921875,0.1484375,2.0
3356626,,,,,,,,0.734375,1.40625,-5.140625,0.91796875,0.029296875,0.1171875,-2.0390625,1.5703125,-0.76953125,2.0
3356627,,,,,,,,1.640625,0.5703125,-5.52734375,1.01171875,-0.134765625,-0.091796875,-1.16015625,0.57421875,-0.8828125,2.0
3356628,,,,,,,,2.3828125,-0.1953125,-5.5703125,1.056640625,-0.248046875,-0.08203125,-0.1640625,-0.19140625,-0.80859375,2.0
3356629,,,,,,,,3.35546875,-0.76953125,-5.2734375,1.306640625,-0.29296875,0.048828125,0.14453125,-0.2265625,-0.04296875,2.0
3356630,36.013058,129.3189835,34.572073041274145,73.01124574745783,2.4000000000000004,300.0,,-1.72265625,-5.8515625,-6.3046875,1.5,-0.31640625,0.158203125,-0.27734375,-0.19140625,0.7265625,2.0
3356631,,,,,,,,2.609375,-0.25,-2.98828125,1.484375,-0.29296875,0.130859375,-0.546875,0.3046875,1.71875,2.0
3356632,,,,,,,,1.66796875,1.03125,-1.96484375,1.5078125,-0.181640625,-0.02734375,-1.46484375,1.609375,2.75,2.0
3356633,,,,,,,,1.375,1.44921875,-2.0859375,1.54296875,-0.12890625,-0.166015625,-1.734375,2.06640625,2.640625,2.0
3356634,,,,,,,,0.90234375,2.66015625,-2.73828125,1.669921875,0.001953125,-0.46875,-2.19140625,3.2890625,1.98828125,2.0
3356635,,,,,,,,-0.5546875,2.23828125,-1.96484375,1.74609375,0.103515625,-0.59765625,-3.65234375,2.91015625,2.75390625,2.0
3356636,,,,,,,,-0.5546875,-0.54296875,-2.8359375,1.74609375,0.17578125,-0.40234375,-3.6484375,0.15234375,1.875,2.0
3356637,,,,,,,,-1.12890625,-11.5625,-3.75,2.00390625,0.2421875,0.447265625,-4.22265625,-10.80859375,0.953125,2.0
3356638,,,,,,,,-1.89453125,-17.00390625,-1.05078125,2.025390625,0.1796875,0.80078125,-4.98828125,-16.203125,3.63671875,2.0
3356639,,,,,,,,11.328125,-55.28125,9.4140625,1.416015625,-0.205078125,1.521484375,8.265625,-54.3984375,14.09375,2.0
3356640,36.013059500000004,129.31898133333334,34.37674994258779,73.17768384479359,2.3000000000000003,302.0,,24.8203125,-59.1796875,21.7421875,1.5,-0.31640625,0.158203125,-0.27734375,-0.19140625,0.7265625,2.0
3356641,,,,,,,,17.36328125,-28.26953125,7.73046875,2.9375,0.462890625,-0.328125,14.35546875,-27.23828125,12.41015625,2.0
3356642,,,,,,,,-2.33203125,-14.01953125,1.25390625,2.546875,0.73828125,-1.74609375,-5.37109375,-12.9453125,5.89453125,2.0
3356643,,,,,,,,-4.65234375,-14.5625,-5.38671875,1.72265625,0.720703125,-3.470703125,-7.74609375,-13.52734375,-0.76953125,2.0
3356644,,,,,,,,1.59765625,-22.015625,-5.69921875,2.462890625,0.919921875,-2.689453125,-1.54296875,-21.03515625,-1.11328125,2.0
3356645,,,,,,,,10.2890625,-27.8125,6.98046875,4.017578125,1.1953125,0.998046875,7.078125,-26.70703125,11.48828125,2.0
3356646,,,,,,,,8.12890625,-25.63671875,2.2265625,3.45703125,1.443359375,1.41796875,4.89453125,-24.36328125,6.6640625,2.0
3356647,,,,,,,,5.9921875,-20.53125,-2.76171875,2.48046875,1.806640625,0.396484375,2.7109375,-19.16015625,1.60546875,2.0
3356648,,,,,,,,5.9375,-18.41796875,-3.36328125,2.875,2.10546875,-0.037109375,2.59375,-16.96875,0.91796875,2.0
3356649,,,,,,,,6.515625,-17.40625,-2.66796875,3.013671875,2.154296875,0.16796875,3.09375,-15.90234375,1.52734375,2.0
3356650,36.0130605,129.31897916666668,34.1814270700413,73.28864232530294,2.2,298.0,,6.66015625,-16.65625,-1.65234375,2.9140625,2.130859375,0.53515625,3.16796875,-15.0546875,2.44921875,2.0
3356651,,,,,,,,6.93359375,-14.29296875,-3.46484375,2.73828125,1.884765625,0.734375,3.36328125,-12.5625,0.49609375,2.0
3356652,,,,,,,,7.20703125,-12.42578125,-4.18359375,2.728515625,1.7890625,0.771484375,3.58984375,-10.609375,-0.30859375,2.0
3356653,,,,,,,,7.4921875,-10.3203125,-4.796875,2.763671875,1.732421875,0.853515625,3.859375,-8.47265625,-0.9609375,2.0
3356654,,,,,,,,8.21484375,-6.765625,-4.08984375,2.916015625,1.60546875,1.0625,4.55078125,-4.828125,-0.34765625,2.0
3356655,,,,,,,,8.61328125,-4.5,-3.8125,2.935546875,1.412109375,1.2578125,4.93359375,-2.453125,-0.15625,2.0
3356656,,,,,,,,8.47265625,-1.796875,-3.3984375,2.79296875,1.1484375,1.25,4.7734375,0.34375,0.1875,2.0
3356657,,,,,,,,8.47265625,-0.6328125,-3.328125,2.591796875,0.931640625,1.037109375,4.77734375,1.609375,0.1875,2.0
3356658,,,,,,,,8.51171875,0.5234375,-3.6796875,2.501953125,0.873046875,0.865234375,4.8125,2.796875,-0.1953125,2.0
3356659,,,,,,,,8.51171875,-0.16015625,-3.96875,2.25390625,0.80859375,0.486328125,4.8125,2.18359375,-0.5390625,2.0
3356660,36.01306016666667,129.31897583333333,33.880931147895424,73.25165474776254,2.9000000000000004,283.0,,8.59765625,-1.80859375,-4.14453125,2.9140625,2.130859375,0.53515625,4.89453125,0.57421875,-0.76953125,2.0
3356661,,,,,,,,8.375,-4.26171875,-3.8828125,1.5,0.587890625,-0.15234375,4.66796875,-1.87890625,-0.5390625,2.0
3356662,,,,,,,,8.23046875,-4.7578125,-3.40625,1.10546875,0.63671875,0.0703125,4.2421875,-2.4921875,0.5703125,2.0
3356663,,,,,,,,7.08984375,-4.8359375,-0.89453125,0.4453125,0.625,0.474609375,2.94140625,-2.26171875,3.171875,2.0
3356664,,,,,,,,6.28515625,-4.29296875,0.5703125,-0.306640625,0.5625,0.64453125,1.33203125,-0.421875,4.9765625,2.0
3356665,,,,,,,,3.9765625,-1.6953125,2.5078125,-0.7578125,0.51171875,0.453125,-0.66015625,1.68359375,6.546875,2.0
3356666,,,,,,,,1.90234375,0.99609375,2.55078125,-0.794921875,0.423828125,0.01171875,-1.80859375,3.984375,4.90234375,2.0
3356667,,,,,,,,1.9765625,2.09375,0.26171875,-0.197265625,0.361328125,-0.5546875,-1.54296875,4.67578125,2.48828125,2.0
3356668,,,,,,,,2.33984375,2.9921875,-2.015625,0.16015625,0.26171875,-0.91796875,-1.3125,5.359375,-0.078125,2.0
3356669,,,,,,,,2.421875,2.953125,-3.83203125,0.166015625,0.064453125,-0.703125,-1.50390625,4.515625,-0.4609375,2.0
3356670,36.01306016666667,129.31897266666667,33.59545988949863,73.25165365144348,2.9000000000000004,274.0,,1.734375,0.81640625,-3.578125,-0.046875,-0.072265625,-0.1171875,-2.0,2.8671875,-0.15625,2.0
3356671,,,,,,,,1.3046875,-1.703125,-2.23046875,-0.177734375,-0.189453125,0.642578125,-2.421875,0.3046875,1.22265625,2.0
3356672,,,,,,,,1.2734375,-9.05078125,-0.19140625,-0.056640625,-0.2421875,1.337890625,-2.421875,-7.046875,3.29296875,2.0
3356673,,,,,,,,-1.9921875,-26.87109375,8.08203125,0.271484375,-0.193359375,1.666015625,-5.640625,-24.859375,11.60546875,2.0
3356674,,,,,,,,-0.8203125,-46.515625,11.3125,0.99609375,-0.177734375,1.802734375,-4.4140625,-44.48046875,14.859375,2.0
3356675,,,,,,,,-2.4765625,-64.4296875,11.6484375,3.376953125,-0.048828125,1.544921875,-6.0234375,-62.33203125,15.203125,2.0
3356676,,,,,,,,-3.234375,-51.0546875,7.65234375,3.68359375,-0.138671875,1.2109375,-6.75,-48.8828125,11.18359375,2.0
3356677,,,,,,,,0.79296875,-23.796875,4.6640625,1.0,-0.19921875,-0.6015625,1.0234375,-17.0859375,4.1328125,2.0
3356678,,,,,,,,6.84765625,-15.7578125,-4.84375,0.328125,0.478515625,-3.3203125,3.36328125,-13.52734375,-1.34375,2.0
3356679,,,,,,,,12.6640625,-18.3671875,0.01171875,0.857421875,-0.103515625,-3.095703125,9.109375,-16.28125,3.51953125,2.0
3356680,36.013060333333335,129.31897016666665,33.37008776962638,73.27014599933537,2.5,271.0,,14.6328125,-21.48828125,8.90625,0.091796875,-0.236328125,-0.845703125,11.0234375,-19.5703125,12.4453125,2.0
3356681,,,,,,,,11.52734375,-19.24609375,1.5078125,-1.005859375,-0.525390625,0.794921875,7.95703125,-17.39453125,5.09375,2.0
3356682,,,,,,,,9.63671875,-17.3359375,0.6328125,-1.421875,-0.724609375,0.37890625,6.12109375,-15.55859375,4.2890625,2.0
3356683,,,,,,,,6.72265625,-15.69140625,1.43359375,-1.275390625,-1.1796875,0.041015625,3.28515625,-14.0546875,5.20703125,2.0
3356684,,,,,,,,4.73828125,-14.375,1.8359375,-1.0703125,-1.6328125,0.330078125,1.37109375,-12.8359375,5.703125,2.0
3356685,,,,,,,,2.0390625,-11.71875,-0.1015625,-1.123046875,-1.947265625,0.3984375,-1.234375,-10.265625,3.8671875,2.0
3356686,,,,,,,,0.71875,-9.99609375,-2.06640625,-1.208984375,-1.943359375,0.310546875,-2.5,-8.58203125,1.94921875,2.0
3356687,,,,,,,,-0.5625,-8.515625,-2.97265625,-1.455078125,-1.810546875,0.197265625,-3.6875,-7.203125,1.14453125,2.0
3356688,,,,,,,,-2.6484375,-5.6875,-2.75,-1.55078125,-1.6875,0.478515625,-5.68359375,-4.484375,1.453125,2.0
3356689,,,,,,,,-2.85546875,-5.171875,-2.453125,-1.283203125,-1.560546875,0.912109375,-5.7890625,-4.0625,1.8359375,2.0
3356690,36.013059500000004,129.31896733333332,33.11466646290108,73.17767899658958,2.9000000000000004,264.0,,-3.5234375,-3.03125,-3.13671875,-1.001953125,-1.220703125,1.0546875,-6.37109375,-1.9921875,1.22265625,2.0
3356691,,,,,,,,-4.58984375,-0.35546875,-3.91015625,-0.794921875,-1.00390625,0.90625,-7.36328125,0.61328125,0.49609375,2.0
3356692,,,,,,,,-4.73046875,1.0390625,-4.265625,-0.599609375,-0.841796875,0.775390625,-7.44140625,1.953125,0.1875,2.0
3356693,,,,,,,,-4.5234375,1.7578125,-4.36328125,-0.482421875,-0.767578125,0.771484375,-7.2109375,2.640625,0.11328125,2.0
3356694,,,,,,,,-3.14453125,3.15625,-4.6328125,0.0546875,-0.693359375,0.775390625,-5.75,3.984375,-0.1171875,2.0
3356695,,,,,,,,-2.43359375,2.7109375,-4.6328125,0.50390625,-0.857421875,0.775390625,-4.984375,3.5234375,-0.078125,2.0
3356696,,,,,,,,-0.26953125,1.0234375,-4.765625,0.9921875,-0.96875,0.76171875,-2.76953125,1.8359375,-0.1953125,2.0
3356697,,,,,,,,1.5078125,-0.4609375,-5.25390625,1.611328125,-0.904296875,0.73046875,-0.9296875,0.3828125,-0.65234375,2.0
3356698,,,,,,,,2.01953125,-0.984375,-5.30078125,1.896484375,-0.884765625,0.6953125,-0.39453125,-0.1171875,-0.69140625,2.0
3356699,,,,,,,,3.453125,-2.2109375,-5.0703125,2.361328125,-0.8359375,0.626953125,1.1015625,-1.265625,-0.4609375,2.0
3356700,36.01305850000001,129.31896483333333,32.88929483183995,73.06671890704253,2.8000000000000003,258.0,0.0,4.25,-2.171875,-4.62109375,-1.001953125,-1.220703125,1.0546875,-6.37109375,-1.9921875,1.22265625,2.0
3356701,,,,,,,,4.921875,-1.140625,-3.9296875,2.328125,-0.62109375,0.431640625,2.67578125,-0.0390625,0.6875,2.0
3356702,,,,,,,,5.2734375,0.0625,-4.046875,1.919921875,-0.505859375,0.271484375,3.05859375,1.2265625,0.5703125,2.0
3356703,,,,,,,,5.2109375,0.34375,-4.23828125,1.66015625,-0.439453125,0.18359375,3.015625,1.53125,0.37890625,2.0
3356704,,,,,,,,4.5,0.54296875,-5.42578125,1.20703125,-0.220703125,0.01953125,2.328125,1.76171875,-0.80859375,2.0
3356705,,,,,,,,4.1015625,0.42578125,-6.15234375,0.8125,0.076171875,-0.150390625,1.9453125,1.64453125,-1.53515625,2.0
3356706,,,,,,,,3.44140625,-0.98046875,-6.65234375,0.73046875,0.234375,-0.140625,1.29296875,0.23046875,-2.03515625,2.0
3356707,,,,,,,,2.56640625,-2.3984375,-6.18359375,0.744140625,0.38671875,-0.044921875,0.41015625,-1.1875,-1.57421875,2.0
3356708,,,,,,,,1.76171875,-3.15625,-5.484375,0.720703125,0.455078125,0.015625,-0.39453125,-1.953125,-0.8828125,2.0
3356709,,,,,,,,-1.890625,-10.0078125,-0.10546875,0.54296875,0.654296875,0.109375,-4.0703125,-8.81640625,4.48046875,2.0
3357220,36.013043333333336,129.318992,35.33834456978161,71.38384657088704,2.4000000000000004,21.0,,6.25,-4.953125,-4.90234375,0.9140625,0.318359375,-0.4296875,9.30078125,-23.2890625,8.15625,2.0
3357221,,,,,,,,6.58984375,-2.3125,-6.33984375,3.623046875,2.0703125,0.189453125,4.55078125,-10.26953125,-1.83984375,2.0
3357222,,,,,,,,7.0625,1.71875,-7.11328125,3.3359375,1.962890625,0.259765625,5.0859375,-6.44140625,-2.33984375,2.0
3357223,,,,,,,,6.73046875,4.2734375,-6.86328125,3.087890625,1.6875,0.67578125,4.81640625,-4.0234375,-1.83984375,2.0
3357224,,,,,,,,6.27734375,6.06640625,-6.2265625,3.0234375,1.365234375,1.16796875,4.39453125,-2.30078125,-1.0,2.0
3357225,,,,,,,,5.390625,7.1171875,-6.4140625,2.859375,1.1796875,1.529296875,3.51953125,-1.2265625,-1.0,2.0
3357226,,,,,,,,4.109375,9.16015625,-6.4375,2.474609375,1.00390625,1.59375,2.25,0.87890625,-0.8828125,2.0
3357227,,,,,,,,3.17578125,9.94140625,-6.34765625,2.0234375,0.92578125,1.5234375,1.33203125,1.76171875,-0.73046875,2.0
3357228,,,,,,,,2.70703125,10.7890625,-6.1484375,1.541015625,0.85546875,1.40234375,0.87109375,2.7578125,-0.5,2.0
3357229,,,,,,,,3.21875,9.94140625,-5.84375,1.12109375,0.701171875,1.18359375,1.40625,2.06640625,-0.234375,2.0
3357230,36.01304566666667,129.31899149999998,35.2932691088159,71.64275128901207,2.9000000000000004,7.0,,4.125,8.30859375,-5.95703125,0.9140625,0.318359375,-0.4296875,9.30078125,-23.2890625,8.15625,2.0
3357231,,,,,,,,5.64453125,6.36328125,-5.5625,1.09375,-0.052734375,0.6171875,4.046875,-1.03515625,-0.15625,2.0
3357232,,,,,,,,5.90234375,6.2578125,-5.046875,1.166015625,-0.203125,0.330078125,4.55078125,-0.8046875,0.2265625,2.0
3357233,,,,,,,,5.73828125,6.5234375,-4.69140625,1.11328125,-0.17578125,0.19921875,4.46875,-0.421875,0.53515625,2.0
3357234,,,,,,,,5.19921875,6.75,-4.28515625,1.0234375,-0.107421875,-0.064453125,4.12890625,0.0390625,0.83984375,2.0
3357235,,,,,,,,4.2578125,7.203125,-2.453125,0.73046875,-0.005859375,-0.337890625,2.9765625,0.99609375,3.328125,2.0
3357236,,,,,,,,1.51953125,7.93359375,0.4140625,-0.001953125,0.05078125,-0.599609375,-0.96875,1.9921875,7.01171875,2.0
3357237,,,,,,,,-2.0078125,8.2890625,3.03125,-0.705078125,0.115234375,-0.876953125,-3.1875,1.8359375,7.3125,2.0
3357238,,,,,,,,-2.8984375,7.30859375,1.53125,-0.6484375,0.197265625,-0.8828125,-3.265625,1.37890625,6.2421875,2.0
3357239,,,,,,,,-2.234375,4.5,0.23828125,0.154296875,0.453125,-0.4765625,-2.23046875,-3.10546875,4.359375,2.0
3357240,36.013048000000005,129.31899149999998,35.293268068973546,71.90165618761495,2.6,4.0,,-1.23828125,-3.3359375,-0.95703125,0.578125,0.513671875,0.3515625,-1.00390625,-13.41015625,5.015625,2.0
3357241,,,,,,,,1.83984375,-16.30859375,1.9609375,0.82421875,0.6484375,1.1953125,0.44921875,-29.84765625,6.43359375,2.0
3357242,,,,,,,,-1.58203125,-48.80859375,5.31640625,1.453125,0.830078125,1.81640625,-3.80078125,-52.09375,9.53515625,2.0
3357243,,,,,,,,-7.62890625,-57.4375,12.6171875,1.6484375,0.798828125,1.615234375,-9.89453125,-60.68359375,16.8515625,2.0
3357244,,,,,,,,-11.91015625,-36.9140625,22.0390625,1.76171875,-0.0078125,1.4609375,-14.26171875,-40.0703125,26.3125,2.0
3357245,,,,,,,,6.94140625,-13.83203125,-5.2109375,1.2578125,-0.373046875,-0.291015625,4.55078125,-16.890625,-0.8828125,2.0
3357246,,,,,,,,11.08984375,-11.57421875,-9.48828125,3.03125,0.498046875,-3.95703125,8.76171875,-14.59375,-5.05859375,2.0
3357247,,,,,,,,17.65625,-11.98046875,-2.05859375,2.37890625,0.251953125,-3.548828125,15.43359375,-14.98046875,2.44921875,2.0
3357248,,,,,,,,14.6953125,-13.6640625,0.7890625,1.326171875,0.35546875,-2.44140625,12.515625,-16.6640625,5.3203125,2.0
3357249,,,,,,,,12.17578125,-16.53515625,0.69140625,-1.650390625,-0.033203125,0.548828125,10.02734375,-19.609375,5.20703125,2.0
3357250,36.01304983333333,129.31899116666668,35.263217644580756,72.10508134510485,2.2,0.0,,9.5859375,-16.2578125,1.03515625,0.578125,0.513671875,0.3515625,-1.00390625,-13.41015625,5.015625,2.0
3357251,,,,,,,,7.91015625,-13.8046875,0.43359375,-1.177734375,-0.396484375,0.72265625,5.73828125,-17.046875,4.86328125,2.0
3357252,,,,,,,,5.2421875,-10.640625,-0.36328125,-0.31640625,-1.029296875,0.529296875,3.09375,-13.9453125,4.05859375,2.0
3357253,,,,,,,,3.37890625,-9.3671875,-0.37109375,-0.234375,-1.181640625,0.515625,1.25390625,-12.6796875,4.05859375,2.0
3357254,,,,,,,,1.5703125,-8.21875,0.1015625,-0.37890625,-1.228515625,0.43359375,-0.5078125,-11.57421875,4.5546875,2.0
3357255,,,,,,,,0.44921875,-6.45703125,-1.28515625,-0.724609375,-1.099609375,0.369140625,-1.58203125,-9.84375,3.17578125,2.0
3357256,,,,,,,,-0.546875,-3.8359375,-3.7265625,-1.025390625,-0.896484375,0.271484375,-2.5390625,-7.28515625,0.7265625,2.0
3357257,,,,,,,,-1.41796875,-2.484375,-5.11328125,-1.41015625,-0.578125,0.193359375,-3.37890625,-6.015625,-0.69140625,2.0
3357258,,,,,,,,-2.0390625,-1.87109375,-5.51953125,-1.54296875,-0.38671875,0.236328125,-3.9921875,-5.44140625,-1.11328125,2.0
3357259,,,,,,,,-3.91796875,0.78125,-5.2734375,-1.529296875,-0.04296875,0.603515625,-5.8671875,-2.875,-0.921875,2.0
3357260,36.01305133333334,129.31898933333332,35.09794411960637,72.27151954767074,2.4000000000000004,341.0,,-4.0546875,2.40625,-3.89453125,-0.888671875,0.38671875,1.453125,-1.00390625,-13.41015625,5.015625,2.0
3357261,,,,,,,,-3.39453125,3.8046875,-2.3203125,-0.28515625,0.75,1.654296875,-5.48828125,0.0390625,1.9140625,2.0
3357262,,,,,,,,-2.05078125,5.48046875,-2.8046875,0.16796875,0.8828125,1.27734375,-4.21875,1.72265625,1.4140625,2.0
3357263,,,,,,,,-1.4765625,5.77734375,-3.02734375,0.3515625,0.8359375,0.912109375,-3.6875,2.02734375,1.18359375,2.0
3357264,,,,,,,,-0.37890625,6.4453125,-3.67578125,0.859375,0.6640625,-0.103515625,-2.65234375,2.72265625,0.53515625,2.0
3357265,,,,,,,,0.78515625,6.4765625,-5.65625,1.068359375,0.59375,-0.5078125,-1.50390625,2.76171875,-1.421875,2.0
3357266,,,,,,,,0.31640625,5.00390625,-5.9140625,1.060546875,0.455078125,-0.640625,-1.9609375,1.30078125,-1.6484375,2.0
3357267,,,,,,,,0.15625,3.6640625,-5.3203125,0.82421875,0.259765625,-0.4140625,-2.1171875,-0.0390625,-1.0390625,2.0
3357268,,,,,,,,0.34765625,3.2734375,-4.828125,0.685546875,0.1796875,-0.177734375,-1.921875,-0.421875,-0.5390625,2.0
3357269,,,,,,,,0.9765625,2.8671875,-4.09375,0.82421875,0.0390625,0.50390625,-1.3125,-0.8046875,0.2265625,2.0
3357270,36.01305283333333,129.31898766666666,34.94769541017376,72.43795781265392,2.3000000000000003,331.0,,1.71875,3.81640625,-2.8984375,1.302734375,-0.00390625,0.626953125,-0.5859375,0.19140625,1.45703125,2.0
3357271,,,,,,,,1.46875,4.02734375,-2.265625,1.646484375,0.013671875,0.5390625,-0.8515625,0.45703125,2.14453125,2.0
3357272,,,,,,,,0.640625,4.41796875,-1.58984375,1.779296875,0.046875,0.255859375,-1.6953125,0.91796875,2.87109375,2.0
3357273,,,,,,,,-0.39453125,5.19921875,-1.21875,1.849609375,0.173828125,-0.2421875,-2.73046875,1.80078125,3.328125,2.0
3357274,,,,,,,,-0.35546875,5.51953125,-2.26953125,1.94140625,0.287109375,-0.41796875,-2.6875,2.18359375,2.33203125,2.0
3357275,,,,,,,,-2.80859375,4.4140625,-2.078125,1.96484375,0.412109375,-0.302734375,-5.14453125,1.1875,2.6015625,2.0
3357276,,,,,,,,-4.25390625,-0.484375,-3.734375,1.966796875,0.537109375,-0.041015625,-6.59765625,-3.640625,0.9921875,2.0
3357277,,,,,,,,-6.4453125,-5.671875,-2.171875,2.21484375,0.5859375,0.287109375,-8.82421875,-8.734375,2.6015625,2.0
3357278,,,,,,,,-7.40234375,-15.8203125,0.6484375,2.287109375,0.375,0.67578125,-9.81640625,-18.7734375,5.4765625,2.0
3357279,,,,,,,,0.63671875,-27.6640625,-4.82421875,3.09375,0.177734375,0.857421875,-1.80859375,-30.4921875,0.07421875,2.0
3357280,36.013055,129.31898683333333,34.872570432174044,72.6783692060239,2.3000000000000003,335.0,,35.5625,-66.265625,6.3515625,4.43359375,0.3828125,0.603515625,-0.5859375,0.19140625,1.45703125,2.0
3357281,,,,,,,,39.81640625,-66.9375,33.02734375,3.900390625,1.005859375,0.12890625,37.30078125,-69.37890625,38.11328125,2.0
3357282,,,,,,,,18.6953125,-32.59375,9.4453125,1.263671875,0.880859375,0.197265625,16.15625,-34.9765625,14.5546875,2.0
3357283,,,,,,,,4.74609375,-19.40625,-6.765625,0.033203125,0.9296875,-0.9765625,2.17578125,-21.8359375,-1.6875,2.0
3357284,,,,,,,,-0.11328125,-14.10546875,-11.72265625,2.51171875,0.80078125,-4.013671875,-2.65234375,-16.55078125,-6.62890625,2.0
3357285,,,,,,,,4.16015625,-16.41796875,2.15625,3.46484375,0.69140625,-3.021484375,1.67578125,-18.84375,7.3125,2.0
3357286,,,,,,,,4.64453125,-19.32421875,11.42578125,4.01171875,0.93359375,-1.51171875,2.17578125,-21.68359375,16.62109375,2.0
3357287,,,,,,,,2.5078125,-21.19921875,0.171875,3.51953125,1.384765625,0.771484375,-0.0859375,-23.2109375,5.4765625,2.0
3357288,,,,,,,,7.15234375,-13.84765625,-6.15234375,3.1484375,2.359375,-1.154296875,4.43359375,-15.66796875,-0.80859375,2.0
3357289,,,,,,,,8.00390625,-13.0234375,-4.95703125,3.1875,2.599609375,-0.958984375,5.23828125,-14.7890625,0.37890625,2.0
3357290,36.01305683333333,129.31898533333333,34.737346391108616,72.88179394809845,2.0,330.0,,9.26953125,-12.265625,-2.8046875,3.1015625,2.599609375,0.015625,6.38671875,-13.90625,2.5234375,2.0
3357291,,,,,,,,9.35546875,-12.3828125,-3.0546875,2.662109375,2.427734375,0.59375,6.34765625,-13.91015625,2.2578125,2.0
3357292,,,,,,,,9.3125,-12.29296875,-3.57421875,2.498046875,2.34375,0.60546875,6.234375,-13.75390625,1.72265625,2.0
3357293,,,,,,,,9.453125,-9.65234375,-4.3125,2.568359375,2.162109375,0.53515625,6.2734375,-10.99609375,0.953125,2.0
3357294,,,,,,,,8.796875,-6.55859375,-5.29296875,2.96484375,1.8359375,0.623046875,5.5078125,-7.7734375,-0.04296875,2.0
3357295,,,,,,,,7.91796875,-0.546875,-5.8671875,3.392578125,1.46484375,0.75,4.55078125,-1.609375,-0.6171875,2.0
3357296,,,,,,,,6.984375,1.8359375,-5.58984375,3.28515625,1.318359375,0.78515625,3.51953125,1.03125,-0.34765625,2.0
3357297,,,,,,,,5.69921875,4.8671875,-5.15234375,2.57421875,1.224609375,0.583984375,2.17578125,4.21484375,0.07421875,2.0
3357298,,,,,,,,6.08984375,4.390625,-4.1484375,1.861328125,1.05078125,0.28515625,2.51953125,3.828125,1.0703125,2.0
3357299,,,,,,,,6.95703125,3.5546875,-3.7578125,1.609375,0.9296875,0.15234375,3.359375,3.0234375,1.453125,2.0
3357300,36.013057333333336,129.31898266666667,34.496949312760925,72.93727262370413,2.6,305.0,0.0,10.28125,1.203125,-2.86328125,3.1015625,2.599609375,0.015625,6.66015625,0.7265625,2.33203125,2.0
3357301,,,,,,,,11.40625,0.7421875,-2.32421875,1.51953125,0.619140625,-0.20703125,7.76953125,0.3046875,2.87109375,2.0
3357302,,,,,,,,11.03125,0.6875,-2.25,1.48828125,0.59375,-0.234375,7.3828125,0.265625,2.9453125,2.0
3357303,,,,,,,,9.0703125,0.50390625,-3.19921875,0.41015625,0.626953125,0.005859375,5.39453125,0.11328125,1.98828125,2.0
3357304,,,,,,,,5.67578125,1.5546875,-3.57421875,-0.046875,0.671875,0.052734375,1.98046875,1.1484375,1.60546875,2.0
3357305,,,,,,,,3.5859375,2.703125,-3.2421875,-0.439453125,0.75,0.0625,-0.125,2.26171875,1.9140625,2.0
3357306,,,,,,,,1.6484375,3.72265625,-2.70703125,-0.66796875,0.78515625,0.072265625,-2.078125,3.25,2.44921875,2.0
3357307,,,,,,,,-0.58984375,4.55859375,-2.0625,-1.11328125,0.818359375,0.1015625,-4.3359375,4.01953125,3.0625,2.0
3357308,,,,,,,,-1.515625,4.37109375,-1.734375,-1.169921875,0.75390625,0.12109375,-5.30078125,3.75390625,3.3671875,2.0
3357309,,,,,,,,-1.0859375,3.10546875,-2.21484375,-0.951171875,0.66015625,0.171875,-4.875,2.44921875,2.87109375,2.0
3357310,36.01305816666666,129.3189805,34.30162650550752,73.02973789320998,2.4000000000000004,294.0,,1.015625,-1.296875,-2.31640625,0.298828125,0.435546875,0.564453125,-2.80859375,-1.9921875,2.75390625,2.0
3357311,,,,,,,,0.32421875,-10.875,-0.515625,0.71484375,0.287109375,0.91796875,-3.49609375,-11.53515625,4.5546875,2.0
3357312,,,,,,,,-3.375,-31.109375,9.70703125,0.7421875,0.212890625,1.517578125,-7.2109375,-31.68359375,14.78515625,2.0
3357313,,,,,,,,-3.796875,-37.96875,11.66015625,0.86328125,0.28125,1.79296875,-7.6328125,-38.50390625,16.73828125,2.0
3357314,,,,,,,,-1.828125,-41.92578125,10.6171875,2.318359375,0.291015625,1.84375,-5.6796875,-42.328125,15.703125,2.0
3357315,,,,,,,,3.49609375,-12.29296875,0.6015625,2.201171875,0.123046875,0.279296875,-0.35546875,-12.56640625,5.703125,2.0
3357316,,,,,,,,8.1328125,-16.58203125,5.109375,1.24609375,0.443359375,-2.822265625,4.28125,-16.89453125,10.2265625,2.0
3357317,,,,,,,,8.890625,-17.96875,5.1015625,1.17578125,0.140625,-1.623046875,5.046875,-18.35546875,10.2265625,2.0
3357318,,,,,,,,8.4609375,-17.69140625,4.6640625,1.044921875,-0.0078125,-0.056640625,4.625,-18.078125,9.8046875,2.0
3357319,,,,,,,,7.25,-15.67578125,2.80078125,0.3671875,-0.0859375,0.26171875,3.4375,-16.046875,7.96484375,2.0
3357320,36.013059,129.31897866666668,34.136353306295625,73.12220328572195,1.9000000000000001,290.0,,7.6875,-15.046875,1.28515625,0.041015625,-0.2265625,0.375,3.8984375,-15.4375,6.47265625,2.0
3357321,,,,,,,,6.96484375,-15.33203125,1.86328125,0.0,-0.419921875,0.638671875,3.20703125,-15.74609375,7.08203125,2.0
3357322,,,,,,,,6.875,-15.1796875,1.8203125,-0.087890625,-0.5078125,0.8359375,3.1328125,-15.59765625,7.046875,2.0
3357323,,,,,,,,7.02734375,-13.9765625,0.01953125,-0.359375,-0.666015625,1.134765625,3.32421875,-14.40625,5.28515625,2.0
3357324,,,,,,,,6.78125,-12.1953125,-1.74609375,-0.470703125,-0.818359375,1.21484375,3.1328125,-12.64453125,3.55859375,2.0
3357325,,,,,,,,5.5390625,-11.015625,-2.43359375,-0.763671875,-0.8671875,1.23046875,1.9453125,-11.4921875,2.91015625,2.0
3357326,,,,,,,,4.48046875,-9.69921875,-2.87890625,-0.986328125,-0.892578125,1.224609375,0.91015625,-10.19140625,2.48828125,2.0
3357327,,,,,,,,3.7734375,-8.140625,-3.76171875,-1.26171875,-0.90625,1.248046875,0.2578125,-8.6953125,1.64453125,2.0
3357328,,,,,,,,2.6015625,-5.3203125,-5.2109375,-1.3203125,-0.865234375,1.208984375,-0.8515625,-5.94140625,0.2265625,2.0
3357329,,,,,,,,2.1171875,-4.5546875,-5.45703125,-1.30859375,-0.84765625,1.189453125,-1.3125,-5.2109375,-0.00390625,2.0
3357330,36.01305933333333,129.318976,33.89595630711887,73.15918876931659,2.6,281.0,,0.33984375,-1.08203125,-6.1171875,0.041015625,-0.2265625,0.375,-2.99609375,-1.87890625,-0.6171875,2.0
3357331,,,,,,,,-0.7109375,0.54296875,-5.87890625,-0.939453125,-0.564453125,1.19140625,-3.99609375,-0.34765625,-0.34765625,2.0
3357332,,,,,,,,-1.625,1.46484375,-5.58984375,-0.71875,-0.498046875,1.1796875,-4.875,0.53515625,-0.04296875,2.0
3357333,,,,,,,,-2.7421875,2.59765625,-5.3671875,-0.611328125,-0.443359375,1.15234375,-5.98828125,1.64453125,0.1875,2.0
3357334,,,,,,,,-3.3125,3.1953125,-5.22265625,-0.314453125,-0.384765625,1.025390625,-6.52734375,2.21875,0.33984375,2.0
3357335,,,,,,,,-3.2890625,2.68359375,-6.41796875,-0.037109375,-0.34765625,0.859375,-6.484375,1.68359375,-0.84765625,2.0
3357336,,,,,,,,-2.0078125,0.921875,-6.96875,0.265625,-0.353515625,0.677734375,-5.1796875,-0.078125,-1.3828125,2.0
3357337,,,,,,,,0.2265625,-0.28125,-6.37890625,0.62109375,-0.44140625,0.669921875,-2.921875,-1.265625,-0.76953125,2.0
3357338,,,,,,,,0.85546875,-0.42578125,-5.78125,1.138671875,-0.4296875,0.759765625,-2.26953125,-1.37890625,-0.15625,2.0
3357339,,,,,,,,1.7890625,-0.19140625,-3.7421875,1.60546875,-0.41796875,0.78515625,-1.3125,-1.07421875,1.91796875,2.0
3357340,36.013059,129.31897333333333,33.655559596595886,73.12220143059817,2.7,271.0,,2.37109375,0.4140625,-2.96484375,0.041015625,-0.2265625,0.375,-2.99609375,-1.87890625,-0.6171875,2.0
3357341,,,,,,,,2.1953125,1.0859375,-3.30078125,1.95703125,-0.43359375,0.416015625,-0.8515625,0.3828125,2.41015625,2.0
3357342,,,,,,,,1.6875,1.65234375,-3.421875,1.939453125,-0.4140625,0.263671875,-1.3515625,0.99609375,2.30078125,2.0
3357343,,,,,,,,0.23828125,2.33984375,-3.9921875,1.7734375,-0.376953125,0.046875,-2.765625,1.76171875,1.7578125,2.0
3357344,,,,,,,,-0.2890625,2.56640625,-4.16796875,1.70703125,-0.326171875,0.013671875,-3.26953125,2.06640625,1.60546875,2.0
3357345,,,,,,,,-0.17578125,0.9921875,-5.73046875,2.048828125,-0.158203125,0.333984375,-3.11328125,0.6484375,0.07421875,2.0
3357346,,,,,,,,0.23828125,-8.66015625,-7.203125,2.333984375,-0.056640625,0.587890625,-2.69140625,-8.8828125,-1.3828125,2.0
3357347,,,,,,,,-0.0390625,-21.05859375,-6.58203125,2.369140625,-0.0625,0.78515625,-2.9609375,-21.21875,-0.76953125,2.0
3357348,,,,,,,,8.52734375,-45.2109375,2.05859375,2.29296875,-0.296875,1.4453125,5.62109375,-45.24609375,7.88671875,2.0
3357349,,,,,,,,19.1015625,-57.83984375,9.8984375,2.24609375,-0.716796875,2.19921875,16.234375,-57.7265625,15.7421875,2.0
3357350,36.01305983333334,129.31897066666667,33.41516239079076,73.21466654838319,2.4000000000000004,274.0,,27.13671875,-31.83984375,2.10546875,0.041015625,-0.2265625,0.375,24.31640625,-31.52734375,7.96484375,2.0
3357351,,,,,,,,6.1953125,-18.0703125,-1.6796875,3.404296875,-0.21484375,-0.70703125,3.3984375,-17.55078125,4.171875,2.0
3357352,,,,,,,,-3.37890625,-17.80859375,-1.48828125,1.396484375,0.267578125,-3.21875,-6.17578125,-17.23828125,4.36328125,2.0
3357353,,,,,,,,-3.109375,-19.1171875,-5.48828125,1.29296875,0.63671875,-3.095703125,-5.9453125,-18.6171875,0.33984375,2.0
3357354,,,,,,,,6.96484375,-23.93359375,-2.50390625,3.677734375,0.705078125,0.384765625,4.08984375,-23.328125,3.29296875,2.0
3357355,,,,,,,,9.66796875,-24.42578125,-1.5859375,3.84375,0.58984375,0.74609375,6.76953125,-23.6328125,4.171875,2.0
3357356,,,,,,,,10.51953125,-22.99609375,-2.90234375,3.658203125,0.623046875,0.38671875,7.61328125,-22.10546875,2.83203125,2.0
3357357,,,,,,,,8.75,-20.4609375,-5.0078125,3.158203125,0.80859375,-0.455078125,5.8125,-19.42578125,0.6875,2.0
3357358,,,,,,,,7.13671875,-17.62890625,-5.4765625,2.796875,1.029296875,-0.41015625,4.12890625,-16.4296875,0.1484375,2.0
3357359,,,,,,,,6.96875,-16.86328125,-5.328125,2.732421875,1.044921875,-0.24609375,3.9375,-15.62890625,0.265625,2.0
3357360,36.01306,129.31896816666668,33.18979027328234,73.23315890186089,2.5,269.0,,6.890625,-15.09765625,-5.80078125,2.7265625,1.08984375,0.16015625,3.8203125,-13.75390625,-0.26953125,2.0
3357361,,,,,,,,7.25390625,-13.03125,-6.8984375,2.759765625,1.140625,0.37890625,4.12890625,-11.5703125,-1.421875,2.0
3357362,,,,,,,,7.63671875,-10.61328125,-7.79296875,2.740234375,1.15625,0.390625,4.47265625,-9.04296875,-2.37890625,2.0
3357363,,,,,,,,8.48046875,-7.07421875,-7.65234375,2.6015625,1.13671875,0.505859375,5.27734375,-5.40234375,-2.30078125,2.0
3357364,,,,,,,,8.7265625,-6.0625,-7.33984375,2.470703125,1.1015625,0.619140625,5.51171875,-4.328125,-2.03515625,2.0
3357365,,,,,,,,9.1484375,-2.8359375,-6.37890625,2.421875,0.87890625,0.986328125,5.89453125,-0.8828125,-1.19140625,2.0
3357366,,,,,,,,7.73828125,-0.28515625,-6.23046875,2.373046875,0.84765625,0.98828125,4.46875,1.72265625,-1.07421875,2.0
3357367,,,,,,,,6.796875,0.953125,-5.50390625,1.908203125,0.880859375,0.76171875,3.515625,3.1015625,-0.42578125,2.0
3357368,,,,,,,,5.5390625,2.26171875,-4.8203125,1.62109375,0.94140625,0.6328125,2.25,4.4375,0.2265625,2.0
3357369,,,,,,,,5.02734375,2.64453125,-4.7734375,1.048828125,0.966796875,0.34765625,1.71484375,4.859375,0.2265625,2.0
3357370,36.013059,129.31896516666666,32.91934423025136,73.12219864091144,3.3000000000000003,262.0,,5.6171875,1.05859375,-5.24609375,2.7265625,1.08984375,0.16015625,3.8203125,-13.75390625,-0.26953125,2.0
3357371,,,,,,,,7.1328125,-1.15625,-5.03125,0.65234375,0.80078125,0.005859375,3.78515625,1.0703125,-0.078125,2.0
3357372,,,,,,,,9.609375,-4.984375,-3.96875,0.77734375,0.58203125,0.1875,6.234375,-2.7578125,0.953125,2.0
3357373,,,,,,,,10.0234375,-6.2578125,-3.60546875,1.013671875,0.384765625,0.544921875,6.8828125,-5.05859375,1.72265625,2.0
3357374,,,,,,,,9.79296875,-8.5859375,-1.66796875,0.94140625,0.35546875,0.345703125,5.890625,-6.4765625,3.90625,2.0
3357375,,,,,,,,8.62890625,-8.52734375,-0.53515625,0.392578125,0.384765625,-0.28125,3.74609375,-4.1328125,3.828125,2.0
3357376,,,,,,,,6.3828125,-4.93359375,-1.5234375,-0.205078125,0.494140625,-1.298828125,2.2109375,-1.07421875,2.98828125,2.0
3357377,,,,,,,,4.76953125,-1.734375,-2.3359375,-0.75390625,0.560546875,-2.087890625,0.6796875,1.68359375,1.875,2.0
3357378,,,,,,,,3.48046875,1.23828125,-4.2578125,-0.787109375,0.552734375,-2.111328125,-0.27734375,3.671875,0.2265625,2.0
3357379,,,,,,,,2.953125,1.80078125,-4.76171875,-0.634765625,0.501953125,-1.44921875,-1.6953125,2.37890625,0.609375,2.0
3357860,36.0130385,129.31899783333336,35.8642149840501,70.84754569647575,2.6,31.0,,7.4140625,-12.03515625,-1.68359375,1.927734375,2.076171875,0.64453125,1.37109375,2.06640625,4.25390625,2.0
3357861,,,,,,,,7.875,-10.703125,-4.83203125,2.166015625,1.75,-0.072265625,4.703125,-11.49609375,-0.42578125,2.0
3357862,,,,,,,,8.48046875,-8.3984375,-5.3984375,2.47265625,1.669921875,-0.185546875,5.27734375,-9.15625,-1.0,2.0
3357863,,,,,,,,8.07421875,-4.1328125,-5.640625,2.82421875,1.435546875,0.150390625,4.81640625,-4.83203125,-1.265625,2.0
3357864,,,,,,,,7.81640625,-0.39453125,-5.7578125,2.888671875,1.056640625,0.515625,4.51171875,-0.99609375,-1.3828125,2.0
3357865,,,,,,,,7.6640625,2.078125,-5.48828125,2.654296875,0.890625,0.734375,4.3203125,1.5703125,-1.11328125,2.0
3357866,,,,,,,,7.296875,4.17578125,-5.17578125,2.4375,0.890625,0.8046875,3.94140625,3.71484375,-0.80859375,2.0
3357867,,,,,,,,6.65234375,6.36328125,-5.13671875,1.7265625,0.765625,0.857421875,3.24609375,6.01171875,-0.76953125,2.0
3357868,,,,,,,,6.40625,6.4921875,-5.3671875,1.41796875,0.5859375,0.763671875,2.9765625,6.20703125,-1.0,2.0
3357869,,,,,,,,7.6875,4.37109375,-5.25,1.314453125,0.505859375,0.68359375,4.2421875,4.09765625,-0.8828125,2.0
3357870,36.013041,129.31899816666666,35.894263462788984,71.12494392527667,2.8000000000000003,22.0,,8.5,1.87890625,-5.10546875,1.111328125,0.4609375,0.55859375,5.046875,1.64453125,-0.73046875,2.0
3357871,,,,,,,,8.8203125,0.1171875,-4.8828125,0.88671875,0.4609375,0.56640625,5.35546875,-0.078125,-0.5,2.0
3357872,,,,,,,,8.0703125,-0.2890625,-4.30078125,0.556640625,0.5078125,0.705078125,4.5859375,-0.4609375,0.07421875,2.0
3357873,,,,,,,,6.1796875,-0.3671875,-3.61328125,-0.048828125,0.5859375,0.783203125,2.67578125,-0.5390625,0.76171875,2.0
3357874,,,,,,,,4.00390625,-0.10546875,-2.4921875,-0.73828125,0.580078125,0.705078125,0.48828125,-0.30859375,1.875,2.0
3357875,,,,,,,,-0.109375,0.640625,0.39453125,-1.611328125,0.482421875,0.515625,-3.6484375,0.34375,4.7421875,2.0
3357876,,,,,,,,-1.7890625,0.734375,2.12890625,-1.712890625,0.322265625,0.375,-5.3359375,0.34375,6.46875,2.0
3357877,,,,,,,,-1.2421875,0.3515625,1.359375,-0.94921875,0.181640625,0.337890625,-4.796875,-0.1171875,5.70703125,2.0
3357878,,,,,,,,0.328125,0.1171875,0.01171875,0.396484375,0.126953125,0.32421875,-3.2265625,-0.3828125,4.36328125,2.0
3357879,,,,,,,,2.3515625,-2.7265625,-1.60546875,1.119140625,0.037109375,0.34765625,-1.1953125,-3.22265625,2.75390625,2.0
3357880,36.0130435,129.31899833333333,35.909287135300914,71.40234209293014,2.9000000000000004,14.0,,1.0,-8.3203125,-1.8125,1.203125,-0.060546875,0.52734375,-2.5390625,-8.7734375,2.5625,2.0
3357881,,,,,,,,-2.109375,-19.19921875,1.95703125,0.8046875,-0.11328125,0.95703125,-5.640625,-19.609375,6.35546875,2.0
3357882,,,,,,,,-3.03515625,-28.87109375,4.28515625,0.546875,-0.15234375,1.31640625,-6.55859375,-29.26953125,8.69140625,2.0
3357883,,,,,,,,-9.65625,-66.06640625,10.4296875,1.66796875,0.30078125,2.6484375,-13.1875,-66.34375,14.859375,2.0
3357884,,,,,,,,-9.76171875,-55.75,8.8125,2.859375,0.53125,2.55078125,-13.30078125,-55.96875,13.25,2.0
3357885,,,,,,,,5.875,-18.93359375,-1.078125,3.2890625,-0.220703125,1.2734375,2.328125,-18.96484375,3.3671875,2.0
3357886,,,,,,,,9.19921875,-14.44140625,-8.2265625,0.697265625,0.376953125,-1.92578125,5.66015625,-14.44140625,-3.7578125,2.0
3357887,,,,,,,,10.47265625,-15.078125,-7.56640625,1.01953125,0.8125,-3.447265625,6.92578125,-15.13671875,-3.10546875,2.0
3357888,,,,,,,,14.890625,-14.1015625,-3.92578125,0.85546875,0.048828125,-3.55859375,11.328125,-14.2890625,0.53515625,2.0
3357889,,,,,,,,15.22265625,-12.4296875,2.23046875,0.46875,-0.03515625,-2.673828125,11.67578125,-12.6796875,6.69921875,2.0
3357890,36.01304566666667,129.318999,35.96938537516719,71.64275403128318,2.4000000000000004,15.0,,12.9140625,-14.3671875,5.12890625,1.203125,-0.060546875,0.52734375,-2.5390625,-8.7734375,2.5625,2.0
3357891,,,,,,,,9.75,-15.72265625,0.8125,-1.921875,-0.255859375,0.84375,6.234375,-16.203125,5.3203125,2.0
3357892,,,,,,,,7.08203125,-12.96875,-2.03515625,-1.755859375,-0.37109375,0.595703125,3.58984375,-13.56640625,2.48828125,2.0
3357893,,,,,,,,3.59765625,-11.91015625,-2.625,-1.41015625,-0.767578125,0.73046875,0.14453125,-12.6015625,1.9140625,2.0
3357894,,,,,,,,1.88671875,-10.97265625,-1.88671875,-1.056640625,-1.091796875,1.375,-1.50390625,-11.7578125,2.71484375,2.0
3357895,,,,,,,,0.60546875,-8.7421875,-2.22265625,-1.080078125,-0.974609375,1.525390625,-2.73046875,-9.58203125,2.41015625,2.0
3357896,,,,,,,,0.3984375,-7.109375,-4.64453125,-1.1484375,-0.87890625,1.43359375,-2.921875,-7.97265625,-0.00390625,2.0
