time,latitude,longitude,enu_x,enu_y,speed,course,ecg,accX,accY,accZ,gyrX,gyrY,gyrZ,eulR,eulP,eulY,motion
3437860,36.01301733333333,129.3189555,32.04792250015592,68.49889365247311,3.0,238.0,,6.83203125,8.8828125,2.7265625,-1.2109375,0.109375,-5.14453125,-8.60546875,-5.05078125,2.22265625,1.0
3437861,,,,,,,,-6.83984375,-7.06640625,2.203125,-1.9765625,-0.646484375,-4.60546875,-11.97265625,-13.94140625,0.23046875,1.0
3437862,,,,,,,,-7.44921875,-16.30078125,4.1875,-0.91796875,-0.73046875,-0.6875,-11.70703125,-19.68359375,1.9921875,1.0
3437863,,,,,,,,-5.91015625,-17.015625,5.98046875,-0.130859375,-0.501953125,1.4296875,-9.484375,-19.53125,3.29296875,1.0
3437864,,,,,,,,-0.078125,-12.5546875,3.08203125,1.001953125,-0.380859375,1.357421875,-4.3515625,-15.97265625,0.91796875,1.0
3437865,,,,,,,,1.984375,-11.54296875,2.9140625,1.80859375,-0.212890625,0.62109375,0.9375,-13.09375,1.109375,1.0
3437866,,,,,,,,5.2578125,-9.64453125,3.1796875,1.8671875,-0.03515625,0.544921875,4.0,-10.8359375,2.22265625,1.0
3437867,,,,,,,,10.3515625,-5.84765625,4.984375,1.52734375,0.220703125,0.87890625,6.4140625,-9.03515625,3.0234375,1.0
3437868,,,,,,,,10.55078125,-5.80859375,3.67578125,1.439453125,0.3671875,1.171875,5.33984375,-9.7265625,0.8046875,1.0
3437869,,,,,,,,8.87890625,-6.17578125,1.78125,1.02734375,0.38671875,1.267578125,3.80859375,-9.49609375,-0.73046875,1.0
3437870,36.013016500000006,129.31895233333336,31.76245142154653,68.40642658103616,3.0,246.0,,6.83203125,8.8828125,2.7265625,0.470703125,0.234375,1.259765625,2.96484375,-7.8046875,-1.53515625,1.0
3437871,,,,,,,,6.5234375,-2.1875,-0.1796875,0.0703125,0.12109375,1.400390625,2.125,-5.78515625,-1.9921875,1.0
3437872,,,,,,,,6.0859375,0.08984375,0.4609375,0.048828125,-0.0234375,1.732421875,1.6640625,-3.48046875,-1.34375,1.0
3437873,,,,,,,,6.36328125,2.2734375,1.91015625,0.171875,-0.158203125,2.05859375,1.89453125,-1.2578125,0.11328125,1.0
3437874,,,,,,,,6.85546875,3.2578125,2.33984375,0.31640625,-0.240234375,2.138671875,2.3125,-0.2265625,0.57421875,1.0
3437875,,,,,,,,8.35546875,3.6484375,1.87109375,0.625,-0.375,1.658203125,3.7265625,0.234375,0.15234375,1.0
3437876,,,,,,,,9.28515625,3.46484375,1.47265625,0.826171875,-0.478515625,1.2890625,4.61328125,0.08203125,-0.19140625,1.0
3437877,,,,,,,,10.94140625,2.8515625,0.2265625,1.044921875,-0.548828125,1.072265625,6.21875,-0.53125,-1.34375,1.0
3437878,,,,,,,,11.42578125,1.625,-0.33984375,1.068359375,-0.6015625,1.037109375,6.68359375,-1.7578125,-1.83984375,1.0
3437879,,,,,,,,10.8046875,0.7734375,0.04296875,0.62890625,-0.626953125,1.05078125,6.03125,-2.6015625,-1.37890625,1.0
3437880,36.01301616666667,129.31894883333334,31.44693051331876,68.36943903131214,3.0,256.0,,9.00390625,1.10546875,1.05078125,-0.591796875,-0.439453125,0.82421875,4.19140625,-2.25390625,-0.30859375,1.0
3437881,,,,,,,,7.59375,1.47265625,2.40234375,-1.216796875,-0.2265625,0.5,2.77734375,-1.87109375,1.03515625,1.0
3437882,,,,,,,,7.05859375,1.86328125,3.359375,-1.541015625,0.060546875,0.107421875,2.234375,-1.48828125,1.953125,1.0
3437883,,,,,,,,7.1875,3.32421875,4.5546875,-1.72265625,0.263671875,-0.375,2.390625,-0.03515625,3.10546875,1.0
3437884,,,,,,,,6.91015625,4.0546875,7.421875,-2.037109375,0.380859375,-1.052734375,2.16015625,0.65625,5.8984375,1.0
3437885,,,,,,,,4.7265625,3.734375,11.4921875,-2.716796875,0.31640625,-1.8984375,0.0546875,0.2734375,9.8828125,1.0
3437886,,,,,,,,3.3984375,0.44921875,10.671875,-3.23828125,0.04296875,-2.880859375,-1.171875,-3.09765625,8.96484375,1.0
3437887,,,,,,,,-1.26171875,-25.0234375,16.57421875,-3.224609375,0.123046875,-3.416015625,-5.69140625,-28.6875,14.74609375,1.0
3437888,,,,,,,,-12.65625,-60.5859375,19.01953125,-2.169921875,0.62109375,-2.033203125,-16.953125,-64.3515625,17.08203125,1.0
3437889,,,,,,,,-24.48828125,-41.8671875,23.25,0.169921875,0.767578125,-0.03515625,-28.71484375,-45.6953125,21.2578125,1.0
3437890,36.01301516666667,129.31894516666668,31.11638505268637,68.25847861267819,3.2,253.0,,-4.0859375,-9.4375,8.7109375,-2.23046875,0.205078125,0.408203125,-8.296875,-13.29296875,6.703125,1.0
3437891,,,,,,,,6.76953125,-10.03515625,-5.49609375,-5.775390625,1.181640625,-2.845703125,2.62109375,-13.86328125,-7.69921875,1.0
3437892,,,,,,,,9.1796875,-13.07421875,-1.40234375,-3.150390625,0.080078125,-4.43359375,5.2265625,-17.0,-3.79296875,1.0
3437893,,,,,,,,9.15234375,-16.11328125,12.58203125,-2.4453125,-1.07421875,-1.984375,5.33984375,-20.140625,10.11328125,1.0
3437894,,,,,,,,9.53515625,-23.390625,11.1875,-1.673828125,-1.4609375,1.349609375,5.72265625,-27.42578125,8.6953125,1.0
3437895,,,,,,,,6.06640625,-21.81640625,4.17578125,-1.724609375,-1.48828125,2.322265625,2.16015625,-25.7734375,1.68359375,1.0
3437896,,,,,,,,1.953125,-18.22265625,3.33984375,-2.5625,-1.56640625,1.517578125,-2.015625,-22.1328125,0.83984375,1.0
3437897,,,,,,,,-0.41015625,-14.31640625,3.87109375,-4.5390625,-1.76953125,-0.05859375,-4.42578125,-18.15234375,1.30078125,1.0
3437898,,,,,,,,-0.09765625,-8.75,2.2890625,-5.1328125,-1.927734375,-0.580078125,-4.12109375,-12.5234375,-0.3828125,1.0
3437899,,,,,,,,0.29296875,-6.97265625,2.97265625,-4.892578125,-2.060546875,-0.46484375,-3.73828125,-10.68359375,0.19140625,1.0
3437900,36.01301483333334,129.31894216666666,30.845938568560094,68.2214912451706,3.0,257.0,0.0,0.90625,-6.16015625,3.69140625,-2.23046875,0.205078125,0.408203125,-3.1640625,-9.796875,0.83984375,1.0
3437901,,,,,,,,-1.23828125,-4.65234375,2.7421875,-3.591796875,-2.140625,0.009765625,-5.34765625,-8.2265625,-0.15625,1.0
3437902,,,,,,,,-2.125,-3.375,2.23828125,-3.765625,-2.142578125,0.083984375,-6.3046875,-6.85546875,-0.73046875,1.0
3437903,,,,,,,,-3.1875,-0.87890625,2.6328125,-3.783203125,-1.94921875,0.45703125,-7.41796875,-4.28515625,-0.3828125,1.0
3437904,,,,,,,,-4.16015625,1.5390625,3.59765625,-3.50390625,-1.75,0.8359375,-8.44921875,-1.7578125,0.53515625,1.0
3437905,,,,,,,,-4.28125,4.40234375,4.3359375,-2.962890625,-1.57421875,1.013671875,-8.640625,1.19140625,1.2265625,1.0
3437906,,,,,,,,-4.01953125,5.7734375,3.9296875,-2.611328125,-1.45703125,0.984375,-8.41015625,2.609375,0.8046875,1.0
3437907,,,,,,,,-3.58203125,6.76953125,2.83984375,-1.87109375,-1.240234375,0.755859375,-8.0234375,3.68359375,-0.30859375,1.0
3437908,,,,,,,,-3.765625,4.28515625,3.9140625,-1.283203125,-1.19921875,0.515625,-8.2578125,1.23046875,0.765625,1.0
3437909,,,,,,,,-4.00390625,2.4609375,5.09375,-0.9296875,-1.1171875,0.4609375,-8.5234375,-0.5703125,1.953125,1.0
3437910,36.01301566666667,129.31893883333333,30.545442013392282,68.31395623059726,3.1,275.0,,-3.234375,1.19140625,6.1953125,-2.23046875,0.205078125,0.408203125,-7.796875,-1.83203125,3.0625,1.0
3437911,,,,,,,,-2.36328125,1.41796875,6.31640625,0.591796875,-0.546875,0.44921875,-6.265625,-1.22265625,2.98828125,1.0
3437912,,,,,,,,-0.15625,3.06640625,5.4140625,1.146484375,-0.30859375,0.1484375,-3.93359375,0.80859375,1.953125,1.0
3437913,,,,,,,,0.6875,3.89453125,5.0078125,1.341796875,-0.181640625,-0.0234375,-2.359375,2.4921875,0.6875,1.0
3437914,,,,,,,,3.0703125,6.4921875,2.69921875,1.728515625,-0.05078125,-0.275390625,-0.17578125,5.0234375,-1.34375,1.0
3437915,,,,,,,,5.15234375,8.88671875,1.49609375,2.212890625,-0.087890625,-0.185546875,1.43359375,6.09765625,-1.5703125,1.0
3437916,,,,,,,,6.74609375,9.72265625,1.46484375,2.1953125,-0.2265625,0.486328125,3.42578125,6.09765625,-0.421875,1.0
3437917,,,,,,,,8.5234375,9.14453125,3.1875,1.755859375,-0.359375,1.025390625,4.15234375,4.90625,1.41796875,1.0
3437918,,,,,,,,8.76953125,8.3828125,4.14453125,1.576171875,-0.439453125,1.26171875,4.46484375,1.921875,2.6796875,1.0
3437919,,,,,,,,9.125,3.61328125,6.1796875,1.435546875,-0.560546875,1.576171875,4.30859375,-5.20703125,5.1328125,1.0
3437920,36.013016500000006,129.31893583333334,30.274995086965014,68.4064213289939,2.9000000000000004,282.0,,-3.234375,1.19140625,6.1953125,1.427734375,-0.640625,1.892578125,4.91796875,-14.015625,5.4375,1.0
3437921,,,,,,,,13.38671875,-25.87890625,9.203125,1.30859375,-0.830078125,2.43359375,11.46875,-41.05859375,8.6953125,1.0
3437922,,,,,,,,20.19140625,-61.6484375,19.68359375,0.005859375,-1.38671875,3.673828125,18.55859375,-69.37109375,20.26171875,1.0
3437923,,,,,,,,26.23828125,-61.37890625,23.9453125,-2.23828125,-1.03515625,3.20703125,9.36328125,-30.3359375,11.14453125,1.0
3437924,,,,,,,,8.3359375,-20.390625,9.3203125,-1.640625,0.150390625,0.080078125,-0.94140625,-18.34375,5.20703125,1.0
3437925,,,,,,,,-1.71484375,-8.39453125,6.3203125,-3.734375,0.37109375,-5.341796875,-10.671875,-9.80078125,2.796875,1.0
3437926,,,,,,,,-5.5859375,-6.66015625,5.21875,-3.912109375,0.376953125,-6.251953125,-13.43359375,-10.72265625,0.765625,1.0
3437927,,,,,,,,-6.83984375,-10.28125,2.74609375,-1.564453125,-0.50390625,-4.50390625,-9.9453125,-16.96484375,0.45703125,1.0
3437928,,,,,,,,-4.46484375,-15.6015625,4.0859375,0.0078125,-0.828125,-0.322265625,-8.37109375,-20.7578125,3.984375,1.0
3437929,,,,,,,,-3.40234375,-15.9921875,6.64453125,-0.166015625,-0.376953125,1.892578125,-7.30078125,-18.875,3.33203125,1.0
3437930,36.01301733333333,129.31893316666668,30.034597787998578,68.49888653852226,2.6,286.0,,-3.234375,1.19140625,6.1953125,0.0390625,0.185546875,1.013671875,-2.85546875,-15.5078125,3.1796875,1.0
3437931,,,,,,,,3.2890625,-10.32421875,6.25390625,0.26171875,0.666015625,0.134765625,1.203125,-11.2578125,3.63671875,1.0
3437932,,,,,,,,8.3984375,-5.83984375,6.19140625,0.486328125,0.93359375,-0.076171875,4.765625,-9.03125,3.71484375,1.0
3437933,,,,,,,,9.5234375,-5.38671875,6.27734375,0.771484375,1.025390625,-0.06640625,5.9921875,-8.9609375,4.17578125,1.0
3437934,,,,,,,,11.24609375,-5.0546875,7.3671875,1.1015625,1.095703125,0.130859375,5.80078125,-8.6875,4.3671875,1.0
3437935,,,,,,,,9.75390625,-5.109375,5.83984375,0.677734375,0.9296875,0.427734375,4.3828125,-8.9609375,1.9921875,1.0
3437936,,,,,,,,8.46484375,-5.03125,3.65625,-0.03125,0.66015625,0.58984375,2.734375,-8.00390625,0.0390625,1.0
3437937,,,,,,,,7.19140625,-3.4765625,2.5546875,-0.50390625,0.5,0.65625,2.5078125,-6.55078125,-0.1171875,1.0
3437938,,,,,,,,7.15625,-2.71875,2.5390625,-0.765625,0.33984375,0.724609375,2.390625,-5.66796875,-0.15625,1.0
3437939,,,,,,,,6.98828125,0.9140625,2.47265625,-1.30078125,-0.1953125,1.115234375,2.31640625,-2.87109375,-0.23046875,1.0
3437940,36.013019,129.3189306666667,29.80922499135292,68.6838178415077,2.9000000000000004,297.0,,6.91015625,4.3046875,4.02734375,0.0390625,0.185546875,1.013671875,2.1953125,0.578125,1.30078125,1.0
3437941,,,,,,,,7.04296875,5.578125,4.92578125,-1.12890625,-0.640625,1.60546875,2.2734375,1.921875,2.18359375,1.0
3437942,,,,,,,,7.2578125,6.1640625,4.76953125,-0.88671875,-0.626953125,1.5078125,2.4296875,2.57421875,2.02734375,1.0
3437943,,,,,,,,7.51953125,6.2109375,4.49609375,-0.72265625,-0.609375,1.2734375,2.66015625,2.6484375,1.76171875,1.0
3437944,,,,,,,,8.46875,5.65234375,2.6015625,-0.40234375,-0.58203125,0.64453125,3.578125,2.11328125,-0.1171875,1.0
3437945,,,,,,,,9.50390625,5.09765625,1.8125,-0.51953125,-0.4609375,-0.17578125,4.61328125,1.53515625,-0.8828125,1.0
3437946,,,,,,,,10.5625,4.01171875,1.3515625,-1.060546875,-0.287109375,-0.431640625,5.6875,0.42578125,-1.34375,1.0
3437947,,,,,,,,9.76953125,3.99609375,1.73046875,-1.6875,-0.16015625,-0.443359375,4.9140625,0.38671875,-0.99609375,1.0
3437948,,,,,,,,9.21875,4.265625,2.13671875,-1.982421875,-0.11328125,-0.36328125,4.3828125,0.65625,-0.61328125,1.0
3437949,,,,,,,,7.3046875,5.52734375,3.296875,-2.966796875,-0.048828125,-0.08984375,2.5078125,1.95703125,0.421875,1.0
3437950,36.01302066666666,129.3189285,29.613901822329396,68.8687492497026,2.7,306.0,,6.328125,5.46484375,4.046875,0.0390625,0.185546875,1.013671875,1.546875,1.95703125,1.0703125,1.0
3437951,,,,,,,,5.9140625,5.2734375,4.48828125,-3.79296875,0.0546875,-0.23046875,1.1640625,1.84765625,1.37890625,1.0
3437952,,,,,,,,5.6640625,4.92578125,5.83984375,-4.21875,-0.0546875,-0.447265625,0.9375,1.57421875,2.6015625,1.0
3437953,,,,,,,,7.69140625,0.15234375,9.43359375,-4.44140625,-0.2421875,-0.5625,3.00390625,-3.09765625,6.046875,1.0
3437954,,,,,,,,2.8046875,-10.1015625,16.71484375,-4.255859375,-0.455078125,-0.4453125,-1.859375,-13.25,13.21484375,1.0
3437955,,,,,,,,-15.0078125,-42.45703125,33.6640625,-4.1640625,-0.439453125,0.458984375,-19.671875,-45.5,30.0703125,1.0
3437956,,,,,,,,-15.125,-49.78515625,27.08203125,-3.33984375,-0.095703125,1.5390625,-19.7890625,-52.7421875,23.44140625,1.0
3437957,,,,,,,,-14.52734375,-45.2421875,1.265625,0.51953125,-0.333984375,2.84765625,-19.25390625,-48.07421875,-2.4140625,1.0
3437958,,,,,,,,-4.40234375,-12.265625,3.33984375,-2.048828125,-0.267578125,-1.638671875,-9.17578125,-15.12890625,-0.26953125,1.0
3437959,,,,,,,,5.77734375,-11.6015625,0.96875,-7.4609375,-0.3671875,-3.875,1.08984375,-14.4375,-2.7578125,1.0
3437960,36.01302183333333,129.31892566666664,29.358479607063373,68.99820084171762,2.6,303.0,,7.10546875,-14.55078125,5.91796875,-2.265625,-0.611328125,-2.181640625,4.65234375,-20.91015625,4.55859375,1.0
3437961,,,,,,,,11.16015625,-22.625,12.1953125,-0.4140625,-1.185546875,1.912109375,4.30859375,-28.45703125,10.953125,1.0
3437962,,,,,,,,6.75390625,-25.5234375,14.68359375,-2.837890625,-1.501953125,2.00390625,-0.40625,-23.98046875,5.28515625,1.0
3437963,,,,,,,,4.2421875,-21.2265625,9.16015625,-3.8671875,-1.634765625,1.263671875,-0.671875,-22.09765625,1.9140625,1.0
3437964,,,,,,,,3.2890625,-17.78125,3.390625,-5.0,-2.09375,-0.34765625,-2.78125,-18.87890625,-1.37890625,1.0
3437965,,,,,,,,0.390625,-14.7421875,3.15625,-5.205078125,-2.52734375,-0.59765625,-6.11328125,-13.7421875,0.61328125,1.0
3437966,,,,,,,,-1.375,-10.8828125,4.6484375,-4.556640625,-2.55859375,0.08984375,-6.41796875,-12.828125,0.3046875,1.0
3437967,,,,,,,,-1.796875,-10.14453125,3.53125,-3.5703125,-2.375,0.46484375,-7.453125,-10.94921875,-0.84375,1.0
3437968,,,,,,,,-2.4765625,-8.82421875,3.046875,-3.283203125,-2.400390625,0.552734375,-7.68359375,-10.07421875,-0.765625,1.0
3437969,,,,,,,,-2.078125,-5.9765625,2.578125,-3.07421875,-2.400390625,0.81640625,-7.1484375,-8.00390625,-1.265625,1.0
3437970,36.013023833333335,129.31892449999998,29.25330519520621,69.22011897547623,2.5,312.0,,-1.5234375,-5.28515625,2.4296875,-2.890625,-2.13671875,1.12890625,-6.7265625,-7.1171875,-1.34375,1.0
3437971,,,,,,,,-0.86328125,-3.1015625,3.87890625,-2.5703125,-1.859375,1.46875,-6.15234375,-4.8203125,0.15234375,1.0
3437972,,,,,,,,-0.66015625,-2.40625,4.4296875,-2.447265625,-1.755859375,1.654296875,-5.9921875,-4.0546875,0.7265625,1.0
3437973,,,,,,,,0.05859375,0.70703125,4.765625,-2.34765625,-1.515625,1.87109375,-5.34375,-0.80078125,1.109375,1.0
3437974,,,,,,,,0.63671875,2.734375,5.078125,-2.14453125,-1.322265625,1.806640625,-4.84765625,1.3828125,1.453125,1.0
3437975,,,,,,,,1.33984375,5.65234375,4.51171875,-1.83984375,-1.18359375,1.640625,-4.19921875,4.40625,0.91796875,1.0
3437976,,,,,,,,1.36328125,5.12890625,4.45703125,-1.638671875,-1.158203125,1.486328125,-4.19921875,3.94921875,0.87890625,1.0
3437977,,,,,,,,1.12890625,-0.16015625,5.58984375,-0.982421875,-1.095703125,1.02734375,-4.5,-1.22265625,2.06640625,1.0
3437978,,,,,,,,1.08984375,-1.84375,6.31640625,-0.6640625,-0.94140625,0.8203125,-4.58203125,-2.8671875,2.83203125,1.0
3437979,,,,,,,,2.81640625,-1.21875,6.5703125,0.06640625,-0.720703125,0.599609375,-2.89453125,-2.21875,3.140625,1.0
3437980,36.01302616666667,129.3189235,29.163155476827612,69.47902357444885,2.8000000000000003,325.0,,3.7890625,0.1328125,5.828125,-2.890625,-2.13671875,1.12890625,-6.7265625,-7.1171875,-1.34375,1.0
3437981,,,,,,,,4.83984375,1.50390625,4.76171875,0.515625,-0.55078125,-0.03125,-0.25,1.84375,0.53515625,1.0
3437982,,,,,,,,5.92578125,3.65625,3.81640625,0.287109375,-0.4921875,-0.26953125,0.4765625,3.33984375,0.49609375,1.0
3437983,,,,,,,,6.234375,4.453125,3.84765625,-0.19140625,-0.513671875,-0.28125,1.01171875,4.37109375,0.8046875,1.0
3437984,,,,,,,,7.12890625,5.90234375,4.15234375,-0.611328125,-0.609375,-0.173828125,1.51171875,4.56640625,0.7265625,1.0
3437985,,,,,,,,6.984375,4.47265625,3.5859375,-0.810546875,-0.724609375,0.083984375,0.78125,2.2265625,0.265625,1.0
3437986,,,,,,,,5.62890625,1.19921875,3.9765625,-0.84765625,-0.755859375,0.59765625,-0.17578125,0.00390625,0.73046875,1.0
3437987,,,,,,,,4.7734375,-3.48046875,4.671875,-0.818359375,-0.85546875,1.130859375,-1.0546875,-4.62890625,1.453125,1.0
3437988,,,,,,,,4.796875,-5.97265625,4.50390625,-0.724609375,-0.9453125,1.326171875,-1.0546875,-7.078125,1.30078125,1.0
3437989,,,,,,,,5.1640625,-22.01953125,6.140625,-0.005859375,-1.208984375,1.658203125,-0.75,-23.015625,3.0234375,1.0
3437990,36.01302833333333,129.31892283333335,29.103055443507266,69.71943506666337,2.5,334.0,,5.51953125,-31.80859375,7.53515625,0.1171875,-1.306640625,1.646484375,-6.7265625,-7.1171875,-1.34375,1.0
3437991,,,,,,,,11.9140625,-41.50390625,9.41015625,0.154296875,-1.263671875,1.107421875,5.9140625,-42.40234375,6.43359375,1.0
3437992,,,,,,,,7.91796875,-24.984375,13.72265625,0.439453125,-0.734375,-0.0234375,1.89453125,-25.89453125,10.80078125,1.0
3437993,,,,,,,,2.140625,-20.34765625,6.7109375,-0.048828125,-0.611328125,-0.654296875,-3.890625,-21.33203125,3.828125,1.0
3437994,,,,,,,,-3.53515625,-21.85546875,5.15625,-1.259765625,-0.19140625,-2.30859375,-9.55859375,-22.9375,2.296875,1.0
3437995,,,,,,,,-2.08203125,-23.69921875,5.5546875,-1.49609375,-0.029296875,-2.341796875,-8.06640625,-24.93359375,2.6796875,1.0
3437996,,,,,,,,-0.765625,-24.171875,6.13671875,-0.99609375,-0.119140625,-1.724609375,-6.7265625,-25.46875,3.25390625,1.0
3437997,,,,,,,,1.78515625,-23.6484375,7.625,0.306640625,0.037109375,-0.423828125,-4.16015625,-25.05078125,4.75,1.0
3437998,,,,,,,,4.94140625,-20.859375,7.47265625,0.763671875,0.248046875,-0.203125,-0.98046875,-22.33203125,4.59765625,1.0
3437999,,,,,,,,6.375,-18.046875,6.17578125,0.873046875,0.48046875,-0.841796875,0.8984375,-18.421875,2.83203125,1.0
3438000,36.0130305,129.31892266666668,29.088029838587822,69.9598467080068,2.4000000000000004,344.0,0.0,6.640625,-14.6328125,5.15625,0.96875,0.6484375,-0.67578125,-6.7265625,-7.1171875,-1.34375,1.0
3438001,,,,,,,,6.296875,-12.671875,4.21484375,0.701171875,0.671875,-0.337890625,0.8203125,-13.8203125,1.109375,1.0
3438002,,,,,,,,8.08984375,-9.22265625,3.12890625,0.650390625,0.626953125,-0.041015625,2.31640625,-11.10546875,0.19140625,1.0
3438003,,,,,,,,8.2109375,-8.078125,2.76171875,0.744140625,0.4921875,0.2734375,2.62109375,-8.921875,-0.34765625,1.0
3438004,,,,,,,,8.68359375,-4.73046875,2.31640625,0.837890625,0.1875,0.568359375,2.96484375,-6.73828125,-0.65234375,1.0
3438005,,,,,,,,9.328125,-2.5078125,2.60546875,0.986328125,0.044921875,0.916015625,3.6171875,-4.5546875,-0.34765625,1.0
3438006,,,,,,,,9.59765625,-1.76953125,2.8984375,1.04296875,0.025390625,1.08203125,3.88671875,-3.82421875,-0.0390625,1.0
3438007,,,,,,,,10.33984375,-1.296875,3.6640625,1.048828125,-0.029296875,1.294921875,4.609375,-3.3671875,0.765625,1.0
3438008,,,,,,,,11.48828125,-1.44921875,4.12890625,0.974609375,-0.044921875,1.259765625,5.76171875,-3.51953125,1.26171875,1.0
3438009,,,,,,,,11.84765625,-1.05859375,3.76171875,0.873046875,-0.0625,1.060546875,6.1015625,-3.13671875,0.91796875,1.0
3438010,36.013033,129.3189243333333,29.238276999627722,70.2372453125643,3.0,1.0,,11.65625,0.19921875,3.1796875,0.45703125,-0.150390625,0.4296875,5.9140625,-1.91015625,0.3828125,1.0
3438011,,,,,,,,10.43359375,1.6171875,3.81640625,-0.0859375,-0.080078125,-0.107421875,4.69140625,-0.53125,1.03515625,1.0
3438012,,,,,,,,9.55859375,2.390625,4.49609375,-0.58203125,0.013671875,-0.51953125,3.84765625,0.1953125,1.72265625,1.0
3438013,,,,,,,,8.23828125,2.76953125,6.3046875,-0.779296875,0.076171875,-0.658203125,2.54296875,0.54296875,3.5234375,1.0
3438014,,,,,,,,7.13671875,3.0078125,7.73828125,-1.2578125,0.240234375,-0.810546875,1.47265625,0.734375,4.9375,1.0
3438015,,,,,,,,7.50390625,3.015625,7.046875,-1.681640625,0.40625,-0.81640625,1.89453125,0.6953125,4.2109375,1.0
3438016,,,,,,,,8.3671875,3.3515625,5.9140625,-1.35546875,0.572265625,-0.681640625,2.8125,1.0,3.02734375,1.0
3438017,,,,,,,,9.5859375,3.7578125,5.08984375,-1.380859375,0.56640625,-0.421875,4.08203125,1.3828125,2.14453125,1.0
3438018,,,,,,,,9.5234375,3.57421875,5.2734375,-1.552734375,0.48046875,-0.2734375,4.04296875,1.19140625,2.296875,1.0
3438019,,,,,,,,7.34765625,-2.02734375,10.26171875,-1.939453125,0.271484375,0.060546875,1.89453125,-4.40234375,7.23828125,1.0
3438020,36.01303583333333,129.31892466666667,29.2683255709538,70.55162993229422,3.1,7.0,,0.2265625,-26.0234375,25.6171875,0.45703125,-0.150390625,0.4296875,-5.1953125,-28.34375,22.5234375,1.0
3438021,,,,,,,,4.49609375,-43.765625,12.38671875,-0.099609375,0.427734375,0.48828125,-0.90234375,-46.08203125,9.26953125,1.0
3438022,,,,,,,,-2.76171875,-39.23828125,12.1953125,1.099609375,0.40625,0.609375,-8.14453125,-41.5546875,9.078125,1.0
3438023,,,,,,,,6.07421875,-9.03515625,10.5390625,-1.90625,-0.4609375,-0.376953125,0.70703125,-11.40625,7.46875,1.0
3438024,,,,,,,,8.01171875,-7.07421875,6.34765625,-3.48828125,-0.50390625,-1.421875,2.66015625,-9.453125,3.25390625,1.0
3438025,,,,,,,,19.234375,-14.765625,7.5078125,-2.373046875,-0.25,-3.51953125,13.9609375,-17.234375,4.3671875,1.0
3438026,,,,,,,,13.84765625,-19.54296875,11.0703125,-2.080078125,-1.0625,-1.2734375,8.63671875,-22.13671875,7.9296875,1.0
3438027,,,,,,,,11.28125,-20.32421875,12.5234375,-2.880859375,-1.068359375,0.376953125,6.0703125,-22.90234375,9.3828125,1.0
3438028,,,,,,,,7.984375,-19.109375,8.5546875,-4.01171875,-1.267578125,1.5078125,2.734375,-21.56640625,5.3984375,1.0
3438029,,,,,,,,8.0,-16.4609375,7.0703125,-4.142578125,-1.240234375,1.08203125,2.734375,-18.84765625,3.90625,1.0
3438030,36.013038333333334,129.31892533333334,29.32842387710948,70.82902823896389,2.9000000000000004,9.0,,5.3359375,-11.19921875,6.83203125,0.45703125,-0.150390625,0.4296875,0.015625,-13.40234375,3.67578125,1.0
3438031,,,,,,,,2.765625,-9.38671875,6.40234375,-4.283203125,-2.21484375,0.359375,-2.625,-11.4453125,3.29296875,1.0
3438032,,,,,,,,0.54296875,-9.3046875,5.4296875,-3.7109375,-2.130859375,0.548828125,-4.92578125,-11.22265625,2.375,1.0
3438033,,,,,,,,-0.16796875,-8.5,4.83203125,-3.65234375,-2.046875,0.55078125,-5.65234375,-10.37890625,1.80078125,1.0
3438034,,,,,,,,-0.40625,-6.95703125,4.4609375,-3.361328125,-1.7734375,0.6875,-5.9609375,-8.6875,1.4921875,1.0
3438035,,,,,,,,-0.04296875,-1.19140625,3.76953125,-3.193359375,-1.30859375,0.787109375,-5.6484375,-2.79296875,0.83984375,1.0
3438036,,,,,,,,0.40234375,0.515625,3.1796875,-3.02734375,-0.94140625,0.767578125,-5.2265625,-0.9921875,0.265625,1.0
3438037,,,,,,,,1.4140625,3.42578125,2.4921875,-2.849609375,-0.669921875,0.765625,-4.23828125,1.99609375,-0.421875,1.0
3438038,,,,,,,,1.71875,4.30859375,2.546875,-2.75,-0.5703125,0.79296875,-3.9296875,2.91796875,-0.3828125,1.0
3438039,,,,,,,,2.64453125,5.9921875,2.9765625,-2.525390625,-0.4453125,0.92578125,-3.01171875,4.6796875,0.0390625,1.0
3438460,36.01301633333333,129.3189575,32.22822064408695,68.38793507035385,3.2,237.0,,5.26953125,-36.45703125,13.18359375,-0.244140625,-0.603515625,1.2265625,0.28515625,-39.5234375,11.72265625,1.0
3438461,,,,,,,,24.578125,-63.71875,27.0078125,0.330078125,-1.275390625,0.734375,19.5546875,-66.76953125,25.625,1.0
3438462,,,,,,,,10.171875,-21.85546875,17.62109375,0.400390625,-0.6328125,-0.419921875,5.1484375,-24.9296875,16.31640625,1.0
3438463,,,,,,,,4.48828125,-12.96875,5.73046875,0.01171875,-0.259765625,-1.26953125,-0.51953125,-16.08984375,4.44140625,1.0
3438464,,,,,,,,-5.6640625,-4.2578125,3.78515625,-2.08203125,0.064453125,-5.34765625,-10.55859375,-7.578125,2.48828125,1.0
3438465,,,,,,,,-7.1875,-7.96875,0.76171875,-2.0703125,-0.0390625,-5.40625,-11.859375,-11.5625,-0.61328125,1.0
3438466,,,,,,,,-7.16796875,-11.66796875,0.34765625,0.111328125,-0.669921875,-2.814453125,-11.66796875,-15.47265625,-1.03515625,1.0
3438467,,,,,,,,-2.09765625,-13.3125,3.234375,0.859375,-0.708984375,0.021484375,-6.53515625,-17.234375,1.9140625,1.0
3438468,,,,,,,,-0.94921875,-12.34765625,4.0,0.853515625,-0.58203125,0.97265625,-5.38671875,-16.27734375,2.71875,1.0
3438469,,,,,,,,3.12109375,-10.28515625,4.12109375,1.408203125,-0.1328125,1.77734375,-1.36328125,-14.20703125,2.91015625,1.0
3438470,36.01301483333334,129.31895416666666,31.927725017938293,68.2214951102773,3.1,238.0,,6.00390625,-9.99609375,2.77734375,-0.244140625,-0.603515625,1.2265625,1.47265625,-13.90234375,1.64453125,1.0
3438471,,,,,,,,9.65625,-9.13671875,1.49609375,2.53125,0.435546875,0.912109375,5.109375,-13.05859375,0.45703125,1.0
3438472,,,,,,,,10.32421875,-8.38671875,1.7265625,2.498046875,0.955078125,0.984375,5.76171875,-12.328125,0.765625,1.0
3438473,,,,,,,,10.03515625,-7.609375,2.3984375,1.62890625,1.064453125,1.40234375,5.45703125,-11.56640625,1.4921875,1.0
3438474,,,,,,,,8.2109375,-5.62109375,2.4140625,0.619140625,0.59375,1.84375,3.578125,-9.53515625,1.53125,1.0
3438475,,,,,,,,7.9140625,-3.4375,1.79296875,0.267578125,0.40234375,1.599609375,3.234375,-7.31640625,0.91796875,1.0
3438476,,,,,,,,7.59375,-2.46484375,1.44921875,0.11328125,0.36328125,1.39453125,2.890625,-6.3125,0.57421875,1.0
3438477,,,,,,,,7.33984375,-0.55859375,0.9140625,-0.11328125,0.158203125,0.99609375,2.62109375,-4.3984375,0.0390625,1.0
3438478,,,,,,,,7.27734375,1.3125,0.17578125,-0.1875,-0.1328125,0.7265625,2.54296875,-2.5234375,-0.69140625,1.0
3438479,,,,,,,,7.9765625,1.96484375,-0.15234375,-0.0234375,-0.30859375,0.630859375,3.23828125,-1.87109375,-0.99609375,1.0
3438480,36.01301433333333,129.31895133333333,31.672303416788175,68.16601456376817,3.0,247.0,,8.75,3.7421875,-1.1796875,-0.244140625,-0.603515625,1.2265625,1.47265625,-13.90234375,1.64453125,1.0
3438481,,,,,,,,9.68359375,4.59375,-2.46875,1.02734375,-0.33984375,0.732421875,4.9140625,0.734375,-3.21875,1.0
3438482,,,,,,,,11.1484375,5.14453125,-2.5390625,1.431640625,-0.216796875,0.78125,6.375,1.26953125,-3.21875,1.0
3438483,,,,,,,,11.32421875,4.9921875,-2.73046875,1.251953125,-0.0390625,0.861328125,6.52734375,1.1171875,-3.33203125,1.0
3438484,,,,,,,,10.68359375,2.73046875,-3.3828125,0.705078125,0.0703125,0.783203125,5.87890625,-1.14453125,-3.9453125,1.0
3438485,,,,,,,,8.8828125,0.76953125,-2.2578125,-0.189453125,0.1875,0.626953125,4.08203125,-3.09765625,-2.796875,1.0
3438486,,,,,,,,7.35546875,-0.87890625,-0.6796875,-0.830078125,0.271484375,0.5859375,2.54296875,-4.7421875,-1.2265625,1.0
3438487,,,,,,,,6.62109375,-1.4140625,0.76953125,-1.927734375,0.369140625,0.5390625,1.81640625,-5.28515625,0.15234375,1.0
3438488,,,,,,,,5.9609375,1.98828125,3.58203125,-2.39453125,0.376953125,0.25,1.1640625,-1.87109375,2.828125,1.0
3438489,,,,,,,,7.28125,5.60546875,5.5546875,-2.13671875,0.19140625,-0.201171875,2.5078125,1.73046875,4.7109375,1.0
3438490,36.01301350000001,129.31894783333334,31.356782700019984,68.07354739831554,3.1,250.0,,8.62109375,6.9375,5.1640625,-0.244140625,-0.603515625,1.2265625,1.47265625,-13.90234375,1.64453125,1.0
3438491,,,,,,,,13.57421875,7.921875,7.83984375,-2.0859375,0.041015625,-2.478515625,8.9765625,3.875,6.81640625,1.0
3438492,,,,,,,,10.8671875,1.6484375,10.2265625,-2.80078125,-0.13671875,-3.0,6.4140625,-2.5234375,9.1171875,1.0
3438493,,,,,,,,-2.328125,-26.26171875,15.5,-4.83203125,-0.220703125,-1.9296875,-6.6484375,-30.5234375,14.25,1.0
3438494,,,,,,,,-20.5546875,-54.140625,27.109375,-4.18359375,0.4609375,1.853515625,-24.84375,-58.37890625,25.6640625,1.0
3438495,,,,,,,,-17.4375,-63.0,13.3515625,-1.181640625,-0.46484375,3.251953125,-21.8203125,-67.109375,11.796875,1.0
3438496,,,,,,,,-11.84765625,-16.84765625,13.2421875,1.578125,-0.728515625,2.11328125,-16.33984375,-20.8671875,11.7578125,1.0
3438497,,,,,,,,5.07421875,-9.5234375,2.6328125,-4.814453125,-0.1875,-1.90625,0.58984375,-13.55859375,1.109375,1.0
3438498,,,,,,,,12.2109375,-7.70703125,-2.2734375,-3.296875,0.4765625,-4.6015625,7.90625,-11.87109375,-3.984375,1.0
3438499,,,,,,,,16.1328125,-7.6953125,1.52734375,-1.9140625,-0.896484375,-3.177734375,12.0078125,-12.02734375,-0.26953125,1.0
3438500,36.01301183333333,129.3189445,31.05628711040555,67.88861426006068,3.3000000000000003,246.0,0.0,7.984375,-15.67578125,7.48828125,-2.56640625,-1.529296875,0.361328125,1.47265625,-13.90234375,1.64453125,1.0
3438501,,,,,,,,2.203125,-18.9140625,7.4296875,-5.25,-1.701171875,2.333984375,-1.9375,-23.2109375,5.515625,1.0
3438502,,,,,,,,2.01953125,-16.3203125,6.296875,-6.21875,-1.62890625,1.162109375,-2.20703125,-20.453125,4.2109375,1.0
3438503,,,,,,,,3.00390625,-14.80859375,4.63671875,-6.009765625,-1.8125,0.62109375,-1.24609375,-18.875,2.44921875,1.0
3438504,,,,,,,,3.609375,-11.296875,-0.078125,-4.697265625,-2.365234375,-0.203125,-0.671875,-15.28125,-2.375,1.0
3438505,,,,,,,,-1.859375,-8.515625,3.64453125,-3.89453125,-2.7421875,-0.0703125,-6.1875,-12.4453125,1.26171875,1.0
3438506,,,,,,,,-2.3125,-6.73828125,3.34765625,-4.08984375,-2.693359375,0.53515625,-6.6875,-10.6015625,0.91796875,1.0
3438507,,,,,,,,-2.01953125,-3.4921875,-0.13671875,-3.912109375,-2.337890625,0.5625,-6.45703125,-7.2734375,-2.60546875,1.0
3438508,,,,,,,,-1.796875,-2.0390625,-0.7265625,-3.865234375,-2.19921875,0.453125,-6.26953125,-5.78125,-3.21875,1.0
3438509,,,,,,,,-1.22265625,2.49609375,-0.71875,-3.7734375,-2.083984375,0.337890625,-5.765625,-1.14453125,-3.296875,1.0
3438510,36.013012,129.31894150000002,30.785840427027914,67.90710651597236,2.9000000000000004,260.0,,-0.5546875,4.74609375,0.21875,-3.4921875,-1.89453125,0.70703125,-5.15625,1.19140625,-2.4140625,1.0
3438511,,,,,,,,-0.7578125,8.76171875,2.171875,-2.91015625,-1.654296875,1.15625,-5.421875,5.29296875,-0.5,1.0
3438512,,,,,,,,-0.84375,9.46875,2.9609375,-2.123046875,-1.474609375,1.3671875,-5.578125,6.09765625,0.265625,1.0
3438513,,,,,,,,-1.00390625,7.74609375,3.0078125,-1.66015625,-1.376953125,1.33984375,-5.76953125,4.41015625,0.3046875,1.0
3438514,,,,,,,,-2.39453125,1.515625,3.8046875,-0.90625,-1.130859375,1.0625,-7.22265625,-1.7578125,1.109375,1.0
3438515,,,,,,,,-1.61328125,-0.74609375,4.1796875,-0.53125,-0.787109375,0.6875,-6.49609375,-3.98046875,1.4921875,1.0
3438516,,,,,,,,-1.3515625,0.16796875,5.3984375,-0.0859375,-0.40625,0.568359375,-6.265625,-3.05859375,2.71875,1.0
3438517,,,,,,,,-0.6171875,1.8984375,5.50390625,0.109375,-0.185546875,0.37109375,-5.5390625,-1.3359375,2.83203125,1.0
3438518,,,,,,,,1.03125,4.359375,4.70703125,0.17578125,-0.107421875,0.24609375,-3.89453125,1.1171875,2.02734375,1.0
3438519,,,,,,,,2.59375,6.58203125,3.70703125,0.4140625,0.05859375,0.01171875,-2.3203125,3.296875,1.03515625,1.0
3438520,36.013012333333336,129.31893783333334,30.455294426162972,67.94409177783774,3.2,269.0,,4.04296875,8.3046875,2.86328125,-3.4921875,-1.89453125,0.70703125,-5.15625,1.19140625,-2.4140625,1.0
3438521,,,,,,,,4.640625,7.96875,3.796875,0.986328125,-0.0078125,0.052734375,-0.25,4.6015625,1.1484375,1.0
3438522,,,,,,,,5.328125,6.67578125,5.8046875,1.12890625,-0.09375,0.48828125,0.4375,3.26171875,3.1796875,1.0
3438523,,,,,,,,5.765625,5.38671875,5.91796875,1.078125,-0.193359375,0.970703125,0.859375,1.95703125,3.33203125,1.0
3438524,,,,,,,,7.0234375,1.51953125,4.8046875,0.91796875,-0.333984375,1.19140625,2.0859375,-1.91015625,2.26171875,1.0
3438525,,,,,,,,8.6015625,-6.42578125,1.3203125,0.666015625,-0.515625,1.294921875,3.6171875,-9.8359375,-1.1875,1.0
3438526,,,,,,,,8.546875,-11.3515625,1.05859375,0.509765625,-0.626953125,1.359375,3.5390625,-14.7421875,-1.41796875,1.0
3438527,,,,,,,,8.7578125,-26.5234375,5.65234375,0.109375,-0.91015625,1.666015625,3.6953125,-29.87890625,3.21484375,1.0
3438528,,,,,,,,17.7890625,-71.7890625,21.734375,-0.681640625,-1.373046875,2.216796875,12.65625,-75.078125,19.34375,1.0
3438529,,,,,,,,27.8671875,-76.45703125,35.74609375,-0.625,-1.716796875,2.283203125,27.8671875,-76.45703125,45.546875,1.0
3438530,36.013012499999995,129.31893533333331,30.22992217644557,67.96258420490145,2.6,273.0,,2.19921875,-11.1796875,-5.77734375,-3.4921875,-1.89453125,0.70703125,-5.15625,1.19140625,-2.4140625,1.0
3438531,,,,,,,,-14.08203125,-5.7421875,-8.65234375,-3.529296875,0.625,-6.685546875,-14.08203125,-5.7421875,1.1484375,1.0
3438532,,,,,,,,-16.72265625,-7.65625,-8.30859375,-4.123046875,0.36328125,-7.1484375,-16.72265625,-7.65625,1.4921875,1.0
3438533,,,,,,,,-9.140625,-15.546875,-11.71484375,-2.056640625,-0.341796875,-4.546875,-9.140625,-15.546875,-1.91796875,1.0
3438534,,,,,,,,-9.29296875,-16.734375,-11.71484375,-0.62890625,-0.33984375,0.703125,-9.55859375,-16.54296875,-1.1484375,1.0
3438535,,,,,,,,-6.1875,-16.8515625,-7.38671875,0.12109375,-0.509765625,1.55859375,-1.28515625,-18.61328125,6.625,1.0
3438536,,,,,,,,-1.28515625,-18.61328125,-3.17578125,0.59765625,-0.2578125,1.548828125,1.51171875,-19.61328125,8.234375,1.0
3438537,,,,,,,,4.0,-19.68359375,-0.22265625,2.390625,0.61328125,1.283203125,4.8046875,-16.8828125,8.88671875,1.0
3438538,,,,,,,,2.46875,-13.90234375,-4.09375,0.796875,0.8046875,0.65625,2.46875,-13.90234375,5.70703125,1.0
3438539,,,,,,,,2.16015625,-12.7890625,-5.08984375,-0.013671875,0.69921875,0.318359375,2.16015625,-12.7890625,4.7109375,1.0
3438540,36.01301316666666,129.31893266666665,29.989524928955646,68.03655620940718,2.5,279.0,,2.19921875,-11.1796875,-5.77734375,-0.34375,0.626953125,-0.0703125,-5.15625,1.19140625,-2.4140625,1.0
3438541,,,,,,,,4.26953125,-10.0703125,-9.80078125,0.130859375,0.455078125,-0.00390625,4.8046875,-9.2265625,-0.3828125,1.0
3438542,,,,,,,,0.8828125,3.1484375,0.6328125,0.291015625,0.251953125,0.5546875,5.109375,-6.8125,0.6875,1.0
3438543,,,,,,,,0.2109375,4.93359375,2.7109375,-0.259765625,0.060546875,1.16015625,4.3828125,-5.046875,2.796875,1.0
3438544,,,,,,,,-0.33203125,7.0703125,4.1484375,-1.072265625,-0.11328125,1.42578125,3.73046875,-2.9453125,4.2109375,1.0
3438545,,,,,,,,0.1171875,8.734375,3.83203125,-1.302734375,-0.216796875,1.125,4.61328125,-0.4921875,2.98828125,1.0
3438546,,,,,,,,1.13671875,10.44140625,2.63671875,-1.1953125,-0.22265625,0.818359375,4.99609375,0.34765625,2.52734375,1.0
3438547,,,,,,,,1.22265625,14.6484375,0.78515625,-1.03125,-0.30078125,0.20703125,4.99609375,4.5234375,0.53515625,1.0
3438548,,,,,,,,1.28515625,16.82421875,-0.828125,-1.0703125,-0.513671875,-0.1875,5.03515625,6.70703125,-1.1875,1.0
3438549,,,,,,,,1.8671875,16.11328125,-1.58984375,-1.177734375,-0.53125,-0.28515625,5.6484375,6.01953125,-2.14453125,1.0
3438550,36.01301466666666,129.3189305,29.794201809432593,68.20299440719397,2.6,294.0,,2.42578125,12.7578125,-1.91796875,-0.34375,0.626953125,-0.0703125,-5.15625,1.19140625,-2.4140625,1.0
3438551,,,,,,,,1.29296875,8.18359375,-0.859375,-1.642578125,-0.328125,0.3359375,5.07421875,-1.87109375,-1.7265625,1.0
3438552,,,,,,,,-0.109375,7.71484375,0.19140625,-2.28125,-0.1015625,0.912109375,3.58203125,-2.33203125,-0.95703125,1.0
3438553,,,,,,,,-0.828125,7.62890625,0.890625,-2.6328125,0.001953125,0.990234375,2.8125,-2.41015625,-0.3828125,1.0
3438554,,,,,,,,-3.1015625,8.07421875,2.7578125,-3.349609375,0.16796875,1.013671875,0.4375,-1.94921875,1.1875,1.0
3438555,,,,,,,,-6.00390625,8.609375,6.546875,-3.751953125,0.337890625,0.873046875,-2.55078125,-1.375,4.6328125,1.0
3438556,,,,,,,,-5.3984375,8.76953125,5.22265625,-3.638671875,0.400390625,0.578125,-2.015625,-1.14453125,2.94921875,1.0
3438557,,,,,,,,-4.1953125,9.2265625,4.0546875,-2.6796875,0.400390625,-0.02734375,-0.828125,-0.609375,1.4921875,1.0
3438558,,,,,,,,-3.6328125,9.34375,3.90625,-2.318359375,0.3359375,-0.353515625,-0.25,-0.453125,1.23046875,1.0
3438559,,,,,,,,-0.3359375,9.30859375,1.48828125,-2.1484375,0.044921875,-0.984375,3.15625,-0.33984375,-1.49609375,1.0
3438560,36.0130155,129.31892783333333,29.553804509985632,68.29545963084695,2.5,294.0,,-1.078125,10.80078125,5.40234375,-0.34375,0.626953125,-0.0703125,2.51171875,1.26953125,2.22265625,1.0
3438561,,,,,,,,-8.640625,1.06640625,8.76953125,-2.732421875,-0.2734375,-0.375,-5.0,-8.34765625,5.36328125,1.0
3438562,,,,,,,,-13.61328125,-7.03125,15.43359375,-3.60546875,-0.638671875,0.228515625,-9.98046875,-16.31640625,11.72265625,1.0
3438563,,,,,,,,-16.2109375,-42.4453125,20.15234375,-3.572265625,-0.654296875,1.048828125,-12.6640625,-51.59765625,16.08984375,1.0
3438564,,,,,,,,-24.06640625,-50.5625,4.91796875,-1.375,-0.1875,1.216796875,-20.66796875,-59.640625,0.61328125,1.0
3438565,,,,,,,,-0.9921875,-2.25,-3.53515625,-4.494140625,0.283203125,-1.837890625,2.4296875,-11.18359375,-8.08203125,1.0
3438566,,,,,,,,-4.00390625,-2.3671875,-0.0625,-6.390625,0.359375,-2.580078125,-0.48046875,-11.140625,-4.828125,1.0
3438567,,,,,,,,-1.71484375,-17.10546875,11.99609375,-1.6953125,-0.080078125,-3.359375,2.27734375,-25.390625,6.77734375,1.0
3438568,,,,,,,,-1.48828125,-20.4765625,17.42578125,-1.130859375,-1.302734375,-0.642578125,2.62109375,-28.61328125,12.06640625,1.0
3438569,,,,,,,,-3.2890625,-17.93359375,14.19140625,-1.400390625,-1.21875,0.802734375,0.78125,-26.0390625,8.76953125,1.0
3438570,36.013016666666665,129.318925,29.298382280954733,68.42491122381574,2.6,295.0,,-9.421875,-12.44921875,6.89453125,-3.041015625,-1.80859375,0.978515625,-5.5390625,-20.48828125,1.26171875,1.0
3438571,,,,,,,,-11.984375,-10.5859375,7.8671875,-4.482421875,-2.12890625,-0.8828125,-8.21875,-18.42578125,1.875,1.0
3438572,,,,,,,,-12.3203125,-8.8671875,9.82421875,-4.380859375,-2.40234375,-0.720703125,-8.21875,-15.47265625,3.4453125,1.0
3438573,,,,,,,,-10.640625,-6.34375,9.1171875,-3.623046875,-2.546875,-0.072265625,-7.109375,-13.59765625,2.3359375,1.0
3438574,,,,,,,,-9.11328125,-2.80078125,8.46484375,-2.875,-2.5546875,0.11328125,-5.76953125,-9.8359375,1.37890625,1.0
3438575,,,,,,,,-8.47265625,-1.140625,8.60546875,-2.537109375,-2.56640625,0.2421875,-5.34765625,-8.0,1.26171875,1.0
3438576,,,,,,,,-8.4453125,-0.453125,8.9765625,-2.46484375,-2.470703125,0.3984375,-5.421875,-7.234375,1.53125,1.0
3438577,,,,,,,,-8.5625,1.3515625,9.90234375,-2.361328125,-2.177734375,0.7890625,-5.8828125,-5.203125,2.14453125,1.0
3438578,,,,,,,,-7.75,5.34375,10.1328125,-2.658203125,-1.705078125,0.849609375,-5.5,-0.875,1.9921875,1.0
3438579,,,,,,,,-6.91015625,8.53515625,9.5390625,-2.40234375,-1.544921875,0.896484375,-4.84375,2.49609375,1.2265625,1.0
3438580,36.013019166666666,129.3189235,29.163158055460656,68.70230887917018,3.1,312.0,,-6.36328125,11.05859375,9.25,-1.796875,-1.34765625,0.7578125,-4.50390625,5.75390625,0.87890625,1.0
3438581,,,,,,,,-6.27734375,11.30859375,9.43359375,-1.544921875,-1.18359375,0.572265625,-4.390625,2.76171875,0.61328125,1.0
3438582,,,,,,,,-6.0078125,8.45703125,9.22265625,-1.380859375,-1.1328125,0.494140625,-4.1171875,1.0390625,0.3828125,1.0
3438583,,,,,,,,-5.58984375,5.62890625,9.0625,-1.224609375,-1.025390625,0.390625,-3.85546875,-0.5703125,0.53515625,1.0
3438584,,,,,,,,-4.25390625,4.0859375,10.5703125,-0.939453125,-0.93359375,0.62890625,-2.890625,-1.4140625,1.8359375,1.0
3438585,,,,,,,,-3.54296875,4.76953125,11.125,-0.173828125,-0.634765625,0.7421875,-2.4296875,-0.64453125,2.3359375,1.0
3438586,,,,,,,,-3.10546875,5.95703125,10.84765625,0.076171875,-0.599609375,0.61328125,-2.05078125,0.54296875,2.06640625,1.0
3438587,,,,,,,,-1.83984375,7.9765625,9.96875,0.408203125,-0.494140625,0.2890625,-0.86328125,2.53515625,1.2265625,1.0
3438588,,,,,,,,-0.58984375,9.14453125,8.84765625,0.404296875,-0.390625,0.052734375,0.32421875,3.64453125,0.15234375,1.0
3438589,,,,,,,,0.16015625,9.92578125,8.71875,0.306640625,-0.376953125,0.001953125,1.05078125,4.41015625,0.0390625,1.0
3438590,36.013021333333334,129.3189225,29.07300839638126,68.94272027233127,2.8000000000000003,324.0,,0.8203125,8.140625,9.3203125,-1.796875,-1.34765625,0.7578125,1.625,2.609375,0.6875,1.0
3438591,,,,,,,,0.8515625,5.58203125,9.359375,-0.396484375,-0.7890625,0.716796875,1.55078125,0.08203125,0.7265625,1.0
3438592,,,,,,,,0.75,2.69140625,10.04296875,-0.298828125,-0.859375,1.056640625,1.3203125,-2.7890625,1.41796875,1.0
3438593,,,,,,,,0.7890625,-1.15234375,10.9609375,-0.263671875,-0.9375,1.2265625,1.28125,-6.6171875,2.3359375,1.0
3438594,,,,,,,,0.80078125,-6.9375,12.5234375,-0.0859375,-1.095703125,1.458984375,1.12890625,-12.41015625,3.90625,1.0
3438595,,,,,,,,0.3828125,-20.796875,16.4375,0.119140625,-1.166015625,1.541015625,0.515625,-26.2734375,7.8515625,1.0
3438596,,,,,,,,2.984375,-36.1953125,19.70703125,0.404296875,-1.052734375,0.900390625,2.8515625,-41.71484375,11.18359375,1.0
3438597,,,,,,,,2.6015625,-14.84375,19.40625,0.7578125,-0.814453125,0.087890625,2.3515625,-20.41796875,10.953125,1.0
3438598,,,,,,,,-0.19921875,-12.89453125,16.83984375,0.6953125,-0.603515625,-0.302734375,-0.48046875,-18.4921875,8.42578125,1.0
3438599,,,,,,,,-8.109375,-11.80078125,14.7265625,-1.0859375,-0.287109375,-2.408203125,-8.3359375,-17.42578125,6.359375,1.0
3438600,36.01302333333333,129.31892133333335,28.967833990521363,69.16463840780257,2.4000000000000004,332.0,0.0,-8.73828125,-14.8359375,14.56640625,-1.099609375,-0.24609375,-1.9140625,-8.87109375,-20.375,6.16796875,1.0
3438601,,,,,,,,-6.06640625,-16.0546875,14.640625,-0.14453125,-0.1796875,-0.826171875,-6.15234375,-21.56640625,6.2421875,1.0
3438602,,,,,,,,-3.54296875,-15.06640625,14.08984375,0.66015625,-0.185546875,-0.404296875,-3.62109375,-20.60546875,5.74609375,1.0
3438603,,,,,,,,-1.70703125,-14.17578125,13.3203125,0.953125,-0.1484375,-0.388671875,-1.78515625,-19.76171875,5.015625,1.0
3438604,,,,,,,,0.36328125,-12.89453125,13.14453125,0.97265625,-0.037109375,-0.306640625,0.28515625,-18.5703125,4.94140625,1.0
3438605,,,,,,,,0.9296875,-12.35546875,13.37109375,0.544921875,0.1796875,0.224609375,0.859375,-18.15234375,5.28515625,1.0
3438606,,,,,,,,1.16796875,-10.9453125,12.3046875,0.53125,0.408203125,0.513671875,1.08984375,-16.8125,4.2890625,1.0
3438607,,,,,,,,1.3203125,-8.36328125,10.3203125,0.599609375,0.552734375,0.642578125,1.2421875,-14.28125,2.375,1.0
3438608,,,,,,,,1.52734375,-7.44921875,9.59765625,0.5703125,0.564453125,0.68359375,1.43359375,-13.3984375,1.68359375,1.0
3438609,,,,,,,,2.140625,-3.36328125,7.98828125,0.544921875,0.56640625,0.787109375,2.046875,-9.375,0.15234375,1.0
3438610,36.013025666666664,129.318921,28.937783513152304,69.42354320753985,2.7,342.0,,2.26953125,-1.96875,7.87890625,-1.099609375,-0.24609375,-1.9140625,-8.87109375,-20.375,6.16796875,1.0
3438611,,,,,,,,2.9921875,0.24609375,8.015625,0.232421875,0.365234375,1.326171875,2.8125,-5.89453125,0.34375,1.0
3438612,,,,,,,,3.29296875,0.8671875,8.10546875,0.19140625,0.3515625,1.427734375,3.08203125,-5.28125,0.45703125,1.0
3438613,,,,,,,,4.359375,2.73046875,8.05859375,0.138671875,0.298828125,1.52734375,4.08203125,-3.44140625,0.45703125,1.0
3438614,,,,,,,,4.90234375,3.328125,8.0,0.16796875,0.265625,1.517578125,4.57421875,-2.8671875,0.421875,1.0
3438615,,,,,,,,5.671875,5.1953125,8.05859375,0.373046875,0.267578125,1.38671875,5.265625,-1.03125,0.53515625,1.0
3438616,,,,,,,,6.4921875,6.36328125,6.890625,0.447265625,0.169921875,0.96484375,5.9921875,0.08203125,-0.5390625,1.0
3438617,,,,,,,,6.9375,6.00390625,5.55078125,0.3828125,0.162109375,0.751953125,6.4140625,-0.30078125,-1.83984375,1.0
3438618,,,,,,,,5.671875,3.5078125,5.87890625,-0.265625,0.23046875,0.138671875,5.11328125,-2.828125,-1.41796875,1.0
3438619,,,,,,,,4.85546875,3.17578125,7.44921875,-0.8515625,0.314453125,0.060546875,4.3046875,-3.13671875,0.15234375,1.0
3438620,36.01302833333333,129.31892150000002,28.982856969811635,69.71943466904825,2.9000000000000004,353.0,,3.265625,3.55078125,11.1640625,-1.578125,0.39453125,-0.021484375,2.734375,-2.67578125,3.828125,1.0
3438621,,,,,,,,1.06640625,6.16796875,13.92578125,-2.220703125,0.39453125,-0.388671875,0.58984375,0.12109375,6.46875,1.0
3438622,,,,,,,,1.953125,7.93359375,11.71484375,-1.6328125,0.4375,-0.97265625,1.546875,2.03515625,4.17578125,1.0
3438623,,,,,,,,1.5546875,10.13671875,9.26953125,-1.552734375,0.455078125,-1.357421875,1.2421875,4.328125,1.68359375,1.0
3438624,,,,,,,,0.11328125,9.32421875,9.5234375,-2.041015625,0.109375,-1.140625,-0.09765625,3.640625,1.875,1.0
3438625,,,,,,,,-3.7578125,1.7734375,13.1171875,-2.16796875,-0.078125,-0.51171875,-3.9296875,-3.75,5.40234375,1.0
3438626,,,,,,,,-6.36328125,-4.34765625,18.30078125,-1.95703125,-0.046875,-0.123046875,-6.53515625,-9.80078125,10.53125,1.0
3438627,,,,,,,,-13.328125,-31.90234375,28.61328125,-1.291015625,0.099609375,0.728515625,-13.5078125,-37.23046875,20.80078125,1.0
3438628,,,,,,,,-5.15234375,-42.48828125,18.5234375,0.5625,0.328125,1.294921875,-5.38671875,-47.796875,10.7265625,1.0
3438629,,,,,,,,-5.03515625,-10.41015625,15.27734375,0.8203125,0.384765625,0.775390625,-5.30859375,-15.81640625,7.58203125,1.0
3438630,36.013031166666664,129.31892133333335,28.967831124326672,70.03381913810794,3.1,357.0,,-0.5546875,-6.77734375,10.03125,-1.578125,0.39453125,-0.021484375,-0.828125,-12.1328125,2.3359375,1.0
3438631,,,,,,,,7.11328125,-14.8046875,10.72265625,-1.421875,0.013671875,-2.9375,7.02734375,-19.875,2.87109375,1.0
3438632,,,,,,,,6.0390625,-18.8515625,20.0703125,-0.69140625,-0.458984375,-1.767578125,5.9921875,-23.90234375,12.21875,1.0
3438633,,,,,,,,2.27734375,-20.29296875,16.984375,-1.8828125,-0.751953125,1.11328125,2.19921875,-25.27734375,9.1171875,1.0
3438634,,,,,,,,-2.79296875,-15.078125,10.08984375,-3.26171875,-1.0859375,0.951171875,-3.01171875,-19.87890625,2.14453125,1.0
3438635,,,,,,,,-2.6875,-10.30859375,12.34765625,-3.419921875,-1.810546875,-0.03125,-3.1640625,-14.58984375,4.17578125,1.0
3438636,,,,,,,,-1.56640625,-8.93359375,12.4296875,-3.291015625,-1.923828125,0.10546875,-2.12890625,-13.09765625,4.2109375,1.0
3438637,,,,,,,,-1.546875,-8.0546875,12.2421875,-3.138671875,-2.091796875,0.39453125,-2.28125,-11.98828125,3.9453125,1.0
3438638,,,,,,,,-3.03125,-7.515625,11.109375,-3.169921875,-2.130859375,0.55078125,-3.96875,-11.21875,2.7578125,1.0
3438639,,,,,,,,-3.51171875,-7.7109375,10.7890625,-3.154296875,-2.107421875,0.5703125,-4.54296875,-11.30078125,2.4140625,1.0
3438640,36.0130335,129.31892183333332,29.012904692138818,70.29272418546505,2.8000000000000003,1.0,,-4.12109375,-7.66796875,9.72265625,-3.0078125,-1.9296875,0.576171875,-5.34765625,-11.02734375,1.30078125,1.0
3438641,,,,,,,,-4.68359375,-6.32421875,8.91015625,-2.896484375,-1.630859375,0.609375,-6.07421875,-9.45703125,0.45703125,1.0
3438642,,,,,,,,-5.109375,-2.859375,9.40234375,-2.900390625,-1.330078125,0.669921875,-6.6484375,-5.78125,0.91796875,1.0
3438643,,,,,,,,-4.9375,0.40625,9.3359375,-3.10546875,-0.740234375,0.6953125,-6.6484375,-2.1796875,0.8046875,1.0
3438644,,,,,,,,-3.83984375,2.81640625,8.9765625,-3.16015625,-0.4296875,0.546875,-5.61328125,0.46484375,0.421875,1.0
3438645,,,,,,,,-2.73046875,5.64453125,9.19921875,-3.05078125,-0.23046875,0.3359375,-4.54296875,3.52734375,0.61328125,1.0
3438646,,,,,,,,-2.25390625,5.98828125,9.3671875,-2.92578125,-0.216796875,0.23046875,-4.078125,3.98828125,0.765625,1.0
3438647,,,,,,,,-0.73828125,5.5234375,8.9140625,-2.44140625,-0.251953125,0.0546875,-2.58984375,3.71875,0.3046875,1.0
3438648,,,,,,,,0.05078125,3.0546875,8.953125,-1.66796875,-0.259765625,-0.048828125,-1.8203125,1.3828125,0.34375,1.0
3438649,,,,,,,,-0.125,1.3828125,10.02734375,-1.279296875,-0.244140625,-0.0546875,-2.01953125,-0.2265625,1.41796875,1.0
3438650,36.013036166666666,129.31892316666665,29.133102176224163,70.58861589670488,3.1,9.0,,-0.65234375,0.25,12.078125,-0.583984375,-0.3359375,0.517578125,-2.58984375,-1.296875,3.5234375,1.0
3438651,,,,,,,,0.19140625,0.86328125,12.4453125,0.109375,-0.3984375,0.828125,-1.82421875,-0.68359375,3.94921875,1.0
3438652,,,,,,,,1.55859375,3.13671875,10.62109375,0.265625,-0.412109375,0.734375,-0.48046875,1.57421875,2.140625,1.0
3438653,,,,,,,,2.33203125,4.87890625,9.5390625,0.322265625,-0.4921875,0.37890625,0.24609375,3.2578125,1.109375,1.0
3438654,,,,,,,,2.2734375,6.83984375,8.96484375,-0.00390625,-0.572265625,0.00390625,0.1328125,5.171875,0.57421875,1.0
3438655,,,,,,,,2.5859375,7.5390625,8.3828125,-0.609375,-0.625,-0.173828125,0.3984375,5.87109375,0.0390625,1.0
3438656,,,,,,,,2.54296875,7.21484375,7.9453125,-0.84375,-0.626953125,-0.177734375,0.32421875,5.5546875,-0.3828125,1.0
3438657,,,,,,,,2.05078125,5.22265625,7.60546875,-0.95703125,-0.583984375,-0.08203125,-0.21484375,3.60546875,-0.69140625,1.0
3438658,,,,,,,,0.94921875,3.19140625,8.87109375,-0.794921875,-0.568359375,0.23046875,-1.36328125,1.61328125,0.61328125,1.0
3438659,,,,,,,,0.28515625,1.7890625,9.8515625,-0.69140625,-0.58203125,0.474609375,-2.05078125,0.234375,1.609375,1.0
3438660,36.0130385,129.31892466666667,29.26832458537821,70.84752124500456,2.8000000000000003,18.0,,-1.64453125,-6.1328125,11.61328125,-0.583984375,-0.3359375,0.517578125,-4.04296875,-7.65625,3.41015625,1.0
3438661,,,,,,,,-2.6015625,-11.55078125,12.5234375,0.099609375,-0.71875,1.291015625,-5.078125,-13.0546875,4.3671875,1.0
3438662,,,,,,,,-2.36328125,-20.68359375,12.49609375,0.56640625,-0.826171875,1.634765625,-4.92578125,-22.21484375,4.40234375,1.0
3438663,,,,,,,,4.7109375,-43.48828125,16.296875,0.744140625,-0.814453125,1.671875,2.0078125,-45.08203125,8.3125,1.0
3438664,,,,,,,,12.7109375,-53.41796875,34.12109375,1.125,-0.263671875,0.876953125,9.9375,-55.08203125,26.19921875,1.0
3438665,,,,,,,,2.57421875,-22.30078125,17.80859375,1.138671875,-0.05078125,0.44921875,-0.21484375,-24.08984375,9.95703125,1.0
3438666,,,,,,,,-5.4453125,-15.2734375,15.12109375,0.125,0.6796875,-1.576171875,-8.21875,-17.16015625,7.31640625,1.0
3438667,,,,,,,,-6.99609375,-16.75,10.046875,-0.662109375,0.865234375,-3.83984375,-9.63671875,-18.7265625,2.2578125,1.0
3438668,,,,,,,,-5.28125,-16.17578125,8.9609375,0.33984375,0.8125,-2.7734375,-7.796875,-18.265625,1.1875,1.0
3438669,,,,,,,,-0.1953125,-14.37109375,14.4765625,1.53125,0.525390625,-0.400390625,-2.625,-16.62109375,6.7421875,1.0
3439060,36.013016500000006,129.31895799999998,32.273295007064384,68.40642844293357,3.4000000000000004,234.0,,3.35546875,11.8984375,0.4765625,-1.93359375,-0.630859375,0.294921875,1.85546875,3.45703125,0.0390625,1.0
3439061,,,,,,,,3.00390625,10.82421875,1.0078125,0.181640625,-0.3125,0.205078125,1.1640625,1.95703125,1.30078125,1.0
3439062,,,,,,,,1.859375,8.25,3.03125,0.00390625,-0.32421875,0.76953125,0.015625,-0.37890625,3.63671875,1.0
3439063,,,,,,,,1.1796875,5.80078125,4.9296875,0.1640625,-0.36328125,1.0234375,-0.55859375,-4.74609375,4.9765625,1.0
3439064,,,,,,,,1.5703125,-0.4140625,3.96484375,0.67578125,-0.390625,1.115234375,1.47265625,-15.28515625,2.52734375,1.0
3439065,,,,,,,,3.95703125,-15.48046875,4.0234375,1.25,-0.466796875,1.279296875,4.53515625,-45.2734375,5.9765625,1.0
3439066,,,,,,,,6.19921875,-38.703125,5.9296875,0.8203125,-0.73046875,1.908203125,10.78125,-58.72265625,13.3671875,1.0
3439067,,,,,,,,20.671875,-65.26953125,23.328125,-0.0546875,-0.640625,2.091796875,15.1484375,-49.91015625,30.1484375,1.0
3439068,,,,,,,,8.0234375,-23.1171875,18.3828125,-0.875,-0.330078125,1.234375,2.16015625,-23.3203125,8.88671875,1.0
3439069,,,,,,,,-1.89453125,-7.07421875,3.20703125,-1.19140625,0.455078125,-2.748046875,-3.39453125,-14.66796875,4.05859375,1.0
3439070,36.013015333333335,129.31895483333335,31.987824064461805,68.27697494977043,3.1,237.0,,3.35546875,11.8984375,0.4765625,-2.00390625,0.572265625,-5.408203125,1.85546875,3.45703125,0.0390625,1.0
3439071,,,,,,,,-11.9296875,-5.40625,-0.23046875,-0.078125,-0.4765625,-4.29296875,-12.625,-13.94140625,0.83984375,1.0
3439072,,,,,,,,-6.359375,-8.12109375,0.54296875,1.953125,-0.54296875,-0.876953125,-6.6875,-17.0390625,1.80078125,1.0
3439073,,,,,,,,-3.80859375,-6.7890625,3.5078125,1.515625,-0.005859375,1.13671875,-4.04296875,-16.046875,5.09375,1.0
3439074,,,,,,,,0.62890625,-3.453125,2.01953125,0.9921875,0.03125,0.763671875,0.20703125,-13.171875,4.05859375,1.0
3439075,,,,,,,,6.0078125,-2.484375,1.87109375,1.4453125,0.296875,-0.03125,5.53125,-12.484375,4.17578125,1.0
3439076,,,,,,,,6.36328125,-2.13671875,2.08203125,1.8359375,0.615234375,-0.048828125,5.87890625,-12.25390625,4.55859375,1.0
3439077,,,,,,,,5.2578125,-1.40625,1.4609375,1.982421875,0.966796875,0.384765625,4.765625,-11.72265625,4.2890625,1.0
3439078,,,,,,,,3.046875,-0.19140625,0.31640625,0.79296875,1.009765625,0.794921875,2.5078125,-10.68359375,3.41015625,1.0
3439079,,,,,,,,2.5546875,1.0078125,-0.76171875,0.189453125,0.916015625,0.904296875,1.96875,-9.6484375,2.48828125,1.0
3439080,36.01301416666667,129.318952,31.73240273261809,68.14752157460647,3.1,241.0,,2.56640625,3.2890625,-2.10546875,0.154296875,0.626953125,0.666015625,1.89453125,-7.578125,1.30078125,1.0
3439081,,,,,,,,2.765625,5.08984375,-3.21875,0.28515625,0.384765625,0.697265625,2.0859375,-5.85546875,0.265625,1.0
3439082,,,,,,,,3.02734375,8.0234375,-4.3671875,0.5390625,0.08203125,0.88671875,2.31640625,-2.9453125,-0.8046875,1.0
3439083,,,,,,,,3.1484375,10.26953125,-3.75,0.603515625,-0.044921875,1.021484375,2.43359375,-0.68359375,-0.15625,1.0
3439084,,,,,,,,4.27734375,12.48046875,-2.140625,0.337890625,-0.318359375,1.380859375,3.50390625,1.65234375,1.53125,1.0
3439085,,,,,,,,4.453125,14.23046875,-2.1796875,0.08203125,-0.43359375,1.20703125,3.66015625,3.56640625,1.4921875,1.0
3439086,,,,,,,,4.52734375,15.1015625,-2.9609375,0.025390625,-0.6015625,0.638671875,3.76953125,4.640625,0.6875,1.0
3439087,,,,,,,,5.03125,14.875,-4.4921875,0.1015625,-0.638671875,0.068359375,4.3828125,4.6796875,-0.8828125,1.0
3439088,,,,,,,,5.09765625,14.3046875,-4.890625,0.16796875,-0.59375,-0.14453125,4.53515625,4.2578125,-1.3046875,1.0
3439089,,,,,,,,5.5234375,11.109375,-5.71484375,0.26953125,-0.4609375,-0.3046875,5.1484375,1.3828125,-2.18359375,1.0
3439090,36.01301333333333,129.31894933333334,31.49200607400691,68.05505467375427,2.9000000000000004,246.0,,5.19140625,7.578125,-5.4765625,0.18359375,-0.138671875,0.181640625,5.0703125,-1.640625,-2.0703125,1.0
3439091,,,,,,,,4.078125,6.56640625,-4.29296875,-0.0390625,0.048828125,0.75390625,4.08203125,-2.33203125,-0.99609375,1.0
3439092,,,,,,,,2.92578125,6.8828125,-2.60546875,-0.517578125,0.0625,1.12890625,3.00390625,-1.71875,0.53515625,1.0
3439093,,,,,,,,1.8828125,6.79296875,-1.4609375,-1.1015625,0.078125,1.240234375,2.01171875,-1.52734375,1.4921875,1.0
3439094,,,,,,,,1.453125,6.3515625,0.28125,-1.748046875,0.17578125,1.06640625,1.625,-1.71875,3.0234375,1.0
3439095,,,,,,,,0.89453125,7.3828125,1.22265625,-2.34375,0.306640625,0.62109375,1.12890625,-0.453125,3.71484375,1.0
3439096,,,,,,,,0.6640625,7.76171875,1.41796875,-2.544921875,0.3046875,0.29296875,0.9375,0.04296875,3.79296875,1.0
3439097,,,,,,,,-0.06640625,8.1796875,1.98046875,-2.875,0.173828125,-0.423828125,0.32421875,0.6953125,4.09375,1.0
3439098,,,,,,,,-1.51171875,5.75390625,3.921875,-3.11328125,-0.037109375,-1.169921875,-0.98046875,-1.48828125,5.8203125,1.0
3439099,,,,,,,,-3.4921875,-7.3359375,12.28515625,-3.01171875,-0.248046875,-1.677734375,-2.78125,-14.36328125,13.98046875,1.0
3439100,36.01301216666666,129.31894633333334,31.221559918390128,67.92560125961381,2.9000000000000004,245.0,0.0,-4.56640625,-44.62109375,20.73046875,-2.666015625,-0.357421875,-1.60546875,-3.69921875,-51.51953125,22.33203125,1.0
3439101,,,,,,,,-17.46875,-49.6953125,14.5390625,-1.435546875,0.013671875,-0.046875,-16.53125,-56.73046875,16.203125,1.0
3439102,,,,,,,,-11.5078125,-17.6640625,10.2421875,0.177734375,-0.078125,0.96484375,-10.7109375,-25.046875,12.140625,1.0
3439103,,,,,,,,-4.39453125,-12.26171875,1.33203125,-0.41796875,-0.66796875,0.87890625,-3.69921875,-19.83984375,3.37109375,1.0
3439104,,,,,,,,-1.7421875,-6.64453125,-6.61328125,-4.1640625,-0.609375,-1.251953125,-1.171875,-14.66796875,-4.51953125,1.0
3439105,,,,,,,,2.8359375,-3.21875,-0.94921875,-3.61328125,-0.794921875,-4.3515625,3.5390625,-11.68359375,0.99609375,1.0
3439106,,,,,,,,5.15234375,-7.5859375,3.6953125,-2.73828125,-1.357421875,-2.748046875,6.14453125,-16.4296875,5.4765625,1.0
3439107,,,,,,,,2.5546875,-15.49609375,4.6796875,-2.15234375,-1.408203125,2.296875,3.5390625,-24.96875,6.359375,1.0
3439108,,,,,,,,0.6796875,-14.6484375,4.234375,-2.78515625,-1.724609375,2.716796875,1.546875,-24.359375,5.859375,1.0
3439109,,,,,,,,0.41015625,-11.08203125,2.32421875,-3.888671875,-2.01953125,1.86328125,1.05078125,-21.29296875,3.71484375,1.0
3439110,36.013011,129.31894366666666,30.981163376280477,67.79614795971727,2.7,243.0,,-4.56640625,-44.62109375,20.73046875,-4.05859375,-2.2578125,0.0078125,0.9375,-14.4765625,-0.69140625,1.0
3439111,,,,,,,,-0.32421875,-1.93359375,-1.73828125,-3.84375,-2.58984375,-0.013671875,-0.55859375,-11.68359375,-0.84375,1.0
3439112,,,,,,,,-2.046875,1.8515625,0.1953125,-3.5390625,-2.638671875,0.603515625,-1.515625,-9.57421875,0.421875,1.0
3439113,,,,,,,,-2.8359375,3.84765625,-0.13671875,-3.318359375,-2.37890625,1.07421875,-2.3984375,-7.84765625,-0.30859375,1.0
3439114,,,,,,,,-4.5,5.19140625,-0.53515625,-3.123046875,-2.2265625,1.220703125,-4.234375,-6.6953125,-1.07421875,1.0
3439115,,,,,,,,-5.53125,7.34765625,0.40625,-2.998046875,-1.87109375,1.349609375,-5.5,-4.66796875,-0.5390625,1.0
3439116,,,,,,,,-5.4140625,7.38671875,0.5625,-2.96484375,-1.642578125,1.46875,-5.96484375,-2.90625,-0.23046875,1.0
3439117,,,,,,,,-5.796875,9.9921875,1.24609375,-2.833984375,-1.275390625,1.693359375,-6.4140625,-0.453125,0.34375,1.0
3439118,,,,,,,,-5.6640625,11.8359375,2.33984375,-2.50390625,-0.9921875,1.7265625,-6.7265625,0.15625,0.99609375,1.0
3439119,,,,,,,,-6.3359375,12.7890625,3.38671875,-2.091796875,-0.77734375,1.607421875,-7.95703125,1.078125,1.2265625,1.0
3439120,36.013011166666665,129.31894033333336,30.680667063417623,67.81464011255012,2.9000000000000004,257.0,,-4.56640625,-44.62109375,20.73046875,-1.669921875,-0.759765625,1.021484375,-8.984375,0.50390625,0.53515625,1.0
3439121,,,,,,,,-7.74609375,10.3671875,2.10546875,-1.521484375,-0.73828125,0.541015625,-9.90625,-1.44921875,-0.421875,1.0
3439122,,,,,,,,-7.93359375,9.04296875,2.109375,-1.3359375,-0.53515625,0.283203125,-9.91015625,-2.1796875,0.11328125,1.0
3439123,,,,,,,,-7.078125,8.71484375,3.00390625,-0.77734375,-0.26171875,0.25390625,-7.83984375,-1.44921875,0.99609375,1.0
3439124,,,,,,,,3.1796875,0.94921875,1.14453125,0.365234375,0.048828125,0.302734375,-5.5390625,-0.83984375,1.33984375,1.0
3439125,,,,,,,,7.79296875,3.1640625,0.640625,2.12890625,0.228515625,0.177734375,-0.17578125,3.140625,0.0,1.0
3439126,,,,,,,,10.92578125,6.3515625,-0.5546875,3.55078125,-0.126953125,0.04296875,2.0078125,5.17578125,-0.73046875,1.0
3439127,,,,,,,,14.14453125,8.7578125,-1.5625,3.6875,-0.21875,0.04296875,5.2265625,6.9765625,-1.2265625,1.0
3439128,,,,,,,,16.12890625,8.80859375,-1.34765625,2.873046875,-0.234375,0.177734375,6.91015625,6.09375,-0.8046875,1.0
3439129,,,,,,,,17.19921875,4.6015625,-0.09375,1.607421875,-0.349609375,0.783203125,6.87890625,-0.03515625,2.10546875,1.0
3439130,36.013011,129.318937,30.380170877633986,67.79614586091373,2.8000000000000003,264.0,,14.48828125,-5.22265625,4.09765625,0.572265625,-0.564453125,1.912109375,-8.984375,0.50390625,0.53515625,1.0
3439131,,,,,,,,11.75390625,-15.68359375,7.97265625,0.125,-0.755859375,3.287109375,1.81640625,-17.421875,8.54296875,1.0
3439132,,,,,,,,22.44140625,-47.84375,8.53515625,0.8359375,-1.2109375,4.4453125,12.46484375,-49.26171875,9.19140625,1.0
3439133,,,,,,,,39.21484375,-76.20703125,19.3203125,1.447265625,-1.634765625,4.744140625,29.20703125,-77.1796875,20.109375,1.0
3439134,,,,,,,,20.3671875,-26.01953125,5.328125,-2.681640625,-0.783203125,3.18359375,10.359375,-26.54296875,6.28125,1.0
3439135,,,,,,,,8.828125,-14.25390625,-0.52734375,-2.7421875,0.138671875,-1.48828125,-1.171875,-14.51171875,0.49609375,1.0
3439136,,,,,,,,-1.30859375,-7.3125,-3.765625,-5.90625,0.40234375,-6.37109375,-11.28515625,-7.7734375,-2.7578125,1.0
3439137,,,,,,,,-9.03125,-7.55078125,-3.03125,-4.451171875,0.056640625,-6.5234375,-18.94921875,-8.69140625,-2.109375,1.0
3439138,,,,,,,,-3.89453125,-14.00390625,-1.296875,-0.91796875,-1.37109375,-3.34765625,-13.69921875,-15.8125,-0.421875,1.0
3439139,,,,,,,,0.03515625,-15.17578125,-0.3203125,0.984375,-0.880859375,0.482421875,-9.67578125,-17.34765625,0.6484375,1.0
3439140,36.01301133333333,129.31893399999998,30.109724122482092,67.83313134350624,2.6,270.0,,2.35546875,-15.64453125,0.8671875,1.603515625,-0.509765625,2.380859375,-7.33984375,-17.6875,1.9921875,1.0
3439141,,,,,,,,8.43359375,-12.96875,0.81640625,1.548828125,-0.447265625,2.283203125,-1.28515625,-14.78515625,2.02734375,1.0
3439142,,,,,,,,11.62109375,-10.7265625,0.25,1.1953125,0.193359375,1.2890625,1.89453125,-12.37109375,1.4921875,1.0
3439143,,,,,,,,15.0390625,-7.78125,0.08984375,0.94921875,0.880859375,0.5703125,5.3046875,-9.34765625,1.30078125,1.0
3439144,,,,,,,,16.0703125,-6.2109375,0.63671875,1.341796875,1.240234375,0.505859375,6.3359375,-7.73828125,1.76171875,1.0
3439145,,,,,,,,16.1875,-5.7265625,0.34765625,1.6640625,1.08984375,0.693359375,6.453125,-7.1953125,1.37890625,1.0
3439146,,,,,,,,16.37890625,-5.53125,0.38671875,1.701171875,0.9140625,0.740234375,6.64453125,-6.96875,1.37890625,1.0
3439147,,,,,,,,15.3828125,-4.3203125,-0.79296875,1.416015625,0.60546875,0.732421875,5.6484375,-5.703125,0.15234375,1.0
3439148,,,,,,,,14.26171875,-3.65625,-1.375,0.52734375,0.4375,0.716796875,4.53515625,-4.9765625,-0.4609375,1.0
3439149,,,,,,,,13.2578125,-1.78515625,-1.61328125,-0.623046875,0.169921875,0.736328125,3.54296875,-3.05859375,-0.73046875,1.0
3439150,36.013012333333336,129.31893083333335,29.824252313528277,67.94408961306144,2.9000000000000004,280.0,,11.93359375,0.734375,-0.9140625,-1.423828125,-0.1953125,1.18359375,2.23828125,-0.453125,-0.0390625,1.0
3439151,,,,,,,,11.6875,3.6953125,0.76171875,-1.22265625,-0.310546875,1.59765625,2.0078125,2.61328125,1.64453125,1.0
3439152,,,,,,,,11.94921875,4.671875,1.046875,-0.810546875,-0.263671875,1.708984375,2.27734375,3.72265625,1.953125,1.0
3439153,,,,,,,,12.1796875,4.6171875,0.88671875,-0.638671875,-0.2578125,1.580078125,2.5078125,3.72265625,1.80078125,1.0
3439154,,,,,,,,13.07421875,3.70703125,-1.55078125,-0.28515625,-0.302734375,1.146484375,3.42578125,2.91796875,-0.61328125,1.0
3439155,,,,,,,,14.4765625,2.53125,-2.546875,-0.07421875,-0.349609375,0.69921875,4.84765625,1.8046875,-1.5703125,1.0
3439156,,,,,,,,17.01171875,0.6171875,-2.88671875,-0.4453125,-0.296875,0.544921875,7.40625,-0.0703125,-1.87890625,1.0
3439157,,,,,,,,17.75390625,-1.515625,-2.25,-1.29296875,-0.185546875,0.681640625,8.171875,-2.1796875,-1.2265625,1.0
3439158,,,,,,,,17.27734375,-2.03515625,-1.8671875,-1.779296875,-0.12109375,0.818359375,7.7109375,-2.67578125,-0.84375,1.0
3439159,,,,,,,,14.07421875,-1.42578125,-0.41015625,-2.517578125,0.009765625,0.955078125,4.53125,-2.02734375,0.61328125,1.0
3439160,36.013013666666666,129.31892783333333,29.553805194121168,68.09203435325071,3.0,289.0,,10.8203125,0.71875,3.2265625,-1.423828125,-0.1953125,1.18359375,2.23828125,-0.453125,-0.0390625,1.0
3439161,,,,,,,,10.06640625,1.44921875,3.15234375,-3.373046875,0.212890625,-0.20703125,0.58984375,0.84765625,4.09765625,1.0
3439162,,,,,,,,10.2421875,1.9921875,2.02734375,-3.39453125,0.22265625,-0.62890625,0.78125,1.34375,2.9453125,1.0
3439163,,,,,,,,10.01953125,1.13671875,2.140625,-3.068359375,0.169921875,-1.37890625,0.58984375,0.34765625,3.02734375,1.0
3439164,,,,,,,,8.37109375,-6.39453125,0.2421875,-3.169921875,-0.02734375,-1.54296875,-0.98046875,-7.46484375,1.0703125,1.0
3439165,,,,,,,,-0.32421875,-41.93359375,8.671875,-3.490234375,-0.046875,-0.615234375,-9.63671875,-43.1640625,9.4609375,1.0
3439166,,,,,,,,-7.81640625,-60.3671875,17.28515625,-3.486328125,0.140625,0.1875,-17.10546875,-61.6328125,18.04296875,1.0
3439167,,,,,,,,-4.9453125,-33.63671875,16.46484375,-0.201171875,0.564453125,3.359375,-14.234375,-34.734375,17.12109375,1.0
3439168,,,,,,,,9.3828125,-16.16015625,2.19921875,-1.421875,0.53515625,2.90234375,0.09375,-16.9609375,2.83203125,1.0
3439169,,,,,,,,13.7109375,-10.953125,-1.8125,-4.625,0.994140625,-0.12890625,4.421875,-11.72265625,-1.2265625,1.0
3439170,36.01301416666667,129.31892483333334,29.283358392364313,68.14751306946872,2.7,286.0,,17.69140625,-15.35546875,-7.25,-1.423828125,-0.1953125,1.18359375,8.48046875,-16.6171875,-6.859375,1.0
3439171,,,,,,,,20.671875,-15.625,-2.765625,-3.279296875,-0.826171875,-2.998046875,11.546875,-17.27734375,-2.4140625,1.0
3439172,,,,,,,,17.21484375,-16.953125,1.35546875,-3.095703125,-1.041015625,-1.470703125,8.13671875,-18.73046875,1.72265625,1.0
3439173,,,,,,,,10.3359375,-27.2109375,2.93359375,-4.5546875,-1.2578125,2.208984375,1.28125,-28.99609375,3.33203125,1.0
3439174,,,,,,,,8.04296875,-24.13671875,-0.5859375,-5.60546875,-1.451171875,2.662109375,-1.01953125,-25.734375,-0.15625,1.0
3439175,,,,,,,,3.27734375,-18.8203125,-3.53515625,-5.1875,-1.458984375,1.31640625,-5.76953125,-20.30078125,-3.06640625,1.0
3439176,,,,,,,,1.9140625,-16.4921875,-3.703125,-5.154296875,-1.767578125,0.16015625,-7.109375,-17.9609375,-3.1796875,1.0
3439177,,,,,,,,0.96484375,-9.3125,-3.27734375,-5.6171875,-1.96484375,-0.24609375,-7.98828125,-10.9140625,-2.64453125,1.0
3439178,,,,,,,,1.26953125,-7.85546875,-3.72265625,-5.0546875,-1.83203125,-0.083984375,-7.64453125,-9.53125,-3.02734375,1.0
3439179,,,,,,,,1.3515625,-7.2421875,-4.25,-4.57421875,-1.875,0.001953125,-7.53125,-8.9609375,-3.5234375,1.0
3439180,36.0130155,129.31892233333335,29.057985726633618,68.29545797714184,2.7,292.0,,0.1484375,-4.25,-3.45703125,-1.423828125,-0.1953125,1.18359375,-8.68359375,-6.046875,-2.60546875,1.0
3439181,,,,,,,,1.06640625,-1.9140625,0.66796875,-2.478515625,-1.0625,1.701171875,-7.71875,-3.6328125,1.64453125,1.0
3439182,,,,,,,,2.1328125,-0.23828125,0.35546875,-2.369140625,-0.89453125,1.703125,-6.6484375,-1.91015625,1.33984375,1.0
3439183,,,,,,,,3.01171875,1.40625,-0.49609375,-2.1953125,-0.75390625,1.2734375,-5.76953125,-0.1875,0.49609375,1.0
3439184,,,,,,,,3.59375,3.08984375,-1.19921875,-1.78515625,-0.75,0.611328125,-5.16015625,1.53515625,-0.19140625,1.0
3439185,,,,,,,,2.8828125,0.9453125,-0.9765625,-1.31640625,-0.666015625,0.48046875,-5.84765625,-0.609375,0.0390625,1.0
3439186,,,,,,,,2.375,0.2109375,-0.40234375,-1.095703125,-0.548828125,0.4296875,-6.34765625,-1.3359375,0.61328125,1.0
3439187,,,,,,,,1.40234375,-0.890625,2.578125,-0.783203125,-0.349609375,0.357421875,-7.296875,-2.4453125,3.6015625,1.0
3439188,,,,,,,,1.72265625,-0.5703125,3.89453125,-0.365234375,-0.23828125,0.18359375,-6.95703125,-2.140625,4.90234375,1.0
3439189,,,,,,,,3.515625,0.50390625,3.51953125,-0.04296875,-0.216796875,0.0390625,-5.15625,-1.06640625,4.51953125,1.0
3439190,36.01301733333333,129.3189205,28.892712126351718,68.49888270873316,2.9000000000000004,304.0,,7.0859375,2.953125,1.796875,-1.423828125,-0.1953125,1.18359375,-1.5546875,1.34375,2.80078125,1.0
3439191,,,,,,,,9.31640625,4.82421875,0.29296875,1.1640625,-0.216796875,-0.71875,0.70703125,3.14453125,1.30078125,1.0
3439192,,,,,,,,11.75,7.8828125,-0.47265625,1.333984375,-0.38671875,-0.734375,3.1953125,6.09375,0.57421875,1.0
3439193,,,,,,,,12.2109375,8.59765625,1.171875,0.998046875,-0.49609375,-0.3359375,3.6953125,6.74609375,2.2578125,1.0
3439194,,,,,,,,11.796875,7.359375,1.9453125,0.361328125,-0.541015625,0.23828125,3.3125,5.484375,3.0625,1.0
3439195,,,,,,,,11.3125,4.60546875,1.234375,-0.205078125,-0.5859375,0.76171875,2.8515625,2.76171875,2.375,1.0
3439196,,,,,,,,10.8515625,0.8359375,1.29296875,-0.36328125,-0.630859375,0.94921875,2.390625,-0.9921875,2.4453125,1.0
3439197,,,,,,,,11.296875,-9.0859375,0.07421875,-0.55859375,-0.783203125,1.265625,2.8515625,-10.83984375,1.26171875,1.0
3439198,,,,,,,,11.51171875,-24.3046875,1.9140625,-0.55859375,-0.916015625,1.515625,3.08203125,-25.96875,3.140625,1.0
3439199,,,,,,,,12.65234375,-62.3984375,7.8828125,-0.74609375,-0.92578125,1.70703125,4.23046875,-63.96875,9.15625,1.0
3439200,36.01301933333333,129.31891916666666,28.772512909482124,68.720800798258,2.5,312.0,0.0,7.16015625,-61.625,17.51953125,-1.423828125,-0.1953125,1.18359375,-1.24609375,-63.0859375,18.84765625,1.0
3439201,,,,,,,,16.51953125,-25.5,11.46484375,0.734375,-0.505859375,1.806640625,8.13671875,-26.7734375,12.91015625,1.0
3439202,,,,,,,,2.29296875,-11.28515625,2.984375,-1.1640625,1.140625,-2.25390625,-6.07421875,-12.59375,4.3671875,1.0
3439203,,,,,,,,-4.17578125,-9.1953125,-0.078125,-2.98828125,0.42578125,-4.927734375,-12.46875,-10.9140625,1.1875,1.0
3439204,,,,,,,,-2.828125,-13.05859375,-1.9921875,-0.232421875,0.17578125,-2.205078125,-10.9765625,-15.31640625,-0.84375,1.0
3439205,,,,,,,,0.1875,-16.484375,-0.52734375,0.32421875,-0.1171875,0.423828125,-7.9140625,-18.84375,0.61328125,1.0
3439206,,,,,,,,0.80078125,-16.765625,0.62109375,0.236328125,-0.1015625,1.201171875,-7.30078125,-19.11328125,1.76171875,1.0
3439207,,,,,,,,3.18359375,-16.9296875,2.51171875,0.541015625,0.490234375,1.591796875,-3.23828125,-18.76953125,4.25,1.0
3439208,,,,,,,,8.5234375,-14.73828125,3.625,1.18359375,0.931640625,1.150390625,1.7421875,-15.47265625,4.7890625,1.0
3439209,,,,,,,,9.8671875,-13.34765625,3.7265625,1.39453125,1.068359375,0.9140625,2.7734375,-14.015625,4.55859375,1.0
3439210,36.013021,129.31891766666666,28.637289009008,68.90573242753061,2.4000000000000004,320.0,,11.7109375,-10.55859375,3.52734375,1.478515625,1.005859375,0.474609375,4.69140625,-10.83984375,3.984375,1.0
3439211,,,,,,,,13.0078125,-8.4375,2.33203125,1.25390625,0.931640625,0.14453125,4.61328125,-10.33984375,2.48828125,1.0
3439212,,,,,,,,12.73828125,-8.26953125,1.58984375,1.076171875,0.931640625,0.048828125,3.3125,-9.26953125,1.1875,1.0
3439213,,,,,,,,9.48046875,-6.14453125,-0.8046875,0.068359375,0.81640625,0.228515625,1.39453125,-8.26953125,-0.0390625,1.0
3439214,,,,,,,,8.4765625,-4.3359375,-0.53515625,-0.330078125,0.75,0.47265625,0.3984375,-6.47265625,0.19140625,1.0
3439215,,,,,,,,8.890625,-2.12109375,0.1796875,-0.865234375,0.40625,1.40234375,0.8203125,-4.203125,0.8046875,1.0
3439216,,,,,,,,9.3984375,-0.29296875,0.953125,-0.630859375,0.173828125,1.755859375,1.3203125,-2.29296875,1.53125,1.0
3439217,,,,,,,,10.203125,0.37890625,0.9765625,-0.3984375,0.09375,1.8203125,2.125,-1.56640625,1.53125,1.0
3439218,,,,,,,,11.89453125,2.23828125,0.41015625,0.17578125,-0.03515625,1.60546875,3.8046875,0.38671875,0.95703125,1.0
3439219,,,,,,,,13.46484375,2.61328125,-0.31640625,0.466796875,-0.080078125,1.376953125,5.375,0.80859375,0.23046875,1.0
3439220,36.0130235,129.31891766666666,28.637288104724384,69.18313053138034,2.6,333.0,,16.03125,1.83203125,-1.56640625,1.478515625,1.005859375,0.474609375,7.9453125,0.08203125,-0.99609375,1.0
3439221,,,,,,,,16.72265625,1.00390625,-1.953125,0.85546875,-0.318359375,0.3671875,8.671875,-0.72265625,-1.34375,1.0
3439222,,,,,,,,15.73828125,0.90234375,-1.140625,0.365234375,-0.3515625,0.16796875,7.7109375,-0.83984375,-0.5,1.0
3439223,,,,,,,,12.70703125,1.9453125,1.34375,-0.099609375,-0.31640625,0.09765625,4.6875,0.1953125,1.9921875,1.0
3439224,,,,,,,,8.20703125,3.93359375,4.375,-2.015625,-0.11328125,-0.2109375,0.24609375,2.11328125,5.01953125,1.0
3439225,,,,,,,,7.75390625,5.54296875,1.98046875,-2.302734375,0.078125,-0.66796875,-0.17578125,3.640625,2.56640625,1.0
3439226,,,,,,,,7.515625,7.796875,-1.328125,-1.904296875,0.26171875,-0.943359375,-0.3671875,5.79296875,-0.8046875,1.0
3439227,,,,,,,,7.30859375,7.0234375,-1.87890625,-2.125,0.150390625,-0.763671875,-0.51953125,4.90625,-1.41796875,1.0
3439228,,,,,,,,7.28515625,5.38671875,-1.2734375,-2.28125,0.076171875,-0.546875,-0.51953125,3.22265625,-0.84375,1.0
3439229,,,,,,,,8.171875,3.14453125,-0.28515625,-2.5,-0.041015625,0.029296875,0.3984375,0.92578125,0.07421875,1.0
3439230,36.01302583333334,129.31891733333333,28.607237641706945,69.44203533234622,2.6,343.0,,8.984375,1.15234375,0.9453125,-2.0859375,-0.125,0.8359375,1.24609375,-1.06640625,1.2265625,1.0
3439231,,,,,,,,10.26171875,-5.609375,2.20703125,-1.779296875,-0.193359375,1.19921875,2.54296875,-7.77734375,2.44921875,1.0
3439232,,,,,,,,8.5,-18.47265625,8.4765625,-1.693359375,-0.232421875,1.36328125,0.78125,-20.60546875,8.6953125,1.0
3439233,,,,,,,,1.7578125,-53.9140625,8.69921875,-1.85546875,-0.287109375,1.494140625,-5.9609375,-55.92578125,8.88671875,1.0
3439234,,,,,,,,0.10546875,-57.5234375,5.04296875,-1.36328125,-0.30859375,0.541015625,-7.60546875,-59.48828125,5.20703125,1.0
3439235,,,,,,,,-3.87890625,-20.58203125,8.578125,-2.4140625,-0.439453125,-0.884765625,-11.55078125,-22.59375,8.734375,1.0
3439236,,,,,,,,10.390625,-14.875,-9.37109375,-4.87109375,0.421875,-3.189453125,2.8125,-17.15625,-9.34765625,1.0
3439237,,,,,,,,10.91015625,-17.36328125,-10.09765625,-3.720703125,0.3828125,-3.904296875,3.38671875,-19.80078125,-10.15234375,1.0
3439238,,,,,,,,9.94140625,-19.05078125,5.30859375,-2.275390625,-1.2265625,-2.6875,2.54296875,-21.7890625,5.20703125,1.0
3439239,,,,,,,,8.25,-19.61328125,9.59375,-2.66015625,-1.5546875,-1.19921875,0.8984375,-22.44140625,9.5,1.0
3439240,36.01302783333333,129.3189165,28.53211287218715,69.663953571364,2.4000000000000004,345.0,,6.42578125,-23.27734375,6.14453125,-2.0859375,-0.125,0.8359375,1.24609375,-1.06640625,1.2265625,1.0
3439241,,,,,,,,3.0859375,-17.80078125,0.859375,-3.251953125,-1.494140625,0.6953125,-4.234375,-20.60546875,0.765625,1.0
3439242,,,,,,,,0.53125,-13.6484375,0.015625,-4.068359375,-1.7578125,-0.154296875,-6.765625,-16.47265625,-0.078125,1.0
3439243,,,,,,,,0.25,-12.50390625,0.0546875,-4.435546875,-1.8203125,-0.32421875,-7.03125,-15.35546875,-0.0390625,1.0
3439244,,,,,,,,1.20703125,-10.99609375,0.33984375,-4.53125,-1.98046875,-0.271484375,-6.03515625,-13.90234375,0.23046875,1.0
3439245,,,,,,,,2.31640625,-9.66796875,-0.18359375,-3.412109375,-2.091796875,0.16796875,-4.88671875,-12.6328125,-0.26953125,1.0
3439246,,,,,,,,2.26171875,-6.703125,-0.59765625,-2.962890625,-2.064453125,0.3203125,-4.92578125,-9.69140625,-0.65234375,1.0
3439247,,,,,,,,1.89453125,-5.31640625,-0.359375,-2.85546875,-1.92578125,0.55859375,-5.26953125,-8.3046875,-0.3828125,1.0
3439248,,,,,,,,1.7421875,-4.671875,-0.22265625,-2.849609375,-1.796875,0.732421875,-5.421875,-7.65625,-0.23046875,1.0
3439249,,,,,,,,1.703125,-2.734375,-0.72265625,-2.75,-1.361328125,1.037109375,-5.4609375,-5.6640625,-0.73046875,1.0
3439250,36.01303033333333,129.318917,28.57718639674001,69.94135182453435,2.7,353.0,,2.63671875,3.23828125,0.12109375,-2.619140625,-1.064453125,1.0546875,-4.5390625,0.38671875,0.07421875,1.0
3439251,,,,,,,,3.56640625,4.84765625,0.22265625,-2.21484375,-1.00390625,1.0703125,-3.6171875,2.03515625,0.15234375,1.0
3439252,,,,,,,,4.22265625,3.4921875,0.125,-1.529296875,-0.921875,0.962890625,-2.97265625,0.734375,0.0390625,1.0
3439253,,,,,,,,4.26171875,2.02734375,0.4296875,-1.208984375,-0.841796875,0.880859375,-2.9296875,-0.72265625,0.34375,1.0
3439254,,,,,,,,3.87890625,-0.65625,1.703125,-0.904296875,-0.61328125,0.666015625,-3.31640625,-3.37109375,1.609375,1.0
3439255,,,,,,,,3.44921875,-1.49609375,3.9296875,-1.072265625,-0.47265625,0.35546875,-3.73828125,-4.203125,3.828125,1.0
3439256,,,,,,,,3.48046875,-0.76171875,4.34375,-1.02734375,-0.330078125,-0.056640625,-3.69921875,-3.48046875,4.21484375,1.0
3439257,,,,,,,,4.8671875,2.08203125,3.2265625,-0.77734375,-0.234375,-0.599609375,-2.28125,-0.68359375,3.06640625,1.0
3439258,,,,,,,,5.53125,3.125,2.8203125,-0.6875,-0.208984375,-0.873046875,-1.59375,0.3125,2.64453125,1.0
3439259,,,,,,,,6.97265625,6.16796875,1.47265625,-0.568359375,-0.205078125,-1.1875,-0.09765625,3.2578125,1.26171875,1.0
3439260,36.0130325,129.31891816666666,28.682359273640692,70.181763858645,2.6,5.0,,7.1484375,7.9140625,0.9609375,-2.619140625,-1.064453125,1.0546875,0.1328125,4.90625,0.7265625,1.0
3439261,,,,,,,,6.6796875,8.078125,0.921875,-0.94140625,-0.30859375,-0.84375,-0.2890625,4.98828125,0.6484375,1.0
3439262,,,,,,,,6.40234375,6.69140625,0.265625,-1.185546875,-0.34765625,-0.50390625,-0.51953125,3.5234375,-0.0390625,1.0
3439263,,,,,,,,6.27734375,5.75,0.1640625,-1.14453125,-0.375,-0.353515625,-0.63671875,2.57421875,-0.15625,1.0
3439264,,,,,,,,5.51171875,2.03515625,1.39453125,-0.712890625,-0.4453125,0.04296875,-1.359375,-1.18359375,1.03515625,1.0
3439265,,,,,,,,5.06640625,-2.1015625,2.2109375,-0.48046875,-0.52734375,0.416015625,-1.78515625,-5.32421875,1.8359375,1.0
3439266,,,,,,,,3.49609375,-11.6640625,5.98828125,-0.22265625,-0.60546875,0.740234375,-3.35546875,-14.859375,5.62890625,1.0
3439267,,,,,,,,3.55078125,-20.734375,8.87109375,0.275390625,-0.763671875,1.0859375,-3.31640625,-23.859375,8.54296875,1.0
3439268,,,,,,,,7.54296875,-22.484375,8.1171875,0.6015625,-0.759765625,0.951171875,0.66796875,-25.5859375,7.8125,1.0
3439269,,,,,,,,9.49609375,-22.796875,9.3671875,1.20703125,-0.439453125,0.111328125,2.62109375,-25.890625,9.1171875,1.0
3439270,36.01303466666666,129.31891916666666,28.772507336985754,70.42217584476103,2.4000000000000004,13.0,,5.46484375,-23.00390625,9.75,0.306640625,-0.125,-0.21875,-1.36328125,-26.16015625,9.5390625,1.0
3439271,,,,,,,,3.265625,-21.171875,7.53515625,0.029296875,0.224609375,0.029296875,-3.546875,-24.36328125,7.31640625,1.0
3439272,,,,,,,,2.8515625,-21.20703125,5.96484375,0.19140625,0.5078125,-0.517578125,-3.9296875,-24.4296875,5.70703125,1.0
3439273,,,,,,,,3.93359375,-21.74609375,4.41796875,0.388671875,0.62109375,-0.728515625,-2.81640625,-25.0078125,4.13671875,1.0
3439274,,,,,,,,5.5,-21.8515625,4.609375,0.9765625,0.88671875,-0.681640625,-1.2109375,-25.20703125,4.2890625,1.0
3439275,,,,,,,,7.0625,-21.05078125,4.5703125,1.369140625,1.005859375,-0.318359375,0.3984375,-24.46875,4.2109375,1.0
3439276,,,,,,,,8.55859375,-18.9296875,3.828125,1.494140625,1.013671875,-0.19140625,1.93359375,-22.41015625,3.4453125,1.0
3439277,,,,,,,,8.609375,-16.734375,2.8203125,1.60546875,1.060546875,-0.072265625,2.0078125,-20.2578125,2.4140625,1.0
3439278,,,,,,,,8.43359375,-15.87890625,2.7578125,1.640625,1.087890625,0.01953125,1.85546875,-19.41796875,2.3359375,1.0
3439279,,,,,,,,7.765625,-12.23828125,2.19921875,1.65625,1.12109375,0.232421875,1.203125,-15.81640625,1.76171875,1.0
3439280,36.0130365,129.3189205,28.892705131455052,70.62560151730601,2.4000000000000004,21.0,,7.97265625,-9.9921875,1.83984375,0.306640625,-0.125,-0.21875,-1.36328125,-26.16015625,9.5390625,1.0
3439281,,,,,,,,9.09765625,-6.5234375,1.640625,1.23046875,1.056640625,0.2890625,2.58203125,-10.1484375,1.1484375,1.0
3439282,,,,,,,,10.03125,-2.57421875,2.03125,0.98828125,0.91015625,0.31640625,3.5390625,-6.23828125,1.4921875,1.0
3439283,,,,,,,,10.9296875,0.51953125,2.0546875,0.974609375,0.58203125,0.38671875,4.46484375,-3.17578125,1.4921875,1.0
3439284,,,,,,,,12.515625,1.72265625,1.78125,1.06640625,0.470703125,0.30078125,6.07421875,-1.98828125,1.2265625,1.0
3439285,,,,,,,,12.8828125,2.51171875,1.08203125,1.15625,0.427734375,0.150390625,6.45703125,-1.22265625,0.53515625,1.0
3439286,,,,,,,,12.296875,4.453125,-0.85546875,1.12890625,0.34765625,-0.005859375,5.91796875,0.65625,-1.37890625,1.0
3439287,,,,,,,,11.76953125,5.1796875,-1.30078125,0.80078125,0.3046875,-0.17578125,5.4140625,1.34375,-1.80078125,1.0
3439288,,,,,,,,10.87890625,4.38671875,-0.91015625,0.140625,0.357421875,-0.29296875,4.57421875,0.50390625,-1.41796875,1.0
3439289,,,,,,,,10.3046875,3.24609375,-0.3046875,-0.54296875,0.435546875,-0.220703125,4.04296875,-0.68359375,-0.84375,1.0
3439290,36.0130385,129.3189235,29.163150933695412,70.84752089526225,2.9000000000000004,30.0,,8.9609375,2.625,1.13671875,-1.08203125,0.5546875,-0.06640625,2.73828125,-1.3359375,0.53515625,1.0
3439291,,,,,,,,7.3984375,3.26171875,2.609375,-1.509765625,0.689453125,0.111328125,1.203125,-0.72265625,1.9140625,1.0
3439292,,,,,,,,6.2578125,4.2265625,3.6015625,-1.83203125,0.748046875,0.162109375,0.09375,0.234375,2.796875,1.0
3439293,,,,,,,,5.8515625,4.79296875,4.0078125,-1.94140625,0.7421875,0.126953125,-0.2890625,0.80859375,3.140625,1.0
3439294,,,,,,,,4.80859375,7.3359375,5.03125,-1.876953125,0.68359375,-0.146484375,-1.28515625,3.3359375,3.98828125,1.0
3439295,,,,,,,,4.9453125,7.62890625,4.34375,-1.603515625,0.5703125,-0.43359375,-1.09375,3.60546875,3.1796875,1.0
3439296,,,,,,,,5.6953125,6.94921875,3.03515625,-1.322265625,0.41796875,-0.755859375,-0.2890625,2.875,1.80078125,1.0
3439297,,,,,,,,5.6640625,4.96484375,3.83984375,-1.212890625,0.24609375,-0.736328125,-0.25,0.84765625,2.52734375,1.0
3439298,,,,,,,,4.13671875,-0.94921875,7.6640625,-1.318359375,0.1328125,-0.51171875,-1.74609375,-5.08984375,6.3203125,1.0
3439299,,,,,,,,-3.640625,-15.91015625,20.98046875,-1.365234375,0.029296875,0.16796875,-9.484375,-20.06640625,19.57421875,1.0
3439680,36.013014500000004,129.31895816666665,32.2883206359567,68.1845100141445,3.0,234.0,,3.3828125,-5.05078125,-3.91015625,-0.228515625,-0.021484375,-0.125,-2.97265625,-1.98828125,3.14453125,1.0
3439681,,,,,,,,6.7109375,-3.6171875,-2.5625,3.515625,1.0234375,0.70703125,5.1875,-13.21484375,1.0703125,1.0
3439682,,,,,,,,7.12890625,-1.20703125,2.02734375,2.396484375,1.330078125,1.51171875,5.37890625,-10.9453125,6.16796875,1.0
3439683,,,,,,,,6.15234375,-0.609375,0.25390625,1.20703125,1.205078125,1.58984375,4.23046875,-10.453125,4.59765625,1.0
3439684,,,,,,,,4.69921875,2.43359375,-3.86328125,0.888671875,1.078125,0.970703125,2.66015625,-7.50390625,0.61328125,1.0
3439685,,,,,,,,4.76171875,7.63671875,-7.23046875,1.423828125,0.73828125,0.51953125,2.6953125,-2.37109375,-2.60546875,1.0
3439686,,,,,,,,5.09765625,8.96875,-6.26171875,1.728515625,0.5234375,0.865234375,3.04296875,-0.9921875,-1.53515625,1.0
3439687,,,,,,,,5.58203125,11.44140625,-4.37109375,1.666015625,0.3125,1.34375,3.5,1.61328125,0.45703125,1.0
3439688,,,,,,,,5.16796875,12.55859375,-3.58984375,1.318359375,0.0390625,1.453125,3.08203125,2.91796875,1.30078125,1.0
3439689,,,,,,,,5.328125,14.53515625,-5.0234375,0.705078125,-0.40234375,0.794921875,3.3125,5.25390625,-0.1171875,1.0
3439690,36.01301350000001,129.31895466666668,31.97279999361492,68.07354961889605,3.3000000000000003,243.0,,7.89453125,13.09375,-6.26953125,0.513671875,-0.59375,0.11328125,6.1015625,4.21875,-1.45703125,1.0
3439691,,,,,,,,10.2890625,9.6015625,-6.375,0.564453125,-0.7421875,0.18359375,8.7109375,1.0390625,-1.6484375,1.0
3439692,,,,,,,,10.89453125,6.6796875,-6.13671875,0.552734375,-0.837890625,0.34375,9.4375,-1.71875,-1.45703125,1.0
3439693,,,,,,,,9.89453125,4.15234375,-5.8671875,0.396484375,-0.955078125,0.80859375,8.671875,-3.94140625,-1.3046875,1.0
3439694,,,,,,,,6.37109375,2.28125,-4.75,-0.107421875,-0.720703125,1.541015625,5.45703125,-5.3984375,-0.421875,1.0
3439695,,,,,,,,1.703125,3.375,-2.28125,-0.865234375,-0.59375,1.53125,0.9375,-4.09765625,1.8359375,1.0
3439696,,,,,,,,0.47265625,4.3671875,-1.890625,-2.2109375,-0.3515625,0.990234375,-0.13671875,-2.94921875,1.953125,1.0
3439697,,,,,,,,-3.140625,6.94140625,2.66015625,-3.556640625,-0.1875,-0.04296875,-3.5859375,-0.26171875,6.1640625,1.0
3439698,,,,,,,,-4.3984375,8.53125,1.21875,-4.19921875,-0.078125,-1.060546875,-4.66015625,1.421875,4.328125,1.0
3439699,,,,,,,,-3.390625,9.3046875,-0.6796875,-3.771484375,-0.06640625,-1.486328125,-3.546875,2.265625,2.2578125,1.0
3439700,36.01301216666666,129.31895166666666,31.702353909710567,67.925602981598,3.2,241.0,0.0,-2.22265625,9.74609375,-0.7578125,-1.7578125,-0.041015625,-2.033203125,-2.16796875,2.875,1.9140625,1.0
3439701,,,,,,,,-0.9140625,7.49609375,1.03125,-0.759765625,-0.140625,-1.98046875,-0.671875,0.88671875,3.56640625,1.0
3439702,,,,,,,,2.046875,-21.578125,9.4296875,-0.408203125,-0.39453125,-1.45703125,2.46875,-27.96484375,11.875,1.0
3439703,,,,,,,,-24.48828125,-65.1640625,27.51953125,-1.544921875,-0.15234375,-0.126953125,-23.96484375,-71.515625,29.95703125,1.0
3439704,,,,,,,,-23.6484375,-45.421875,15.88671875,-2.21484375,0.125,2.005859375,-23.2734375,-52.13671875,18.34765625,1.0
3439705,,,,,,,,-9.046875,-5.1796875,1.34375,-0.802734375,-0.71484375,2.25390625,-9.0234375,-12.3671875,3.90625,1.0
3439706,,,,,,,,-2.9140625,-2.6171875,-1.73046875,-2.685546875,-0.091796875,0.55859375,-3.046875,-10.03125,0.87890625,1.0
3439707,,,,,,,,5.62890625,-4.00390625,-4.38671875,-3.466796875,0.501953125,-4.2734375,5.41796875,-11.91015625,-1.91796875,1.0
3439708,,,,,,,,15.4765625,-5.08984375,4.34765625,-0.373046875,-0.173828125,-4.75390625,15.53125,-13.40234375,6.77734375,1.0
3439709,,,,,,,,3.21875,-14.1640625,2.25,-0.25390625,-1.005859375,-1.79296875,3.578125,-22.83203125,4.7890625,1.0
3439710,36.013010666666666,129.318949,31.461957509992786,67.75916325435492,3.0,237.0,,-1.41015625,-13.84765625,2.5703125,-1.7578125,-0.041015625,-2.033203125,-1.01953125,-22.9375,5.015625,1.0
3439711,,,,,,,,-1.0234375,-9.9296875,-0.8984375,-4.673828125,-1.33203125,1.255859375,-0.75,-19.53125,1.2265625,1.0
3439712,,,,,,,,0.80859375,-7.9140625,-1.796875,-3.896484375,-1.419921875,0.078125,1.05078125,-18.0,-0.0390625,1.0
3439713,,,,,,,,-1.3515625,-2.859375,0.14453125,-3.625,-1.76171875,0.015625,-1.0546875,-13.59375,1.37890625,1.0
3439714,,,,,,,,-3.0390625,-0.33984375,0.12109375,-4.42578125,-2.0546875,0.03515625,-2.7421875,-11.44921875,0.91796875,1.0
3439715,,,,,,,,-4.03515625,3.14453125,-1.5,-4.603515625,-2.1875,-0.25,-3.73828125,-8.26953125,-1.2265625,1.0
3439716,,,,,,,,-4.45703125,4.21875,-1.78515625,-4.5625,-2.177734375,-0.345703125,-4.16015625,-7.31640625,-1.80078125,1.0
3439717,,,,,,,,-5.96484375,5.96875,-1.31640625,-4.279296875,-2.2421875,-0.275390625,-5.69140625,-5.7421875,-1.87890625,1.0
3439718,,,,,,,,-7.2578125,6.484375,0.25,-3.875,-2.23046875,0.15234375,-7.0703125,-5.3203125,-0.84375,1.0
3439719,,,,,,,,-7.53125,7.15234375,1.1171875,-3.7265625,-1.96484375,0.5703125,-7.53515625,-4.66796875,-0.4609375,1.0
3439720,36.013010333333334,129.31894599999998,31.191511012163453,67.7221758763678,2.9000000000000004,248.0,,-7.01953125,9.328125,0.7421875,-3.484375,-1.693359375,0.705078125,-7.26171875,-2.4453125,-1.265625,1.0
3439721,,,,,,,,-6.0859375,11.73828125,1.04296875,-3.283203125,-1.43359375,0.638671875,-6.609375,0.08203125,-1.37890625,1.0
3439722,,,,,,,,-4.89453125,13.3828125,1.484375,-3.107421875,-1.212890625,0.615234375,-5.6875,1.921875,-1.3046875,1.0
3439723,,,,,,,,-3.37109375,13.6640625,0.8125,-2.42578125,-1.0390625,0.697265625,-4.578125,2.609375,-2.4140625,1.0
3439724,,,,,,,,-2.90625,11.8203125,1.17578125,-1.646484375,-1.158203125,0.82421875,-4.390625,1.078125,-2.22265625,1.0
3439725,,,,,,,,-4.140625,8.80859375,2.3359375,-1.005859375,-1.078125,1.05859375,-5.921875,-1.60546875,-1.1484375,1.0
3439726,,,,,,,,-5.1875,7.3515625,4.91015625,-0.7578125,-1.005859375,1.16796875,-7.11328125,-2.90625,1.41796875,1.0
3439727,,,,,,,,-5.5625,6.37890625,7.26953125,-0.46484375,-0.763671875,1.205078125,-7.80078125,-3.55859375,3.79296875,1.0
3439728,,,,,,,,-3.7109375,6.91796875,7.7578125,-0.275390625,-0.57421875,0.841796875,-6.23046875,-2.71484375,4.3671875,1.0
3439729,,,,,,,,-0.66015625,8.3515625,6.18359375,0.279296875,-0.490234375,0.052734375,-3.39453125,-0.9921875,2.94921875,1.0
3439730,36.01300983333333,129.31894283333335,30.906039771094314,67.66669524586933,3.0,252.0,,3.39453125,11.46484375,3.3359375,-3.484375,-1.693359375,0.705078125,0.55078125,2.37890625,0.3046875,1.0
3439731,,,,,,,,5.01171875,12.89453125,2.56640625,1.01953125,-0.69140625,-1.2734375,2.16015625,4.06640625,-0.23046875,1.0
3439732,,,,,,,,6.53515625,13.69140625,3.93359375,0.984375,-0.923828125,-1.25,3.73046875,5.13671875,1.37890625,1.0
3439733,,,,,,,,6.09375,12.76953125,5.53125,0.90234375,-0.958984375,-1.0,3.3125,4.3671875,3.1015625,1.0
3439734,,,,,,,,4.2734375,9.94140625,6.23046875,0.265625,-0.982421875,0.15234375,1.546875,2.07421875,4.13671875,1.0
3439735,,,,,,,,2.84375,4.6875,5.18359375,-0.232421875,-1.05078125,0.642578125,0.09375,-2.6015625,3.37109375,1.0
3439736,,,,,,,,2.828125,-0.87890625,3.70703125,-0.224609375,-1.083984375,0.484375,-0.2890625,-12.37109375,0.95703125,1.0
3439737,,,,,,,,1.96875,-12.4453125,2.39453125,-0.19140625,-1.173828125,0.703125,-1.1328125,-27.9921875,2.83203125,1.0
3439738,,,,,,,,1.8828125,-33.86328125,4.80078125,-0.357421875,-1.255859375,0.9765625,-0.828125,-40.4453125,3.41015625,1.0
3439739,,,,,,,,12.59375,-65.96875,10.48046875,-0.576171875,-1.373046875,1.708984375,9.8984375,-72.625,9.26953125,1.0
3439740,36.01301016666666,129.31893966666667,30.620568199415985,67.70368065989805,2.7,258.0,,17.5625,-46.1171875,31.2265625,0.20703125,-1.04296875,2.740234375,14.8046875,-32.21484375,22.21875,1.0
3439741,,,,,,,,7.29296875,-25.69921875,-0.4921875,-0.818359375,-1.091796875,-0.26953125,-2.93359375,-14.703125,2.18359375,1.0
3439742,,,,,,,,-8.41015625,-10.453125,-7.5390625,-3.681640625,0.7265625,-6.091796875,-13.16015625,-9.34375,1.80078125,1.0
3439743,,,,,,,,-16.68359375,-11.640625,-10.3359375,-2.6484375,0.13671875,-5.6953125,-13.65625,-12.8671875,-1.11328125,1.0
3439744,,,,,,,,-9.71484375,-13.171875,-10.03125,0.287109375,-0.548828125,-2.626953125,-7.18359375,-14.01953125,1.03515625,1.0
3439745,,,,,,,,-7.18359375,-14.8203125,-7.92578125,0.767578125,-0.255859375,0.501953125,-8.02734375,-15.12890625,2.18359375,1.0
3439746,,,,,,,,-7.68359375,-15.05078125,-7.50390625,0.57421875,-0.4140625,1.451171875,-6.2265625,-14.625,3.0234375,1.0
3439747,,,,,,,,-2.47265625,-13.7109375,-5.05078125,0.728515625,-0.181640625,1.201171875,-2.47265625,-13.71484375,4.75,1.0
3439748,,,,,,,,3.46484375,-12.8671875,-1.3359375,1.234375,0.55859375,0.974609375,3.46484375,-12.8671875,8.46484375,1.0
3439749,,,,,,,,6.68359375,-10.796875,-2.140625,1.296875,0.724609375,0.51171875,6.68359375,-10.80078125,7.66015625,1.0
3439750,36.01301,129.318937,30.380171261236,67.68518661894521,2.5,262.0,,6.375,-10.4140625,-5.703125,0.80859375,0.697265625,-0.001953125,6.375,-10.4140625,4.09765625,1.0
3439751,,,,,,,,2.96484375,-8.69140625,-9.609375,0.41015625,0.74609375,0.046875,2.96484375,-8.69140625,0.19140625,1.0
3439752,,,,,,,,-3.0859375,1.734375,-4.19921875,-0.111328125,0.447265625,0.42578125,1.96875,-8.15625,-1.41796875,1.0
3439753,,,,,,,,-4.125,2.59375,-3.73828125,-0.287109375,0.337890625,0.67578125,0.8984375,-7.3125,-0.95703125,1.0
3439754,,,,,,,,-4.125,5.1171875,0.08203125,-0.509765625,0.138671875,1.37890625,0.78125,-4.86328125,2.83203125,1.0
3439755,,,,,,,,-3.63671875,7.1328125,1.11328125,-0.2890625,-0.240234375,2.0078125,1.01171875,-2.984375,3.7890625,1.0
3439756,,,,,,,,-2.4140625,10.3515625,0.19140625,-0.16796875,-0.412109375,1.62890625,2.046875,0.15625,2.828125,1.0
3439757,,,,,,,,-1.03125,13.7421875,-1.4921875,-0.09765625,-0.435546875,0.986328125,3.3125,3.49609375,1.109375,1.0
3439758,,,,,,,,-0.80078125,14.8359375,-1.9375,-0.08203125,-0.455078125,0.72265625,3.50390625,4.56640625,0.6484375,1.0
3439759,,,,,,,,0.515625,15.93359375,-3.3046875,-0.07421875,-0.63671875,0.298828125,4.765625,5.6328125,-0.765625,1.0
3439760,36.013011,129.31893399999998,30.10972424899535,67.79614492982249,2.8000000000000003,279.0,,0.9609375,12.5234375,-4.63671875,-0.099609375,-0.658203125,0.3828125,5.19140625,2.2265625,-2.14453125,1.0
3439761,,,,,,,,-0.5625,9.59765625,-4.66796875,-0.318359375,-0.578125,0.79296875,3.6171875,-0.72265625,-2.22265625,1.0
3439762,,,,,,,,-1.34375,8.953125,-3.6796875,-0.72265625,-0.5078125,1.294921875,2.734375,-1.4140625,-1.3046875,1.0
3439763,,,,,,,,-1.69140625,8.94921875,-3.26953125,-0.99609375,-0.4453125,1.458984375,2.31640625,-1.44921875,-0.95703125,1.0
3439764,,,,,,,,-3.19921875,9.66796875,-2.171875,-1.423828125,-0.244140625,1.5234375,0.66796875,-0.796875,0.0,1.0
3439765,,,,,,,,-4.4609375,10.4765625,-1.234375,-1.556640625,0.009765625,1.353515625,-0.75,-0.0703125,0.76953125,1.0
3439766,,,,,,,,-4.7890625,10.95703125,-0.42578125,-1.41796875,0.29296875,1.05859375,-1.2109375,0.34765625,1.4140625,1.0
3439767,,,,,,,,-4.140625,11.3046875,0.08984375,-1.09375,0.4609375,0.734375,-0.671875,0.65625,1.80078125,1.0
3439768,,,,,,,,-3.18359375,11.28125,0.51953125,-0.875,0.494140625,0.548828125,0.24609375,0.6171875,2.1796875,1.0
3439769,,,,,,,,-1.85546875,10.2109375,2.05859375,-0.48828125,0.380859375,-0.048828125,1.51171875,-0.453125,3.63671875,1.0
3439770,36.013011666666664,129.31893116666666,29.854302186666715,67.87011688550074,2.6,280.0,,-3.60546875,4.71484375,3.44140625,-0.47265625,0.271484375,-0.38671875,-0.21484375,-5.9296875,4.98046875,1.0
3439771,,,,,,,,-8.66796875,-8.29296875,11.9609375,-0.7109375,0.2578125,-0.51171875,-5.23046875,-18.91796875,13.4453125,1.0
3439772,,,,,,,,-3.828125,-40.41015625,12.890625,-0.95703125,0.4453125,-0.203125,-0.3671875,-51.015625,14.2890625,1.0
3439773,,,,,,,,-6.5859375,-41.62890625,7.7421875,-0.71484375,0.63671875,-0.0390625,-3.125,-52.24609375,9.1171875,1.0
3439774,,,,,,,,-11.28125,-11.49609375,13.44921875,0.12109375,1.037109375,-0.1171875,-7.8359375,-22.09375,14.82421875,1.0
3439775,,,,,,,,2.421875,3.7734375,4.06640625,-2.51953125,0.1015625,-1.3046875,5.9140625,-6.8125,5.36328125,1.0
3439776,,,,,,,,6.5390625,-4.03515625,-1.53515625,-2.53515625,0.61328125,-3.83984375,10.4375,-14.5078125,-0.69140625,1.0
3439777,,,,,,,,-0.140625,-14.17578125,1.65234375,-3.154296875,-0.421875,-1.94921875,4.078125,-24.546875,2.22265625,1.0
3439778,,,,,,,,-1.60546875,-14.6953125,3.62890625,-3.470703125,-0.64453125,-0.10546875,2.66015625,-25.05078125,4.01953125,1.0
3439779,,,,,,,,-3.734375,-14.57421875,5.00390625,-3.9296875,-1.19921875,1.435546875,0.4375,-24.96875,4.98046875,1.0
3439780,36.013012,129.3189285,29.61390506442045,67.90710248691165,2.4000000000000004,280.0,,-5.1484375,-14.88671875,1.26171875,-3.490234375,-1.443359375,0.318359375,-0.21484375,-5.9296875,4.98046875,1.0
3439781,,,,,,,,-7.015625,-13.65234375,1.0859375,-3.9609375,-1.478515625,0.283203125,-3.046875,-24.046875,-0.0390625,1.0
3439782,,,,,,,,-7.98046875,-10.60546875,1.015625,-4.515625,-1.54296875,0.291015625,-4.04296875,-20.984375,-0.3828125,1.0
3439783,,,,,,,,-7.28515625,-8.875,0.7890625,-5.5234375,-1.66796875,-0.0546875,-3.39453125,-19.19140625,-1.1484375,1.0
3439784,,,,,,,,-5.703125,-6.39453125,3.2890625,-5.099609375,-1.90234375,-0.232421875,-1.859375,-16.50390625,0.421875,1.0
3439785,,,,,,,,-7.43359375,-4.75390625,4.55078125,-4.302734375,-2.162109375,0.154296875,-3.69921875,-14.625,0.83984375,1.0
3439786,,,,,,,,-8.0390625,-3.4765625,4.12109375,-4.126953125,-2.236328125,0.1484375,-4.3515625,-13.29296875,0.19140625,1.0
3439787,,,,,,,,-9.375,-0.515625,3.2734375,-3.982421875,-2.23046875,-0.046875,-5.8046875,-10.1484375,-1.1484375,1.0
3439788,,,,,,,,-11.65625,3.55859375,3.50390625,-4.1015625,-2.087890625,-0.234375,-8.1796875,-5.89453125,-1.37890625,1.0
3439789,,,,,,,,-12.26171875,4.3828125,3.70703125,-4.185546875,-1.98828125,-0.21484375,-8.83203125,-4.9765625,-1.37890625,1.0
3439790,36.01301350000001,129.31892566666664,29.358482697307224,68.07354049297005,2.9000000000000004,292.0,,-12.8671875,7.875,3.68359375,-3.490234375,-1.443359375,0.318359375,-0.21484375,-5.9296875,4.98046875,1.0
3439791,,,,,,,,-10.84765625,12.515625,4.4453125,-3.73828125,-1.421875,0.2421875,-7.68359375,3.71875,-1.6875,1.0
3439792,,,,,,,,-9.54296875,12.734375,5.18359375,-2.61328125,-1.154296875,0.73828125,-6.57421875,4.21875,-1.41796875,1.0
3439793,,,,,,,,-8.16015625,8.5546875,7.63671875,-1.7109375,-0.89453125,1.03515625,-5.34375,0.15625,0.83984375,1.0
3439794,,,,,,,,-8.10546875,6.9453125,8.65234375,-1.384765625,-0.71484375,1.171875,-5.38671875,-1.4140625,1.76171875,1.0
3439795,,,,,,,,-8.40625,3.96484375,10.78515625,-1.0,-0.416015625,1.20703125,-5.92578125,-4.32421875,3.75390625,1.0
3439796,,,,,,,,-8.3046875,3.4140625,11.16796875,-0.943359375,-0.408203125,1.09375,-5.8828125,-4.859375,4.09765625,1.0
3439797,,,,,,,,-7.69140625,3.87109375,11.84375,-0.681640625,-0.279296875,0.720703125,-5.3828125,-4.36328125,4.7109375,1.0
3439798,,,,,,,,-6.8828125,5.80859375,11.60546875,-0.53515625,-0.169921875,0.48828125,-4.6171875,-2.41015625,4.44140625,1.0
3439799,,,,,,,,-6.0703125,8.27734375,10.39453125,-0.212890625,0.0,-0.01171875,-3.85546875,0.08203125,3.21484375,1.0
3439800,36.0130155,129.31892299999998,29.11808497009973,68.2954581759474,3.3000000000000003,303.0,0.0,-4.9296875,10.56640625,9.19921875,-3.490234375,-1.443359375,0.318359375,-0.21484375,-5.9296875,4.98046875,1.0
3439801,,,,,,,,-3.62890625,13.86328125,8.203125,0.4375,0.0859375,-0.638671875,-1.36328125,5.67578125,1.0703125,1.0
3439802,,,,,,,,-2.42578125,14.90234375,8.36328125,0.53515625,0.013671875,-0.58203125,-0.13671875,6.703125,1.26171875,1.0
3439803,,,,,,,,-0.35546875,14.8984375,9.56640625,0.703125,-0.19921875,-0.166015625,1.93359375,6.67578125,2.52734375,1.0
3439804,,,,,,,,0.96875,11.55859375,9.01171875,0.5390625,-0.478515625,0.787109375,3.15625,3.26171875,2.06640625,1.0
3439805,,,,,,,,0.98828125,5.09375,8.62890625,0.28125,-0.625,1.232421875,3.04296875,-3.25390625,1.72265625,1.0
3439806,,,,,,,,0.8046875,2.00390625,8.4296875,0.12890625,-0.703125,1.416015625,2.7734375,-6.3515625,1.53125,1.0
3439807,,,,,,,,-0.36328125,-8.28515625,9.2734375,-0.248046875,-0.8984375,1.8515625,1.39453125,-16.66015625,2.375,1.0
3439808,,,,,,,,-1.7578125,-41.88671875,21.38671875,-0.7578125,-0.998046875,2.361328125,-0.25,-50.25,14.44140625,1.0
3439809,,,,,,,,5.4296875,-54.70703125,26.62890625,-1.5859375,-0.640625,2.73046875,6.4921875,-62.96875,19.53515625,1.0
3439810,36.01301733333333,129.31892116666668,28.95281137496083,68.49888290647769,2.8000000000000003,310.0,,-2.90234375,-8.171875,14.73046875,0.1796875,0.23046875,0.3125,-2.08984375,-16.4296875,7.62109375,1.0
3439811,,,,,,,,-14.89453125,-2.5703125,11.109375,-2.162109375,0.169921875,-3.865234375,-13.92578125,-10.7578125,3.9453125,1.0
3439812,,,,,,,,-14.0859375,-7.07421875,9.13671875,-1.470703125,-0.16796875,-2.861328125,-12.6640625,-14.93359375,1.72265625,1.0
3439813,,,,,,,,-14.80078125,-9.93359375,9.7734375,-0.029296875,-0.388671875,0.1015625,-13.31640625,-17.73046875,2.3359375,1.0
3439814,,,,,,,,-13.51953125,-10.02734375,9.94921875,-0.025390625,-0.181640625,1.3828125,-12.12890625,-17.84765625,2.52734375,1.0
3439815,,,,,,,,-7.69921875,-9.57421875,9.91796875,0.19921875,0.1875,1.4375,-6.45703125,-17.42578125,2.52734375,1.0
3439816,,,,,,,,-3.29296875,-8.5859375,10.65234375,0.552734375,0.494140625,1.3125,-2.08984375,-16.47265625,3.29296875,1.0
3439817,,,,,,,,-0.1953125,-5.83203125,11.66015625,1.3046875,1.359375,1.048828125,0.9375,-13.86328125,4.48046875,1.0
3439818,,,,,,,,0.5625,-4.7578125,12.30859375,1.53125,1.3203125,0.923828125,1.703125,-12.90625,5.28515625,1.0
3439819,,,,,,,,-0.16796875,-3.14453125,10.61328125,1.546875,1.173828125,0.69140625,0.97265625,-11.40625,3.75390625,1.0
3439820,36.013019166666666,129.31891933333333,28.787537781269684,68.70230764032993,2.8000000000000003,315.0,,-0.87109375,-1.07421875,7.8125,0.1796875,0.23046875,0.3125,0.28515625,-9.45703125,1.109375,1.0
3439821,,,,,,,,-0.75,0.75,6.66796875,0.58203125,0.78125,0.134765625,0.4375,-7.6953125,0.07421875,1.0
3439822,,,,,,,,0.0859375,2.8515625,6.21484375,0.220703125,0.4453125,0.330078125,1.28125,-5.625,-0.30859375,1.0
3439823,,,,,,,,1.15234375,5.578125,6.61328125,0.27734375,-0.1796875,1.0,2.23828125,-2.9453125,0.15234375,1.0
3439824,,,,,,,,1.8203125,7.11328125,7.0859375,0.451171875,-0.5,1.232421875,2.7734375,-1.44921875,0.6875,1.0
3439825,,,,,,,,3.40234375,9.734375,7.0546875,0.68359375,-0.70703125,1.19921875,4.1875,1.1171875,0.7265625,1.0
3439826,,,,,,,,4.39453125,11.28125,6.46484375,0.9140625,-0.873046875,0.857421875,5.03515625,2.609375,0.23046875,1.0
3439827,,,,,,,,5.70703125,12.00390625,4.96875,1.162109375,-1.03125,0.455078125,6.21875,3.26171875,-1.1484375,1.0
3439828,,,,,,,,6.7734375,10.6171875,3.890625,1.169921875,-1.0234375,0.140625,7.1796875,1.8046875,-2.109375,1.0
3439829,,,,,,,,7.3515625,8.99609375,3.27734375,0.767578125,-0.890625,-0.0078125,7.68359375,0.12109375,-2.60546875,1.0
3439830,36.01302166666667,129.3189186666667,28.72743763348568,68.97970554927113,2.9000000000000004,328.0,,6.41015625,6.71875,3.20703125,-0.041015625,-0.630859375,0.08203125,6.6796875,-2.1796875,-2.60546875,1.0
3439831,,,,,,,,5.0859375,6.56640625,3.91796875,-1.208984375,-0.541015625,0.185546875,5.3046875,-2.29296875,-1.91796875,1.0
3439832,,,,,,,,4.38671875,6.82421875,4.41015625,-1.857421875,-0.53515625,0.181640625,4.57421875,-1.98828125,-1.49609375,1.0
3439833,,,,,,,,1.9453125,9.04296875,6.515625,-3.099609375,-0.46875,0.025390625,2.08984375,0.38671875,0.421875,1.0
3439834,,,,,,,,1.35546875,9.6328125,7.3515625,-3.55859375,-0.4140625,-0.11328125,1.46875,1.078125,1.1484375,1.0
3439835,,,,,,,,-0.109375,10.54296875,9.09375,-4.09375,-0.287109375,-0.623046875,0.015625,2.37890625,2.4140625,1.0
3439836,,,,,,,,-0.453125,11.20703125,9.89453125,-3.853515625,-0.29296875,-1.017578125,-0.2890625,3.296875,2.94921875,1.0
3439837,,,,,,,,-0.203125,11.234375,10.28515625,-3.607421875,-0.3203125,-1.162109375,-0.0234375,3.453125,3.21484375,1.0
3439838,,,,,,,,1.3515625,7.03515625,13.58984375,-3.068359375,-0.744140625,-0.8671875,1.625,-0.26171875,6.0859375,1.0
3439839,,,,,,,,-3.07421875,-0.0625,16.71875,-3.23828125,-0.892578125,-0.435546875,-2.81640625,-7.234375,9.12109375,1.0
3439840,36.013024,129.31891766666666,28.637287923921164,69.2386101534739,2.8000000000000003,333.0,,-13.82421875,-19.328125,31.33203125,-0.041015625,-0.630859375,0.08203125,-13.66015625,-26.23828125,23.51953125,1.0
3439841,,,,,,,,-14.2734375,-41.30078125,32.5078125,-1.025390625,-0.68359375,2.3984375,-12.35546875,-58.8359375,10.2265625,1.0
3439842,,,,,,,,-12.23828125,-52.2578125,18.265625,0.91796875,-0.740234375,2.09765625,-10.5546875,-60.59375,3.33203125,1.0
3439843,,,,,,,,-14.92578125,-46.33203125,9.0625,0.9140625,-0.75,-0.671875,-14.15625,-18.421875,5.8984375,1.0
3439844,,,,,,,,-6.08203125,-7.625,9.1171875,-5.84375,-1.2578125,-3.08984375,-2.3984375,-14.66796875,-0.8828125,1.0
3439845,,,,,,,,-1.81640625,-9.94140625,7.98828125,-5.671875,-0.201171875,-3.9296875,-1.2109375,-16.27734375,1.26171875,1.0
3439846,,,,,,,,-1.0703125,-10.22265625,9.61328125,-4.06640625,-0.453125,-3.166015625,1.43359375,-17.84765625,2.2578125,1.0
3439847,,,,,,,,3.09765625,-17.90234375,11.12890625,-2.15625,-1.50390625,-0.509765625,3.08203125,-23.62890625,2.56640625,1.0
3439848,,,,,,,,0.27734375,-20.0390625,15.55078125,-2.43359375,-1.9140625,1.2734375,0.16796875,-25.5859375,6.89453125,1.0
3439849,,,,,,,,0.58984375,-20.125,15.4140625,-3.3671875,-2.19140625,1.447265625,0.24609375,-25.46875,6.6640625,1.0
3439850,36.01302616666667,129.31891616666664,28.50206385211996,69.47902140433106,2.7,333.0,,-1.03125,-11.484375,9.7890625,-4.779296875,-2.52734375,-0.33203125,-13.66015625,-26.23828125,23.51953125,1.0
3439851,,,,,,,,-3.6640625,-5.72265625,10.7734375,-4.912109375,-2.970703125,-0.466796875,-4.734375,-9.91796875,1.53125,1.0
3439852,,,,,,,,-3.68359375,-3.3203125,10.30859375,-4.67578125,-2.96484375,-0.32421875,-4.88671875,-7.3125,0.99609375,1.0
3439853,,,,,,,,-5.30078125,-1.62109375,9.7421875,-3.4609375,-2.529296875,0.044921875,-6.875,-5.08984375,0.3046875,1.0
3439854,,,,,,,,-5.35546875,-3.16015625,8.625,-2.810546875,-2.390625,0.470703125,-7.30078125,-6.23828125,-0.84375,1.0
3439855,,,,,,,,-5.7578125,-2.31640625,9.70703125,-2.6484375,-1.921875,0.76171875,-7.953125,-5.12890625,0.23046875,1.0
3439856,,,,,,,,-5.73828125,-1.8359375,10.2421875,-2.619140625,-1.447265625,1.109375,-8.10546875,-4.4375,0.765625,1.0
3439857,,,,,,,,-4.79296875,0.1484375,11.27734375,-2.546875,-1.0078125,1.228515625,-7.296875,-2.21875,1.80078125,1.0
3439858,,,,,,,,-4.0625,2.765625,11.12109375,-2.35546875,-0.669921875,0.9375,-6.69140625,0.6171875,1.64453125,1.0
3439859,,,,,,,,-3.9453125,2.46484375,11.16015625,-2.16796875,-0.5390625,0.673828125,-6.609375,0.42578125,1.68359375,1.0
3439860,36.01302866666666,129.31891666666667,28.547137380796883,69.75641965569757,2.9000000000000004,344.0,,-3.5859375,2.34765625,11.046875,-1.71875,-0.4765625,0.0546875,-6.3046875,0.46484375,1.5703125,1.0
3439861,,,,,,,,-3.5703125,-0.58984375,11.67578125,-1.119140625,-0.26171875,-0.60546875,-6.34765625,-2.33203125,2.22265625,1.0
3439862,,,,,,,,-3.30078125,-0.65234375,12.05078125,-0.888671875,-0.205078125,-0.634765625,-6.07421875,-2.37109375,2.60546875,1.0
3439863,,,,,,,,-0.83203125,0.53515625,12.63671875,-0.2890625,-0.1640625,-0.37890625,-3.6171875,-1.18359375,3.21484375,1.0
3439864,,,,,,,,2.140625,1.9609375,11.52734375,0.4296875,-0.162109375,-0.021484375,-0.671875,0.1953125,2.140625,1.0
3439865,,,,,,,,3.00390625,4.76171875,11.296875,0.955078125,-0.23046875,-0.130859375,0.16796875,2.8359375,1.9921875,1.0
3439866,,,,,,,,3.34375,6.6015625,12.50390625,0.68359375,-0.36328125,-0.267578125,0.4765625,4.5625,3.25390625,1.0
3439867,,,,,,,,3.97265625,7.828125,12.13671875,0.458984375,-0.396484375,-0.244140625,1.08984375,5.75390625,2.91015625,1.0
3439868,,,,,,,,4.65625,8.51171875,10.47265625,0.228515625,-0.37109375,-0.2890625,1.7421875,6.36328125,1.30078125,1.0
3439869,,,,,,,,4.6328125,7.81640625,9.4921875,0.119140625,-0.373046875,-0.275390625,1.703125,5.63671875,0.34375,1.0
3439870,36.013031166666664,129.318917,28.57718609568831,70.03381785884903,2.8000000000000003,354.0,,4.47265625,6.19140625,8.984375,-1.71875,-0.4765625,0.0546875,-6.3046875,0.46484375,1.5703125,1.0
3439871,,,,,,,,4.328125,3.2890625,9.0234375,-0.650390625,-0.5234375,0.39453125,1.3203125,1.1171875,-0.0390625,1.0
3439872,,,,,,,,4.3125,-5.921875,10.9453125,-0.734375,-0.5703125,1.005859375,1.2421875,-8.04296875,1.9140625,1.0
3439873,,,,,,,,3.33203125,-19.140625,15.49609375,-0.580078125,-0.70703125,1.708984375,0.16796875,-21.18359375,6.51171875,1.0
3439874,,,,,,,,6.8828125,-44.6171875,27.59375,-0.30859375,-0.84765625,2.439453125,3.6171875,-46.58203125,18.65625,1.0
3439875,,,,,,,,12.640625,-45.66796875,21.19921875,1.2109375,-0.58984375,2.669921875,5.72265625,-37.84375,9.4609375,1.0
3439876,,,,,,,,2.89453125,-26.78125,17.8671875,0.271484375,0.2578125,0.48046875,-7.109375,-19.8359375,8.42578125,1.0
3439877,,,,,,,,-5.921875,-15.10546875,16.5234375,-1.994140625,0.158203125,-2.833984375,-11.09375,-15.203125,7.0078125,1.0
3439878,,,,,,,,-7.6015625,-12.9453125,12.55078125,-1.421875,0.384765625,-4.072265625,-11.015625,-14.90234375,3.79296875,1.0
3439879,,,,,,,,-5.25,-16.078125,11.1328125,0.12109375,0.37890625,-1.732421875,-8.5625,-18.078125,2.375,1.0
3439880,36.0130335,129.3189165,28.532110829805895,70.29272261052151,2.5,357.0,,4.47265625,6.19140625,8.984375,0.220703125,0.5390625,0.646484375,-2.015625,-23.98046875,8.234375,1.0
3439881,,,,,,,,3.71875,-22.5625,18.30859375,0.3984375,0.6953125,1.1171875,2.27734375,-23.24609375,8.08203125,1.0
3439882,,,,,,,,5.203125,-20.109375,15.03125,0.255859375,0.990234375,0.69921875,1.2421875,-21.18359375,4.98046875,1.0
3439883,,,,,,,,3.515625,-17.734375,12.6015625,-0.3203125,1.28125,0.35546875,-0.13671875,-18.0,2.796875,1.0
3439884,,,,,,,,2.7421875,-15.12109375,11.296875,-0.298828125,1.376953125,0.486328125,-0.44140625,-16.5,2.796875,1.0
3439885,,,,,,,,2.27734375,-12.69921875,11.7578125,-0.146484375,1.255859375,0.763671875,-0.55859375,-14.9296875,3.1015625,1.0
3439886,,,,,,,,1.9609375,-11.50390625,11.91015625,-0.076171875,1.185546875,0.919921875,-0.828125,-13.74609375,3.25390625,1.0
3439887,,,,,,,,1.890625,-9.390625,11.3984375,-0.09375,1.09375,1.1015625,-0.828125,-11.640625,2.7578125,1.0
3439888,,,,,,,,2.17578125,-7.3203125,10.625,-0.341796875,0.990234375,1.048828125,-0.48046875,-9.57421875,1.9921875,1.0
3439889,,,,,,,,2.640625,-2.14453125,10.00390625,-0.662109375,0.939453125,0.919921875,0.0546875,-4.359375,1.37890625,1.0
3439890,36.0130355,129.3189185,28.712407804170795,70.51464168436164,2.6,10.0,,3.03125,0.3984375,10.109375,-0.794921875,0.70703125,0.94921875,-2.015625,-23.98046875,8.234375,1.0
3439891,,,,,,,,3.07421875,2.96484375,10.32421875,-0.49609375,0.6015625,0.97265625,0.58984375,0.84765625,1.71875,1.0
3439892,,,,,,,,4.28515625,3.80859375,9.99609375,0.1484375,0.494140625,0.94140625,1.8125,1.69140625,1.41796875,1.0
3439893,,,,,,,,4.8125,3.79296875,9.75,0.4921875,0.435546875,0.861328125,2.35546875,1.65234375,1.1875,1.0
3439894,,,,,,,,6.9453125,2.421875,8.58203125,0.92578125,0.4453125,0.548828125,4.5,0.1953125,0.07421875,1.0
3439895,,,,,,,,9.2421875,0.265625,7.6171875,0.95703125,0.251953125,-0.091796875,6.8359375,-2.140625,-0.8046875,1.0
3439896,,,,,,,,9.140625,-0.69921875,7.4453125,0.546875,0.115234375,-0.400390625,6.76171875,-3.21484375,-0.921875,1.0
3439897,,,,,,,,7.41015625,-0.18359375,8.50390625,-0.1015625,0.0390625,-0.490234375,5.03515625,-2.75390625,0.19140625,1.0
3439898,,,,,,,,5.671875,0.55859375,9.59765625,-0.46484375,0.005859375,-0.5078125,3.31640625,-2.02734375,1.30078125,1.0
3439899,,,,,,,,4.4296875,1.265625,10.1484375,-1.751953125,-0.03515625,-0.5859375,2.08984375,-1.2578125,1.875,1.0
3439900,36.0130375,129.31892066666666,28.907729574082097,70.73656080934505,2.8000000000000003,19.0,0.0,2.27734375,3.09375,10.76953125,-0.794921875,0.70703125,0.94921875,-0.05859375,0.6953125,2.48828125,1.0
3439901,,,,,,,,0.69921875,4.62890625,11.62109375,-2.642578125,-0.197265625,-0.91015625,-1.62890625,2.37890625,3.328125,1.0
3439902,,,,,,,,0.0,6.11328125,10.82421875,-2.625,-0.259765625,-1.01171875,-2.3203125,4.02734375,2.52734375,1.0
3439903,,,,,,,,-0.078125,5.93359375,9.17578125,-1.986328125,-0.240234375,-1.0625,-2.3984375,3.98828125,0.87890625,1.0
3439904,,,,,,,,-0.57421875,2.8359375,9.69921875,-1.365234375,-0.322265625,-0.8984375,-2.890625,0.9609375,1.41796875,1.0
3439905,,,,,,,,-4.34375,-10.296875,17.6875,-1.318359375,-0.515625,-0.388671875,-6.6875,-12.1015625,9.421875,1.0
3439906,,,,,,,,-6.81640625,-17.8359375,21.87890625,-1.28515625,-0.5390625,-0.025390625,-9.17578125,-19.61328125,13.63671875,1.0
3439907,,,,,,,,-3.515625,-40.8671875,17.2890625,-0.4375,-0.49609375,0.8828125,-5.921875,-42.59375,9.078125,1.0
3439908,,,,,,,,-7.50390625,-42.12109375,17.5625,1.62109375,-0.521484375,2.12890625,-9.98046875,-43.890625,9.421875,1.0
3439909,,,,,,,,-2.8984375,-19.35546875,15.9765625,1.080078125,-0.77734375,1.869140625,-5.4609375,-21.25390625,7.9296875,1.0
3439910,36.0130395,129.31892150000002,28.982852882165282,70.95847954065725,2.6,21.0,,1.9296875,-15.88671875,10.22265625,-0.794921875,0.70703125,0.94921875,-0.05859375,0.6953125,2.48828125,1.0
3439911,,,,,,,,8.37890625,-17.53125,10.21484375,-1.439453125,-0.125,-2.70703125,5.76171875,-19.23046875,2.22265625,1.0
3439912,,,,,,,,9.765625,-17.8203125,16.609375,-1.69921875,-0.8515625,-1.22265625,7.140625,-19.49609375,8.65625,1.0
3439913,,,,,,,,8.03515625,-18.20703125,17.4765625,-2.185546875,-0.990234375,-0.134765625,5.37890625,-19.83984375,9.5390625,1.0
3439914,,,,,,,,4.61328125,-16.15625,11.14453125,-3.404296875,-1.33203125,0.763671875,1.81640625,-17.5,3.25390625,1.0
3439915,,,,,,,,1.88671875,-10.73046875,9.0,-3.80859375,-1.55859375,0.19140625,-1.01953125,-11.828125,1.1484375,1.0
3439916,,,,,,,,1.5234375,-8.8515625,9.03125,-4.13671875,-1.83203125,0.154296875,-1.515625,-9.6875,1.2265625,1.0
3439917,,,,,,,,1.25,-8.3984375,8.3828125,-3.912109375,-2.03125,0.474609375,-1.9375,-8.9609375,0.6484375,1.0
3439918,,,,,,,,0.73828125,-8.23828125,8.078125,-3.666015625,-2.083984375,0.626953125,-2.51171875,-8.69140625,0.3828125,1.0
3439919,,,,,,,,-0.58984375,-8.5859375,8.40625,-3.224609375,-2.126953125,0.712890625,-4.00390625,-8.8046875,0.8046875,1.0
3440300,36.013015333333335,129.31895666666665,32.15309698904738,68.2769755531536,3.4000000000000004,237.0,0.0,11.984375,3.8046875,-0.625,0.654296875,-0.255859375,0.005859375,7.52734375,0.1953125,-1.5703125,1.0
3440301,,,,,,,,10.5234375,2.3671875,-1.30078125,0.38671875,-0.15625,0.583984375,6.0703125,-1.2578125,-2.18359375,1.0
3440302,,,,,,,,8.421875,1.484375,0.0078125,-0.03515625,-0.0546875,1.01171875,3.9609375,-2.140625,-0.84375,1.0
3440303,,,,,,,,7.97265625,1.3984375,0.8046875,-0.359375,-0.021484375,1.029296875,3.50390625,-2.21875,-0.0390625,1.0
3440304,,,,,,,,6.484375,1.8359375,2.4140625,-1.044921875,0.107421875,0.75,2.0078125,-1.7578125,1.5703125,1.0
3440305,,,,,,,,4.8671875,3.4453125,3.09765625,-1.4296875,0.365234375,0.1796875,0.3984375,-0.1484375,2.22265625,1.0
3440306,,,,,,,,2.890625,5.16015625,4.1015625,-1.69921875,0.583984375,-0.794921875,-1.515625,1.53515625,3.14453125,1.0
3440307,,,,,,,,3.83203125,6.98828125,2.82421875,-1.623046875,0.572265625,-1.25390625,-0.51953125,3.30078125,1.80078125,1.0
3440308,,,,,,,,4.3203125,7.23828125,2.2734375,-1.3984375,0.55078125,-1.34375,0.015625,3.52734375,1.2265625,1.0
3440309,,,,,,,,5.27734375,7.01171875,1.4375,-1.017578125,0.4296875,-1.185546875,1.05078125,3.21875,0.34375,1.0
3440310,36.013013666666666,129.31895383333332,31.89767586316941,68.09204255166813,3.2,235.0,,6.2421875,4.73046875,2.08984375,-1.138671875,0.146484375,-0.19140625,2.0859375,0.88671875,0.95703125,1.0
3440311,,,,,,,,7.375,-8.1875,7.94921875,-1.60546875,-0.00390625,0.783203125,3.234375,-12.0234375,6.77734375,1.0
3440312,,,,,,,,4.6796875,-24.859375,11.0625,-2.091796875,-0.107421875,1.76171875,0.515625,-28.65234375,9.84375,1.0
3440313,,,,,,,,1.03125,-40.99609375,14.3515625,-2.400390625,-0.115234375,2.12890625,-3.1640625,-44.73828125,13.1015625,1.0
3440314,,,,,,,,-21.90625,-55.578125,14.08203125,-1.13671875,-0.06640625,2.091796875,-26.1875,-59.18359375,12.75390625,1.0
3440315,,,,,,,,-7.953125,-20.93359375,12.58984375,1.376953125,-0.2734375,0.9375,-12.28125,-24.51171875,11.30078125,1.0
3440316,,,,,,,,7.8359375,-7.83984375,-1.42578125,-3.1953125,0.5390625,-1.5234375,3.5390625,-11.4453125,-2.72265625,1.0
3440317,,,,,,,,11.71875,-7.96875,-3.078125,-2.244140625,0.39453125,-3.92578125,7.5625,-11.72265625,-4.484375,1.0
3440318,,,,,,,,15.82421875,-7.96484375,-2.79296875,-1.5234375,-0.17578125,-3.662109375,11.73828125,-11.7890625,-4.21484375,1.0
3440319,,,,,,,,14.09765625,-13.671875,5.11328125,-1.119140625,-0.83203125,-1.265625,10.12890625,-17.6171875,3.67578125,1.0
3440320,36.013012,129.31895133333333,31.67230435034223,67.90710966712365,2.9000000000000004,231.0,,5.609375,-18.3203125,7.671875,-3.578125,-1.158203125,1.935546875,1.625,-22.25390625,6.203125,1.0
3440321,,,,,,,,4.453125,-13.93359375,4.3515625,-4.232421875,-1.197265625,1.25,0.74609375,-16.2734375,0.8046875,1.0
3440322,,,,,,,,4.578125,-10.7265625,0.58203125,-3.46875,-1.546875,-0.013671875,-0.7890625,-13.3984375,-0.8828125,1.0
3440323,,,,,,,,3.3203125,-9.66015625,0.796875,-3.341796875,-1.724609375,-0.248046875,-2.16796875,-12.33203125,-0.3828125,1.0
3440324,,,,,,,,-0.125,-6.94921875,2.18359375,-3.390625,-2.119140625,-0.123046875,-4.734375,-10.07421875,0.95703125,1.0
3440325,,,,,,,,-1.25390625,-5.625,2.953125,-3.4140625,-2.109375,-0.068359375,-6.3046875,-8.61328125,0.91796875,1.0
3440326,,,,,,,,-2.8828125,-3.76953125,0.6484375,-3.513671875,-2.0234375,-0.3359375,-7.03125,-7.4609375,-1.1484375,1.0
3440327,,,,,,,,-3.3828125,-1.6953125,-2.08203125,-3.515625,-1.875,-0.3671875,-8.3359375,-3.7109375,-4.484375,1.0
3440328,,,,,,,,-4.80078125,1.25,-2.44140625,-3.443359375,-1.76953125,-0.1328125,-9.21484375,-1.7578125,-3.21875,1.0
3440329,,,,,,,,-5.13671875,3.53125,0.78515625,-3.123046875,-1.447265625,0.794921875,-9.2890625,-0.1484375,-1.11328125,1.0
3440330,36.013011,129.31894816666667,31.386833314017586,67.79614939992084,3.2,239.0,,-4.57421875,4.48828125,2.59765625,-3.578125,-1.158203125,1.935546875,1.625,-22.25390625,6.203125,1.0
3440331,,,,,,,,-2.5,5.48046875,1.80078125,-2.08203125,-0.72265625,1.35546875,-6.765625,1.95703125,-0.23046875,1.0
3440332,,,,,,,,-1.1484375,5.328125,0.98828125,-1.408203125,-0.791015625,0.98828125,-5.46484375,1.84375,-1.07421875,1.0
3440333,,,,,,,,0.390625,2.46875,2.0078125,-0.373046875,-1.01171875,0.751953125,-3.96875,-0.9921875,-0.0390625,1.0
3440334,,,,,,,,0.5703125,0.9765625,3.8515625,0.041015625,-0.90234375,0.705078125,-3.8125,-2.484375,1.8359375,1.0
3440335,,,,,,,,0.37109375,0.37890625,4.734375,0.208984375,-0.701171875,0.4921875,-4.0390625,-3.09765625,2.7578125,1.0
3440336,,,,,,,,1.17578125,0.48046875,5.33984375,0.482421875,-0.587890625,0.103515625,-3.23828125,-3.01953125,3.41015625,1.0
3440337,,,,,,,,2.23828125,1.98828125,5.20703125,0.890625,-0.517578125,-0.392578125,-2.16796875,-1.56640625,3.328125,1.0
3440338,,,,,,,,5.1484375,7.4375,4.69921875,1.32421875,-0.4296875,-1.005859375,0.78125,3.76171875,2.91015625,1.0
3440339,,,,,,,,6.3203125,10.4609375,3.05078125,1.333984375,-0.4765625,-1.19140625,2.0078125,6.671875,1.33984375,1.0
3440340,36.01301016666666,129.31894466666665,31.07131257655376,67.70368224274556,3.2,244.0,,6.50390625,10.4765625,2.13671875,0.984375,-0.556640625,-0.9921875,2.23828125,6.59765625,0.49609375,1.0
3440341,,,,,,,,5.4765625,8.40234375,4.08203125,0.333984375,-0.60546875,-0.408203125,1.2421875,4.44921875,2.48828125,1.0
3440342,,,,,,,,5.4296875,7.19140625,4.44140625,0.056640625,-0.62890625,-0.099609375,1.203125,3.22265625,2.87109375,1.0
3440343,,,,,,,,5.31640625,3.5390625,5.53125,-0.138671875,-0.720703125,0.4140625,1.08984375,-0.453125,3.98828125,1.0
3440344,,,,,,,,7.37109375,-6.4296875,3.19140625,0.12890625,-0.73828125,0.83203125,3.12109375,-10.4140625,1.68359375,1.0
3440345,,,,,,,,8.54296875,-23.79296875,6.74609375,0.4765625,-0.79296875,1.19140625,4.26953125,-27.76953125,5.28515625,1.0
3440346,,,,,,,,21.63671875,-66.7890625,11.578125,0.548828125,-0.845703125,1.39453125,17.33203125,-70.75390625,10.1484375,1.0
3440347,,,,,,,,11.69921875,-78.06640625,15.59765625,-0.033203125,-1.029296875,1.80078125,11.69921875,-78.06640625,25.3984375,1.0
3440348,,,,,,,,6.94921875,-32.05859375,3.0703125,-0.12890625,-1.4375,1.8515625,6.94921875,-32.0546875,12.87109375,1.0
3440349,,,,,,,,3.2734375,-22.3671875,-1.94921875,-0.03125,-2.087890625,2.0703125,3.2734375,-22.3671875,7.8515625,1.0
3440350,36.013009333333336,129.31894133333333,30.77081664928977,67.61121515120992,2.9000000000000004,248.0,,-7.4140625,-7.578125,-2.4453125,0.984375,-0.556640625,-0.9921875,2.23828125,6.59765625,0.49609375,1.0
3440351,,,,,,,,-14.15625,-7.54296875,-10.52734375,-2.935546875,0.8203125,-5.435546875,-14.16015625,-7.54296875,-0.73046875,1.0
3440352,,,,,,,,-10.9375,-12.3671875,-12.0625,-1.0234375,-0.53515625,-4.77734375,-10.9375,-12.3671875,-2.26171875,1.0
3440353,,,,,,,,-9.67578125,-15.77734375,-10.14453125,0.11328125,-0.205078125,0.341796875,-9.67578125,-15.77734375,-0.34765625,1.0
3440354,,,,,,,,-3.31640625,-15.6640625,-5.96875,-0.029296875,-0.111328125,1.287109375,-3.31640625,-15.6640625,3.828125,1.0
3440355,,,,,,,,5.49609375,-11.296875,-1.640625,1.84765625,0.82421875,1.2421875,5.49609375,-11.30078125,8.16015625,1.0
3440356,,,,,,,,6.91015625,-9.2265625,-1.79296875,2.08984375,0.91015625,0.7890625,6.91015625,-9.2265625,8.00390625,1.0
3440357,,,,,,,,5.53125,-8.765625,-6.19921875,0.912109375,0.654296875,0.212890625,5.53125,-8.765625,3.6015625,1.0
3440358,,,,,,,,-1.953125,0.6171875,-6.2109375,0.08984375,0.572265625,-0.01171875,3.921875,-8.5,-1.5703125,1.0
3440359,,,,,,,,-2.59375,2.49609375,-5.4296875,0.029296875,0.451171875,0.462890625,3.234375,-6.62109375,-0.765625,1.0
3440360,36.01300883333333,129.31893866666667,30.53041983719423,67.5557346909808,2.8000000000000003,253.0,,-2.84375,4.07421875,-3.5234375,-0.13671875,0.09765625,1.248046875,2.23828125,6.59765625,0.49609375,1.0
3440361,,,,,,,,-3.31640625,6.08984375,-2.3515625,-0.19140625,-0.158203125,1.701171875,2.27734375,-3.171875,2.296875,1.0
3440362,,,,,,,,-3.8359375,7.7109375,-2.625,-0.234375,-0.314453125,1.5390625,1.625,-1.640625,1.9921875,1.0
3440363,,,,,,,,-4.1484375,9.10546875,-2.79296875,-0.333984375,-0.375,1.306640625,1.2421875,-0.30078125,1.796875,1.0
3440364,,,,,,,,-4.71484375,11.44140625,-3.21484375,-0.728515625,-0.5,0.87109375,0.58984375,1.953125,1.30078125,1.0
3440365,,,,,,,,-3.76953125,13.4609375,-4.23046875,-0.859375,-0.5859375,0.509765625,1.47265625,3.87890625,0.11328125,1.0
3440366,,,,,,,,-1.41015625,13.125,-4.625,-0.568359375,-0.6640625,0.453125,3.8046875,3.4921875,-0.3828125,1.0
3440367,,,,,,,,-0.23828125,10.98046875,-4.80859375,-0.212890625,-0.759765625,0.607421875,4.95703125,1.30859375,-0.65234375,1.0
3440368,,,,,,,,-0.3046875,10.19140625,-4.48046875,-0.14453125,-0.78125,0.736328125,4.8828125,0.50390625,-0.34765625,1.0
3440369,,,,,,,,-1.58203125,9.12109375,-3.91015625,-0.44921875,-0.619140625,1.228515625,3.50390625,-0.64453125,0.11328125,1.0
3440370,36.013009000000004,129.31893566666668,30.259973142624617,67.57422696256798,2.9000000000000004,264.0,,-3.04296875,9.65625,-3.33203125,-0.794921875,-0.4296875,1.306640625,1.9296875,-0.1875,0.61328125,1.0
3440371,,,,,,,,-3.88671875,11.0078125,-3.1328125,-1.06640625,-0.240234375,1.12890625,0.97265625,1.078125,0.6875,1.0
3440372,,,,,,,,-3.74609375,11.4765625,-3.0,-1.173828125,-0.017578125,0.763671875,1.01171875,1.4609375,0.6875,1.0
3440373,,,,,,,,-3.56640625,11.4453125,-2.921875,-1.2421875,0.17578125,0.37890625,1.12890625,1.38671875,0.6484375,1.0
3440374,,,,,,,,-3.0859375,11.0703125,-2.83984375,-1.279296875,0.25,0.072265625,1.58984375,0.9609375,0.61328125,1.0
3440375,,,,,,,,-2.41796875,10.89453125,-2.41015625,-1.314453125,0.205078125,-0.123046875,2.234375,0.76953125,0.91796875,1.0
3440376,,,,,,,,-1.19921875,10.53515625,-1.76953125,-1.421875,0.130859375,-0.22265625,3.46484375,0.38671875,1.41796875,1.0
3440377,,,,,,,,-0.1875,9.6875,0.890625,-1.794921875,0.05078125,-0.2734375,4.50390625,-0.4921875,3.90625,1.0
3440378,,,,,,,,-1.4609375,6.75390625,4.8359375,-2.126953125,0.033203125,-0.23828125,3.234375,-3.44140625,7.77734375,1.0
3440379,,,,,,,,-7.1015625,-0.6015625,8.24609375,-2.966796875,0.033203125,0.03125,-2.3984375,-10.8359375,10.91796875,1.0
3440380,36.013008666666664,129.31893216666668,29.944452197750095,67.53723946718343,3.0,263.0,,-13.16796875,-29.75390625,16.546875,-0.794921875,-0.4296875,1.306640625,1.9296875,-0.1875,0.61328125,1.0
3440381,,,,,,,,-17.03125,-78.140625,6.40234375,-2.0625,0.2265625,0.46484375,-17.03125,-78.140625,16.203125,1.0
3440382,,,,,,,,-28.1015625,-28.95703125,14.37109375,1.021484375,1.07421875,-0.341796875,-28.1015625,-28.95703125,24.171875,1.0
