time,latitude,longitude,enu_x,enu_y,speed,course,ecg,accX,accY,accZ,gyrX,gyrY,gyrZ,eulR,eulP,eulY,motion
3495610,36.01302533333333,129.318983,34.52701287501634,69.38657698276782,2.8000000000000003,29.0,,3.43359375,5.6484375,-2.8671875,3.4921875,-0.021484375,-0.013671875,12.3515625,-12.63671875,-1.49609375,2.0
3495611,,,,,,,,4.3125,8.0546875,-2.1171875,2.890625,-0.251953125,-0.935546875,1.890625,-0.53125,0.421875,2.0
3495612,,,,,,,,2.6796875,9.89453125,1.6171875,1.50390625,-0.3984375,-1.744140625,0.4375,1.73046875,4.29296875,2.0
3495613,,,,,,,,-0.8203125,10.6796875,4.92578125,0.033203125,-0.447265625,-2.396484375,-2.859375,2.765625,7.578125,2.0
3495614,,,,,,,,-2.76953125,12.015625,2.03125,-0.171875,-0.306640625,-2.974609375,-4.58203125,4.3359375,4.6328125,2.0
3495615,,,,,,,,-4.078125,11.71484375,1.08984375,2.337890625,0.22265625,-2.99609375,-5.578125,4.48828125,3.75390625,2.0
3495616,,,,,,,,-3.6796875,10.03125,1.05078125,2.75,0.240234375,-2.447265625,-5.1171875,2.9921875,3.79296875,2.0
3495617,,,,,,,,-0.1328125,-3.04296875,-5.6875,3.080078125,0.248046875,-0.822265625,-1.515625,-9.72265625,-2.796875,2.0
3495618,,,,,,,,7.0078125,-38.66796875,-4.38671875,2.814453125,0.08203125,0.806640625,5.5703125,-45.078125,-1.37890625,2.0
3495619,,,,,,,,13.65234375,-67.6640625,2.8046875,0.95703125,-0.63671875,2.12109375,12.16015625,-74.16015625,5.859375,2.0
3495620,36.0130275,129.3189855,34.7523840706623,69.6269895629153,3.0,33.0,,28.515625,-49.79296875,20.26953125,-0.162109375,-0.9296875,1.521484375,28.515625,-49.79296875,30.0703125,2.0
3495621,,,,,,,,4.95703125,-18.19140625,-12.0234375,2.19140625,-1.46484375,0.404296875,4.95703125,-18.19140625,-2.22265625,2.0
3495622,,,,,,,,-7.5703125,-15.66015625,-8.61328125,4.23828125,-1.140625,-4.9921875,-7.5703125,-15.66015625,1.1875,2.0
3495623,,,,,,,,-11.01953125,-17.5390625,-12.21484375,1.529296875,0.66796875,-5.576171875,-11.01953125,-17.54296875,-2.4140625,2.0
3495624,,,,,,,,-4.7734375,-17.078125,-14.8203125,2.1171875,2.236328125,-3.50390625,-4.7734375,-17.08203125,-5.01953125,2.0
3495625,,,,,,,,-0.7890625,-15.203125,-12.51953125,3.134765625,2.283203125,-0.404296875,-0.7890625,-15.203125,-2.72265625,2.0
3495626,,,,,,,,4.6875,-14.703125,-10.60546875,3.197265625,1.94921875,0.638671875,4.6875,-14.70703125,-0.8046875,2.0
3495627,,,,,,,,12.3515625,-13.28515625,-8.5390625,3.076171875,1.55078125,1.306640625,12.3515625,-13.28125,1.26171875,2.0
3495628,,,,,,,,13.1171875,-13.78515625,-5.6640625,3.61328125,1.8203125,0.890625,13.1171875,-13.78125,4.13671875,2.0
3495629,,,,,,,,9.515625,-11.75390625,-9.03515625,4.28515625,2.19140625,0.658203125,9.515625,-11.75,0.765625,2.0
3495630,36.01303,129.31898633333333,34.82750701816376,69.90438796598374,2.8000000000000003,27.0,,7.1015625,-10.22265625,-9.07421875,2.8515625,2.42578125,0.09375,7.1015625,-10.22265625,0.7265625,2.0
3495631,,,,,,,,5.53125,-8.8828125,-8.99609375,2.029296875,2.224609375,0.177734375,5.53125,-8.88671875,0.8046875,2.0
3495632,,,,,,,,5.37890625,-8.3828125,-9.6484375,1.75,2.1015625,0.306640625,5.37890625,-8.38671875,0.15234375,2.0
3495633,,,,,,,,5.109375,-7.42578125,-10.453125,1.666015625,1.830078125,0.650390625,5.109375,-7.421875,-0.65234375,2.0
3495634,,,,,,,,4.765625,-5.7421875,-9.953125,1.748046875,1.666015625,0.873046875,4.765625,-5.7421875,-0.15625,2.0
3495635,,,,,,,,4.421875,-2.7890625,-8.1171875,1.833984375,1.150390625,1.7265625,4.421875,-2.7890625,1.68359375,2.0
3495636,,,,,,,,4.07421875,-1.2578125,-7.88671875,1.6015625,0.888671875,2.025390625,4.0703125,-1.2578125,1.9140625,2.0
3495637,,,,,,,,3.84375,-0.64453125,-7.9609375,1.421875,0.755859375,1.984375,3.84375,-0.64453125,1.8359375,2.0
3495638,,,,,,,,3.04296875,1.8828125,-9.1875,0.8671875,0.45703125,1.4453125,3.0390625,1.8828125,0.61328125,2.0
3495639,,,,,,,,3.00390625,2.11328125,-9.11328125,0.71484375,0.41015625,1.224609375,3.0,2.11328125,0.6875,2.0
3495640,36.0130325,129.31898583333336,34.782431496526954,70.18178589349716,3.1,12.0,,3.38671875,2.07421875,-8.61328125,2.8515625,2.42578125,0.09375,7.1015625,-10.22265625,0.7265625,2.0
3495641,,,,,,,,3.80859375,1.1171875,-8.5,0.212890625,0.19140625,0.5,3.8046875,1.1171875,1.30078125,2.0
3495642,,,,,,,,3.80859375,0.12109375,-8.921875,0.380859375,0.14453125,0.251953125,3.8046875,0.12109375,0.87890625,2.0
3495643,,,,,,,,2.6953125,0.04296875,-7.6953125,0.6171875,0.23828125,0.021484375,2.6953125,0.04296875,2.10546875,2.0
3495644,,,,,,,,-1.05859375,1.76953125,-3.7109375,-0.056640625,0.359375,-0.080078125,-1.05859375,1.76953125,6.08984375,2.0
3495645,,,,,,,,-1.90234375,2.41796875,-4.3984375,-0.7890625,0.373046875,-0.2890625,-1.90234375,2.41796875,5.40234375,2.0
3495646,,,,,,,,-3.01171875,3.30078125,-6.546875,-0.490234375,0.458984375,-0.509765625,-3.01171875,3.30078125,3.25390625,2.0
3495647,,,,,,,,-3.43359375,2.11328125,-7.12109375,-0.224609375,0.4609375,-0.484375,-3.4296875,2.11328125,2.6796875,2.0
3495648,,,,,,,,-4.58203125,-0.37890625,-6.390625,-0.22265625,0.54296875,-0.208984375,-4.578125,-0.37890625,3.40625,2.0
3495649,,,,,,,,-7.5703125,-10.796875,-5.43359375,-0.103515625,0.572265625,0.212890625,-7.5703125,-10.80078125,4.3671875,2.0
3495650,36.013034833333336,129.31898600000002,34.79745527887954,70.4406908518786,2.7,7.0,,-9.5625,-24.6640625,-0.9140625,0.28515625,0.533203125,0.783203125,-9.5625,-24.66796875,8.88671875,2.0
3495651,,,,,,,,-15.15625,-63.203125,3.453125,0.943359375,0.373046875,1.529296875,-15.15625,-63.20703125,13.25390625,2.0
3495652,,,,,,,,-16.2265625,-53.6640625,9.46875,3.02734375,0.263671875,1.533203125,-16.2265625,-53.6640625,19.265625,2.0
3495653,,,,,,,,0.0546875,-23.8984375,5.21484375,4.12109375,0.306640625,1.34375,0.0546875,-23.90234375,15.015625,2.0
3495654,,,,,,,,9.5546875,-15.9296875,-10.03125,3.8828125,-0.099609375,0.50390625,9.5546875,-15.9296875,-0.23046875,2.0
3495655,,,,,,,,12.6953125,-12.7890625,-15.2421875,3.40234375,0.560546875,-3.619140625,12.6953125,-12.7890625,-5.44140625,2.0
3495656,,,,,,,,18.70703125,-16.08203125,-11.5625,4.12109375,0.041015625,-5.03515625,18.703125,-16.08203125,-1.76171875,2.0
3495657,,,,,,,,15.0703125,-16.08203125,-5.47265625,1.482421875,0.103515625,-1.603515625,10.97265625,-19.296875,8.46484375,2.0
3495658,,,,,,,,10.97265625,-19.30078125,-1.3359375,0.0390625,-0.0625,0.001953125,9.9765625,-21.21484375,9.30859375,2.0
3495659,,,,,,,,9.32421875,-22.17578125,-1.52734375,-1.634765625,-0.208984375,1.865234375,9.28515625,-20.98828125,6.89453125,2.0
3495660,36.013037000000004,129.31898583333336,34.782429519416624,70.68110248403401,2.3000000000000003,4.0,,8.3671875,-17.38671875,-5.81640625,-0.955078125,-0.50390625,1.109375,7.29296875,-15.66015625,2.98828125,2.0
3495661,,,,,,,,6.10546875,-14.20703125,-7.54296875,-0.626953125,-1.16796875,0.353515625,4.99609375,-13.3203125,2.375,2.0
3495662,,,,,,,,4.0,-12.8671875,-6.890625,-0.537109375,-1.52734375,0.29296875,1.43359375,-12.2109375,4.3671875,2.0
3495663,,,,,,,,0.359375,-12.17578125,-5.05078125,-0.685546875,-1.478515625,0.5,-1.36328125,-12.2890625,4.44140625,2.0
3495664,,,,,,,,-2.0546875,-12.09765625,-5.96875,-0.732421875,-1.388671875,0.498046875,-2.7421875,-11.68359375,2.98828125,2.0
3495665,,,,,,,,-4.16015625,-10.109375,-8.765625,-0.515625,-1.240234375,0.48046875,-4.16015625,-10.109375,1.03125,2.0
3495666,,,,,,,,-5.5390625,-6.19921875,-10.22265625,-0.00390625,-0.962890625,0.763671875,-5.5390625,-6.1953125,-0.421875,2.0
3495667,,,,,,,,-5.5,-4.5546875,-9.953125,0.361328125,-0.3671875,1.357421875,-5.50390625,-4.5546875,-0.15625,2.0
3495668,,,,,,,,-5.6171875,-3.2109375,-9.7265625,0.35546875,0.28515625,1.85546875,-5.62109375,-3.2109375,0.07421875,2.0
3495669,,,,,,,,-0.796875,4.04296875,0.3828125,0.2265625,0.484375,2.03515625,-6.46484375,0.50390625,0.3828125,2.0
3495670,36.01303883333333,129.31898383333333,34.60213102461016,70.88452704934689,2.6,345.0,,-0.07421875,5.91796875,0.0078125,0.130859375,0.490234375,2.05078125,-5.80859375,2.53515625,0.0,2.0
3495671,,,,,,,,1.8359375,7.72265625,-0.046875,0.2734375,0.59375,1.951171875,-3.96875,4.52734375,-0.078125,2.0
3495672,,,,,,,,3.5078125,8.015625,0.484375,0.50390625,0.59375,1.771484375,-2.359375,5.140625,0.421875,2.0
3495673,,,,,,,,5.65234375,5.87109375,0.67578125,0.931640625,0.306640625,1.37109375,-0.21484375,3.3359375,0.61328125,2.0
3495674,,,,,,,,6.1328125,1.69921875,-0.30078125,1.392578125,0.087890625,1.0234375,0.3203125,-0.6015625,-0.34765625,2.0
3495675,,,,,,,,5.50390625,-2.4296875,-0.4765625,2.064453125,-0.216796875,0.658203125,-0.17578125,-4.4765625,-0.4609375,2.0
3495676,,,,,,,,5.30859375,-2.96875,-0.26953125,2.3125,-0.251953125,0.55859375,-0.25390625,-4.90234375,-0.19140625,2.0
3495677,,,,,,,,5.17578125,-1.58984375,0.296875,2.265625,-0.203125,0.224609375,-0.25390625,-3.4375,0.421875,2.0
3495678,,,,,,,,4.33984375,0.01171875,1.13671875,1.78125,-0.142578125,-0.4765625,-0.94140625,-1.7890625,1.30078125,2.0
3495679,,,,,,,,1.00390625,1.765625,6.65234375,0.98046875,-0.095703125,-1.27734375,-4.12109375,-0.03125,6.85546875,2.0
3495680,36.01304066666667,129.31898233333334,34.46690696216342,71.08795179590231,2.5,337.0,,-1.484375,3.40625,7.1171875,0.52734375,0.1171875,-1.990234375,-6.4609375,1.578125,7.390625,2.0
3495681,,,,,,,,-1.66015625,4.77734375,4.78125,1.77734375,0.5,-2.6171875,-6.49609375,2.91796875,5.1328125,2.0
3495682,,,,,,,,3.15625,0.171875,-2.78515625,3.416015625,0.89453125,-2.625,-1.5546875,-1.71875,-2.33984375,2.0
3495683,,,,,,,,4.1640625,-2.9140625,-3.59765625,3.861328125,0.890625,-2.259765625,-0.484375,-4.8203125,-3.10546875,2.0
3495684,,,,,,,,5.1953125,-22.17578125,0.984375,2.748046875,0.115234375,0.22265625,0.703125,-24.12890625,1.609375,2.0
3495685,,,,,,,,17.67578125,-52.5546875,13.69140625,1.77734375,-0.181640625,0.966796875,13.30859375,-54.6953125,14.44140625,2.0
3495686,,,,,,,,17.6875,-31.5078125,15.703125,2.29296875,0.216796875,0.240234375,13.5390625,-34.08984375,16.6640625,2.0
3495687,,,,,,,,4.80078125,-16.390625,1.0234375,3.046875,0.16015625,-0.365234375,0.93359375,-19.4921875,2.2578125,2.0
3495688,,,,,,,,1.82421875,-12.4765625,0.04296875,3.724609375,0.625,-1.0859375,-1.90234375,-15.8515625,1.41796875,2.0
3495689,,,,,,,,1.8046875,-13.671875,-1.89453125,2.95703125,0.904296875,-3.02734375,-1.59375,-17.6171875,-0.23046875,2.0
3495690,36.01304283333333,129.31898116666667,34.361732373422264,71.32836307541648,2.3000000000000003,334.0,,6.515625,-18.1328125,0.50390625,0.52734375,0.1171875,-1.990234375,3.4609375,-22.67578125,2.41015625,2.0
3495691,,,,,,,,11.90625,-20.11328125,7.91015625,3.8046875,1.509765625,-0.634765625,9.171875,-25.1953125,10.11328125,2.0
3495692,,,,,,,,8.25390625,-14.7578125,1.6796875,3.6484375,1.759765625,0.75,5.76171875,-20.3359375,4.25,2.0
3495693,,,,,,,,6.2421875,-11.40625,-1.7734375,2.703125,1.90625,0.01171875,3.9609375,-17.4609375,1.1484375,2.0
3495694,,,,,,,,6.22265625,-7.97265625,-1.6953125,2.7890625,2.216796875,-0.626953125,4.19140625,-14.5078125,1.53125,2.0
3495695,,,,,,,,5.3828125,-6.09765625,-0.94140625,2.83984375,2.236328125,-0.228515625,3.578125,-13.0546875,2.60546875,2.0
3495696,,,,,,,,4.2890625,-4.7109375,-1.38671875,2.81640625,2.203125,0.353515625,2.65625,-12.0234375,2.48828125,2.0
3495697,,,,,,,,3.29296875,-3.25,-2.49609375,2.6015625,2.125,0.568359375,1.77734375,-10.875,1.68359375,2.0
3495698,,,,,,,,3.3984375,-2.1875,-3.3046875,2.384765625,2.119140625,0.619140625,1.96875,-10.07421875,1.1484375,2.0
3495699,,,,,,,,3.8046875,-0.2890625,-4.359375,2.189453125,2.095703125,0.67578125,2.4296875,-8.38671875,0.34375,2.0
3495700,36.01304416666667,129.31897866666668,34.13635970203882,71.47630785352695,2.7,320.0,0.0,4.36328125,2.40234375,-4.85546875,2.1171875,1.759765625,0.923828125,3.04296875,-5.93359375,0.15234375,2.0
3495701,,,,,,,,4.921875,5.078125,-5.03515625,2.1953125,1.453125,1.09375,3.6171875,-3.328125,0.15234375,2.0
3495702,,,,,,,,4.8125,6.83203125,-5.1015625,2.453125,1.166015625,1.171875,3.54296875,-1.56640625,0.265625,2.0
3495703,,,,,,,,4.359375,9.12890625,-5.2578125,2.5078125,0.830078125,0.9140625,2.66015625,1.76953125,0.07421875,2.0
3495704,,,,,,,,3.4609375,11.01171875,-5.65234375,2.22265625,0.67578125,0.4453125,2.390625,2.8359375,0.19140625,2.0
3495705,,,,,,,,3.8203125,10.21875,-5.359375,1.82421875,0.53125,-0.080078125,3.12109375,1.5,0.57421875,2.0
3495706,,,,,,,,4.1328125,9.3984375,-5.23046875,1.68359375,0.478515625,-0.29296875,3.54296875,0.65625,0.6484375,2.0
3495707,,,,,,,,4.8515625,7.578125,-5.140625,1.677734375,0.3984375,-0.59765625,4.49609375,-0.796875,0.6875,2.0
3495708,,,,,,,,6.484375,5.66796875,-5.03125,2.029296875,0.3359375,-0.693359375,5.83984375,-1.79296875,0.8046875,2.0
3495709,,,,,,,,7.4921875,5.0234375,-4.93359375,2.248046875,0.3046875,-0.609375,7.06640625,-2.1796875,0.91796875,2.0
3495710,36.013045000000005,129.31897566666666,33.8659128328719,71.56877284236214,2.9000000000000004,305.0,,8.29296875,5.74609375,-4.56640625,1.75390625,0.236328125,-0.4921875,8.09765625,-1.18359375,1.30078125,2.0
3495711,,,,,,,,5.76171875,8.69140625,-1.73828125,0.1953125,0.091796875,-0.25390625,3.84375,3.22265625,5.1328125,2.0
3495712,,,,,,,,1.96484375,10.68359375,-0.12890625,-0.78515625,0.015625,-0.140625,2.12109375,4.14453125,5.66796875,2.0
3495713,,,,,,,,-1.1015625,11.69140625,-1.2734375,-1.88671875,0.0625,-0.048828125,-0.75,5.328125,4.3671875,2.0
3495714,,,,,,,,-2.984375,11.734375,-1.96875,-1.552734375,0.373046875,0.03515625,-2.4765625,5.52734375,3.4453125,2.0
3495715,,,,,,,,-4.91015625,8.80078125,-2.8828125,-1.103515625,0.50390625,0.123046875,-4.27734375,2.91796875,2.2578125,2.0
3495716,,,,,,,,-4.76171875,3.98046875,-2.046875,-0.8203125,0.484375,0.2421875,-4.12109375,-1.79296875,3.0234375,2.0
3495717,,,,,,,,-0.30859375,-14.171875,4.2109375,0.1953125,0.373046875,1.091796875,-4.62109375,-13.13671875,6.703125,2.0
3495718,,,,,,,,0.51953125,-49.83203125,14.76953125,1.208984375,0.392578125,2.09765625,-3.77734375,-48.71875,17.23828125,2.0
3495719,,,,,,,,-0.5234375,-57.29296875,16.23828125,1.921875,0.314453125,2.751953125,-4.8125,-56.11328125,18.69140625,2.0
3495720,36.01304666666667,129.31897266666667,33.59546561798207,71.75370387421705,2.8000000000000003,300.0,,-2.69921875,-40.94140625,18.5078125,1.75390625,0.236328125,-0.4921875,8.09765625,-1.18359375,1.30078125,2.0
3495721,,,,,,,,6.859375,-15.79296875,2.296875,2.181640625,-0.1875,0.48828125,2.65625,-14.1640625,4.6328125,2.0
3495722,,,,,,,,11.13671875,-11.5625,-2.3984375,0.99609375,0.18359375,-3.365234375,6.91015625,-9.99609375,-0.078125,2.0
3495723,,,,,,,,17.06640625,-13.828125,0.19140625,2.0859375,0.21484375,-4.26171875,12.765625,-12.40625,2.48828125,2.0
3495724,,,,,,,,17.765625,-20.4765625,6.19140625,1.451171875,-0.169921875,-2.41796875,13.421875,-19.19140625,8.46484375,2.0
3495725,,,,,,,,14.578125,-22.87890625,7.046875,-0.5390625,-0.26171875,0.5859375,10.2421875,-21.6328125,9.34375,2.0
3495726,,,,,,,,13.421875,-22.83203125,7.1953125,-1.2734375,-0.294921875,1.556640625,9.09375,-21.59765625,9.5,2.0
3495727,,,,,,,,10.86328125,-18.703125,4.16015625,-2.078125,-0.373046875,1.548828125,6.56640625,-17.46484375,6.51171875,2.0
3495728,,,,,,,,9.68359375,-16.18359375,2.95703125,-1.720703125,-0.720703125,0.47265625,5.41796875,-14.96875,5.36328125,2.0
3495729,,,,,,,,7.015625,-12.19921875,2.578125,-0.951171875,-1.3125,0.013671875,2.8125,-11.06640625,5.09375,2.0
3495730,36.013047666666665,129.31897016666665,33.3700931087043,71.86466225725837,2.5,295.0,,4.78515625,-10.3125,2.34765625,-0.892578125,-1.49609375,0.34375,8.09765625,-1.18359375,1.30078125,2.0
3495731,,,,,,,,2.046875,-9.921875,0.24609375,-1.34375,-1.423828125,0.44921875,-2.0546875,-8.88671875,2.91015625,2.0
3495732,,,,,,,,-0.3671875,-8.33203125,-2.55859375,-1.88671875,-1.263671875,0.419921875,-4.4296875,-7.34765625,0.19140625,2.0
3495733,,,,,,,,-0.796875,-7.046875,-2.9375,-2.0859375,-1.123046875,0.623046875,-4.8125,-6.125,-0.1171875,2.0
3495734,,,,,,,,-0.53515625,-5.49609375,-2.69140625,-1.783203125,-0.875,1.04296875,-4.50390625,-4.62890625,0.19140625,2.0
3495735,,,,,,,,-0.66015625,-4.31640625,-2.69140625,-1.37890625,-0.576171875,1.435546875,-4.578125,-3.48046875,0.23046875,2.0
3495736,,,,,,,,-0.859375,-3.55078125,-2.671875,-1.1640625,-0.439453125,1.541015625,-4.7734375,-2.71484375,0.265625,2.0
3495737,,,,,,,,-0.96875,-0.25390625,-2.73828125,-0.77734375,-0.255859375,1.6953125,-4.85546875,0.58203125,0.23046875,2.0
3495738,,,,,,,,-1.3828125,1.55859375,-2.10546875,-0.466796875,-0.017578125,1.755859375,-5.234375,2.41796875,0.87890625,2.0
3495739,,,,,,,,-1.328125,3.18359375,-1.56640625,-0.224609375,0.1484375,1.7578125,-5.15625,4.06640625,1.41796875,2.0
3495740,36.01304733333333,129.31896700000001,33.084621944127235,71.82767476403635,2.8000000000000003,280.0,,-0.83984375,3.45703125,-1.75390625,-0.892578125,-1.49609375,0.34375,-4.66015625,4.37109375,1.22265625,2.0
3495741,,,,,,,,0.5625,2.453125,-2.625,0.48046875,0.068359375,1.12109375,-3.2421875,3.4140625,0.34375,2.0
3495742,,,,,,,,2.109375,0.5078125,-3.7265625,0.7421875,-0.078125,0.939453125,-1.671875,1.5,-0.765625,2.0
3495743,,,,,,,,2.5703125,-0.42578125,-3.91796875,0.875,-0.14453125,0.91796875,-1.21484375,0.58203125,-0.95703125,2.0
3495744,,,,,,,,3.3515625,-4.01953125,-4.1484375,1.20703125,-0.29296875,1.005859375,-0.40625,-2.9765625,-1.1875,2.0
3495745,,,,,,,,3.7734375,-6.48828125,-4.5625,1.81640625,-0.44140625,1.240234375,0.0546875,-5.35546875,-1.609375,2.0
3495746,,,,,,,,4.30859375,-5.265625,-4.82421875,2.11328125,-0.41796875,1.087890625,0.62890625,-4.05859375,-1.87890625,2.0
3495747,,,,,,,,4.90625,-2.1953125,-4.08984375,2.0859375,-0.32421875,0.52734375,1.2421875,-0.9140625,-1.15234375,2.0
3495748,,,,,,,,4.734375,-1.3671875,-3.4375,1.8203125,-0.267578125,0.181640625,1.08984375,-0.0703125,-0.5,2.0
3495749,,,,,,,,2.890625,0.109375,-1.0078125,0.88671875,-0.21875,-0.54296875,-0.75,1.421875,1.9140625,2.0
3495750,36.01304783333333,129.31896433333335,32.844224847433686,71.88315348300998,2.7,278.0,,-1.125,0.45703125,4.69140625,0.08984375,0.005859375,-1.46875,-4.7734375,1.69140625,7.62109375,2.0
3495751,,,,,,,,-3.1015625,0.265625,4.73828125,0.802734375,0.349609375,-1.990234375,-6.765625,1.421875,7.65625,2.0
3495752,,,,,,,,-2.04296875,-0.421875,2.9140625,1.595703125,0.52734375,-2.197265625,-5.73046875,0.6953125,5.8203125,2.0
3495753,,,,,,,,3.6171875,-15.98046875,-0.1015625,3.03125,0.703125,-1.94140625,-0.1015625,-14.89453125,2.7578125,2.0
3495754,,,,,,,,5.59765625,-22.953125,3.26953125,3.392578125,0.5859375,-1.50390625,1.85546875,-21.87109375,6.08984375,2.0
3495755,,,,,,,,15.2109375,-54.3046875,14.08203125,2.6484375,-0.154296875,0.587890625,11.46875,-53.1640625,16.85546875,2.0
3495756,,,,,,,,19.515625,-37.875,11.8046875,2.828125,-0.1640625,0.513671875,15.796875,-36.65625,14.5546875,2.0
3495757,,,,,,,,10.19921875,-21.59375,3.8984375,2.763671875,0.275390625,-0.66015625,6.48828125,-20.3359375,6.625,2.0
3495758,,,,,,,,0.42578125,-21.42578125,-1.875,2.6953125,0.68359375,-2.66796875,-3.31640625,-20.1796875,0.8046875,2.0
3495759,,,,,,,,1.3046875,-22.77734375,-1.453125,1.6171875,0.8125,-3.326171875,-2.4765625,-21.63671875,1.1875,2.0
3495760,36.01304866666667,129.3189615,32.58880280867778,71.97561856718397,2.6,278.0,,7.93359375,-26.30859375,5.10546875,0.08984375,0.005859375,-1.46875,-4.7734375,1.69140625,7.62109375,2.0
3495761,,,,,,,,9.078125,-23.8984375,4.234375,3.556640625,1.57421875,0.544921875,5.2265625,-22.7890625,6.7421875,2.0
3495762,,,,,,,,8.59375,-19.65234375,0.375,3.15625,1.748046875,-0.169921875,4.7265625,-18.4921875,2.796875,2.0
3495763,,,,,,,,9.0546875,-18.94140625,0.6875,3.01171875,1.8515625,-0.541015625,5.1484375,-17.76953125,3.0234375,2.0
3495764,,,,,,,,8.77734375,-17.2421875,1.01953125,3.236328125,2.005859375,-0.046875,4.83984375,-16.046875,3.25390625,2.0
3495765,,,,,,,,8.7734375,-15.1640625,0.1640625,3.1484375,2.041015625,0.236328125,4.8046875,-13.9375,2.296875,2.0
3495766,,,,,,,,8.93359375,-14.52734375,-0.40234375,3.029296875,2.025390625,0.279296875,4.95703125,-13.28515625,1.68359375,2.0
3495767,,,,,,,,9.5703125,-12.4453125,-1.5625,2.78515625,1.9609375,0.33203125,5.5703125,-11.1796875,0.421875,2.0
3495768,,,,,,,,10.20703125,-10.015625,-0.328125,2.556640625,1.814453125,0.455078125,6.18359375,-8.7265625,1.5703125,2.0
3495769,,,,,,,,9.90625,-7.7734375,0.70703125,2.259765625,1.544921875,0.79296875,5.875,-6.4296875,2.48828125,2.0
3495770,36.01304783333333,129.31895816666665,32.288307041492544,71.88315142221043,3.1,267.0,,9.1796875,-5.61328125,0.203125,2.130859375,1.244140625,0.662109375,5.1484375,-4.24609375,1.9140625,2.0
3495771,,,,,,,,8.59765625,-1.796875,-0.4765625,2.130859375,0.990234375,0.357421875,4.57421875,-0.4140625,1.1875,2.0
3495772,,,,,,,,7.5625,0.453125,-0.890625,2.140625,0.8984375,0.154296875,3.5390625,1.84375,0.7265625,2.0
3495773,,,,,,,,6.453125,3.171875,-1.08984375,2.103515625,0.775390625,0.037109375,2.4296875,4.56640625,0.49609375,2.0
3495774,,,,,,,,5.9453125,3.71875,-1.39453125,1.787109375,0.666015625,-0.1328125,1.9296875,5.10546875,0.15234375,2.0
3495775,,,,,,,,5.5625,3.12890625,-1.71484375,1.333984375,0.623046875,-0.34375,1.546875,4.48828125,-0.19140625,2.0
3495776,,,,,,,,6.09765625,0.80859375,-2.24609375,1.15625,0.591796875,-0.427734375,2.08203125,2.15234375,-0.73046875,2.0
3495777,,,,,,,,6.94140625,-2.70703125,-1.8828125,1.06640625,0.4921875,-0.294921875,2.921875,-1.41015625,-0.3828125,2.0
3495778,,,,,,,,7.5,-3.18359375,-0.84375,1.08203125,0.3828125,0.125,3.5,-1.91015625,0.6484375,2.0
3495779,,,,,,,,6.83203125,-2.265625,0.7265625,0.8125,0.3359375,0.466796875,2.84375,-0.9921875,2.21875,2.0
3495780,36.013046833333334,129.31895483333335,31.987811337551854,71.77219108119382,3.2,259.0,,5.2109375,-0.69140625,3.265625,0.388671875,0.318359375,0.55859375,1.2421875,0.58203125,4.75,2.0
3495781,,,,,,,,3.81640625,0.5390625,4.24609375,-0.14453125,0.326171875,0.416015625,-0.13671875,1.8046875,5.74609375,2.0
3495782,,,,,,,,2.6484375,2.2109375,0.90234375,-0.271484375,0.388671875,0.015625,-1.2890625,3.453125,2.41015625,2.0
3495783,,,,,,,,2.06640625,2.6328125,-0.52734375,-0.05859375,0.48828125,-0.48828125,-1.86328125,3.83984375,0.99609375,2.0
3495784,,,,,,,,1.75390625,2.265625,-1.37109375,-0.04296875,0.48046875,-0.6640625,-2.16796875,3.41796875,0.15234375,2.0
3495785,,,,,,,,1.140625,-1.609375,-0.18359375,-0.099609375,0.41796875,-0.111328125,-2.78125,-0.53125,1.33984375,2.0
3495786,,,,,,,,1.01953125,-3.546875,0.65234375,-0.09375,0.373046875,0.189453125,-2.89453125,-2.484375,2.18359375,2.0
3495787,,,,,,,,0.51171875,-10.3203125,4.12109375,0.13671875,0.248046875,0.771484375,-3.39453125,-9.26953125,5.66796875,2.0
3495788,,,,,,,,0.25,-31.6328125,13.5078125,0.76953125,0.15625,1.248046875,-3.625,-30.5625,15.0546875,2.0
3495789,,,,,,,,4.73828125,-52.98046875,14.640625,1.837890625,0.04296875,1.5078125,0.89453125,-51.859375,16.203125,2.0
3495790,36.01304616666666,129.31895183333333,31.71736510118909,71.69821727106384,2.8000000000000003,253.0,,9.95703125,-42.9296875,13.4921875,3.1171875,-0.193359375,1.498046875,1.2421875,0.58203125,4.75,2.0
3495791,,,,,,,,9.16015625,-17.30859375,6.6796875,2.365234375,-0.2578125,0.501953125,5.37890625,-16.078125,8.234375,2.0
3495792,,,,,,,,6.1640625,-14.65625,2.44140625,0.1171875,0.060546875,-2.244140625,2.390625,-13.48046875,4.01953125,2.0
3495793,,,,,,,,6.40234375,-14.16015625,0.21484375,-0.169921875,0.142578125,-3.376953125,2.62109375,-13.0546875,1.80078125,2.0
3495794,,,,,,,,13.234375,-19.9609375,1.828125,-0.52734375,-0.20703125,-2.865234375,9.4375,-19.03125,3.4453125,2.0
3495795,,,,,,,,15.06640625,-24.10546875,7.296875,-1.09765625,-0.3359375,-0.26953125,11.27734375,-23.28515625,8.9609375,2.0
3495796,,,,,,,,12.75,-22.54296875,6.30859375,-0.953125,-0.404296875,1.587890625,9.015625,-21.75390625,8.04296875,2.0
3495797,,,,,,,,9.265625,-18.53515625,3.34375,-1.876953125,-0.73828125,0.73828125,5.5703125,-17.765625,5.1328125,2.0
3495798,,,,,,,,8.25390625,-15.8125,1.96484375,-2.271484375,-0.9140625,0.34375,4.57421875,-15.0859375,3.79296875,2.0
3495799,,,,,,,,6.7890625,-12.83203125,0.8984375,-2.45703125,-1.486328125,0.291015625,2.23828125,-11.02734375,2.48828125,2.0
3495800,36.01304533333334,129.31894866666667,31.431894120238248,71.6057502102349,3.0,251.0,0.0,9.95703125,-42.9296875,13.4921875,3.1171875,-0.193359375,1.498046875,-0.75,-10.4140625,1.76171875,2.0
3495801,,,,,,,,1.73828125,-10.66796875,-0.5078125,-2.45703125,-1.5703125,0.689453125,-3.6640625,-8.88671875,1.609375,2.0
3495802,,,,,,,,-0.8515625,-8.875,-0.41015625,-2.447265625,-1.412109375,0.857421875,-5.5390625,-8.26953125,2.3359375,2.0
3495803,,,,,,,,-2.578125,-8.62109375,0.33203125,-1.986328125,-1.189453125,1.125,-6.57421875,-7.3125,2.6796875,2.0
3495804,,,,,,,,-3.3515625,-6.640625,0.23046875,-1.6484375,-0.904296875,1.013671875,-6.6484375,-5.39453125,2.296875,2.0
3495805,,,,,,,,-3.28515625,-4.51953125,-0.4609375,-1.43359375,-0.6015625,0.75390625,-6.34375,-3.2890625,1.33984375,2.0
3495806,,,,,,,,-2.9921875,-2.265625,-1.25,-1.349609375,-0.451171875,0.615234375,-6.26953125,-2.1015625,1.1484375,2.0
3495807,,,,,,,,-2.56640625,-0.02734375,-1.45703125,-1.171875,-0.234375,0.4609375,-5.8046875,0.08203125,0.95703125,2.0
3495808,,,,,,,,-1.40234375,3.63671875,-1.75,-0.859375,-0.181640625,0.462890625,-4.62109375,3.68359375,0.6875,2.0
3495809,,,,,,,,-0.34375,4.41796875,-1.87890625,-0.275390625,-0.169921875,0.466796875,-3.546875,4.41015625,0.57421875,2.0
3496230,36.01302633333333,129.31897916666668,34.18144182130547,69.49753487353759,3.1,38.0,,9.5546875,-38.72265625,-5.77734375,2.189453125,-0.16015625,-0.939453125,0.20703125,-4.96875,-2.64453125,2.0
3496231,,,,,,,,19.359375,-72.51171875,18.8125,0.642578125,-0.251953125,0.939453125,19.359375,-72.51171875,28.61328125,2.0
3496232,,,,,,,,10.43359375,-32.2890625,6.48046875,0.318359375,-0.048828125,1.12109375,10.43359375,-32.29296875,16.27734375,2.0
3496233,,,,,,,,-1.5546875,-18.99609375,-5.08984375,1.390625,-0.15625,0.640625,-1.5546875,-18.99609375,4.7109375,2.0
3496234,,,,,,,,-11.66796875,-12.63671875,-7.6953125,3.345703125,0.41015625,-3.064453125,-11.66796875,-12.6328125,2.10546875,2.0
3496235,,,,,,,,-6.34375,-17.921875,-14.24609375,2.14453125,0.40234375,-4.3984375,-6.34375,-17.92578125,-4.4453125,2.0
3496236,,,,,,,,-2.3203125,-17.76953125,-13.9375,2.064453125,1.708984375,-1.337890625,-0.67578125,-17.62109375,-3.06640625,2.0
3496237,,,,,,,,0.89453125,-18.34375,-11.6015625,2.6953125,1.87109375,0.59765625,3.69140625,-21.40625,0.49609375,2.0
3496238,,,,,,,,3.69140625,-21.40625,-9.3046875,2.890625,1.970703125,0.900390625,4.7265625,-22.2890625,1.53125,2.0
3496239,,,,,,,,6.87109375,-21.8671875,-5.85546875,3.748046875,2.3359375,0.939453125,7.6015625,-20.6796875,4.7109375,2.0
3496240,36.013028500000004,129.3189808333333,34.33168897462189,69.73794715082234,2.9000000000000004,36.0,,6.52734375,-17.73046875,-5.5859375,4.04296875,2.517578125,0.955078125,5.1875,-16.58203125,3.40625,2.0
3496241,,,,,,,,2.92578125,-14.58984375,-7.76953125,3.62109375,2.677734375,0.427734375,2.16015625,-13.51953125,1.37890625,2.0
3496242,,,,,,,,1.96875,-12.0625,-9.41796875,3.166015625,2.701171875,0.146484375,2.12109375,-11.5234375,0.03515625,2.0
3496243,,,,,,,,2.12109375,-11.5234375,-9.76171875,2.9453125,2.6953125,0.173828125,2.23828125,-10.984375,-0.1171875,2.0
3496244,,,,,,,,2.6953125,-10.64453125,-10.0703125,2.50390625,2.58203125,0.416015625,3.5390625,-9.1484375,-0.65234375,2.0
3496245,,,,,,,,3.73046875,-8.26953125,-10.796875,2.259765625,2.28125,0.84375,4.0390625,-7.46484375,-1.3046875,2.0
3496246,,,,,,,,4.45703125,-6.62109375,-11.1796875,2.1875,1.892578125,1.22265625,5.1875,-4.8203125,-1.03515625,2.0
3496247,,,,,,,,0.84765625,2.7734375,0.5625,2.25,1.416015625,1.791015625,5.4921875,-2.484375,0.23046875,2.0
3496248,36.01303133333333,129.31898099999998,34.346712554017735,70.0523317287222,3.1,24.0,,6.52734375,-17.73046875,-5.5859375,2.283203125,0.59765625,1.130859375,5.53125,1.65234375,0.07421875,2.0
3496249,,,,,,,,1.53515625,8.07421875,-0.10546875,1.798828125,0.484375,0.466796875,6.26171875,1.5,-0.84375,2.0
3496250,,,,,,,,2.37109375,7.4296875,-1.01953125,1.388671875,0.3125,0.115234375,6.8671875,0.734375,-1.2265625,2.0
3496251,,,,,,,,2.8671875,6.4140625,-1.42578125,1.06640625,0.0546875,0.025390625,7.40625,-0.64453125,-1.6484375,2.0
3496252,,,,,,,,2.8828125,5.046875,-1.8203125,0.68359375,-0.134765625,0.08984375,5.83984375,-0.9921875,-1.265625,2.0
3496253,,,,,,,,0.64453125,4.890625,-0.83984375,-0.076171875,-0.193359375,0.2421875,3.84375,-0.60546875,-0.078125,2.0
3496254,,,,,,,,-0.53125,5.04296875,-0.1796875,-0.623046875,-0.171875,0.326171875,1.39453125,0.16015625,1.640625,2.0
3496255,,,,,,,,-9.44140625,7.3515625,10.953125,-1.8125,-0.060546875,0.365234375,-7.0703125,2.53515625,12.1015625,2.0
3496256,,,,,,,,-12.09765625,7.921875,11.4296875,-2.9140625,0.111328125,0.130859375,-7.4921875,2.765625,9.3046875,2.0
3496257,,,,,,,,-10.7109375,8.82421875,5.41796875,-1.791015625,0.421875,-0.36328125,-5.921875,4.3359375,3.5234375,2.0
3496258,36.013034,129.31898166666667,34.40681063058253,70.34822327692443,3.2,17.0,,6.52734375,-17.73046875,-5.5859375,2.283203125,0.59765625,1.130859375,-4.43359375,3.8359375,0.6875,2.0
3496259,,,,,,,,-8.51953125,5.1796875,0.53125,0.30859375,0.29296875,-0.486328125,-5.15625,-2.7890625,1.26171875,2.0
3496260,,,,,,,,-10.30859375,-4.12890625,1.671875,0.271484375,0.283203125,0.1171875,-8.03125,-14.97265625,2.83203125,2.0
3496261,,,,,,,,-14.0546875,-39.64453125,10.33203125,0.873046875,0.203125,1.763671875,-10.7109375,-43.81640625,10.87890625,2.0
3496262,,,,,,,,-19.38671875,-63.265625,14.86328125,2.1796875,0.1640625,2.26953125,-16.45703125,-67.80078125,15.66796875,2.0
3496263,,,,,,,,-10.26953125,-34.85546875,25.5703125,4.43359375,-0.21875,1.837890625,-7.80078125,-39.9453125,26.8125,2.0
3496264,,,,,,,,7.66015625,-5.6875,-4.03515625,3.939453125,-0.3125,0.513671875,9.74609375,-11.296875,-2.26171875,2.0
3496265,,,,,,,,11.61328125,-2.7265625,-7.24609375,4.126953125,0.462890625,-4.169921875,13.57421875,-8.7265625,-4.98046875,2.0
3496266,,,,,,,,9.36328125,-7.953125,-2.88671875,2.751953125,0.486328125,-4.10546875,11.62109375,-14.32421875,0.03515625,2.0
3496267,,,,,,,,5.7890625,-10.4765625,2.16796875,0.267578125,0.205078125,-1.029296875,8.2109375,-17.15625,5.36328125,2.0
3496268,36.013036166666666,129.31898183333334,34.42183449917394,70.58863502753982,2.4000000000000004,14.0,,3.5,-14.94921875,5.46484375,2.283203125,0.59765625,1.130859375,5.9140625,-22.09765625,8.76953125,2.0
3496269,,,,,,,,1.5625,-13.19921875,4.0390625,-1.572265625,0.12109375,2.578125,3.84375,-20.91015625,7.390625,2.0
3496270,,,,,,,,1.0234375,-5.29296875,-1.4765625,-1.16015625,-0.611328125,0.59765625,3.15625,-13.78515625,1.9140625,2.0
3496271,,,,,,,,0.40234375,-2.6328125,-3.20703125,-0.5859375,-1.025390625,-0.259765625,2.58203125,-11.5625,0.19140625,2.0
3496272,,,,,,,,-1.36328125,-1.1640625,-2.44921875,-0.056640625,-1.1171875,-0.025390625,0.89453125,-10.45703125,0.95703125,2.0
3496273,,,,,,,,-5.3359375,2.00390625,-2.01171875,-0.208984375,-0.548828125,1.392578125,-3.1640625,-7.88671875,1.41796875,2.0
3496274,,,,,,,,-6.375,4.5625,-2.78515625,-0.443359375,-0.203125,1.568359375,-4.390625,-5.58984375,0.61328125,2.0
3496275,,,,,,,,-6.79296875,6.28125,-2.96875,-0.484375,0.099609375,1.53125,-5.04296875,-4.0546875,0.3828125,2.0
3496276,,,,,,,,-7.4296875,8.703125,-3.12890625,-0.4140625,0.42578125,1.541015625,-5.96484375,-1.7578125,0.15234375,2.0
3496277,,,,,,,,-7.34765625,9.9375,-3.18359375,-0.248046875,0.681640625,1.54296875,-6.1875,-0.5703125,0.03515625,2.0
3496278,36.013038333333334,129.31898099999998,34.34670951734915,70.82904642581703,2.6,2.0,,-6.61328125,11.83203125,-3.546875,0.0625,0.861328125,1.5234375,-5.8046875,1.34765625,-0.3828125,2.0
3496279,,,,,,,,-6.05859375,12.2890625,-3.640625,0.234375,0.923828125,1.46875,-5.42578125,1.84375,-0.5,2.0
3496280,,,,,,,,-5.37890625,12.75390625,-3.546875,0.400390625,0.921875,1.423828125,-4.921875,2.37890625,-0.421875,2.0
3496281,,,,,,,,-2.828125,13.0703125,-3.6015625,0.828125,0.662109375,1.216796875,-2.859375,2.9921875,-0.5,2.0
3496282,,,,,,,,-1.57421875,11.60546875,-3.8671875,1.029296875,0.501953125,1.1484375,-1.7421875,1.65234375,-0.765625,2.0
3496283,,,,,,,,-0.70703125,9.6171875,-4.26171875,1.23046875,0.33984375,1.08203125,-1.01953125,-0.1875,-1.15234375,2.0
3496284,,,,,,,,-0.4375,8.62890625,-4.3828125,1.38671875,0.205078125,1.0234375,-0.8671875,-1.02734375,-1.265625,2.0
3496285,,,,,,,,-0.21875,7.5234375,-4.4765625,1.513671875,0.103515625,0.9765625,-0.75,-1.984375,-1.34375,2.0
3496286,,,,,,,,-0.91796875,4.4765625,-3.02734375,1.85546875,-0.13671875,0.90625,-1.74609375,-4.55859375,0.15234375,2.0
3496287,,,,,,,,-1.5625,4.0546875,-1.7109375,1.9375,-0.228515625,0.865234375,-2.4765625,-4.82421875,1.4921875,2.0
3496288,36.01304066666667,129.31897983333334,34.24153485881709,71.08795091442356,2.8000000000000003,349.0,,-1.94140625,5.1171875,-0.4453125,0.0625,0.861328125,1.5234375,-5.8046875,1.34765625,-0.3828125,2.0
3496289,,,,,,,,-1.9609375,6.80078125,-0.05078125,2.341796875,-0.439453125,0.03125,-3.125,-1.44921875,3.29296875,2.0
3496290,,,,,,,,-1.80078125,9.3515625,-0.65625,2.62890625,-0.337890625,-0.724609375,-3.0078125,1.421875,2.796875,2.0
3496291,,,,,,,,-1.36328125,11.578125,-2.8203125,2.796875,-0.078125,-1.63671875,-2.55078125,4.1796875,0.8046875,2.0
3496292,,,,,,,,-1.51953125,11.7421875,-2.87109375,2.66015625,0.099609375,-1.759765625,-2.66796875,4.72265625,0.83984375,2.0
3496293,,,,,,,,-2.34765625,9.3125,-0.48046875,2.50390625,0.287109375,-1.5078125,-3.46875,2.6875,3.29296875,2.0
3496294,,,,,,,,1.4609375,-0.75390625,-7.61328125,2.6484375,0.484375,-1.06640625,0.3203125,-7.00390625,-3.79296875,2.0
3496295,,,,,,,,1.234375,-13.41796875,-5.00390625,3.291015625,0.4296875,-0.369140625,0.0546875,-19.33984375,-1.15234375,2.0
3496296,,,,,,,,21.30859375,-57.21875,17.31640625,2.1484375,-0.6171875,1.359375,20.05078125,-63.01171875,21.22265625,2.0
3496297,,,,,,,,25.82421875,-25.81640625,15.25,1.84375,-0.419921875,0.845703125,24.68359375,-31.90234375,19.34375,2.0
3496298,,,,,,,,25.82421875,-25.81640625,15.25,1.84375,-0.419921875,0.845703125,24.68359375,-31.90234375,19.34375,2.0
3496299,,,,,,,,25.82421875,-25.81640625,15.25,1.84375,-0.419921875,0.845703125,24.68359375,-31.90234375,19.34375,2.0
3496300,36.01304283333333,129.31897949999998,34.21148430755079,71.32836248878404,2.6,348.0,0.0,9.0859375,-15.23046875,-1.97265625,2.7578125,-0.3359375,-0.80078125,8.2109375,-21.71484375,2.41015625,2.0
3496301,,,,,,,,-6.08984375,-2.08984375,-5.66796875,3.009765625,0.697265625,-3.888671875,-6.57421875,-8.91796875,-0.95703125,2.0
3496302,,,,,,,,-4.23828125,-9.1875,-7.09765625,1.068359375,0.93359375,-3.830078125,-4.27734375,-16.3515625,-2.18359375,2.0
3496303,,,,,,,,1.78125,-10.58203125,-5.5234375,1.98828125,1.765625,-2.173828125,2.046875,-18.07421875,-0.4609375,2.0
3496304,,,,,,,,3.75390625,-13.6640625,-1.2890625,3.203125,1.453125,0.3359375,4.15234375,-21.41015625,3.984375,2.0
3496305,,,,,,,,3.515625,-15.796875,0.3359375,3.783203125,1.255859375,1.896484375,3.8828125,-23.78515625,5.8984375,2.0
3496306,,,,,,,,1.3046875,-12.1640625,-2.36328125,4.041015625,1.388671875,1.998046875,1.625,-20.2578125,3.37109375,2.0
3496307,,,,,,,,-0.2734375,-9.49609375,-4.4921875,3.423828125,1.9765625,1.162109375,-0.0625,-17.80859375,1.5703125,2.0
3496308,,,,,,,,0.05859375,-6.07421875,-5.59375,2.775390625,2.36328125,0.37890625,0.16796875,-14.625,0.7265625,2.0
3496309,,,,,,,,1.69921875,-3.05078125,-5.58984375,2.796875,2.509765625,0.4296875,1.69921875,-11.83203125,0.95703125,2.0
3496310,36.013045000000005,129.31897783333335,34.0612353139212,71.5687735974593,2.4000000000000004,341.0,,2.65625,-1.28515625,-6.41796875,2.875,2.53125,0.83984375,2.4296875,-10.30078125,0.45703125,2.0
3496311,,,,,,,,4.19921875,0.48828125,-7.4296875,2.74609375,2.306640625,0.880859375,3.80859375,-8.609375,-0.3828125,2.0
3496312,,,,,,,,5.59375,1.27734375,-7.6875,2.576171875,2.076171875,0.970703125,5.0703125,-7.8828125,-0.5,2.0
3496313,,,,,,,,6.66796875,2.44140625,-8.6015625,2.583984375,1.845703125,1.224609375,6.02734375,-6.734375,-1.3046875,2.0
3496314,,,,,,,,6.93359375,3.390625,-9.0,2.9609375,1.48046875,1.576171875,6.1796875,-5.7421875,-1.609375,2.0
3496315,,,,,,,,6.765625,5.56640625,-8.7578125,3.12890625,1.205078125,1.890625,5.91796875,-3.44140625,-1.265625,2.0
3496316,,,,,,,,6.4609375,6.484375,-8.4609375,2.9765625,1.109375,1.96875,5.5703125,-2.4453125,-0.921875,2.0
3496317,,,,,,,,5.2265625,8.76171875,-7.5703125,2.326171875,0.923828125,1.873046875,4.265625,0.00390625,0.0,2.0
3496318,,,,,,,,4.5,8.8671875,-7.515625,1.390625,0.765625,1.44140625,3.5,0.2734375,0.0,2.0
3496319,,,,,,,,4.5,6.98046875,-7.14453125,0.61328125,0.630859375,0.857421875,3.5390625,-1.48828125,0.23046875,2.0
3496320,36.01304616666666,129.31897566666666,33.86591233390181,71.69822529119803,2.7,326.0,,5.1796875,5.71484375,-6.30859375,2.875,2.53125,0.83984375,2.4296875,-10.30078125,0.45703125,2.0
3496321,,,,,,,,6.11328125,5.17578125,-5.98828125,0.52734375,0.287109375,0.220703125,5.37890625,-3.05859375,0.99609375,2.0
3496322,,,,,,,,6.59765625,6.3125,-6.37109375,1.052734375,0.2265625,0.0546875,6.02734375,-1.7578125,0.45703125,2.0
3496323,,,,,,,,6.75,9.2734375,-6.265625,1.439453125,0.158203125,-0.12890625,6.37890625,1.421875,0.421875,2.0
3496324,,,,,,,,5.02734375,10.75,-4.953125,1.10546875,0.0625,-0.29296875,4.87890625,3.1484375,1.609375,2.0
3496325,,,,,,,,1.73046875,12.8125,-3.34375,-0.291015625,-0.076171875,-0.533203125,1.81640625,5.44921875,3.0234375,2.0
3496326,,,,,,,,-4.94140625,10.9765625,3.0234375,-1.5390625,-0.044921875,-0.779296875,-4.62109375,3.796875,9.1171875,2.0
3496327,,,,,,,,-8.8984375,5.90234375,2.00390625,-2.16015625,0.384765625,-0.923828125,-8.3359375,-1.02734375,7.66015625,2.0
3496328,,,,,,,,-8.171875,-3.86328125,1.87890625,0.095703125,0.533203125,-0.17578125,-7.5703125,-10.6015625,7.35546875,2.0
3496329,,,,,,,,-4.00390625,-30.86328125,7.1953125,1.73828125,0.673828125,1.32421875,-3.47265625,-37.45703125,12.6796875,2.0
3496330,36.013048000000005,129.31897333333333,33.655564272601886,71.90164976111629,2.4000000000000004,317.0,,-10.91015625,-57.44140625,15.97265625,2.91796875,0.666015625,2.84765625,-10.59765625,-64.0390625,21.60546875,2.0
3496331,,,,,,,,-11.4765625,-45.68359375,11.18359375,3.708984375,0.484375,2.16796875,-11.4765625,-52.5078125,17.12109375,2.0
3496332,,,,,,,,5.65625,-11.609375,-0.9140625,2.759765625,-0.0703125,-0.294921875,5.453125,-18.73046875,5.3984375,2.0
3496333,,,,,,,,8.38671875,-4.41796875,-8.109375,1.765625,-0.234375,-1.669921875,8.17578125,-11.71484375,-1.6484375,2.0
3496334,,,,,,,,10.00390625,-2.6640625,-9.05078125,3.494140625,0.357421875,-5.212890625,10.16796875,-10.37890625,-2.22265625,2.0
3496335,,,,,,,,13.1875,-6.15625,-0.24609375,2.703125,0.166015625,-4.21484375,13.8046875,-14.015625,6.85546875,2.0
3496336,,,,,,,,10.140625,-13.3984375,3.11328125,1.0546875,0.19921875,-1.26953125,11.125,-21.484375,10.41796875,2.0
3496337,,,,,,,,7.77734375,-15.61328125,1.703125,-0.560546875,-0.0390625,1.068359375,8.94140625,-24.0859375,9.078125,2.0
3496338,,,,,,,,6.88671875,-13.06640625,0.3984375,-0.74609375,-0.19140625,1.43359375,8.09765625,-21.79296875,7.7734375,2.0
3496339,,,,,,,,7.23046875,-8.54296875,-1.40625,-0.75390625,-0.6640625,1.08203125,8.55859375,-17.76953125,5.9375,2.0
3496340,36.0130495,129.31897066666667,33.41516675248306,72.06808770802054,2.5,306.0,,6.703125,-3.1484375,-1.99609375,2.91796875,0.666015625,2.84765625,8.25,-12.828125,5.28515625,2.0
3496341,,,,,,,,3.92578125,-0.78125,-1.3515625,-0.091796875,-1.5,0.150390625,5.76171875,-10.83984375,5.8984375,2.0
3496342,,,,,,,,-0.53125,-0.3359375,-1.59765625,-0.423828125,-1.546875,0.34765625,1.5859375,-10.72265625,5.58984375,2.0
3496343,,,,,,,,-2.88671875,-0.015625,-3.1953125,-1.111328125,-1.318359375,0.419921875,-0.55859375,-10.71875,3.8671875,2.0
3496344,,,,,,,,-5.3359375,2.00390625,-5.8046875,-1.5390625,-1.029296875,0.44921875,-2.859375,-9.03125,1.03125,2.0
3496345,,,,,,,,-6.921875,4.20703125,-5.19140625,-1.529296875,-0.78515625,0.708984375,-4.390625,-7.1171875,1.37890625,2.0
3496346,,,,,,,,-7.3203125,5.26953125,-5.18359375,-1.5234375,-0.625,0.91015625,-4.8125,-6.1953125,1.22265625,2.0
3496347,,,,,,,,-7.5625,7.05078125,-5.21484375,-1.46484375,-0.3125,1.2265625,-5.15625,-4.62890625,0.91796875,2.0
3496348,,,,,,,,-7.44921875,11.19140625,-4.984375,-1.119140625,0.080078125,1.203125,-5.34765625,-0.68359375,0.7265625,2.0
3496349,,,,,,,,-6.77734375,13.265625,-4.16796875,-0.734375,0.197265625,1.171875,-4.921875,1.3828125,1.30078125,2.0
3496350,36.013049333333335,129.31896783333335,33.15974513456942,72.0495935322183,2.8000000000000003,289.0,,-5.2109375,15.00390625,-4.01953125,2.91796875,0.666015625,2.84765625,8.25,-12.828125,5.28515625,2.0
3496351,,,,,,,,-3.86328125,15.390625,-4.23046875,0.314453125,0.279296875,0.87109375,-2.55078125,3.80078125,0.91796875,2.0
3496352,,,,,,,,-3.61328125,14.7734375,-4.328125,0.5703125,0.123046875,0.580078125,-2.51171875,3.45703125,0.7265625,2.0
3496353,,,,,,,,-3.16015625,12.1484375,-4.47265625,0.541015625,-0.080078125,0.37109375,-2.24609375,1.15625,0.49609375,2.0
3496354,,,,,,,,-2.703125,9.49609375,-4.4921875,0.611328125,-0.18359375,0.255859375,-1.94140625,-1.14453125,0.3828125,2.0
3496355,,,,,,,,-2.2265625,7.30859375,-4.90625,0.953125,-0.28515625,0.201171875,-1.59375,-2.9765625,-0.1171875,2.0
3496356,,,,,,,,-1.45703125,8.1953125,-4.97265625,1.470703125,-0.330078125,0.166015625,-0.94140625,-1.72265625,-0.23046875,2.0
3496357,,,,,,,,-1.42578125,9.26171875,-4.19140625,1.79296875,-0.240234375,0.14453125,-1.01953125,-0.26171875,0.53515625,2.0
3496358,,,,,,,,-2.88671875,10.69140625,-0.8359375,1.4296875,-0.126953125,-0.021484375,-2.62890625,1.76953125,3.8671875,2.0
3496359,,,,,,,,-3.05859375,10.859375,-1.6015625,1.203125,-0.033203125,-0.28125,-2.89453125,2.34375,3.0625,2.0
3496360,36.0130495,129.31896483333333,32.889298570335605,72.06808572368958,2.8000000000000003,280.0,,-3.3828125,10.7890625,-3.015625,1.57421875,0.16796875,-0.55859375,-3.28125,2.6875,1.609375,2.0
3496361,,,,,,,,-4.0234375,8.71875,-2.91796875,1.6328125,0.326171875,-0.611328125,-4.0078125,1.0390625,1.68359375,2.0
3496362,,,,,,,,-3.4609375,4.8125,-3.8046875,1.611328125,0.44140625,-0.375,-3.546875,-2.4453125,0.765625,2.0
3496363,,,,,,,,-3.09375,-1.8203125,-3.0234375,1.734375,0.482421875,-0.16796875,-3.2421875,-8.88671875,1.53125,2.0
3496364,,,,,,,,-1.49609375,-12.53515625,-0.1640625,2.0234375,0.40625,0.306640625,-1.78515625,-19.2578125,4.3671875,2.0
3496365,,,,,,,,8.6484375,-36.94921875,11.578125,2.19921875,0.12109375,0.736328125,8.2109375,-43.46875,16.125,2.0
3496366,,,,,,,,19.29296875,-42.296875,12.94921875,2.97265625,-0.18359375,0.998046875,18.78515625,-48.80078125,17.62109375,2.0
3496367,,,,,,,,9.9921875,-14.24609375,2.73046875,3.279296875,0.236328125,0.10546875,9.515625,-20.8671875,7.62109375,2.0
3496368,,,,,,,,1.234375,-10.19921875,1.234375,3.095703125,0.470703125,-0.8515625,0.8203125,-16.8828125,6.2421875,2.0
3496369,,,,,,,,-2.6875,-10.53125,-0.80078125,1.7734375,0.435546875,-3.15234375,-2.78125,-17.5,4.51953125,2.0
3496370,36.013050666666665,129.318962,32.633876399408635,72.19753721991326,2.5,281.0,,2.5078125,-18.01953125,0.56640625,1.57421875,0.16796875,-0.55859375,-3.28125,2.6875,1.609375,2.0
3496371,,,,,,,,3.83203125,-19.07421875,3.2890625,3.28515625,1.11328125,0.2734375,4.07421875,-26.5390625,9.0390625,2.0
3496372,,,,,,,,4.1328125,-15.328125,1.53515625,3.09375,1.390625,0.357421875,4.3828125,-23.05859375,7.58203125,2.0
3496373,,,,,,,,2.8984375,-10.55078125,-2.72265625,2.81640625,1.623046875,-0.328125,3.15625,-18.53515625,3.63671875,2.0
3496374,,,,,,,,2.1015625,-6.875,-3.69921875,3.0703125,1.814453125,-0.46875,2.390625,-15.125,2.94921875,2.0
3496375,,,,,,,,2.0078125,-5.234375,-4.234375,3.2109375,1.97265625,-0.2578125,2.3125,-13.671875,2.71875,2.0
3496376,,,,,,,,2.171875,-3.56640625,-4.96875,3.19921875,2.080078125,0.064453125,2.4296875,-12.13671875,2.296875,2.0
3496377,,,,,,,,2.38671875,-2.29296875,-5.3046875,3.017578125,2.0859375,0.36328125,2.58203125,-10.98828125,2.21875,2.0
3496378,,,,,,,,2.984375,-1.91796875,-5.32421875,2.765625,1.98828125,0.525390625,3.078125,-10.68359375,2.44921875,2.0
3496379,,,,,,,,5.1171875,-0.58984375,-5.01953125,2.50390625,1.85546875,0.501953125,5.109375,-9.41796875,2.94921875,2.0
3496380,36.01304983333333,129.31895883333334,32.34840544749093,72.1050701286064,3.1,272.0,,6.55078125,0.33203125,-5.1015625,1.57421875,0.16796875,-0.55859375,6.48828125,-8.53515625,3.0234375,2.0
3496381,,,,,,,,7.1953125,3.07421875,-7.01953125,2.30078125,1.228515625,0.181640625,7.140625,-5.81640625,1.22265625,2.0
3496382,,,,,,,,6.7109375,6.87890625,-8.94140625,2.556640625,0.8125,0.00390625,6.71875,-1.94921875,-0.57421875,2.0
3496383,,,,,,,,5.27734375,9.75,-9.61328125,2.703125,0.431640625,0.076171875,5.07421875,2.03515625,-1.3046875,2.0
3496384,,,,,,,,3.578125,12.91015625,-9.890625,2.4140625,0.298828125,0.271484375,3.15625,4.90625,-1.1875,2.0
3496385,,,,,,,,1.9453125,13.59765625,-9.421875,1.65625,0.25390625,0.33984375,1.39453125,5.33203125,0.0,2.0
3496386,,,,,,,,0.94140625,13.46484375,-8.5234375,1.189453125,0.19921875,0.296875,1.125,4.87109375,0.49609375,2.0
3496387,,,,,,,,0.6015625,11.8046875,-7.39453125,0.505859375,0.05859375,0.201171875,1.39453125,2.609375,1.37890625,2.0
3496388,,,,,,,,1.48046875,8.0625,-6.47265625,0.42578125,-0.033203125,0.060546875,2.3515625,-0.1875,1.68359375,2.0
3496389,,,,,,,,1.81640625,7.05859375,-6.31640625,0.833984375,-0.029296875,-0.033203125,2.54296875,-0.37890625,1.80078125,2.0
3496390,36.01304883333333,129.3189555,32.04790974921479,71.99410978457638,3.3000000000000003,262.0,,1.3359375,6.80078125,-5.78125,1.078125,0.13671875,-0.056640625,2.1953125,0.12109375,2.06640625,2.0
3496391,,,,,,,,0.78515625,7.375,-5.3515625,0.701171875,0.330078125,-0.130859375,0.7421875,1.8046875,2.1796875,2.0
3496392,,,,,,,,-0.8203125,8.93359375,-5.35546875,0.353515625,0.5390625,-0.1953125,-0.29296875,3.4921875,1.22265625,2.0
3496393,,,,,,,,-1.85546875,10.0703125,-6.796875,0.271484375,0.724609375,-0.087890625,-0.67578125,3.87890625,0.11328125,2.0
3496394,,,,,,,,-1.89453125,9.39453125,-6.890625,0.265625,0.732421875,0.142578125,-0.75,3.37890625,-0.1171875,2.0
3496395,,,,,,,,-1.9375,7.94921875,-6.625,0.21875,0.6953125,0.40625,-0.828125,1.9921875,0.23046875,2.0
3496396,,,,,,,,-1.890625,6.65625,-5.9765625,0.142578125,0.646484375,0.630859375,-0.71484375,-0.453125,1.22265625,2.0
3496397,,,,,,,,-1.62890625,0.828125,-3.53125,0.072265625,0.578125,0.818359375,-0.59765625,-4.015625,2.640625,2.0
3496398,,,,,,,,-1.24609375,-6.44140625,0.015625,0.142578125,0.478515625,0.978515625,-0.29296875,-11.06640625,5.9765625,2.0
3496399,,,,,,,,-0.515625,-27.7109375,13.39453125,0.580078125,0.40234375,1.154296875,0.359375,-32.2109375,19.19140625,2.0
3496400,36.013048166666664,129.3189525,31.777463520286922,71.9201359734572,2.9000000000000004,255.0,0.0,1.3359375,6.80078125,-5.78125,1.77734375,0.111328125,1.51953125,2.1953125,0.12109375,2.06640625,2.0
3496401,,,,,,,,6.4375,-38.52734375,4.2890625,2.60546875,-0.248046875,1.4296875,7.1796875,-43.39453125,10.2265625,2.0
3496402,,,,,,,,0.0234375,-11.80859375,5.3046875,1.02734375,-0.26171875,-0.029296875,0.78125,-17.0,11.4140625,2.0
3496403,,,,,,,,0.59765625,-9.421875,2.26171875,-0.154296875,-0.34765625,-0.90234375,1.39453125,-14.82421875,8.42578125,2.0
3496404,,,,,,,,3.87109375,-7.59765625,-2.93359375,-0.58203125,-0.0859375,-3.041015625,4.83984375,-13.4375,3.25390625,2.0
3496405,,,,,,,,9.57421875,-11.53515625,0.58203125,-0.1796875,-0.5703125,-2.38671875,10.81640625,-17.765625,6.77734375,2.0
3496406,,,,,,,,7.296875,-12.34765625,0.5390625,-0.595703125,-0.779296875,0.259765625,8.7890625,-18.9921875,6.7421875,2.0
3496407,,,,,,,,5.0,-9.6875,-1.10546875,-1.88671875,-0.767578125,1.392578125,6.6796875,-17.1171875,4.98046875,2.0
3496408,,,,,,,,3.64453125,-7.98828125,-1.89453125,-2.109375,-0.7734375,1.1640625,5.37890625,-15.69921875,4.09765625,2.0
3496409,,,,,,,,1.41015625,-6.515625,-2.390625,-2.330078125,-1.099609375,0.84375,3.26953125,-14.78125,3.40625,2.0
3496410,36.013047666666665,129.3189495,31.507017222168386,71.86465537787785,2.7,252.0,,-1.43359375,-3.7734375,-1.859375,1.77734375,0.111328125,1.51953125,0.62890625,-12.83203125,3.5234375,2.0
3496411,,,,,,,,-3.51953125,-0.1484375,-2.3515625,-2.56640625,-1.845703125,0.970703125,-1.36328125,-9.6875,2.71875,2.0
3496412,,,,,,,,-4.9921875,1.1640625,-3.28515625,-2.623046875,-1.662109375,0.841796875,-2.78125,-8.80859375,1.41796875,2.0
3496413,,,,,,,,-5.4609375,1.88671875,-3.71875,-2.65625,-1.5390625,0.763671875,-3.2421875,-8.265625,0.8046875,2.0
3496414,,,,,,,,-7.05078125,5.54296875,-3.71484375,-2.61328125,-1.330078125,0.798828125,-4.88671875,-5.08984375,0.19140625,2.0
3496415,,,,,,,,-7.72265625,6.3515625,-3.109375,-2.4609375,-0.9609375,0.9765625,-5.69140625,-4.515625,0.3828125,2.0
3496416,,,,,,,,-8.07421875,7.98828125,-2.88671875,-2.154296875,-0.603515625,1.08984375,-6.23046875,-3.01953125,0.23046875,2.0
3496417,,,,,,,,-7.9921875,9.55859375,-2.32421875,-1.89453125,-0.294921875,1.046875,-6.38671875,-1.52734375,0.45703125,2.0
3496418,,,,,,,,-7.5078125,10.71484375,-1.66015625,-1.765625,-0.1953125,1.0,-6.0390625,-0.37890625,0.95703125,2.0
3496419,,,,,,,,-5.8828125,12.4609375,-1.72265625,-1.263671875,-0.0546875,0.79296875,-4.81640625,1.4609375,0.49609375,2.0
3496420,36.013046,129.31894683333334,31.266620992195882,71.67972244871048,3.0,246.0,,-3.5703125,12.6875,-2.31640625,-0.759765625,-0.181640625,0.509765625,-2.74609375,1.84375,-0.30859375,2.0
3496421,,,,,,,,-2.640625,11.44140625,-2.6171875,-0.310546875,-0.373046875,0.287109375,-2.015625,0.80859375,-0.765625,2.0
3496422,,,,,,,,-2.125,8.65625,-2.82421875,0.201171875,-0.53515625,0.185546875,-1.671875,-1.72265625,-1.07421875,2.0
3496423,,,,,,,,-1.73828125,7.3203125,-2.625,0.673828125,-0.64453125,0.2265625,-1.44140625,-2.7890625,-0.921875,2.0
3496424,,,,,,,,-0.8984375,7.56640625,-1.84375,1.02734375,-0.685546875,0.302734375,-0.75,-2.25,-0.15625,2.0
3496425,,,,,,,,-0.52734375,8.578125,-1.359375,1.09765625,-0.66796875,0.279296875,-0.51953125,-0.95703125,0.34375,2.0
3496426,,,,,,,,-0.3515625,9.78125,-0.78515625,1.064453125,-0.669921875,0.208984375,-0.40625,0.390625,0.91796875,2.0
3496427,,,,,,,,-0.6015625,11.2578125,0.1953125,0.98828125,-0.642578125,-0.03125,-0.75,2.19140625,1.9140625,2.0
3496428,,,,,,,,-1.25390625,11.7265625,1.22265625,0.763671875,-0.345703125,-0.51171875,-1.48046875,3.1484375,2.94921875,2.0
3496429,,,,,,,,-1.7265625,11.59375,1.20703125,0.779296875,-0.095703125,-0.828125,-1.9765625,3.37890625,2.94921875,2.0
3496850,36.013026833333335,129.31897766666668,34.04621831802332,69.5530139694682,2.9000000000000004,43.0,,-5.9609375,-12.55859375,-14.93359375,0.900390625,-0.30859375,-2.462890625,-5.9609375,-12.5546875,-5.1328125,2.0
3496851,,,,,,,,-3.625,-14.359375,-11.296875,2.67578125,1.8515625,0.587890625,-3.625,-14.36328125,-1.49609375,2.0
3496852,,,,,,,,0.359375,-17.078125,-10.22265625,2.3125,1.66015625,1.951171875,0.359375,-17.08203125,-0.421875,2.0
3496853,,,,,,,,3.921875,-17.30859375,-9.91796875,3.458984375,1.697265625,1.8671875,3.921875,-17.30859375,-0.1171875,2.0
3496854,,,,,,,,5.53125,-15.01171875,-7.3125,4.927734375,1.982421875,1.521484375,5.53125,-15.0078125,2.48828125,2.0
3496855,,,,,,,,6.02734375,-13.40234375,-7.6953125,5.029296875,1.994140625,1.333984375,6.02734375,-13.40234375,2.10546875,2.0
3496856,,,,,,,,5.953125,-12.7109375,-8.34375,4.7890625,1.978515625,1.185546875,5.953125,-12.71484375,1.453125,2.0
3496857,,,,,,,,5.41796875,-10.30078125,-10.4921875,3.4375,1.853515625,0.515625,5.41796875,-10.296875,-0.69140625,2.0
3496858,,,,,,,,5.26171875,-7.46484375,-11.41015625,2.607421875,1.64453125,0.390625,5.26171875,-7.46484375,-1.609375,2.0
3496859,,,,,,,,5.109375,-5.703125,-11.6015625,2.029296875,1.376953125,0.576171875,5.109375,-5.70703125,-1.80078125,2.0
3496860,36.01302933333333,129.318979,34.16641571493999,69.8304125415924,3.3000000000000003,33.0,,5.37890625,-3.2890625,-11.71484375,2.201171875,0.8515625,1.287109375,5.4921875,-2.4453125,-1.6875,2.0
3496861,,,,,,,,5.33984375,-1.984375,-11.21875,2.583984375,0.58984375,1.763671875,5.23046875,-1.296875,-1.07421875,2.0
3496862,,,,,,,,4.57421875,0.7734375,-10.3359375,2.673828125,0.34765625,1.970703125,4.5703125,0.7734375,-0.5390625,2.0
3496863,,,,,,,,4.45703125,1.30859375,-10.22265625,2.62109375,0.248046875,1.904296875,4.453125,1.30859375,-0.421875,2.0
3496864,,,,,,,,4.3828125,1.5,-10.3359375,2.296875,0.115234375,1.6015625,4.3828125,1.5,-0.5390625,2.0
3496865,,,,,,,,4.83984375,0.6953125,-10.4921875,1.791015625,-0.064453125,1.208984375,4.83984375,0.6953125,-0.69140625,2.0
3496866,,,,,,,,5.2265625,0.42578125,-10.68359375,0.982421875,-0.46875,0.728515625,5.2265625,0.42578125,-0.8828125,2.0
3496867,,,,,,,,4.34375,1.421875,-10.68359375,0.357421875,-0.642578125,0.39453125,4.34765625,1.421875,-0.8828125,2.0
3496868,,,,,,,,3.04296875,2.45703125,-10.03125,-0.01953125,-0.654296875,0.193359375,3.04296875,2.45703125,-0.23046875,2.0
3496869,,,,,,,,1.625,3.4921875,-9.03515625,-0.755859375,-0.46484375,-0.162109375,1.625,3.49609375,0.765625,2.0
3496870,36.013031833333336,129.31897983333334,34.24153867944523,70.10781093976111,3.1,25.0,,-3.47265625,3.375,-0.9140625,-1.126953125,-0.13671875,-0.40625,-3.47265625,3.375,8.8828125,2.0
3496871,,,,,,,,-4.46875,2.11328125,-1.06640625,-0.9296875,0.169921875,-0.48046875,-4.46875,2.11328125,8.734375,2.0
3496872,,,,,,,,-0.40625,1.65234375,-5.6640625,0.650390625,0.482421875,-0.580078125,-0.40625,1.65234375,4.1328125,2.0
3496873,,,,,,,,0.28125,1.23046875,-6.73828125,1.685546875,0.62890625,-0.552734375,0.28125,1.23046875,3.06640625,2.0
3496874,,,,,,,,-0.13671875,-2.1796875,-6.27734375,2.19921875,0.607421875,-0.1640625,-0.13671875,-2.1796875,3.52734375,2.0
3496875,,,,,,,,-4.12109375,-15.77734375,-6.4296875,1.45703125,0.509765625,0.513671875,-4.12109375,-15.77734375,3.37109375,2.0
3496876,,,,,,,,-8.4140625,-32.44140625,-4.015625,0.5234375,0.607421875,1.359375,-8.4140625,-32.4375,5.78125,2.0
3496877,,,,,,,,-16.6875,-74.00390625,11.34375,0.255859375,0.328125,1.9609375,-16.6875,-74.00390625,21.14453125,2.0
3496878,,,,,,,,-9.4453125,-37.57421875,16.36328125,0.470703125,0.14453125,2.16015625,-9.4453125,-37.5703125,26.1640625,2.0
3496879,,,,,,,,7.8671875,-17.76953125,-2.71484375,2.966796875,-0.34765625,0.443359375,7.8671875,-17.76953125,7.0859375,2.0
3496880,36.01303433333333,129.31898066666665,34.31666163710903,70.38520933871392,2.9000000000000004,22.0,,13.4609375,-7.04296875,-15.125,4.681640625,0.59765625,-4.154296875,-3.47265625,3.375,8.8828125,2.0
3496881,,,,,,,,21.92578125,-12.8671875,-14.3203125,4.60546875,-0.345703125,-5.828125,21.92578125,-12.8671875,-4.5234375,2.0
3496882,,,,,,,,17.29296875,-16.390625,-10.98828125,3.3984375,-0.384765625,-5.255859375,17.2890625,-16.390625,-1.1875,2.0
3496883,,,,,,,,11.390625,-22.2109375,-2.37109375,-1.376953125,-0.103515625,0.283203125,11.390625,-22.2109375,7.4296875,2.0
3496884,,,,,,,,6.21875,-23.171875,0.04296875,-2.06640625,-0.29296875,2.603515625,6.21875,-23.171875,9.84375,2.0
3496885,,,,,,,,1.625,-16.6953125,-5.28125,-0.859375,-0.212890625,1.45703125,1.625,-16.69921875,4.51953125,2.0
3496886,,,,,,,,2.23828125,-11.71484375,-7.9609375,-0.57421875,-0.380859375,0.669921875,2.23828125,-11.71484375,1.8359375,2.0
3496887,,,,,,,,2.62109375,-7.65625,-8.73046875,-0.638671875,-0.890625,-0.1171875,2.62109375,-7.66015625,1.0703125,2.0
3496888,,,,,,,,1.890625,-8.15234375,-8.078125,-0.93359375,-1.01953125,0.15625,1.890625,-8.1484375,1.72265625,2.0
3496889,,,,,,,,1.35546875,-9.45703125,-7.734375,-1.111328125,-1.021484375,0.404296875,1.35546875,-9.453125,2.06640625,2.0
3496890,36.01303666666667,129.31898133333334,34.37675985689579,70.64411447339421,2.6,17.0,,0.20703125,-8.8828125,-8.23046875,-1.203125,-0.80859375,0.99609375,0.20703125,-8.88671875,1.5703125,2.0
3496891,,,,,,,,-0.1015625,-7.6953125,-9.11328125,-0.771484375,-0.67578125,1.599609375,-0.1015625,-7.6953125,0.6875,2.0
3496892,,,,,,,,-1.515625,-4.74609375,-10.453125,-0.31640625,-0.421875,1.947265625,-1.515625,-4.7421875,-0.65234375,2.0
3496893,,,,,,,,-2.16796875,-3.78515625,-10.71875,-0.220703125,-0.275390625,2.015625,-2.16796875,-3.78125,-0.921875,2.0
3496894,,,,,,,,-1.84375,2.4609375,-0.4921875,-0.478515625,0.09765625,1.8828125,-3.89453125,-1.6015625,-1.34375,2.0
3496895,,,,,,,,-2.51953125,4.6015625,-0.3828125,-0.6640625,0.328125,1.71875,-4.66015625,0.6171875,-1.265625,2.0
3496896,,,,,,,,-2.578125,5.92578125,-0.640625,-0.703125,0.580078125,1.61328125,-4.81640625,2.03515625,-1.5703125,2.0
3496897,,,,,,,,-2.3671875,5.88671875,-0.71875,-0.27734375,0.68359375,1.529296875,-4.69921875,2.11328125,-1.6875,2.0
3496898,,,,,,,,-2.20703125,5.5078125,-0.5859375,0.091796875,0.67578125,1.494140625,-4.58203125,1.8046875,-1.5703125,2.0
3496899,,,,,,,,-1.76953125,3.8359375,-0.34375,0.669921875,0.681640625,1.421875,-4.234375,0.2734375,-1.34375,2.0
3496900,36.013039000000006,129.31898016666668,34.27158519347813,70.90301896139599,2.6,4.0,0.0,-1.55859375,1.98046875,0.15625,-1.203125,-0.80859375,0.99609375,0.20703125,-8.88671875,1.5703125,2.0
3496901,,,,,,,,-1.7421875,-0.71875,1.57421875,1.103515625,0.68359375,1.328125,-4.390625,-4.015625,0.57421875,2.0
3496902,,,,,,,,-1.50390625,-1.40234375,2.4609375,1.26171875,0.669921875,1.189453125,-4.23828125,-4.58984375,1.4921875,2.0
3496903,,,,,,,,-1.1953125,-1.22265625,2.72265625,1.38671875,0.671875,1.056640625,-3.96875,-4.359375,1.76171875,2.0
3496904,,,,,,,,1.07421875,1.63671875,3.01953125,2.078125,0.625,0.27734375,-1.78515625,-1.41015625,2.14453125,2.0
3496905,,,,,,,,2.390625,4.0234375,2.2578125,2.65234375,0.30859375,-0.96484375,-0.484375,1.0390625,1.53515625,2.0
3496906,,,,,,,,2.46875,5.75390625,1.98046875,2.642578125,0.08984375,-1.67578125,-0.3671875,2.796875,1.37890625,2.0
3496907,,,,,,,,1.5234375,6.859375,1.82421875,2.376953125,0.099609375,-2.099609375,-1.25,3.95703125,1.33984375,2.0
3496908,,,,,,,,1.0625,7.01171875,1.73046875,2.203125,0.15625,-2.177734375,-1.671875,4.140625,1.30078125,2.0
3496909,,,,,,,,-1.56640625,5.0390625,4.21875,1.923828125,0.33203125,-1.7421875,-4.19921875,2.3046875,3.9453125,2.0
3496910,36.01304116666667,129.31898,34.25655944938916,71.14343059376404,2.6,358.0,,0.35546875,-0.6953125,-2.3515625,1.9765625,0.376953125,-0.939453125,0.20703125,-8.88671875,1.5703125,2.0
3496911,,,,,,,,3.20703125,-14.5546875,-1.42578125,2.57421875,0.328125,0.0546875,0.62890625,-17.12109375,-1.53515625,2.0
3496912,,,,,,,,5.57421875,-50.890625,3.21875,1.251953125,-0.1796875,1.333984375,3.00390625,-53.5078125,3.1796875,2.0
3496913,,,,,,,,16.2890625,-69.39453125,37.32421875,0.419921875,-0.20703125,0.708984375,13.765625,-72.3515625,37.42578125,2.0
3496914,,,,,,,,21.55078125,-32.82421875,27.2578125,0.794921875,-0.25390625,-0.517578125,19.20703125,-36.421875,27.6953125,2.0
3496915,,,,,,,,-1.41015625,-11.19140625,-0.82421875,6.4921875,-0.203125,-2.74609375,-3.47265625,-15.4296875,0.07421875,2.0
3496916,,,,,,,,-6.66015625,-6.6640625,-1.296875,6.1015625,0.236328125,-5.033203125,-8.52734375,-11.21875,-0.1171875,2.0
3496917,,,,,,,,-5.62890625,-11.328125,-4.00390625,1.67578125,1.25,-3.921875,-6.87890625,-16.734375,-2.18359375,2.0
3496918,,,,,,,,1.55859375,-13.6875,-4.953125,1.978515625,2.19921875,-1.796875,0.55078125,-19.609375,-2.875,2.0
3496919,,,,,,,,7.42578125,-14.18359375,-1.43359375,3.197265625,1.72265625,-0.130859375,6.56640625,-20.5625,0.95703125,2.0
3496920,36.013043333333336,129.31897966666665,34.226508897501816,71.38384216870918,2.2,357.0,,9.8359375,-19.64453125,6.6328125,3.978515625,1.521484375,0.87109375,9.09375,-26.46484375,9.421875,2.0
3496921,,,,,,,,5.8984375,-13.8203125,-1.82421875,3.640625,1.724609375,0.908203125,5.2265625,-21.0625,1.41796875,2.0
3496922,,,,,,,,4.8828125,-9.71484375,-1.90234375,2.951171875,2.1875,0.150390625,4.3046875,-17.3828125,1.72265625,2.0
3496923,,,,,,,,5.1171875,-4.875,-4.59375,3.251953125,1.841796875,0.001953125,4.6875,-13.09765625,-0.3828125,2.0
3496924,,,,,,,,5.046875,-3.46875,-5.26953125,3.10546875,1.759765625,-0.060546875,4.7265625,-11.984375,-0.69140625,2.0
3496925,,,,,,,,4.83203125,-1.12109375,-3.94921875,2.845703125,1.689453125,0.36328125,4.61328125,-9.875,0.95703125,2.0
3496926,,,,,,,,4.84375,-0.7109375,-3.8671875,2.6796875,1.64453125,0.65234375,4.6484375,-9.5703125,1.1875,2.0
3496927,,,,,,,,5.1953125,-0.00390625,-4.5625,2.474609375,1.455078125,0.962890625,5.03125,-9.03125,0.765625,2.0
3496928,,,,,,,,5.79296875,1.46875,-5.45703125,2.263671875,1.38671875,1.021484375,5.64453125,-7.6953125,0.11328125,2.0
3496929,,,,,,,,6.16015625,4.0390625,-5.8828125,2.15234375,1.29296875,1.169921875,6.02734375,-5.203125,-0.1171875,2.0
3496930,36.01304483333333,129.31897783333335,34.06123538577411,71.55028039047835,2.6,342.0,,6.23828125,6.58984375,-5.6640625,2.07421875,1.0859375,1.435546875,9.09375,-26.46484375,9.421875,2.0
3496931,,,,,,,,5.3515625,10.3203125,-5.359375,1.84375,0.81640625,1.591796875,5.2265625,1.078125,0.6875,2.0
3496932,,,,,,,,4.3671875,12.1484375,-5.015625,1.51171875,0.552734375,1.41015625,4.26953125,2.9921875,1.109375,2.0
3496933,,,,,,,,3.65625,13.046875,-5.34375,1.3046875,0.484375,1.19140625,3.578125,3.953125,0.8046875,2.0
3496934,,,,,,,,3.5703125,12.62109375,-5.765625,1.0390625,0.404296875,0.587890625,3.578125,3.6796875,0.3828125,2.0
3496935,,,,,,,,3.58984375,9.16015625,-6.42578125,1.013671875,0.392578125,-0.029296875,3.7265625,0.42578125,-0.30859375,2.0
3496936,,,,,,,,3.5,6.80859375,-6.125,1.037109375,0.3828125,-0.546875,3.92578125,-1.56640625,-0.078125,2.0
3496937,,,,,,,,3.3515625,7.37109375,-4.58203125,0.65234375,0.47265625,-0.513671875,3.9609375,-0.76171875,1.37890625,2.0
3496938,,,,,,,,2.921875,8.14453125,-3.87109375,0.255859375,0.509765625,-0.42578125,3.6171875,0.12109375,2.02734375,2.0
3496939,,,,,,,,0.3203125,11.41796875,-1.29296875,-0.8125,0.4765625,-0.279296875,1.1640625,3.60546875,4.44140625,2.0
3496940,36.01304666666667,129.3189755,33.85088731414718,71.75370485486647,2.7,326.0,,-4.4921875,14.07421875,2.13671875,2.07421875,1.0859375,1.435546875,-3.5078125,6.44140625,7.6171875,2.0
3496941,,,,,,,,-4.83203125,12.484375,-0.12109375,-1.859375,0.345703125,-0.384765625,-3.69921875,5.14453125,4.98046875,2.0
3496942,,,,,,,,-4.7421875,10.4296875,-1.35546875,-0.56640625,0.626953125,-0.166015625,-3.5859375,3.375,3.59375,2.0
3496943,,,,,,,,-5.37109375,4.44140625,-1.27734375,0.01953125,0.548828125,0.3203125,-4.234375,-2.29296875,3.59765625,2.0
3496944,,,,,,,,-9.58984375,-6.2734375,5.421875,0.27734375,0.462890625,0.982421875,-8.56640625,-12.7109375,10.265625,2.0
3496945,,,,,,,,-13.5703125,-49.2109375,12.53515625,2.51953125,0.625,2.904296875,-13.0859375,-55.5,17.58203125,2.0
3496946,,,,,,,,-9.75390625,-32.80859375,10.4375,4.93359375,0.595703125,2.2578125,-9.67578125,-39.22265625,15.859375,2.0
3496947,,,,,,,,2.31640625,-14.05078125,2.66796875,3.3828125,0.203125,-0.484375,2.12109375,-20.60546875,8.54296875,2.0
3496948,,,,,,,,5.375,-6.50390625,-6.08203125,1.802734375,0.27734375,-3.623046875,5.1484375,-13.32421875,0.07421875,2.0
3496949,,,,,,,,4.7578125,-1.4375,-5.19140625,2.51171875,0.2421875,-5.318359375,4.765625,-8.4609375,1.22265625,2.0
3496950,36.013048166666664,129.31897333333333,33.65556420156894,71.92014296798797,2.2,317.0,,10.21484375,-2.94921875,-3.68359375,2.185546875,0.033203125,-3.5546875,10.5078125,-10.14453125,2.94921875,2.0
3496951,,,,,,,,10.9453125,-9.765625,-2.8359375,1.5,0.513671875,-0.568359375,11.4296875,-17.1171875,3.984375,2.0
3496952,,,,,,,,9.40625,-16.1875,2.140625,0.412109375,0.185546875,1.46484375,9.9375,-23.82421875,9.078125,2.0
3496953,,,,,,,,8.15625,-16.2578125,2.0546875,-0.2734375,-0.150390625,2.033203125,8.671875,-24.28125,9.0390625,2.0
3496954,,,,,,,,6.171875,-10.50390625,0.61328125,-0.267578125,-0.548828125,1.306640625,6.71875,-18.953125,7.62109375,2.0
3496955,,,,,,,,3.76953125,-3.65234375,-2.99609375,-0.220703125,-1.224609375,0.42578125,4.45703125,-12.515625,4.01953125,2.0
3496956,,,,,,,,2.17578125,-2.26171875,-3.109375,-0.17578125,-1.443359375,0.087890625,2.96484375,-11.328125,3.90625,2.0
3496957,,,,,,,,-1.109375,-0.921875,-3.19140625,-0.314453125,-1.546875,-0.1640625,-0.0625,-10.3359375,3.79296875,2.0
3496958,,,,,,,,-3.08984375,0.36328125,-4.6796875,-0.748046875,-1.537109375,0.083984375,-1.82421875,-9.375,2.21875,2.0
3496959,,,,,,,,-4.171875,1.640625,-5.578125,-1.060546875,-1.177734375,0.37890625,-2.7421875,-8.421875,1.1484375,2.0
3496960,36.013049,129.31897116666667,33.460241378402635,72.01260825769036,2.5,310.0,,-4.94921875,3.26171875,-5.95703125,2.185546875,0.033203125,-3.5546875,-3.47265625,-7.08203125,0.57421875,2.0
3496961,,,,,,,,-5.3671875,4.4375,-5.6875,-0.57421875,-0.744140625,1.26171875,-3.9296875,-6.125,0.6484375,2.0
3496962,,,,,,,,-5.52734375,5.8125,-5.29296875,0.0078125,-0.263671875,1.767578125,-4.35546875,-4.24609375,0.7265625,2.0
3496963,,,,,,,,-5.828125,8.3046875,-5.3515625,0.1953125,0.23046875,1.90234375,-5.00390625,-1.41015625,0.7265625,2.0
3496964,,,,,,,,-5.97265625,12.05078125,-4.97265625,0.1796875,0.419921875,1.796875,-5.15625,1.30859375,1.1875,2.0
3496965,,,,,,,,-5.18359375,13.51953125,-4.6875,0.22265625,0.515625,1.5703125,-4.5390625,3.30078125,1.03125,2.0
3496966,,,,,,,,-4.68359375,13.90234375,-4.625,0.3515625,0.53125,1.423828125,-4.15625,3.76171875,0.83984375,2.0
3496967,,,,,,,,-3.69921875,14.16015625,-5.07421875,0.748046875,0.455078125,1.00390625,-3.85546875,3.33984375,0.45703125,2.0
3496968,,,,,,,,-3.984375,11.72265625,-4.40625,1.123046875,0.310546875,0.64453125,-4.5390625,0.46484375,1.30078125,2.0
3496969,,,,,,,,-4.01171875,8.9921875,-3.99609375,1.505859375,0.310546875,0.40625,-4.734375,-1.6796875,1.26171875,2.0
3496970,36.01304916666666,129.31896833333334,33.2048196191436,72.0311004952845,2.6,293.0,,-3.32421875,6.83203125,-5.20703125,1.927734375,0.2890625,0.16796875,-4.12109375,-2.59765625,0.15234375,2.0
3496971,,,,,,,,-1.453125,7.0,-6.1015625,2.537109375,0.23046875,0.06640625,-2.40234375,-2.0625,-0.765625,2.0
3496972,,,,,,,,-0.32421875,7.3671875,-5.8203125,2.8671875,0.13671875,0.0234375,-1.40234375,-1.296875,-0.4609375,2.0
3496973,,,,,,,,0.2734375,8.1015625,-5.46875,2.95703125,0.02734375,0.005859375,-0.91015625,-0.1484375,-0.078125,2.0
3496974,,,,,,,,0.97265625,8.8671875,-5.17578125,2.943359375,0.005859375,-0.04296875,-0.29296875,1.0390625,0.23046875,2.0
3496975,,,,,,,,1.3359375,9.08203125,-5.0,2.630859375,0.126953125,-0.125,0.015625,1.6875,0.421875,2.0
3496976,,,,,,,,1.3203125,9.515625,-4.6171875,2.4140625,0.197265625,-0.177734375,-0.0234375,2.34765625,0.8046875,2.0
3496977,,,,,,,,1.3359375,8.53125,-3.3203125,1.998046875,0.32421875,-0.271484375,-0.0625,1.9609375,1.9921875,2.0
3496978,,,,,,,,0.9453125,-0.59765625,-3.35546875,1.9609375,0.4453125,-0.21875,-0.484375,-6.62109375,1.80078125,2.0
3496979,,,,,,,,2.38671875,-20.64453125,0.0078125,2.34765625,0.359375,0.056640625,0.93359375,-26.38671875,5.09375,2.0
3496980,36.0130505,129.31896566666668,32.96442218101252,72.17904524691512,2.6,294.0,,18.19140625,-44.52734375,14.11328125,2.634765625,-0.03515625,0.740234375,16.75390625,-50.17578125,19.19140625,2.0
3496981,,,,,,,,27.18359375,-32.50390625,9.09765625,3.56640625,-0.0859375,1.166015625,25.87109375,-38.26171875,14.32421875,2.0
3496982,,,,,,,,14.5234375,-18.734375,-3.9453125,2.654296875,0.017578125,0.083984375,13.421875,-24.703125,1.453125,2.0
3496983,,,,,,,,3.3046875,-11.29296875,-2.17578125,2.8359375,0.14453125,-1.474609375,2.3515625,-17.38671875,3.29296875,2.0
3496984,,,,,,,,-2.87890625,-9.82421875,-0.9375,1.404296875,0.12109375,-3.58203125,-3.43359375,-16.1953125,4.671875,2.0
3496985,,,,,,,,-1.4609375,-11.5390625,-0.2109375,0.7109375,0.50390625,-3.478515625,-1.59375,-18.265625,5.4375,2.0
3496986,,,,,,,,1.50390625,-16.0625,1.57421875,2.98046875,1.107421875,-1.11328125,1.66015625,-23.09375,7.35546875,2.0
3496987,,,,,,,,4.26171875,-17.390625,-2.28515625,3.5703125,1.21484375,0.505859375,4.53515625,-24.6640625,3.75390625,2.0
3496988,,,,,,,,6.17578125,-14.4296875,-2.66015625,2.98046875,1.484375,0.224609375,6.52734375,-21.98828125,3.63671875,2.0
3496989,,,,,,,,6.02734375,-10.23828125,-2.40234375,2.7734375,1.6953125,0.03515625,6.44921875,-18.0703125,4.13671875,2.0
3496990,36.01305133333334,129.31896283333333,32.70900015021644,72.2715103278955,2.5,290.0,,5.0390625,-6.15234375,-3.87109375,2.634765625,-0.03515625,0.740234375,5.53125,-14.2421875,2.91015625,2.0
3496991,,,,,,,,4.44140625,-3.85546875,-4.6796875,2.62890625,2.01953125,-0.111328125,4.99609375,-12.17578125,2.3359375,2.0
3496992,,,,,,,,4.578125,-2.625,-6.26171875,2.501953125,1.962890625,0.009765625,5.1875,-11.14453125,0.95703125,2.0
3496993,,,,,,,,4.71484375,-2.42578125,-6.76953125,2.470703125,1.91015625,0.11328125,5.33984375,-11.02734375,0.53515625,2.0
3496994,,,,,,,,5.6796875,-2.4375,-6.7890625,2.458984375,1.806640625,0.4140625,6.3359375,-11.1796875,0.6875,2.0
3496995,,,,,,,,6.32421875,-1.875,-5.98828125,2.458984375,1.650390625,0.873046875,6.98828125,-10.71875,1.64453125,2.0
3496996,,,,,,,,5.2578125,1.296875,-5.80859375,2.40234375,1.134765625,1.291015625,5.9140625,-7.65625,2.02734375,2.0
3496997,,,,,,,,4.484375,3.95703125,-5.6953125,2.265625,0.798828125,1.111328125,5.1484375,-5.01171875,2.2578125,2.0
3496998,,,,,,,,3.38671875,6.78125,-5.65625,2.140625,0.7265625,0.9609375,4.07421875,-2.1796875,2.3359375,2.0
3496999,,,,,,,,1.83203125,10.58984375,-6.4921875,1.734375,0.5625,0.232421875,2.62109375,1.73046875,1.5703125,2.0
3497000,36.013050166666666,129.31895966666667,32.423529337249384,72.14205681974474,3.1,273.0,0.0,1.32421875,12.1875,-6.83984375,1.55859375,0.52734375,-0.314453125,2.23828125,3.453125,1.22265625,2.0
3497001,,,,,,,,1.2109375,11.41015625,-7.34375,1.322265625,0.484375,-0.68359375,2.2734375,2.87890625,0.6875,2.0
3497002,,,,,,,,2.390625,9.359375,-6.99609375,1.095703125,0.396484375,-0.865234375,3.6171875,1.0390625,0.95703125,2.0
3497003,,,,,,,,2.609375,8.61328125,-6.46484375,0.85546875,0.369140625,-0.765625,4.00390625,0.54296875,1.37890625,2.0
3497004,,,,,,,,2.66015625,8.609375,-4.90625,0.583984375,0.36328125,-0.396484375,4.1875,0.7734375,2.796875,2.0
3497005,,,,,,,,1.015625,9.4765625,-4.0234375,0.287109375,0.365234375,-0.1015625,2.65625,1.8828125,3.5234375,2.0
3497006,,,,,,,,-0.2578125,10.31640625,-3.9140625,-0.12109375,0.39453125,-0.154296875,1.46875,2.95703125,3.4453125,2.0
3497007,,,,,,,,-1.7734375,11.671875,-4.26171875,-0.392578125,0.54296875,-0.357421875,0.015625,4.56640625,2.91015625,2.0
3497008,,,,,,,,-2.33984375,12.0859375,-4.61328125,-0.40625,0.60546875,-0.431640625,-0.51953125,5.10546875,2.44921875,2.0
3497009,,,,,,,,-4.05859375,11.8359375,-6.75390625,-0.298828125,0.68359375,-0.4765625,-2.20703125,5.140625,0.11328125,2.0
3497010,36.0130495,129.31895649999998,32.13805830840767,72.0680829435005,3.1,263.0,,-5.0546875,10.74609375,-7.046875,-0.263671875,0.708984375,-0.255859375,-3.77734375,3.95703125,-0.421875,2.0
3497011,,,,,,,,-6.08203125,9.203125,-6.68359375,-0.49609375,0.607421875,0.15234375,-5.00390625,0.58203125,0.7265625,2.0
3497012,,,,,,,,-6.67578125,4.0390625,-4.58203125,-0.587890625,0.47265625,0.646484375,-5.1953125,-8.84375,4.78515625,2.0
3497013,,,,,,,,-6.765625,-3.34375,-1.22265625,-0.255859375,0.37890625,1.216796875,-5.578125,-14.24609375,7.96484375,2.0
3497014,,,,,,,,-7.16015625,-22.0546875,8.59765625,0.697265625,0.251953125,1.658203125,-4.50390625,-35.23828125,15.16796875,2.0
3497015,,,,,,,,-2.671875,-40.98046875,9.984375,2.2109375,0.064453125,1.857421875,2.88671875,-47.87890625,14.1328125,2.0
3497016,,,,,,,,8.79296875,-24.890625,6.6640625,3.388671875,-0.107421875,1.48046875,10.12890625,-22.2109375,8.84765625,2.0
3497017,,,,,,,,8.06640625,-12.19921875,0.2265625,2.681640625,-0.11328125,0.33203125,6.375,-15.31640625,6.12890625,2.0
3497018,,,,,,,,5.5546875,-9.72265625,-0.05078125,1.62109375,-0.197265625,-0.720703125,1.2421875,-14.08984375,7.19921875,2.0
3497019,,,,,,,,-0.515625,-9.046875,0.62890625,-0.177734375,-0.177734375,-2.673828125,1.125,-16.27734375,6.6640625,2.0
3497020,36.01304916666666,129.31895433333332,31.942735977290802,72.03109581541784,2.3000000000000003,258.0,,-5.0546875,10.74609375,-7.046875,-0.263671875,0.708984375,-0.255859375,5.80078125,-21.2890625,7.390625,2.0
3497021,,,,,,,,5.40625,-16.24609375,1.44921875,-0.025390625,-0.9375,1.380859375,7.0625,-23.86328125,7.890625,2.0
3497022,,,,,,,,5.20703125,-15.609375,0.4375,-0.0859375,-1.14453125,1.689453125,6.10546875,-21.48828125,6.12890625,2.0
3497023,,,,,,,,3.95703125,-10.92578125,-1.09765625,-0.8828125,-1.40625,1.19921875,5.30078125,-18.5703125,5.20703125,2.0
3497024,,,,,,,,4.515625,-6.94921875,-2.78515625,-1.62890625,-1.625,0.810546875,5.9921875,-15.3515625,3.37109375,2.0
3497025,,,,,,,,2.95703125,-3.67578125,-3.578125,-1.826171875,-1.88671875,0.80078125,4.57421875,-12.59765625,2.375,2.0
3497026,,,,,,,,2.203125,-3.05078125,-3.72265625,-1.875,-2.025390625,0.955078125,3.8828125,-12.21484375,2.10546875,2.0
3497027,,,,,,,,0.1171875,-1.9609375,-4.0234375,-1.998046875,-2.02734375,1.310546875,1.890625,-11.60546875,1.53125,2.0
3497028,,,,,,,,-2.73828125,-0.6875,-3.97265625,-2.1171875,-1.865234375,1.529296875,-0.94140625,-10.76171875,1.26171875,2.0
3497029,,,,,,,,-5.3203125,1.11328125,-2.48046875,-2.08203125,-1.5625,1.66015625,-3.5859375,-9.3359375,2.41015625,2.0
3497030,36.01304833333334,129.31895116666666,31.657265009960952,71.93862874637392,2.9000000000000004,255.0,,-6.61328125,3.5859375,-1.875,-0.263671875,0.708984375,-0.255859375,-5.00390625,-7.1953125,2.6796875,2.0
3497031,,,,,,,,-6.6640625,6.4765625,-2.3828125,-1.451171875,-0.947265625,1.5,-5.234375,-4.5546875,1.875,2.0
3497032,,,,,,,,-6.02734375,9.1484375,-2.24609375,-1.16015625,-0.384765625,0.85546875,-4.8828125,-2.1015625,1.64453125,2.0
3497033,,,,,,,,-5.58984375,12.47265625,-1.97265625,-1.185546875,-0.22265625,0.671875,-4.5390625,1.19140625,1.80078125,2.0
3497034,,,,,,,,-4.3359375,14.6953125,-0.92578125,-1.3515625,0.017578125,0.208984375,-3.546875,3.453125,2.48828125,2.0
3497035,,,,,,,,-2.7109375,15.40625,-2.0078125,-1.1015625,0.076171875,-0.2265625,-2.0546875,4.30078125,1.1875,2.0
3497036,,,,,,,,-1.68359375,14.328125,-4.3203125,-0.6953125,0.00390625,-0.73046875,-1.09765625,3.41796875,-1.3046875,2.0
3497037,,,,,,,,-2.34765625,12.109375,-4.796875,-0.46875,-0.1640625,-0.95703125,-1.78515625,1.4609375,-1.95703125,2.0
3497038,,,,,,,,-3.10546875,9.40234375,-4.4609375,-0.478515625,-0.263671875,-0.88671875,-2.546875,-1.10546875,-1.6875,2.0
3497039,,,,,,,,-3.640625,7.63671875,-3.796875,-0.646484375,-0.400390625,-0.533203125,-3.125,-2.59765625,-1.1875,2.0
3497040,36.01304666666667,129.31894849999998,31.41686878296656,71.75369581291844,3.1,247.0,,-3.5546875,7.58984375,-1.7734375,-0.609375,-0.455078125,-0.123046875,-3.12890625,-2.37109375,0.6484375,2.0
3497041,,,,,,,,-2.7109375,8.26171875,-1.29296875,0.046875,-0.51953125,0.166015625,-2.3984375,-1.41015625,0.99609375,2.0
3497042,,,,,,,,-1.046875,9.7109375,-1.28515625,1.02734375,-0.572265625,0.248046875,-0.8671875,0.3515625,0.953125,2.0
3497043,,,,,,,,-0.31640625,10.67578125,-1.2421875,1.728515625,-0.517578125,0.15234375,-0.25390625,1.65234375,1.03125,2.0
3497044,,,,,,,,-0.18359375,11.3125,-0.8203125,1.814453125,-0.373046875,-0.01171875,-0.21484375,2.65234375,1.53125,2.0
3497045,,,,,,,,-1.9921875,11.16015625,0.390625,1.349609375,-0.19140625,-0.21875,-2.09375,2.87890625,2.796875,2.0
3497046,,,,,,,,-2.5703125,10.58984375,0.6484375,1.060546875,-0.076171875,-0.345703125,-2.703125,2.49609375,3.0625,2.0
3497047,,,,,,,,-3.7578125,9.03125,1.60546875,0.591796875,0.263671875,-0.650390625,-3.96875,1.5,4.015625,2.0
3497048,,,,,,,,-2.8515625,3.99609375,0.7265625,0.84375,0.3046875,-0.462890625,-3.125,-3.171875,3.140625,2.0
3497049,,,,,,,,0.34375,-6.97265625,-0.76953125,1.685546875,0.248046875,0.169921875,-0.0234375,-13.8203125,1.68359375,2.0
3497050,36.01304616666666,129.31894516666668,31.116372868836017,71.69821512188264,3.0,247.0,,12.92578125,-39.23046875,10.21484375,1.982421875,-0.08984375,1.828125,12.38671875,-45.84375,12.83203125,2.0
3497051,,,,,,,,19.79296875,-34.875,11.63671875,1.533203125,0.125,2.244140625,19.20703125,-41.671875,14.48046875,2.0
3497052,,,,,,,,7.05859375,-18.16015625,1.515625,1.162109375,0.1875,1.794921875,6.48828125,-25.3125,4.59375,2.0
3497053,,,,,,,,1.3984375,-13.8359375,2.44921875,2.05078125,0.52734375,0.52734375,0.859375,-21.1796875,5.66796875,2.0
3497054,,,,,,,,-7.6796875,-8.21875,3.8984375,0.7890625,0.56640625,-3.439453125,-7.9921875,-15.9296875,7.390625,2.0
3497055,,,,,,,,-9.80859375,-6.984375,-1.57421875,0.56640625,0.244140625,-4.478515625,-9.75390625,-15.0859375,2.10546875,2.0
3497056,,,,,,,,-5.6171875,-7.484375,-2.90625,2.88671875,0.43359375,-2.56640625,-5.234375,-15.890625,1.03125,2.0
3497057,,,,,,,,-0.30078125,-6.80859375,-1.03515625,3.6640625,0.75,0.037109375,0.16796875,-15.4296875,3.29296875,2.0
3497058,,,,,,,,0.44921875,-6.63671875,-1.0546875,3.2109375,0.939453125,0.611328125,0.89453125,-15.35546875,3.484375,2.0
3497059,,,,,,,,3.87109375,-3.7109375,-2.55078125,2.76171875,1.431640625,0.546875,4.19140625,-12.71484375,2.48828125,2.0
3497500,36.013028,129.31897716666666,34.00114338730776,69.68246624413771,2.7,37.0,0.0,-9.46875,-8.51953125,6.703125,-1.322265625,-0.791015625,0.220703125,0.359375,-10.140625,3.1796875,2.0
3497501,,,,,,,,-11.91015625,-7.37109375,5.8828125,-1.326171875,-0.859375,0.349609375,-2.12890625,-8.99609375,2.2578125,2.0
3497502,,,,,,,,-13.703125,-5.6796875,3.01953125,-1.51953125,-0.771484375,0.42578125,-3.96875,-7.31640625,-0.69140625,2.0
3497503,,,,,,,,-14.32421875,-4.56640625,2.25390625,-1.689453125,-0.66015625,0.396484375,-4.62109375,-6.1953125,-1.49609375,2.0
3497504,,,,,,,,-15.546875,-0.125,0.5625,-1.7578125,-0.37890625,0.46484375,-5.8828125,-1.7578125,-3.2578125,2.0
3497505,,,,,,,,-16.0078125,1.84375,1.20703125,-1.466796875,0.001953125,0.908203125,-6.3828125,0.1953125,-2.64453125,2.0
3497506,,,,,,,,-16.6640625,3.40234375,3.0,-1.009765625,0.361328125,1.66015625,-7.0703125,1.65234375,-0.84375,2.0
3497507,,,,,,,,-15.796875,4.52734375,4.0703125,-0.41015625,0.697265625,2.375,-6.265625,2.49609375,0.3046875,2.0
3497508,,,,,,,,-14.12890625,5.640625,4.26171875,-0.26171875,0.798828125,2.369140625,-4.62109375,3.4921875,0.53515625,2.0
3497509,,,,,,,,-12.7421875,6.42578125,4.08984375,0.015625,0.814453125,2.09375,-3.28125,4.02734375,0.45703125,2.0
3497510,36.013030666666666,129.318977,33.98611743359936,69.9783574991727,3.1,23.0,,-11.63671875,5.3125,3.453125,0.59375,0.328125,1.54296875,-2.24609375,2.65234375,-0.078125,2.0
3497511,,,,,,,,-10.546875,1.515625,2.30859375,1.12109375,0.251953125,1.255859375,-1.2109375,-1.33984375,-1.15234375,2.0
3497512,,,,,,,,-11.02734375,-1.73046875,2.5859375,1.59765625,0.34765625,1.171875,-1.74609375,-4.7421875,-0.8046875,2.0
3497513,,,,,,,,-11.2421875,-2.421875,2.97265625,1.810546875,0.38671875,1.24609375,-2.015625,-5.625,-0.30859375,2.0
3497514,,,,,,,,-10.34375,-1.546875,4.375,1.880859375,0.298828125,1.12890625,-1.171875,-4.94140625,1.1875,2.0
3497515,,,,,,,,-10.13671875,-0.0546875,5.91015625,1.861328125,0.130859375,0.53515625,-1.01953125,-3.59765625,2.83203125,2.0
3497516,,,,,,,,-10.80859375,1.4375,7.6328125,1.83203125,-0.0078125,0.076171875,-1.70703125,-2.140625,4.59375,2.0
3497517,,,,,,,,-11.828125,3.03125,8.64453125,1.564453125,-0.263671875,-0.982421875,-2.7421875,-0.5703125,5.6640625,2.0
3497518,,,,,,,,-13.40625,6.171875,8.94140625,1.484375,-0.26171875,-1.982421875,-4.3125,2.6484375,6.01171875,2.0
3497519,,,,,,,,-13.41796875,7.9375,7.69921875,1.78515625,-0.1171875,-2.51953125,-4.27734375,4.5625,4.8203125,2.0
3497520,36.013033166666666,129.31897766666668,34.0462155943994,70.25575583648629,2.8000000000000003,18.0,,-13.1328125,3.765625,6.01171875,2.3046875,-0.03125,-1.908203125,-3.93359375,0.6171875,3.25390625,2.0
3497521,,,,,,,,-10.390625,-3.55859375,-0.15625,2.27734375,-0.072265625,-0.69921875,-1.171875,-6.65625,-2.8359375,2.0
3497522,,,,,,,,-9.5078125,-28.46484375,5.51171875,1.8359375,-0.380859375,0.796875,-0.328125,-31.63671875,2.91015625,2.0
3497523,,,,,,,,-3.546875,-65.87890625,19.2890625,-0.05859375,-0.990234375,1.837890625,5.53125,-69.2109375,16.6640625,2.0
3497524,,,,,,,,21.22265625,-62.328125,43.14453125,-0.048828125,-0.896484375,0.78515625,30.19921875,-65.8046875,40.44921875,2.0
3497525,,,,,,,,0.07421875,-22.6328125,6.703125,2.765625,-0.828125,0.224609375,8.98046875,-26.19921875,3.984375,2.0
3497526,,,,,,,,-9.7578125,-19.875,5.3203125,5.119140625,-0.958984375,-1.197265625,-0.8671875,-23.48046875,2.640625,2.0
3497527,,,,,,,,-24.22265625,-7.375,5.6875,3.4765625,-0.16015625,-4.978515625,-15.265625,-10.8359375,3.140625,2.0
3497528,,,,,,,,-19.375,-13.10546875,0.3671875,2.314453125,0.890625,-4.00390625,-10.2890625,-16.23828125,-2.03125,2.0
3497529,,,,,,,,-13.109375,-13.29296875,-3.27734375,2.822265625,1.87890625,-1.89453125,-3.9296875,-16.234375,-5.44140625,2.0
3497530,36.01303533333333,129.31897933333332,34.19646274051753,70.49616811146319,2.7,23.0,,-9.2734375,-10.9921875,-0.4609375,2.3046875,-0.03125,-1.908203125,0.359375,-13.09765625,-0.765625,2.0
3497531,,,,,,,,-3.08984375,-11.15625,2.23828125,2.275390625,0.810546875,1.291015625,6.06640625,-14.32421875,0.61328125,2.0
3497532,,,,,,,,0.91015625,-11.0546875,4.4296875,3.734375,1.52734375,1.046875,10.01171875,-14.40234375,3.0234375,2.0
3497533,,,,,,,,-0.8125,-7.43359375,6.1875,4.6953125,2.140625,0.9765625,8.25,-10.94921875,5.1328125,2.0
3497534,,,,,,,,-2.94921875,-6.265625,3.4609375,3.32421875,1.884765625,0.49609375,6.06640625,-9.91796875,2.7578125,2.0
3497535,,,,,,,,-4.1640625,-4.7578125,0.1640625,1.9921875,1.8984375,-0.111328125,4.8046875,-8.4609375,-0.1171875,2.0
3497536,,,,,,,,-4.90625,-2.6953125,-0.9140625,1.908203125,1.900390625,0.216796875,4.0390625,-6.43359375,-0.921875,2.0
3497537,,,,,,,,-4.27734375,-0.6796875,-1.27734375,2.134765625,1.509765625,0.794921875,4.61328125,-4.4765625,-1.03515625,2.0
3497538,,,,,,,,-4.01171875,0.140625,-1.37109375,2.28125,1.265625,1.03515625,4.83984375,-3.7109375,-0.99609375,2.0
3497539,,,,,,,,-3.96875,1.63671875,-1.60546875,2.517578125,0.810546875,1.42578125,4.8046875,-2.33203125,-1.03515625,2.0
3497540,36.013037833333335,129.318979,34.16641204642042,70.77356610155387,2.8000000000000003,14.0,,-4.89453125,4.70703125,-1.48828125,2.3046875,-0.03125,-1.908203125,3.73046875,0.54296875,-0.65234375,2.0
3497541,,,,,,,,-6.84375,8.42578125,-1.4296875,1.47265625,0.400390625,1.390625,1.625,4.0625,-0.3828125,2.0
3497542,,,,,,,,-7.40234375,9.4375,-1.6953125,0.623046875,0.3828125,0.916015625,0.97265625,4.984375,-0.5390625,2.0
3497543,,,,,,,,-6.7109375,8.48828125,-1.609375,0.283203125,0.369140625,0.673828125,1.625,3.984375,-0.421875,2.0
3497544,,,,,,,,-5.4765625,6.28515625,-1.53515625,0.1953125,0.251953125,0.248046875,2.77734375,1.73046875,-0.26953125,2.0
3497545,,,,,,,,-4.6640625,6.23828125,-1.7890625,0.875,0.15234375,0.25,3.5390625,1.65234375,-0.4609375,2.0
3497546,,,,,,,,-4.3046875,6.9375,-1.39453125,1.533203125,0.240234375,0.380859375,3.84375,2.34375,0.03515625,2.0
3497547,,,,,,,,-4.9765625,7.01171875,-0.30078125,1.439453125,0.541015625,0.615234375,3.08203125,2.37890625,1.30078125,2.0
3497548,,,,,,,,-6.546875,6.875,1.1328125,1.0546875,0.626953125,0.640625,1.46875,2.2265625,2.80078125,2.0
3497549,,,,,,,,-10.0390625,6.45703125,4.8671875,-0.005859375,0.712890625,0.546875,-2.09375,1.76953125,6.62890625,2.0
3497550,36.013040333333336,129.31897816666665,34.091286932328465,71.05096391591101,2.7,359.0,,-12.7265625,4.5859375,6.0234375,-0.62109375,0.78125,0.4296875,-4.8515625,-0.1484375,7.85546875,2.0
3497551,,,,,,,,-12.37890625,0.51953125,4.3828125,0.462890625,0.896484375,0.65234375,-4.62109375,-4.28515625,6.32421875,2.0
3497552,,,,,,,,-12.33984375,-6.015625,4.55078125,0.78515625,0.876953125,0.779296875,-4.62109375,-10.8359375,6.55078125,2.0
3497553,,,,,,,,-11.39453125,-18.87109375,5.95703125,1.384765625,0.83984375,1.193359375,-3.77734375,-23.74609375,8.08203125,2.0
3497554,,,,,,,,-17.61328125,-54.72265625,14.8046875,1.70703125,0.8203125,1.654296875,-10.05859375,-59.6328125,17.0078125,2.0
3497555,,,,,,,,-22.83203125,-30.625,18.84765625,3.681640625,0.701171875,1.638671875,-15.61328125,-35.734375,21.52734375,2.0
3497556,,,,,,,,-15.8046875,-20.51171875,13.2890625,3.69921875,0.349609375,0.646484375,-8.640625,-25.62109375,16.0859375,2.0
3497557,,,,,,,,1.37890625,-2.65625,-8.03515625,2.181640625,0.123046875,-1.830078125,8.515625,-7.65625,-5.05859375,2.0
3497558,,,,,,,,4.97265625,-3.32421875,-10.1796875,3.32421875,0.421875,-3.7109375,12.15625,-8.19140625,-7.125,2.0
3497559,,,,,,,,12.5078125,-9.80859375,-11.2734375,5.05078125,0.171875,-5.259765625,19.859375,-14.20703125,-7.96875,2.0
3497560,36.01304233333334,129.31897766666668,34.04621165238697,71.27288222615607,2.2,354.0,,10.3671875,-15.2421875,-4.22265625,4.228515625,0.32421875,-3.6796875,17.8671875,-19.1484375,-0.69140625,2.0
3497561,,,,,,,,2.32421875,-21.3828125,5.578125,-0.33203125,0.576171875,2.220703125,9.74609375,-25.12890625,9.3828125,2.0
3497562,,,,,,,,-0.07421875,-20.42578125,5.49609375,-1.46484375,0.15234375,2.181640625,7.21484375,-24.390625,9.30859375,2.0
3497563,,,,,,,,-0.84375,-13.56640625,1.42578125,-0.80859375,-0.1953125,1.1640625,6.3359375,-17.7265625,5.20703125,2.0
3497564,,,,,,,,-1.80078125,-6.171875,-2.5703125,0.390625,-0.798828125,0.451171875,5.33984375,-10.4140625,1.1875,2.0
3497565,,,,,,,,-4.50390625,-3.421875,0.01953125,0.8046875,-1.099609375,0.46875,2.62109375,-7.69921875,3.75390625,2.0
3497566,,,,,,,,-5.33984375,-3.3671875,0.609375,0.49609375,-1.126953125,0.65625,1.77734375,-7.66015625,4.328125,2.0
3497567,,,,,,,,-6.6875,-4.1328125,-0.70703125,-0.5625,-1.111328125,1.025390625,0.3984375,-8.5,2.94921875,2.0
3497568,,,,,,,,-7.26171875,-3.28515625,-1.41796875,-0.791015625,-0.990234375,0.9921875,-0.21484375,-7.76953125,2.14453125,2.0
3497569,,,,,,,,-7.74609375,-2.83984375,-1.76171875,-0.74609375,-0.837890625,1.0,-0.71484375,-7.38671875,1.76171875,2.0
3497570,36.01304433333333,129.31897633333335,33.92601234333172,71.4948002450866,2.4000000000000004,343.0,,-9.03125,-1.53515625,-3.69140625,-0.693359375,-0.568359375,1.14453125,-2.0546875,-6.19921875,-0.23046875,2.0
3497571,,,,,,,,-12.1328125,0.46484375,-4.328125,-0.74609375,-0.31640625,1.31640625,-5.234375,-4.32421875,-0.921875,2.0
3497572,,,,,,,,-12.734375,0.8828125,-4.08203125,-0.798828125,-0.234375,1.40234375,-5.88671875,-3.9765625,-0.69140625,2.0
3497573,,,,,,,,-12.90234375,2.21875,-3.7421875,-0.869140625,0.0078125,1.611328125,-6.15234375,-2.7890625,-0.3828125,2.0
3497574,,,,,,,,-11.66015625,5.484375,-3.3359375,-0.8125,0.40234375,1.693359375,-5.04296875,0.3125,0.0,2.0
3497575,,,,,,,,-11.640625,7.42578125,-3.19921875,-0.685546875,0.58984375,1.51953125,-5.15625,2.11328125,0.15234375,2.0
3497576,,,,,,,,-11.4765625,7.7734375,-3.20703125,-0.400390625,0.369140625,1.19921875,-5.1171875,2.34375,0.15234375,2.0
3497577,,,,,,,,-8.80078125,5.58203125,-3.66015625,0.244140625,0.236328125,0.775390625,-2.5859375,0.04296875,-0.26953125,2.0
3497578,,,,,,,,-7.94921875,4.40234375,-3.90625,1.091796875,0.216796875,0.6640625,-1.86328125,-1.18359375,-0.421875,2.0
3497579,,,,,,,,-7.48828125,3.80078125,-4.22265625,1.408203125,0.1484375,0.69140625,-1.44140625,-1.7890625,-0.69140625,2.0
3497580,36.01304533333334,129.31897433333333,33.74571424257582,71.60575879396369,2.3000000000000003,328.0,,-7.140625,3.9375,-4.25390625,1.904296875,0.005859375,0.71875,-2.0546875,-6.19921875,-0.23046875,2.0
3497581,,,,,,,,-7.0703125,4.79296875,-3.98828125,2.005859375,-0.12109375,0.58203125,-1.171875,-0.76171875,-0.23046875,2.0
3497582,,,,,,,,-7.359375,6.296875,-2.98046875,1.681640625,-0.1640625,0.251953125,-1.51953125,0.7734375,0.87890625,2.0
3497583,,,,,,,,-8.203125,7.0078125,-1.1875,1.21875,-0.111328125,-0.23046875,-2.3984375,1.5390625,2.7578125,2.0
3497584,,,,,,,,-9.58203125,6.71484375,1.0078125,0.943359375,0.025390625,-0.791015625,-3.77734375,1.30859375,5.015625,2.0
3497585,,,,,,,,-10.40234375,6.64453125,0.74609375,1.15625,0.2265625,-1.388671875,-4.58203125,1.34765625,4.8203125,2.0
3497586,,,,,,,,-10.74609375,6.84765625,1.046875,1.59765625,0.349609375,-1.71875,-4.92578125,1.61328125,5.17578125,2.0
3497587,,,,,,,,-10.53515625,6.609375,0.75,2.505859375,0.5625,-2.03515625,-4.66015625,1.578125,5.015625,2.0
3497588,,,,,,,,-3.8515625,-5.6796875,-5.05078125,3.115234375,0.666015625,-1.654296875,2.046875,-10.4921875,-0.61328125,2.0
3497589,,,,,,,,2.3671875,-34.2421875,-1.32421875,3.1015625,0.595703125,-0.541015625,8.25,-38.8359375,3.33203125,2.0
3497590,36.0130475,129.31897266666667,33.595465264323515,71.84616991013289,2.4000000000000004,324.0,,18.3671875,-61.3671875,20.078125,1.39453125,-0.15234375,1.3046875,24.1484375,-65.88671875,24.8984375,2.0
3497591,,,,,,,,14.60546875,-28.29296875,6.890625,0.908203125,-0.314453125,0.580078125,20.31640625,-32.8203125,11.7578125,2.0
3497592,,,,,,,,-1.4375,-13.5078125,-1.1015625,2.53125,-0.146484375,-1.251953125,4.265625,-17.9609375,3.828125,2.0
3497593,,,,,,,,-12.40234375,-12.68359375,-4.7421875,2.134765625,-0.060546875,-3.435546875,-6.61328125,-16.8828125,0.3046875,2.0
3497594,,,,,,,,-12.53125,-14.17578125,-5.25,1.34765625,0.1796875,-3.66015625,-6.6875,-18.23046875,-0.15625,2.0
3497595,,,,,,,,-7.71484375,-18.2734375,-2.09375,2.521484375,1.205078125,-1.12890625,-1.82421875,-21.984375,3.1796875,2.0
3497596,,,,,,,,-2.7109375,-17.63671875,1.5546875,3.3046875,1.4453125,0.845703125,3.078125,-21.2109375,7.0078125,2.0
3497597,,,,,,,,-1.87109375,-17.10546875,0.41015625,3.146484375,1.64453125,0.52734375,3.76953125,-20.5625,6.08984375,2.0
3497598,,,,,,,,-2.47265625,-14.86328125,-3.34765625,2.5234375,1.830078125,-0.291015625,3.04296875,-18.19140625,2.52734375,2.0
3497599,,,,,,,,-1.9765625,-13.75390625,-4.21484375,2.4921875,2.017578125,-0.3984375,3.4609375,-17.00390625,1.76171875,2.0
3497600,36.013049,129.31897066666667,33.41516696309106,72.01260808610493,2.3000000000000003,319.0,0.0,-1.14453125,-10.03125,-5.1015625,1.39453125,-0.15234375,1.3046875,4.15234375,-13.13671875,1.0703125,2.0
3497601,,,,,,,,-0.7421875,-6.91015625,-6.484375,2.6484375,2.3515625,-0.326171875,4.3046875,-9.76171875,0.0,2.0
3497602,,,,,,,,0.04296875,-6.33984375,-5.83203125,2.548828125,2.248046875,-0.07421875,4.91796875,-9.03125,0.83984375,2.0
3497603,,,,,,,,0.69140625,-6.00390625,-4.74609375,2.16015625,2.2109375,0.337890625,5.37890625,-8.57421875,2.10546875,2.0
3497604,,,,,,,,0.93359375,-5.484375,-3.71484375,1.712890625,1.990234375,0.77734375,5.41796875,-7.96484375,3.29296875,2.0
3497605,,,,,,,,1.671875,-3.9609375,-4.453125,1.603515625,1.466796875,0.916015625,5.9921875,-6.39453125,2.6796875,2.0
3497606,,,,,,,,1.6953125,-2.94921875,-4.98828125,1.658203125,1.251953125,0.84765625,5.953125,-5.35546875,2.18359375,2.0
3497607,,,,,,,,1.0546875,0.578125,-6.578125,1.81640625,0.994140625,0.53515625,5.19140625,-1.7578125,0.6875,2.0
3497608,,,,,,,,0.7265625,1.68359375,-6.9609375,1.90234375,0.8984375,0.40625,4.80859375,-0.60546875,0.34375,2.0
3497609,,,,,,,,-0.63671875,5.41015625,-7.76171875,1.69921875,0.5625,0.18359375,3.26953125,3.33984375,-0.30859375,2.0
3497610,36.0130495,129.318968,33.17476986966732,72.06808679711096,2.7,303.0,,-1.72265625,6.671875,-7.72265625,1.15625,0.375,0.130859375,2.12109375,4.6796875,-0.23046875,2.0
3497611,,,,,,,,-2.39453125,6.515625,-7.02734375,0.689453125,0.232421875,0.091796875,1.39453125,4.5625,0.49609375,2.0
3497612,,,,,,,,-1.93359375,3.4296875,-6.015625,0.498046875,0.255859375,0.09765625,1.8125,1.5,1.53125,2.0
3497613,,,,,,,,-1.53515625,2.37890625,-5.3515625,0.611328125,0.263671875,0.13671875,2.16015625,0.46484375,2.22265625,2.0
3497614,,,,,,,,-2.4921875,3.328125,-3.58203125,0.73046875,0.333984375,0.337890625,1.125,1.4609375,4.015625,2.0
3497615,,,,,,,,-3.2421875,3.88671875,-3.48828125,0.353515625,0.37109375,0.376953125,0.3203125,2.03515625,4.1328125,2.0
3497616,,,,,,,,-3.9375,4.5390625,-3.94921875,0.208984375,0.392578125,0.326171875,-0.40625,2.6875,3.67578125,2.0
3497617,,,,,,,,-4.3359375,4.83203125,-4.31640625,0.0703125,0.41796875,0.216796875,-1.6328125,3.11328125,2.60546875,2.0
3497618,,,,,,,,-5.66015625,4.30078125,-6.01171875,0.078125,0.423828125,0.259765625,-2.24609375,2.4140625,1.64453125,2.0
3497619,,,,,,,,-6.35546875,2.37109375,-5.87109375,0.197265625,0.43359375,0.43359375,-3.01171875,0.46484375,1.80078125,2.0
3497620,36.0130505,129.31896466666666,32.87427334846109,72.17904490927357,2.7,292.0,,-7.7421875,-3.86328125,-4.05078125,0.31640625,0.4375,0.732421875,-4.46875,-5.7734375,3.63671875,2.0
3497621,,,,,,,,-10.46484375,-14.99609375,1.2890625,0.578125,0.4296875,1.091796875,-7.26171875,-16.92578125,9.0,2.0
3497622,,,,,,,,-12.83203125,-31.0078125,7.44140625,0.771484375,0.44921875,1.24609375,-9.67578125,-32.94140625,15.16796875,2.0
3497623,,,,,,,,-8.34375,-45.78125,6.69140625,1.54296875,0.453125,1.341796875,-5.2734375,-47.6875,14.44140625,2.0
3497624,,,,,,,,-2.171875,-23.6484375,9.35546875,3.177734375,0.3828125,1.279296875,0.8203125,-25.4296875,17.16015625,2.0
3497625,,,,,,,,1.4375,-12.78125,-3.01953125,1.93359375,0.1171875,-0.185546875,4.34375,-14.28125,4.86328125,2.0
3497626,,,,,,,,0.83984375,-11.62890625,-4.84375,1.330078125,0.275390625,-1.796875,3.73046875,-13.0546875,3.0625,2.0
3497627,,,,,,,,4.9765625,-14.20703125,-4.796875,1.259765625,-0.07421875,-3.06640625,7.8671875,-15.39453125,3.140625,2.0
3497628,,,,,,,,5.6953125,-17.45703125,-1.81640625,0.68359375,-0.16796875,-0.814453125,8.59375,-18.53515625,6.12890625,2.0
3497629,,,,,,,,5.7734375,-18.96484375,-0.28515625,0.58984375,-0.16015625,0.302734375,8.671875,-20.0234375,7.66015625,2.0
3497630,36.01305133333334,129.31896216666667,32.64890093215341,72.2715101041164,2.4000000000000004,288.0,,5.4453125,-18.34765625,-0.58984375,0.43359375,-0.240234375,1.330078125,8.328125,-19.41796875,7.35546875,2.0
3497631,,,,,,,,4.79296875,-15.6796875,-3.21875,-0.169921875,-0.658203125,0.921875,7.67578125,-16.8125,4.7109375,2.0
3497632,,,,,,,,3.94140625,-14.62109375,-3.625,-0.48046875,-0.826171875,0.609375,6.83203125,-15.7734375,4.2890625,2.0
3497633,,,,,,,,0.44140625,-12.08984375,-4.23828125,-1.01171875,-1.171875,0.2890625,3.38671875,-13.359375,3.63671875,2.0
3497634,,,,,,,,-1.0625,-10.953125,-4.2890625,-1.1796875,-1.373046875,0.291015625,1.9296875,-12.2890625,3.5625,2.0
3497635,,,,,,,,-3.5625,-8.7890625,-4.12109375,-1.23046875,-1.39453125,0.68359375,-0.4453125,-10.3359375,3.63671875,2.0
3497636,,,,,,,,-5.953125,-8.44921875,-5.0234375,-1.1171875,-1.083984375,0.94921875,-2.78125,-10.140625,2.6796875,2.0
3497637,,,,,,,,-6.13671875,-8.06640625,-5.14453125,-0.916015625,-1.109375,1.05078125,-2.93359375,-9.8359375,2.52734375,2.0
3497638,,,,,,,,-6.69140625,-4.59765625,-5.3828125,-0.37890625,-0.89453125,1.349609375,-3.43359375,-6.5390625,2.21875,2.0
3497639,,,,,,,,-6.69921875,-1.984375,-6.16015625,-0.240234375,-0.75,1.416015625,-3.43359375,-3.98046875,1.41796875,2.0
3497640,36.013051000000004,129.31895916666664,32.37845457739513,72.23452268976632,2.8000000000000003,277.0,,-6.4296875,0.76171875,-6.66015625,-0.265625,-0.123046875,1.279296875,-3.203125,-1.41015625,0.87890625,2.0
3497641,,,,,,,,-6.22265625,3.23046875,-5.9140625,-0.40234375,0.06640625,1.208984375,-3.046875,0.96484375,1.609375,2.0
3497642,,,,,,,,-5.40234375,5.015625,-5.9453125,-0.376953125,0.162109375,1.115234375,-2.28515625,2.65234375,1.5703125,2.0
3497643,,,,,,,,-4.609375,5.5390625,-6.89453125,0.001953125,0.2109375,0.84375,-1.5546875,3.109375,0.61328125,2.0
3497644,,,,,,,,-4.36328125,4.53515625,-7.77734375,0.4375,0.19921875,0.49609375,-1.36328125,2.0703125,-0.26953125,2.0
3497645,,,,,,,,-5.55859375,1.34765625,-7.72265625,0.544921875,0.169921875,0.138671875,-2.625,-1.10546875,-0.19140625,2.0
3497646,,,,,,,,-6.25390625,0.2734375,-6.99609375,0.283203125,0.14453125,0.07421875,-3.35546875,-2.1796875,0.53515625,2.0
3497647,,,,,,,,-6.21484375,0.58203125,-6.078125,0.091796875,0.1171875,0.064453125,-3.35546875,-1.87109375,1.453125,2.0
3497648,,,,,,,,-5.53125,1.40234375,-5.921875,0.3203125,0.01953125,0.0390625,-2.703125,-1.06640625,1.609375,2.0
3497649,,,,,,,,-4.19140625,2.91796875,-5.9765625,1.203125,-0.08203125,-0.146484375,-1.40234375,0.50390625,1.57421875,2.0
3497650,36.0130505,129.31895600000001,32.09298349105212,72.17904202022493,2.9000000000000004,269.0,,-2.65234375,4.30859375,-6.8046875,1.537109375,-0.09765625,-0.3359375,0.12890625,1.9921875,0.765625,2.0
3497651,,,,,,,,-2.375,4.515625,-7.09765625,1.59765625,-0.064453125,-0.5234375,0.3984375,2.3046875,0.49609375,2.0
3497652,,,,,,,,-2.7578125,4.63671875,-6.76171875,1.546875,-0.02734375,-0.580078125,0.015625,2.4921875,0.83984375,2.0
3497653,,,,,,,,-4.03125,4.03515625,-5.87109375,1.158203125,0.134765625,-0.55859375,-1.2890625,2.03515625,1.76171875,2.0
3497654,,,,,,,,-6.3515625,2.3125,-3.3046875,1.06640625,0.1953125,-0.513671875,-3.625,0.3515625,4.328125,2.0
3497655,,,,,,,,-7.22265625,-4.125,-3.4140625,1.240234375,0.388671875,-0.380859375,-4.54296875,-5.96875,4.25,2.0
3497656,,,,,,,,-1.1484375,-30.38671875,2.70703125,2.115234375,-0.068359375,0.23046875,1.46875,-32.0546875,10.41796875,2.0
3497657,,,,,,,,22.87890625,-54.27734375,12.61328125,2.755859375,-0.638671875,0.796875,25.48828125,-55.80859375,20.33984375,2.0
3497658,,,,,,,,20.703125,-36.4609375,6.23046875,2.8515625,-0.607421875,0.087890625,23.34375,-37.80859375,13.98046875,2.0
3497659,,,,,,,,-0.57421875,-15.921875,-2.25,2.8203125,0.015625,-1.435546875,2.08203125,-17.08203125,5.515625,2.0
3497660,36.013051000000004,129.31895333333333,31.85258640765303,72.23452076705662,2.6,268.0,,-10.6484375,-12.9140625,-0.6171875,2.880859375,0.2265625,-2.80078125,-7.9921875,-13.94140625,7.1640625,2.0
3497661,,,,,,,,-9.71875,-18.1875,-4.234375,0.3984375,0.43359375,-4.48046875,-7.0703125,-19.03515625,3.5625,2.0
3497662,,,,,,,,-1.75,-21.04296875,-2.0234375,2.591796875,1.4765625,-1.787109375,0.78125,-21.67578125,5.8203125,2.0
3497663,,,,,,,,5.3515625,-23.046875,1.40234375,3.400390625,1.44921875,-0.373046875,7.828125,-23.55859375,9.26953125,2.0
3497664,,,,,,,,6.13671875,-20.4375,-1.82421875,3.5234375,1.462890625,0.708984375,8.48046875,-20.71875,6.08984375,2.0
3497665,,,,,,,,3.89453125,-17.61328125,-6.66015625,2.748046875,1.603515625,0.1171875,6.10546875,-17.6875,1.30078125,2.0
3497666,,,,,,,,3.0546875,-15.51171875,-7.34375,2.458984375,2.0,-0.3125,5.109375,-15.43359375,0.6484375,2.0
3497667,,,,,,,,2.8125,-12.578125,-5.57421875,2.4453125,2.095703125,-0.158203125,4.6875,-12.33203125,2.44921875,2.0
3497668,,,,,,,,2.36328125,-10.46484375,-3.59765625,2.341796875,2.04296875,0.01171875,4.15234375,-10.140625,4.44140625,2.0
3497669,,,,,,,,2.16015625,-9.83984375,-3.734375,2.15234375,1.91796875,0.25,3.76953125,-9.375,4.328125,2.0
3497670,36.01305033333333,129.31895066666667,31.61218979609557,72.16054706954205,2.8000000000000003,261.0,,2.578125,-9.67578125,-6.71484375,2.123046875,1.720703125,-0.068359375,3.9609375,-9.03125,1.37890625,2.0
3497671,,,,,,,,3.37890625,-9.05078125,-7.28125,2.337890625,1.583984375,-0.07421875,4.61328125,-8.26953125,0.8046875,2.0
3497672,,,,,,,,4.1171875,-6.1328125,-7.47265625,2.333984375,1.392578125,0.20703125,5.23046875,-5.203125,0.61328125,2.0
3497673,,,,,,,,4.2265625,-5.34765625,-7.12109375,2.18359375,1.095703125,0.451171875,5.2265625,-4.28515625,0.95703125,2.0
3497674,,,,,,,,4.2734375,-1.56640625,-6.64453125,2.0078125,0.79296875,0.505859375,5.1875,-0.37890625,1.41796875,2.0
3497675,,,,,,,,4.02734375,-0.73828125,-6.71484375,1.91796875,0.671875,0.4375,4.9140625,0.50390625,1.33984375,2.0
3497676,,,,,,,,3.8671875,0.203125,-6.5546875,1.82421875,0.5703125,0.30078125,4.73046875,1.5,1.4921875,2.0
3497677,,,,,,,,3.8359375,0.953125,-6.26953125,1.568359375,0.400390625,-0.126953125,4.65234375,2.34375,1.76171875,2.0
3497678,,,,,,,,3.80078125,2.09765625,-5.94140625,1.2421875,0.234375,-0.580078125,4.5703125,3.56640625,2.06640625,2.0
3497679,,,,,,,,5.02734375,0.10546875,-5.49609375,0.84765625,0.0078125,-1.125,5.7578125,1.65234375,2.48828125,2.0
3497680,36.01304866666667,129.31894766666667,31.341743966247066,71.97561402958962,3.3000000000000003,251.0,,4.8671875,0.07421875,-4.9453125,2.123046875,1.720703125,-0.068359375,5.5703125,1.65234375,3.0234375,2.0
3497681,,,,,,,,1.65625,0.3203125,-2.60546875,-0.078125,0.298828125,-0.04296875,2.3125,1.8828125,5.359375,2.0
3497682,,,,,,,,-0.08203125,0.84375,-2.421875,-0.701171875,0.365234375,0.33984375,0.55078125,2.34375,5.5546875,2.0
3497683,,,,,,,,-0.75390625,1.2109375,-2.62109375,-0.919921875,0.4140625,0.3515625,-0.13671875,2.6484375,5.36328125,2.0
3497684,,,,,,,,-2.28515625,2.35546875,-4.78515625,-1.017578125,0.515625,0.2265625,-1.70703125,3.68359375,3.21484375,2.0
3497685,,,,,,,,-2.69921875,2.54296875,-5.52734375,-0.822265625,0.5234375,0.150390625,-2.16796875,3.7578125,2.48828125,2.0
3497686,,,,,,,,-3.640625,0.60546875,-5.87890625,-0.65234375,0.400390625,0.3828125,-3.16796875,1.69140625,2.14453125,2.0
3497687,,,,,,,,-8.62890625,-8.43359375,2.05078125,-0.609375,0.345703125,0.84375,-8.18359375,-7.42578125,10.07421875,2.0
3497688,,,,,,,,-10.10546875,-14.28515625,5.34375,-0.50390625,0.302734375,1.171875,-9.67578125,-13.32421875,13.3671875,2.0
3497689,,,,,,,,-4.11328125,-32.703125,7.4140625,0.5234375,0.37109375,1.99609375,-3.69921875,-31.79296875,15.4375,2.0
3497690,36.01304733333333,129.31894499999999,31.101347602991822,71.82766751889736,3.0,243.0,,-1.49609375,-47.03125,0.9921875,2.123046875,1.720703125,-0.068359375,-1.09765625,-46.0390625,9.0,2.0
3497691,,,,,,,,-0.8125,-25.8125,1.515625,2.38671875,0.53125,1.66015625,-0.4453125,-24.66796875,9.5,2.0
3497692,,,,,,,,3.41015625,-18.75,-2.90625,-0.201171875,-0.166015625,-0.421875,3.76953125,-17.5390625,5.0546875,2.0
3497693,,,,,,,,0.3984375,-16.609375,-3.06640625,-0.953125,-0.068359375,-1.84375,0.7421875,-15.51171875,4.90234375,2.0
3497694,,,,,,,,3.31640625,-14.08984375,1.60546875,0.041015625,-0.61328125,-2.154296875,3.65234375,-13.0546875,9.57421875,2.0
3497695,,,,,,,,5.234375,-14.484375,0.6484375,0.12890625,-0.765625,-0.724609375,5.609375,-13.48046875,8.6171875,2.0
3497696,,,,,,,,5.8671875,-18.5078125,-1.44921875,-0.029296875,-0.66796875,0.736328125,6.296875,-17.54296875,6.51171875,2.0
3497697,,,,,,,,4.35546875,-18.16796875,-2.140625,-1.31640625,-0.859375,1.2421875,4.87890625,-17.34765625,5.8203125,2.0
3497698,,,,,,,,3.62890625,-16.28125,-2.140625,-1.76171875,-0.974609375,1.201171875,4.19140625,-15.546875,5.8203125,2.0
3497699,,,,,,,,2.5,-13.3359375,-3.21875,-2.2265625,-1.203125,1.080078125,3.15625,-12.83203125,4.75,2.0
3498140,36.013025500000005,129.31898016666668,34.271591037192664,69.40506919014292,3.1,36.0,,0.90625,1.8828125,2.96875,2.0859375,1.6015625,1.17578125,3.42578125,-9.07421875,-0.5,2.0
3498141,,,,,,,,6.7890625,-7.8671875,-4.625,2.3359375,1.2734375,1.228515625,3.76953125,-7.578125,-0.5390625,2.0
3498142,,,,,,,,7.53125,-4.7734375,-4.53125,2.79296875,0.97265625,1.365234375,4.421875,-4.0546875,-0.5,2.0
3498143,,,,,,,,7.80078125,-2.28515625,-4.80078125,3.1796875,0.76953125,1.37109375,4.609375,-1.48828125,-1.11328125,2.0
3498144,,,,,,,,7.87109375,0.921875,-5.44921875,3.33984375,0.607421875,1.134765625,4.45703125,1.4609375,-1.49609375,2.0
3498145,,,,,,,,7.734375,1.984375,-5.56640625,3.037109375,0.5390625,0.740234375,4.3828125,1.84375,-1.49609375,2.0
3498146,,,,,,,,7.703125,1.80078125,-5.48828125,2.736328125,0.537109375,0.501953125,4.34765625,1.73046875,-1.41796875,2.0
3498147,,,,,,,,8.21484375,0.3046875,-5.421875,2.00390625,0.482421875,0.00390625,4.8359375,0.3125,-1.34375,2.0
3498148,,,,,,,,8.80859375,-0.69921875,-5.57421875,1.5546875,0.33984375,-0.41015625,5.4140625,-0.64453125,-1.49609375,2.0
3498149,,,,,,,,9.7734375,-1.89453125,-6.546875,1.490234375,0.193359375,-0.62109375,6.37890625,-1.83203125,-2.453125,2.0
3498150,36.013028166666665,129.31898133333334,34.37676354776782,69.70096091271658,3.3000000000000003,27.0,,9.34375,-1.7109375,-5.17578125,2.0859375,1.6015625,1.17578125,5.953125,-1.640625,-1.07421875,2.0
3498151,,,,,,,,8.1953125,-0.4765625,-3.296875,0.919921875,0.326171875,-0.3359375,4.80859375,-0.4140625,0.8046875,2.0
3498152,,,,,,,,5.4140625,2.39453125,-1.50390625,-0.087890625,0.4375,-0.0859375,2.0078125,2.41796875,2.6015625,2.0
3498153,,,,,,,,-5.6484375,4.91015625,16.23046875,-1.166015625,0.49609375,-0.3203125,-9.0625,4.87109375,20.33984375,2.0
3498154,,,,,,,,-5.94140625,2.0078125,9.7578125,-2.224609375,0.6015625,-0.685546875,-9.37109375,1.84375,13.87109375,2.0
3498155,,,,,,,,-4.09375,-7.93359375,1.2890625,0.779296875,0.857421875,-0.84375,-7.53125,-8.19140625,5.3984375,2.0
3498156,,,,,,,,-3.265625,-14.29296875,1.19140625,1.884765625,0.7890625,-0.4375,-6.7265625,-14.55078125,5.28515625,2.0
3498157,,,,,,,,1.4609375,-30.99609375,3.90234375,2.876953125,0.365234375,1.30859375,-2.015625,-31.171875,8.00390625,2.0
3498158,,,,,,,,-7.92578125,-50.69140625,4.34765625,2.369140625,0.3984375,3.10546875,-11.40234375,-50.71484375,8.46484375,2.0
3498159,,,,,,,,-9.32421875,-24.4765625,11.6328125,1.40234375,0.455078125,2.14453125,-12.81640625,-24.359375,15.7421875,2.0
3498160,36.013031,129.31898216666664,34.45188635925909,70.01534572683987,3.2,22.0,,10.59375,-14.4375,-5.08984375,2.0859375,1.6015625,1.17578125,7.1015625,-14.28515625,-0.95703125,2.0
3498161,,,,,,,,15.19140625,-12.77734375,-9.0234375,1.96484375,0.501953125,-1.0390625,11.69921875,-12.6328125,-4.8671875,2.0
3498162,,,,,,,,19.49609375,-16.5703125,-7.2890625,4.201171875,0.16796875,-2.185546875,15.98828125,-16.39453125,-3.140625,2.0
3498163,,,,,,,,18.80078125,-17.40625,-5.0859375,1.451171875,-0.2578125,-1.267578125,13.765625,-17.84375,2.14453125,2.0
3498164,,,,,,,,13.0390625,-18.6015625,2.62109375,-1.251953125,-0.287109375,-0.029296875,7.1796875,-18.9921875,7.546875,2.0
3498165,,,,,,,,8.79296875,-19.89453125,3.43359375,-2.03515625,-0.326171875,0.98828125,3.34765625,-19.5703125,5.9765625,2.0
3498166,,,,,,,,5.92578125,-17.953125,0.796875,-1.41796875,-0.63671875,0.984375,2.16015625,-16.19921875,4.01953125,2.0
3498167,,,,,,,,5.62109375,-13.28515625,-2.0859375,-1.072265625,-1.115234375,0.3515625,2.23828125,-12.09765625,1.609375,2.0
3498168,,,,,,,,5.41015625,-10.78515625,-3.05078125,-0.845703125,-1.251953125,-0.11328125,1.77734375,-10.03125,1.1484375,2.0
3498169,,,,,,,,4.31640625,-8.59375,-2.72265625,-0.796875,-1.1640625,-0.111328125,1.05078125,-8.84765625,1.68359375,2.0
3498170,36.01303333333333,129.3189825,34.481934962320636,70.27425074306004,2.7,18.0,,10.59375,-14.4375,-5.08984375,-0.974609375,-0.998046875,0.15234375,-0.8671875,-8.15234375,2.41015625,2.0
3498171,,,,,,,,1.77734375,-7.6171875,-2.35546875,-1.166015625,-0.796875,0.357421875,-1.36328125,-8.0390625,2.14453125,2.0
3498172,,,,,,,,0.57421875,-6.265625,-2.84765625,-1.236328125,-0.49609375,0.484375,-2.51171875,-6.77734375,1.68359375,2.0
3498173,,,,,,,,-0.25390625,-4.6796875,-3.515625,-1.087890625,-0.236328125,0.607421875,-3.31640625,-5.28125,1.03125,2.0
3498174,,,,,,,,-0.5390625,-2.08203125,-4.91015625,-0.85546875,0.111328125,0.70703125,-3.58984375,-2.75390625,-0.34765625,2.0
3498175,,,,,,,,-1.0078125,0.73828125,-5.4453125,-0.748046875,0.51953125,0.830078125,-4.05078125,0.00390625,-0.8828125,2.0
3498176,,,,,,,,-1.18359375,1.5234375,-4.9296875,-0.716796875,0.666015625,0.939453125,-4.234375,0.734375,-0.3828125,2.0
3498177,,,,,,,,-1.765625,4.28125,-4.29296875,-0.634765625,0.83984375,1.189453125,-4.85546875,3.453125,0.23046875,2.0
3498178,,,,,,,,-0.8359375,5.0390625,-4.5,-0.3359375,0.93359375,1.228515625,-3.96875,4.18359375,0.0,2.0
3498179,,,,,,,,-0.29296875,5.0859375,-4.75390625,0.1015625,0.916015625,1.125,-3.47265625,4.22265625,-0.26953125,2.0
3498180,36.013036166666666,129.31898183333334,34.42183449917394,70.58863502753982,3.1,5.0,,0.93359375,3.515625,-5.7265625,-0.974609375,-0.998046875,0.15234375,-2.28515625,2.6484375,-1.265625,2.0
3498181,,,,,,,,1.49609375,1.8515625,-5.90234375,0.673828125,0.537109375,0.904296875,-1.74609375,1.0,-1.45703125,2.0
3498182,,,,,,,,1.1796875,-1.05859375,-6.015625,0.83984375,0.34765625,1.0,-2.09765625,-1.87109375,-1.5703125,2.0
3498183,,,,,,,,0.578125,-2.4765625,-5.82421875,0.845703125,0.138671875,1.201171875,-2.703125,-3.25390625,-1.37890625,2.0
3498184,,,,,,,,-0.71875,-3.48046875,-4.1171875,0.82421875,-0.0625,1.333984375,-4.0078125,-4.203125,0.34375,2.0
3498185,,,,,,,,-3.36328125,-4.1015625,1.4296875,0.9140625,-0.193359375,1.298828125,-6.65234375,-4.78125,5.8984375,2.0
3498186,,,,,,,,-3.63671875,-4.44921875,2.32421875,1.412109375,-0.2265625,0.91796875,-6.91796875,-5.08984375,6.81640625,2.0
3498187,,,,,,,,-3.453125,-5.28515625,3.796875,2.46484375,-0.138671875,0.064453125,-6.7265625,-5.85546875,8.3125,2.0
3498188,,,,,,,,-3.76953125,-7.23828125,2.9609375,3.40234375,-0.0625,-1.099609375,-7.03515625,-7.73046875,7.5078125,2.0
3498189,,,,,,,,-0.22265625,-13.67578125,-2.37890625,3.8359375,-0.06640625,-2.087890625,-3.47265625,-14.08984375,2.18359375,2.0
3498190,36.0130385,129.31898216666664,34.45188309575768,70.84754004411855,2.7,5.0,,6.87890625,-42.515625,-2.52734375,3.51171875,-0.38671875,-1.84375,3.65234375,-42.86328125,2.06640625,2.0
3498191,,,,,,,,16.12109375,-54.984375,9.42578125,2.66015625,-0.732421875,-0.978515625,12.92578125,-55.2734375,14.05859375,2.0
3498192,,,,,,,,33.6015625,-32.48046875,29.359375,2.66015625,-0.650390625,-0.94140625,30.4296875,-32.74609375,34.01953125,2.0
3498193,,,,,,,,8.171875,-17.45703125,-0.40625,3.666015625,-0.53125,0.087890625,5.03125,-17.65234375,4.2890625,2.0
3498194,,,,,,,,-7.08984375,-12.6484375,-3.6328125,2.537109375,-0.18359375,-4.005859375,-10.17578125,-12.71484375,1.109375,2.0
3498195,,,,,,,,-3.56640625,-17.94921875,-6.24609375,2.158203125,1.03515625,-3.34765625,-6.65234375,-18.07421875,-1.49609375,2.0
3498196,,,,,,,,-0.29296875,-19.5078125,-6.56640625,3.404296875,1.5234375,-1.12890625,-3.43359375,-19.61328125,-1.83984375,2.0
3498197,,,,,,,,8.10546875,-19.90625,-5.39453125,4.0,1.111328125,0.70703125,4.91796875,-19.87890625,-0.69140625,2.0
3498198,,,,,,,,9.33203125,-20.1484375,-3.37890625,4.041015625,1.330078125,1.080078125,6.10546875,-19.95703125,1.30078125,2.0
3498199,,,,,,,,9.69921875,-19.4296875,-2.7890625,4.076171875,1.3828125,0.890625,6.44921875,-19.15234375,1.875,2.0
3498200,36.013041,129.31898216666664,34.45188200777045,71.1249381505666,2.7,3.0,0.0,7.65625,-16.0859375,-2.58203125,3.51171875,-0.38671875,-1.84375,3.65234375,-42.86328125,2.06640625,2.0
3498201,,,,,,,,7.16015625,-12.86328125,-3.24609375,3.51953125,2.1796875,0.521484375,3.76953125,-12.25,1.30078125,2.0
3498202,,,,,,,,7.11328125,-9.5703125,-3.4453125,2.826171875,2.06640625,0.41796875,3.65234375,-8.84375,1.03125,2.0
3498203,,,,,,,,8.03515625,-8.55078125,-3.6875,2.802734375,1.931640625,0.4765625,4.49609375,-7.7265625,0.7265625,2.0
3498204,,,,,,,,9.59375,-8.00390625,-4.30859375,2.841796875,1.7109375,0.56640625,5.9921875,-7.08203125,0.03515625,2.0
3498205,,,,,,,,10.88671875,-6.62109375,-4.94921875,2.796875,1.19921875,0.69140625,7.2109375,-5.55078125,-0.69140625,2.0
3498206,,,,,,,,10.796875,-3.42578125,-4.86328125,2.96484375,0.712890625,0.931640625,7.1015625,-2.25390625,-0.65234375,2.0
3498207,,,,,,,,9.5625,-0.2578125,-4.71875,3.02734375,0.287109375,1.171875,5.87890625,1.0390625,-0.5390625,2.0
3498208,,,,,,,,7.72265625,1.5078125,-5.23046875,2.451171875,-0.05859375,1.087890625,4.0703125,2.9921875,-1.07421875,2.0
3498209,,,,,,,,6.8515625,2.16015625,-5.57421875,1.916015625,-0.125,0.8203125,3.234375,3.72265625,-1.41796875,2.0
3498210,36.013043333333336,129.3189808333333,34.33168254193069,71.38384257892282,3.1,351.0,,6.78125,0.90234375,-5.4609375,3.51171875,-0.38671875,-1.84375,3.65234375,-42.86328125,2.06640625,2.0
3498211,,,,,,,,7.28515625,-0.48046875,-4.96875,1.33984375,-0.15234375,0.65234375,3.7265625,1.19140625,-0.8046875,2.0
3498212,,,,,,,,8.51953125,-1.30078125,-4.44140625,1.43359375,-0.255859375,0.841796875,4.99609375,0.42578125,-0.26953125,2.0
3498213,,,,,,,,8.5859375,-0.98046875,-3.8359375,1.46484375,-0.322265625,1.015625,5.11328125,0.80859375,0.34375,2.0
3498214,,,,,,,,7.54296875,-0.07421875,-2.00390625,1.078125,-0.30859375,1.177734375,4.109375,1.76953125,2.18359375,2.0
3498215,,,,,,,,2.9375,1.72265625,4.25390625,0.185546875,-0.181640625,1.33203125,-0.4453125,3.60546875,8.4609375,2.0
3498216,,,,,,,,1.6875,1.87109375,3.05078125,-0.390625,-0.08984375,1.28125,-1.671875,3.76171875,7.27734375,2.0
3498217,,,,,,,,1.12109375,1.78515625,1.82421875,-0.751953125,0.318359375,0.68359375,-2.51171875,3.4140625,4.98046875,2.0
3498218,,,,,,,,0.53125,1.01953125,-0.0390625,-0.333984375,0.490234375,0.474609375,-2.78125,2.83984375,4.25390625,2.0
3498219,,,,,,,,0.64453125,-1.29296875,-1.43359375,0.16796875,0.564453125,0.5625,-2.66796875,0.50390625,2.87109375,2.0
3498220,36.01304583333333,129.31897916666668,34.18143340210439,71.6612400987527,2.8000000000000003,341.0,,6.78125,0.90234375,-5.4609375,0.58984375,0.548828125,0.681640625,3.65234375,-42.86328125,2.06640625,2.0
3498221,,,,,,,,2.828125,-15.4921875,-0.421875,0.9140625,0.560546875,0.958984375,-0.484375,-13.671875,3.8671875,2.0
3498222,,,,,,,,3.203125,-62.203125,10.16796875,1.189453125,0.638671875,1.5390625,-0.1015625,-60.328125,14.44140625,2.0
3498223,,,,,,,,-13.64453125,-70.578125,25.7265625,2.447265625,0.5078125,2.330078125,-16.91796875,-68.5625,29.953125,2.0
3498224,,,,,,,,12.97265625,-19.6328125,-6.7109375,3.306640625,-0.21484375,1.71875,9.74609375,-17.46484375,-2.53125,2.0
3498225,,,,,,,,19.8203125,-11.0078125,-11.61328125,3.716796875,-0.1171875,-3.796875,16.6015625,-8.765625,-7.47265625,2.0
3498226,,,,,,,,24.37890625,-13.30078125,-13.49609375,3.94140625,-0.18359375,-4.78515625,21.1171875,-11.06640625,-9.38671875,2.0
3498227,,,,,,,,27.97265625,-17.7578125,-10.58984375,2.712890625,-0.4453125,-4.328125,24.640625,-15.5859375,-6.51171875,2.0
3498228,,,,,,,,20.734375,-20.7421875,-2.84765625,0.716796875,0.166015625,-1.318359375,17.3671875,-18.65234375,1.22265625,2.0
3498229,,,,,,,,16.3046875,-24.88671875,1.65234375,-0.931640625,-0.052734375,1.859375,12.9609375,-22.8203125,5.74609375,2.0
3498230,36.013048166666664,129.31897783333335,34.0612339516762,71.92014453145916,2.3000000000000003,337.0,,10.56640625,-26.2734375,4.875,-2.099609375,-0.384765625,2.52734375,7.29296875,-24.24609375,9.0390625,2.0
3498231,,,,,,,,6.0,-17.24609375,1.2421875,-1.416015625,-0.431640625,1.783203125,2.8125,-15.2734375,5.4765625,2.0
3498232,,,,,,,,5.5,-9.44921875,-2.296875,0.517578125,-0.962890625,0.818359375,2.390625,-7.50390625,1.9921875,2.0
3498233,,,,,,,,5.7734375,-8.68359375,-2.27734375,1.0625,-1.044921875,0.4609375,2.6953125,-6.734375,2.02734375,2.0
3498234,,,,,,,,6.234375,-9.9453125,-2.23046875,0.712890625,-1.16796875,0.083984375,3.234375,-8.00390625,2.10546875,2.0
3498235,,,,,,,,5.08984375,-10.21484375,-3.55859375,-0.37109375,-1.189453125,0.021484375,2.16015625,-8.30859375,0.83984375,2.0
3498236,,,,,,,,2.828125,-9.9140625,-2.39453125,-0.38671875,-1.203125,0.359375,-0.0234375,-8.08203125,2.06640625,2.0
3498237,,,,,,,,0.8359375,-8.87890625,-2.640625,-0.05078125,-0.78125,1.046875,-1.9375,-7.08203125,1.875,2.0
3498238,,,,,,,,0.2578125,-8.37109375,-3.15234375,0.0703125,-0.54296875,1.345703125,-2.4765625,-6.578125,1.37890625,2.0
3498239,,,,,,,,-1.09765625,-6.6875,-3.98046875,0.1796875,-0.10546875,1.509765625,-3.77734375,-4.90234375,0.57421875,2.0
3498240,36.013049,129.31897583333333,33.88093592683548,72.01260987017801,2.6,321.0,,-1.7109375,-3.375,-4.87890625,-2.099609375,-0.384765625,2.52734375,7.29296875,-24.24609375,9.0390625,2.0
3498241,,,,,,,,-1.92578125,-1.24609375,-5.26171875,-0.240234375,0.564453125,1.029296875,-4.5390625,0.50390625,-0.69140625,2.0
3498242,,,,,,,,-1.6953125,0.2109375,-5.23046875,-0.427734375,0.90234375,0.857421875,-4.3125,1.921875,-0.65234375,2.0
3498243,,,,,,,,-1.55859375,0.984375,-5.375,-0.4765625,1.083984375,0.779296875,-4.19921875,2.6484375,-0.8046875,2.0
3498244,,,,,,,,-1.421875,1.22265625,-5.71484375,-0.2109375,1.11328125,0.748046875,-4.08984375,2.83984375,-1.15234375,2.0
3498245,,,,,,,,-0.8203125,-0.25390625,-6.08203125,0.36328125,0.994140625,0.748046875,-3.5078125,1.34765625,-1.53515625,2.0
3498246,,,,,,,,-0.61328125,-0.984375,-6.171875,1.162109375,0.900390625,0.76171875,-3.3125,0.6171875,-1.6484375,2.0
3498247,,,,,,,,-0.25390625,-3.40625,-5.87109375,1.744140625,0.853515625,0.853515625,-2.96875,-1.7578125,-1.37890625,2.0
3498248,,,,,,,,-0.35546875,-4.08203125,-5.12890625,1.943359375,0.732421875,0.939453125,-3.08984375,-2.37109375,-0.69140625,2.0
3498249,,,,,,,,-0.27734375,-3.8828125,-3.48828125,1.89453125,0.525390625,0.90234375,-3.0078125,-2.1015625,0.91796875,2.0
3498250,36.01305,129.31897333333333,33.65556342233708,72.12356824618047,2.5,306.0,,-0.16796875,-2.296875,-1.42578125,-2.099609375,-0.384765625,2.52734375,7.29296875,-24.24609375,9.0390625,2.0
3498251,,,,,,,,-0.1328125,-1.6640625,-0.9296875,2.056640625,0.3046875,0.078125,-2.859375,0.234375,3.41015625,2.0
3498252,,,,,,,,0.54296875,-0.66015625,-2.0625,2.595703125,0.37109375,-1.12890625,-2.20703125,1.30859375,2.22265625,2.0
3498253,,,,,,,,0.734375,-0.4609375,-2.08203125,2.91796875,0.53125,-1.87890625,-2.0546875,1.5390625,2.14453125,2.0
3498254,,,,,,,,-0.3125,-0.83984375,0.01171875,3.138671875,0.716796875,-2.30859375,-3.1640625,1.19140625,4.17578125,2.0
3498255,,,,,,,,2.046875,-5.16015625,-2.66796875,3.412109375,0.921875,-2.3125,-0.8671875,-3.09375,1.41796875,2.0
3498256,,,,,,,,5.6484375,-16.58203125,-0.5546875,3.955078125,1.072265625,-1.732421875,2.65625,-14.47265625,3.4453125,2.0
3498257,,,,,,,,9.56640625,-35.546875,0.8359375,3.208984375,0.4375,-0.0078125,6.52734375,-33.36328125,4.75,2.0
3498258,,,,,,,,30.03515625,-66.625,23.59765625,2.876953125,0.037109375,0.841796875,27.01953125,-64.35546875,27.46484375,2.0
3498259,,,,,,,,26.56640625,-34.67578125,11.609375,2.287109375,0.04296875,-0.138671875,23.57421875,-32.3203125,15.4375,2.0
3498260,36.01305216666666,129.3189713333333,33.47526484172804,72.36397924950785,2.5,310.0,,5.6640625,-18.08984375,-3.22265625,2.9140625,0.134765625,-2.607421875,7.29296875,-24.24609375,9.0390625,2.0
3498261,,,,,,,,-1.82421875,-19.98046875,-5.3125,1.580078125,0.802734375,-4.76171875,-4.92578125,-17.69140625,-1.5703125,2.0
3498262,,,,,,,,0.4140625,-22.32421875,-5.3828125,0.8828125,0.880859375,-4.435546875,-2.7421875,-20.1015625,-1.6484375,2.0
3498263,,,,,,,,9.578125,-26.27734375,1.90625,3.349609375,1.462890625,-0.931640625,6.296875,-24.1640625,5.5546875,2.0
3498264,,,,,,,,10.14453125,-29.6171875,4.03515625,3.859375,1.27734375,1.01171875,6.83203125,-27.42578125,7.58203125,2.0
3498265,,,,,,,,9.33984375,-25.1015625,0.98828125,2.78515625,1.62109375,0.00390625,4.99609375,-20.44921875,3.0625,2.0
3498266,,,,,,,,8.31640625,-22.80078125,-0.34375,2.5625,2.158203125,-0.67578125,4.265625,-16.7734375,1.1875,2.0
3498267,,,,,,,,8.515625,-16.6640625,-1.91796875,2.5390625,2.208984375,-0.873046875,5.4921875,-13.09765625,2.14453125,2.0
3498268,,,,,,,,8.39453125,-13.33203125,-0.32421875,2.556640625,2.203125,-0.591796875,4.3046875,-10.2578125,2.2578125,2.0
3498269,,,,,,,,7.8125,-12.64453125,-0.84375,2.455078125,2.12890625,-0.4140625,4.07421875,-10.0703125,1.41796875,2.0
3498270,36.01305266666667,129.31896883333332,33.24989256406583,72.4194580144911,2.5,297.0,,5.6640625,-18.08984375,-3.22265625,2.107421875,2.0234375,-0.2578125,4.265625,-10.3359375,0.57421875,2.0
3498271,,,,,,,,8.2578125,-12.78125,-1.4140625,1.9609375,1.998046875,0.142578125,4.6484375,-10.375,1.4921875,2.0
3498272,,,,,,,,8.48046875,-12.60546875,-0.67578125,1.92578125,1.70703125,0.626953125,4.99609375,-10.07421875,2.10546875,2.0
3498273,,,,,,,,8.765625,-11.7578125,-0.8359375,1.814453125,1.419921875,0.80859375,5.109375,-9.3046875,1.9140625,2.0
3498274,,,,,,,,8.49609375,-9.2578125,-0.53515625,1.755859375,1.21484375,0.888671875,4.83984375,-6.77734375,2.14453125,2.0
3498275,,,,,,,,7.80078125,-7.03125,-0.44140625,1.68359375,0.962890625,0.8828125,3.765625,-3.2890625,2.18359375,2.0
3498276,,,,,,,,7.05859375,-4.5546875,-0.6171875,1.634765625,0.82421875,0.810546875,3.421875,-2.0234375,1.9921875,2.0
3498277,,,,,,,,5.85546875,-0.18359375,-0.84765625,1.47265625,0.615234375,0.546875,2.23828125,2.375,1.72265625,2.0
3498278,,,,,,,,5.1171875,1.640625,-0.89453125,1.24609375,0.455078125,0.18359375,1.5078125,4.22265625,1.64453125,2.0
3498279,,,,,,,,4.94921875,3.640625,-1.421875,1.1328125,0.3125,-0.255859375,1.35546875,6.21484375,1.109375,2.0
3498280,36.01305216666666,129.318966,32.994471093463936,72.36397743065012,2.8000000000000003,281.0,,5.6640625,-18.08984375,-3.22265625,1.255859375,0.208984375,-0.646484375,4.265625,-10.3359375,0.57421875,2.0
3498281,,,,,,,,8.42578125,0.31640625,-2.890625,1.595703125,0.173828125,-0.80078125,4.83984375,2.83984375,-0.3828125,2.0
3498282,,,,,,,,9.96875,-2.3046875,-3.18359375,1.921875,0.302734375,-0.580078125,6.37890625,0.1953125,-0.69140625,2.0
3498283,,,,,,,,9.203125,-2.6796875,-2.25390625,1.763671875,0.515625,-0.009765625,5.609375,-0.1875,0.23046875,2.0
3498284,,,,,,,,6.7734375,-3.0703125,-0.109375,0.814453125,0.568359375,0.51171875,3.1953125,-0.5703125,2.3359375,2.0
3498285,,,,,,,,4.53515625,-2.6484375,2.10546875,-0.365234375,0.61328125,0.6796875,0.97265625,-0.1484375,4.5546875,2.0
