time,latitude,longitude,enu_x,enu_y,speed,course,ecg,accX,accY,accZ,gyrX,gyrY,gyrZ,eulR,eulP,eulY,motion
3450310,36.01301133333333,129.31896566666668,32.96443848887007,67.83314159168692,3.4000000000000004,233.0,,7.44921875,3.92578125,1.63671875,1.240234375,0.111328125,1.244140625,3.0390625,0.16015625,-1.07421875,1.0
3450311,,,,,,,,6.0625,6.25390625,3.48046875,0.552734375,0.06640625,1.61328125,1.625,2.4921875,0.83984375,1.0
3450312,,,,,,,,6.046875,6.8125,3.95703125,0.27734375,0.048828125,1.669921875,1.5859375,3.07421875,1.33984375,1.0
3450313,,,,,,,,6.78125,6.734375,3.265625,-0.064453125,0.056640625,1.505859375,2.2734375,3.03515625,0.6875,1.0
3450314,,,,,,,,8.03125,6.05859375,2.046875,0.142578125,0.029296875,1.078125,3.5,2.37890625,-0.5,1.0
3450315,,,,,,,,11.609375,3.33203125,0.7421875,0.37109375,0.01171875,0.51171875,7.06640625,-0.33984375,-1.7265625,1.0
3450316,,,,,,,,12.7578125,1.65625,0.375,0.33203125,0.0390625,0.4453125,8.21484375,-2.0234375,-2.0703125,1.0
3450317,,,,,,,,11.49609375,1.01953125,0.3046875,0.212890625,0.173828125,0.478515625,6.9453125,-2.67578125,-2.109375,1.0
3450318,,,,,,,,8.46875,1.21875,1.84375,-0.10546875,0.28125,0.521484375,3.92578125,-2.484375,-0.5390625,1.0
3450319,,,,,,,,7.609375,1.44140625,2.41015625,-0.84765625,0.443359375,0.41015625,3.08203125,-2.25390625,0.03515625,1.0
3450320,36.01300983333333,129.3189625,32.67896767057148,67.66670166215941,3.4000000000000004,236.0,,5.13671875,2.49609375,5.41015625,-1.73046875,0.587890625,0.046875,0.62890625,-1.18359375,2.98828125,1.0
3450321,,,,,,,,3.33984375,3.25,9.9140625,-2.47265625,0.650390625,-0.64453125,-1.09765625,-0.4140625,7.390625,1.0
3450322,,,,,,,,4.58203125,3.82421875,11.83984375,-2.3046875,0.501953125,-1.177734375,0.20703125,0.16015625,9.2265625,1.0
3450323,,,,,,,,5.98828125,1.1796875,12.1953125,-1.203125,0.384765625,-1.6796875,1.69921875,-2.5234375,9.54296875,1.0
3450324,,,,,,,,2.265625,-6.953125,10.53125,-1.150390625,0.216796875,-1.3203125,-1.9375,-10.72265625,7.8515625,1.0
3450325,,,,,,,,-1.375,-31.15625,18.98046875,-1.611328125,0.2578125,0.330078125,-5.5390625,-34.93359375,16.27734375,1.0
3450326,,,,,,,,-8.81640625,-56.9140625,20.30078125,-1.181640625,0.501953125,1.380859375,-12.97265625,-60.67578125,17.58203125,1.0
3450327,,,,,,,,-14.3671875,-24.02734375,21.296875,0.509765625,0.328125,1.919921875,-18.5625,-27.73046875,18.578125,1.0
3450328,,,,,,,,4.546875,-1.59375,4.45703125,-1.95703125,-0.216796875,-0.041015625,0.3203125,-5.28515625,1.76171875,1.0
3450329,,,,,,,,13.77734375,-7.29296875,0.0234375,-3.501953125,0.3984375,-3.45703125,9.62890625,-10.98828125,-2.7578125,1.0
3450330,36.01300783333333,129.31896,32.45359629971071,67.44478234367044,3.2,230.0,,17.09375,-14.66015625,5.1328125,-0.8984375,-0.193359375,-3.478515625,13.1171875,-18.49609375,2.296875,1.0
3450331,,,,,,,,7.69921875,-18.93359375,4.8046875,-1.619140625,-1.12109375,-0.57421875,3.80859375,-22.86328125,1.9921875,1.0
3450332,,,,,,,,-1.44140625,-22.3515625,8.09765625,-4.330078125,-1.390625,2.169921875,-5.38671875,-26.1953125,5.24609375,1.0
3450333,,,,,,,,-1.26171875,-17.94140625,6.4296875,-5.333984375,-1.6015625,1.759765625,-5.30859375,-21.59765625,3.484375,1.0
3450334,,,,,,,,2.1875,-12.60546875,3.59765625,-4.3671875,-1.751953125,0.359375,-1.9375,-16.1171875,0.57421875,1.0
3450335,,,,,,,,4.46875,-7.8515625,2.32421875,-3.412109375,-1.939453125,-0.521484375,0.3203125,-11.296875,-0.73046875,1.0
3450336,,,,,,,,4.04296875,-6.78515625,3.22265625,-3.732421875,-2.166015625,-0.3125,-0.13671875,-10.1796875,0.15234375,1.0
3450337,,,,,,,,1.53125,-6.28125,3.62109375,-4.236328125,-2.2578125,0.388671875,-2.703125,-9.61328125,0.53515625,1.0
3450338,,,,,,,,0.83203125,-6.03125,2.79296875,-4.3984375,-2.271484375,0.5859375,-3.43359375,-9.30859375,-0.30859375,1.0
3450339,,,,,,,,0.55078125,-4.29296875,0.83984375,-4.40234375,-2.171875,0.541015625,-3.81640625,-7.38671875,-2.30078125,1.0
3450340,36.01300666666667,129.31895716666668,32.19817495282241,67.31532895443857,3.1,235.0,,0.15234375,-1.72265625,-0.546875,-4.234375,-2.107421875,0.525390625,-4.27734375,-4.70703125,-3.71875,1.0
3450341,,,,,,,,-0.703125,0.0,-0.0703125,-4.08203125,-1.986328125,0.736328125,-5.1953125,-2.8671875,-3.2578125,1.0
3450342,,,,,,,,-1.7109375,1.9453125,1.70703125,-3.99609375,-1.716796875,1.1640625,-6.26953125,-0.796875,-1.49609375,1.0
3450343,,,,,,,,-1.828125,2.79296875,1.875,-3.916015625,-1.546875,1.392578125,-6.421875,0.12109375,-1.34375,1.0
3450344,,,,,,,,-2.25390625,3.83203125,2.60546875,-3.62109375,-1.150390625,1.70703125,-6.91796875,1.30859375,-0.65234375,1.0
3450345,,,,,,,,-1.89453125,4.03515625,2.4375,-3.2421875,-0.919921875,1.7578125,-6.61328125,1.65234375,-0.84375,1.0
3450346,,,,,,,,-2.48828125,1.0234375,1.47265625,-2.826171875,-0.8515625,1.587890625,-7.2578125,-1.21875,-1.83984375,1.0
3450347,,,,,,,,-3.53125,-2.0546875,1.328125,-2.361328125,-0.8984375,1.376953125,-8.37890625,-4.1328125,-1.9921875,1.0
3450348,,,,,,,,-3.58203125,-2.72265625,2.1484375,-2.126953125,-0.833984375,1.41796875,-8.4453125,-4.74609375,-1.1875,1.0
3450349,,,,,,,,-2.703125,-3.234375,3.75,-1.421875,-0.54296875,1.560546875,-7.61328125,-5.1640625,0.421875,1.0
3450350,36.0130055,129.318954,31.91270396678731,67.18587546454323,3.3000000000000003,240.0,,-0.36328125,-3.23046875,6.55078125,-4.234375,-2.107421875,0.525390625,-5.3046875,-5.08984375,3.21484375,1.0
3450351,,,,,,,,1.828125,-0.91015625,7.81640625,0.564453125,0.0546875,1.06640625,-3.125,-2.75390625,4.4765625,1.0
3450352,,,,,,,,3.63671875,1.51171875,6.99609375,1.5390625,-0.001953125,0.203125,-1.32421875,-0.37890625,3.671875,1.0
3450353,,,,,,,,5.95703125,6.91015625,5.2734375,2.015625,-0.181640625,-0.88671875,1.01171875,4.91015625,1.9921875,1.0
3450354,,,,,,,,7.92578125,12.51953125,3.546875,2.26953125,-0.587890625,-1.681640625,3.00390625,10.34375,0.34375,1.0
3450355,,,,,,,,9.1953125,14.1015625,2.53515625,2.021484375,-1.05859375,-2.05078125,4.3046875,11.73046875,-0.57421875,1.0
3450356,,,,,,,,9.640625,13.7734375,3.09765625,1.7734375,-1.232421875,-2.068359375,4.765625,11.30859375,0.03515625,1.0
3450357,,,,,,,,7.1328125,7.7734375,4.84375,0.986328125,-1.1640625,-1.658203125,2.2734375,5.14453125,1.875,1.0
3450358,,,,,,,,3.9375,-4.65234375,7.67578125,0.076171875,-0.822265625,-0.59765625,-0.90625,-7.3828125,4.78515625,1.0
3450359,,,,,,,,3.9609375,-26.43359375,9.078125,0.060546875,-0.734375,1.423828125,-0.90625,-29.18359375,6.2421875,1.0
3450360,36.01300483333333,129.3189505,31.59718315096579,67.11190149638384,3.1,246.0,,6.09375,-53.6484375,7.484375,-4.234375,-2.107421875,0.525390625,-5.3046875,-5.08984375,3.21484375,1.0
3450361,,,,,,,,6.71875,-78.140625,9.3125,1.017578125,-1.033203125,2.904296875,6.71875,-78.140625,19.11328125,1.0
3450362,,,,,,,,8.05859375,-26.15625,15.94140625,-0.3671875,-0.869140625,1.53515625,8.05859375,-26.15625,25.7421875,1.0
3450363,,,,,,,,5.03125,-20.83203125,3.03125,-0.94921875,-0.6796875,0.265625,5.03125,-20.828125,12.83203125,1.0
3450364,,,,,,,,-7.875,-12.484375,-7.734375,-2.28125,-0.14453125,-3.71875,-7.875,-12.484375,2.06640625,1.0
3450365,,,,,,,,-11.2109375,-4.58984375,-15.39453125,-3.001953125,0.28125,-6.103515625,-11.21484375,-4.58984375,-5.59375,1.0
3450366,,,,,,,,-11.66796875,-9.9921875,-14.78125,-0.77734375,0.2734375,-4.26953125,-11.66796875,-9.9921875,-4.98046875,1.0
3450367,,,,,,,,-11.59375,-15.890625,-11.140625,1.021484375,-0.427734375,0.244140625,-9.67578125,-16.23828125,-0.34765625,1.0
3450368,,,,,,,,-9.67578125,-16.23828125,-10.14453125,0.630859375,-0.3828125,1.314453125,-6.84375,-15.8515625,2.06640625,1.0
3450369,,,,,,,,-4.0859375,-15.27734375,-6.5078125,1.00390625,0.26171875,2.666015625,-2.015625,-13.44140625,2.83203125,1.0
3450370,36.013004,129.3189475,31.32673683574768,67.0194344930483,2.9000000000000004,248.0,,6.09375,-53.6484375,7.484375,-4.234375,-2.107421875,0.525390625,1.9296875,-10.26171875,2.14453125,1.0
3450371,,,,,,,,4.3046875,-8.65234375,-7.3125,1.61328125,0.41015625,1.14453125,6.4140625,-7.1953125,2.796875,1.0
3450372,,,,,,,,8.82421875,-5.35546875,-6.46875,0.998046875,0.625,0.67578125,8.8203125,-5.35546875,3.33203125,1.0
3450373,,,,,,,,7.140625,-3.7109375,-8.26953125,0.00390625,0.341796875,0.375,7.14453125,-3.7109375,1.53125,1.0
3450374,,,,,,,,2.92578125,-5.05078125,-10.98828125,-0.84375,0.359375,0.435546875,2.92578125,-5.046875,-1.1875,1.0
3450375,,,,,,,,1.77734375,-5.203125,-10.71875,-1.302734375,0.421875,0.810546875,1.77734375,-5.20703125,-0.921875,1.0
3450376,,,,,,,,0.8203125,-5.12890625,-10.56640625,-1.55859375,0.26953125,1.01171875,0.8203125,-5.125,-0.765625,1.0
3450377,,,,,,,,0.89453125,-4.4765625,-10.30078125,-1.791015625,-0.154296875,1.283203125,0.89453125,-4.48046875,-0.5,1.0
3450378,,,,,,,,2.046875,-3.25,-9.1484375,-1.7890625,-0.39453125,1.40234375,2.046875,-3.25390625,0.6484375,1.0
3450379,,,,,,,,2.84765625,-1.56640625,-9.49609375,-1.65625,-0.578125,1.423828125,2.84765625,-1.56640625,0.3046875,1.0
3450380,36.013004333333335,129.31894466666665,31.071314865595994,67.05641999969085,2.8000000000000003,262.0,,3.73046875,0.65625,-10.796875,-4.234375,-2.107421875,0.525390625,3.7265625,0.65625,-0.99609375,1.0
3450381,,,,,,,,5.453125,1.578125,-11.41015625,-0.546875,-1.34375,1.072265625,5.453125,1.578125,-1.609375,1.0
3450382,,,,,,,,6.52734375,1.69140625,-11.75390625,-0.4609375,-1.373046875,1.056640625,6.5234375,1.69140625,-1.953125,1.0
3450383,,,,,,,,6.52734375,1.69140625,-11.10546875,-0.732421875,-1.23828125,1.0546875,6.5234375,1.69140625,-1.3046875,1.0
3450384,,,,,,,,4.95703125,1.76953125,-10.14453125,-1.541015625,-0.982421875,0.90625,4.953125,1.76953125,-0.34765625,1.0
3450385,,,,,,,,2.3515625,1.23046875,-10.7578125,-2.6484375,-0.453125,0.203125,2.3515625,1.23046875,-0.95703125,1.0
3450386,,,,,,,,1.35546875,0.84765625,-11.140625,-2.765625,-0.044921875,-0.384765625,1.3515625,0.84765625,-1.34375,1.0
3450387,,,,,,,,0.12890625,0.734375,-10.796875,-3.04296875,0.185546875,-0.70703125,0.12890625,0.734375,-0.99609375,1.0
3450388,,,,,,,,-0.75,0.234375,-9.80078125,-3.353515625,0.283203125,-0.8203125,-0.75,0.234375,0.0,1.0
3450389,,,,,,,,-3.39453125,-3.17578125,-7.1953125,-3.36328125,0.3125,-0.91015625,-3.390625,-3.17578125,2.60546875,1.0
3450390,36.01300383333333,129.31894150000002,30.785843602843187,67.00093937345864,2.8000000000000003,262.0,,-8.10546875,-12.7109375,0.578125,-4.234375,-2.107421875,0.525390625,3.7265625,0.65625,-0.99609375,1.0
3450391,,,,,,,,-19.40625,-56.61328125,22.30078125,-2.701171875,0.482421875,-1.54296875,-19.40625,-56.61328125,32.1015625,1.0
3450392,,,,,,,,-21.4375,-74.38671875,18.0078125,0.408203125,0.91796875,-2.392578125,-21.4375,-74.38671875,27.80859375,1.0
3450393,,,,,,,,-11.66796875,-18.91796875,4.52734375,6.880859375,1.05859375,-2.57421875,-11.66796875,-18.91796875,14.32421875,1.0
3450394,,,,,,,,2.88671875,-9.07421875,-16.6953125,-2.185546875,-0.65234375,-2.162109375,2.88671875,-9.07421875,-6.8984375,1.0
3450395,,,,,,,,4.15234375,-10.26171875,-18.0,-4.884765625,-0.439453125,-4.375,4.15234375,-10.26171875,-8.19921875,1.0
3450396,,,,,,,,2.2734375,-17.1953125,-14.89453125,-4.27734375,-0.18359375,-4.240234375,2.2734375,-17.19921875,-5.09765625,1.0
3450397,,,,,,,,2.62109375,-20.56640625,-9.1875,-3.46484375,-0.67578125,-1.951171875,2.62109375,-20.56640625,0.61328125,1.0
3450398,,,,,,,,2.3515625,-27.765625,-2.5234375,-1.724609375,-0.9296875,1.548828125,2.3515625,-27.76953125,7.27734375,1.0
3450399,,,,,,,,3.42578125,-27.421875,-2.75390625,-2.1640625,-1.3046875,2.591796875,3.42578125,-27.42578125,7.046875,1.0
3450400,36.01300333333334,129.31893833333334,30.500372330891878,66.94545875736401,2.9000000000000004,258.0,0.0,2.84765625,-20.94921875,-9.609375,-3.16796875,-1.880859375,0.16015625,2.84765625,-20.9453125,0.19140625,1.0
3450401,,,,,,,,-1.5546875,-12.94140625,-11.21875,-3.666015625,-2.23828125,-1.513671875,-1.5546875,-12.9375,-1.41796875,1.0
3450402,,,,,,,,-5.5390625,-8.8828125,-10.796875,-4.2109375,-2.70703125,-1.93359375,-5.5390625,-8.88671875,-0.99609375,1.0
3450403,,,,,,,,-7.76171875,-7.84765625,-8.99609375,-4.14453125,-2.8046875,-1.6796875,-7.76171875,-7.84765625,0.8046875,1.0
3450404,,,,,,,,-10.40625,-7.1953125,-8.078125,-3.400390625,-2.654296875,-0.921875,-10.40625,-7.1953125,1.72265625,1.0
3450405,,,,,,,,-10.6328125,-6.62109375,-7.65625,-2.63671875,-2.15625,-0.09375,-10.63671875,-6.62109375,2.14453125,1.0
3450406,,,,,,,,-9.67578125,-5.89453125,-6.890625,-2.3984375,-2.0078125,0.25390625,-9.671875,-5.89453125,2.91015625,1.0
3450407,,,,,,,,-7.83984375,-3.59375,-7.38671875,-2.275390625,-1.78515625,0.40234375,-7.8359375,-3.59375,2.41015625,1.0
3450408,,,,,,,,-7.0703125,-2.59765625,-7.6171875,-2.064453125,-1.71484375,0.3984375,-7.0703125,-2.59765625,2.18359375,1.0
3450409,,,,,,,,0.9765625,1.7265625,-0.30859375,-1.375,-1.583984375,0.443359375,-5.578125,-0.1484375,1.80078125,1.0
3450410,36.0130045,129.31893533333331,30.229925231352432,67.07491027100232,2.9000000000000004,278.0,,3.3828125,7.43359375,-1.4921875,-3.16796875,-1.880859375,0.16015625,2.84765625,-20.9453125,0.19140625,1.0
3450411,,,,,,,,3.9765625,9.40234375,-2.390625,-0.765625,-1.30078125,0.83203125,-2.4765625,7.66796875,-0.15625,1.0
3450412,,,,,,,,3.9921875,9.97265625,-3.609375,-0.810546875,-1.2421875,0.9453125,-2.3984375,8.390625,-1.34375,1.0
3450413,,,,,,,,3.25390625,4.59765625,-3.33203125,-0.80859375,-1.1640625,1.091796875,-3.05078125,3.21875,-1.03515625,1.0
3450414,,,,,,,,2.9765625,2.203125,-2.91015625,-0.478515625,-0.818359375,1.548828125,-3.08984375,-2.1796875,0.53515625,1.0
3450415,,,,,,,,3.49609375,-2.11328125,-1.01953125,-0.091796875,-0.607421875,1.8671875,-1.5546875,-3.90234375,2.375,1.0
3450416,,,,,,,,4.5234375,-3.07421875,0.1015625,0.14453125,-0.55078125,1.94921875,-0.94140625,-3.90234375,2.87109375,1.0
3450417,,,,,,,,6.375,-2.7421875,1.140625,0.712890625,-0.537109375,1.85546875,1.0859375,-2.828125,3.48828125,1.0
3450418,,,,,,,,7.58203125,-1.91796875,1.2265625,1.337890625,-0.5625,1.216796875,2.3125,-2.140625,3.41015625,1.0
3450419,,,,,,,,8.75,-2.44921875,0.90625,1.169921875,-0.552734375,0.751953125,3.26953125,-3.3984375,3.37109375,1.0
3450420,36.0130055,129.3189325,29.97450301943757,67.18586863766076,2.8000000000000003,287.0,,8.43359375,-5.62109375,1.6953125,0.39453125,-0.5859375,0.486328125,2.84765625,-20.9453125,0.19140625,1.0
3450421,,,,,,,,-0.26953125,-5.44140625,0.50390625,-0.52734375,-0.60546875,0.65625,3.234375,-12.79296875,4.7109375,1.0
3450422,,,,,,,,1.15625,-20.37109375,7.1015625,-1.1171875,-0.60546875,0.99609375,4.3828125,-24.8125,10.7265625,1.0
3450423,,,,,,,,2.83203125,-33.2890625,12.5625,-1.330078125,-0.7265625,1.181640625,6.02734375,-37.84375,16.0859375,1.0
3450424,,,,,,,,9.1796875,-35.65234375,12.10546875,-1.15625,-0.634765625,0.771484375,12.3515625,-40.2890625,15.55078125,1.0
3450425,,,,,,,,-0.27734375,-14.875,7.1328125,-0.677734375,0.041015625,-0.16796875,2.88671875,-19.5703125,10.53125,1.0
3450426,,,,,,,,-8.453125,-7.2421875,1.90234375,-0.720703125,0.041015625,-0.88671875,-5.2734375,-11.9453125,5.28515625,1.0
3450427,,,,,,,,-12.8984375,-8.1171875,0.77734375,-3.146484375,-0.5546875,-3.400390625,-9.6015625,-12.83203125,4.05859375,1.0
3450428,,,,,,,,-10.5703125,-14.67578125,-1.32421875,-2.236328125,-0.662109375,-2.76171875,-7.109375,-19.375,1.80078125,1.0
3450429,,,,,,,,-10.48828125,-17.640625,2.0390625,-0.203125,-0.6796875,-0.51171875,-6.91796875,-22.33203125,5.09375,1.0
3450430,36.013006499999996,129.3189305,29.794204882680113,67.29682726577863,2.2,292.0,,-10.56640625,-17.41796875,2.32421875,0.39453125,-0.5859375,0.486328125,2.84765625,-20.9453125,0.19140625,1.0
3450431,,,,,,,,-3.8671875,-13.69921875,0.4453125,0.369140625,-0.302734375,0.78515625,-0.328125,-18.453125,3.484375,1.0
3450432,,,,,,,,-2.4375,-12.53515625,0.28515625,0.369140625,-0.12890625,0.6640625,1.0859375,-17.3046875,3.33203125,1.0
3450433,,,,,,,,-0.16015625,-9.96875,1.09765625,0.087890625,0.384765625,0.474609375,3.30859375,-14.78125,4.17578125,1.0
3450434,,,,,,,,-0.3046875,-7.74609375,0.69921875,-0.26171875,0.48046875,0.5859375,3.1171875,-12.59375,3.79296875,1.0
3450435,,,,,,,,-1.40625,-6.7421875,-0.95703125,-0.154296875,0.572265625,0.689453125,1.96875,-11.64453125,2.14453125,1.0
3450436,,,,,,,,-1.7578125,-6.44140625,-1.34765625,-0.09765625,0.591796875,0.708984375,1.5859375,-11.3671875,1.76171875,1.0
3450437,,,,,,,,-2.39453125,-5.140625,-1.71484375,0.02734375,0.533203125,0.759765625,0.89453125,-10.11328125,1.41796875,1.0
3450438,,,,,,,,-2.4453125,-4.05859375,-1.5390625,-0.06640625,0.44921875,0.884765625,0.78125,-9.07421875,1.609375,1.0
3450439,,,,,,,,-2.22265625,-3.3828125,-1.3203125,-0.1796875,0.396484375,0.9765625,0.97265625,-8.42578125,1.8359375,1.0
3450440,36.013008,129.31892816666667,29.583856935109303,67.46326541699901,2.7,301.0,,-1.30859375,-1.86328125,-0.96484375,0.39453125,-0.5859375,0.486328125,2.84765625,-20.9453125,0.19140625,1.0
3450441,,,,,,,,0.015625,0.50390625,-0.51953125,-0.673828125,0.08203125,1.115234375,3.078125,-4.66796875,2.60546875,1.0
3450442,,,,,,,,0.65234375,3.140625,-0.296875,-0.78125,-0.1015625,0.966796875,3.6484375,-2.1015625,2.796875,1.0
3450443,,,,,,,,1.26953125,4.55078125,-0.59765625,-0.66015625,-0.279296875,0.72265625,4.2265625,-0.76171875,2.44921875,1.0
3450444,,,,,,,,1.71875,5.671875,-1.66796875,-0.3125,-0.388671875,0.375,4.6484375,0.3125,1.33984375,1.0
3450445,,,,,,,,1.98046875,6.32421875,-3.21484375,-0.103515625,-0.365234375,-0.30078125,4.9140625,0.92578125,-0.23046875,1.0
3450446,,,,,,,,0.72265625,6.33203125,-3.65234375,-0.626953125,-0.267578125,-0.458984375,3.69140625,0.92578125,-0.69140625,1.0
3450447,,,,,,,,-0.5703125,6.234375,-3.07421875,-1.8671875,-0.099609375,-0.4140625,2.43359375,0.7734375,-0.23046875,1.0
3450448,,,,,,,,-1.20703125,6.75390625,-2.7265625,-2.435546875,-0.00390625,-0.32421875,1.8125,1.23046875,0.0,1.0
3450449,,,,,,,,-2.14453125,7.859375,-2.54296875,-2.62109375,0.041015625,-0.298828125,0.89453125,2.265625,0.03515625,1.0
3450450,36.01301016666666,129.31892633333334,29.418583187522962,67.70367655248855,2.8000000000000003,312.0,,-3.26953125,9.37890625,-2.3671875,-2.583984375,0.103515625,-0.40234375,-0.21484375,3.68359375,0.0,1.0
3450451,,,,,,,,-4.05859375,10.0859375,-2.328125,-2.576171875,0.103515625,-0.501953125,-0.98046875,4.3359375,-0.1171875,1.0
3450452,,,,,,,,-4.390625,10.31640625,-3.09765625,-2.525390625,0.083984375,-0.595703125,-1.2890625,4.5234375,-1.03515625,1.0
3450453,,,,,,,,-4.43359375,10.25390625,-3.34375,-2.484375,0.048828125,-0.62109375,-1.32421875,4.4453125,-1.34375,1.0
3450454,,,,,,,,-4.3203125,9.94140625,-3.38671875,-2.423828125,-0.103515625,-0.5703125,-1.171875,4.1015625,-1.53515625,1.0
3450455,,,,,,,,-3.15625,7.91015625,-2.39453125,-2.474609375,-0.263671875,-0.375,0.015625,2.03515625,-0.69140625,1.0
3450456,,,,,,,,-1.32421875,5.109375,-0.99609375,-2.482421875,-0.33984375,-0.029296875,1.85546875,-0.796875,0.53515625,1.0
3450457,,,,,,,,0.3359375,-3.84765625,3.13671875,-2.412109375,-0.359375,0.431640625,3.5,-9.80078125,4.51953125,1.0
3450458,,,,,,,,-0.98828125,-10.4453125,7.51953125,-2.408203125,-0.357421875,0.740234375,2.16015625,-16.43359375,8.80859375,1.0
3450459,,,,,,,,-13.14453125,-43.86328125,19.96484375,-2.447265625,-0.279296875,1.44921875,-10.05859375,-49.90625,21.10546875,1.0
3450460,36.013011666666664,129.31892383333334,29.193210444947518,67.87011466379096,2.6,311.0,,-15.87109375,-46.95703125,9.87109375,-2.583984375,0.103515625,-0.40234375,-0.21484375,3.68359375,0.0,1.0
3450461,,,,,,,,-19.96875,-15.41015625,11.05078125,0.693359375,-0.125,0.095703125,-17.0703125,-21.59375,12.02734375,1.0
3450462,,,,,,,,-6.28515625,-7.3046875,0.71484375,-2.669921875,-0.201171875,-2.474609375,-3.31640625,-13.4765625,1.64453125,1.0
3450463,,,,,,,,1.35546875,-12.74609375,-8.87109375,-4.81640625,-0.373046875,-3.671875,4.49609375,-18.87890625,-8.19921875,1.0
3450464,,,,,,,,-4.46484375,-18.703125,9.94921875,-1.486328125,-0.46875,-2.984375,-1.09765625,-24.74609375,10.41796875,1.0
3450465,,,,,,,,-3.72265625,-21.99609375,10.4375,-2.294921875,-1.19140625,1.28515625,-0.29296875,-28.03515625,10.7265625,1.0
3450466,,,,,,,,-3.87109375,-19.11328125,3.7421875,-2.697265625,-1.3984375,1.66796875,-0.55859375,-25.234375,3.828125,1.0
3450467,,,,,,,,-6.3671875,-11.94140625,1.37109375,-3.294921875,-1.78515625,0.318359375,-3.125,-18.11328125,1.22265625,1.0
3450468,,,,,,,,-6.8515625,-8.01953125,1.6015625,-3.466796875,-2.2421875,-0.287109375,-3.625,-14.20703125,1.1875,1.0
3450469,,,,,,,,-6.52734375,-5.796875,3.52734375,-3.02734375,-2.62109375,-0.05859375,-3.31640625,-11.984375,2.83203125,1.0
3450470,36.01301333333333,129.3189225,29.073011334002324,68.05504633534318,2.3000000000000003,316.0,,-5.53125,-5.0234375,3.39453125,-2.318359375,-2.701171875,0.443359375,-2.359375,-11.22265625,2.44921875,1.0
3450471,,,,,,,,-5.72265625,-4.625,2.58203125,-1.86328125,-2.671875,0.583984375,-2.62890625,-10.8359375,1.41796875,1.0
3450472,,,,,,,,-5.98828125,-4.5,2.63671875,-1.802734375,-2.666015625,0.619140625,-2.93359375,-10.72265625,1.37890625,1.0
3450473,,,,,,,,-7.3125,-2.609375,2.90625,-1.951171875,-2.44921875,0.787109375,-4.3515625,-8.84765625,1.453125,1.0
3450474,,,,,,,,-8.0390625,0.78515625,3.203125,-2.494140625,-1.845703125,0.9921875,-5.234375,-5.46875,1.453125,1.0
3450475,,,,,,,,-8.1953125,4.8828125,3.30859375,-2.8359375,-1.462890625,1.072265625,-5.50390625,-1.375,1.33984375,1.0
3450476,,,,,,,,-7.98828125,6.37890625,3.02734375,-2.93359375,-1.287109375,1.095703125,-5.34765625,0.12109375,0.95703125,1.0
3450477,,,,,,,,-8.140625,9.99609375,2.53515625,-2.8125,-0.833984375,0.978515625,-5.65625,3.76171875,0.15234375,1.0
3450478,,,,,,,,-8.49609375,10.0625,2.6484375,-2.236328125,-0.7421875,0.8125,-6.1484375,3.875,0.0,1.0
3450479,,,,,,,,-8.21875,8.21484375,2.6875,-1.998046875,-0.701171875,0.775390625,-5.92578125,2.03515625,-0.0390625,1.0
3450480,36.013016,129.31892166666665,28.997886293841894,68.35093740018358,3.0,330.0,,-8.1796875,4.75390625,3.6484375,-1.6171875,-0.544921875,0.673828125,-5.9609375,-1.41015625,0.8046875,1.0
3450481,,,,,,,,-7.06640625,4.046875,5.08984375,-0.869140625,-0.5625,0.8203125,-4.96484375,-2.1015625,2.10546875,1.0
3450482,,,,,,,,-4.796875,5.06640625,4.74609375,-0.041015625,-0.41796875,0.935546875,-2.78515625,-1.10546875,1.72265625,1.0
3450483,,,,,,,,-3.0625,6.8203125,4.00390625,0.6015625,-0.267578125,0.787109375,-1.1328125,0.6171875,0.99609375,1.0
3450484,,,,,,,,-2.34375,7.41796875,3.91015625,0.798828125,-0.27734375,0.68359375,-0.4453125,1.19140625,0.91796875,1.0
3450485,,,,,,,,-0.28125,9.53515625,4.046875,0.94140625,-0.36328125,0.55859375,1.546875,3.2578125,1.109375,1.0
3450486,,,,,,,,0.69921875,11.0,4.0703125,0.86328125,-0.470703125,0.46875,2.46484375,4.68359375,1.1875,1.0
3450487,,,,,,,,2.01953125,11.421875,3.875,0.67578125,-0.59765625,0.36328125,3.73046875,5.06640625,1.03125,1.0
3450488,,,,,,,,3.5,9.0703125,2.78125,0.365234375,-0.62109375,0.2421875,5.15234375,2.6875,-0.0390625,1.0
3450489,,,,,,,,3.484375,7.96875,2.62109375,0.17578125,-0.58984375,0.224609375,5.109375,1.578125,-0.19140625,1.0
3450490,36.013018,129.31892116666668,28.95281113104683,68.57285573526839,2.4000000000000004,337.0,,2.19140625,3.34765625,3.125,-0.296875,-0.552734375,0.43359375,-5.9609375,-1.41015625,0.8046875,1.0
3450491,,,,,,,,-1.64453125,-6.734375,7.76171875,-0.939453125,-0.650390625,0.720703125,-0.13671875,-13.1328125,4.90234375,1.0
3450492,,,,,,,,-5.8828125,-15.41015625,10.8046875,-1.6875,-0.693359375,0.892578125,-4.46875,-21.79296875,7.8515625,1.0
3450493,,,,,,,,-5.01171875,-27.70703125,11.57421875,-1.685546875,-0.748046875,1.048828125,-3.69921875,-34.05078125,8.50390625,1.0
3450494,,,,,,,,-1.73046875,-31.96484375,9.98828125,-0.35546875,-0.62109375,1.130859375,-0.51953125,-38.30078125,6.85546875,1.0
3450495,,,,,,,,-2.06640625,-23.69140625,14.63671875,1.052734375,-0.2421875,0.3671875,-0.94140625,-30.0625,11.52734375,1.0
3450496,,,,,,,,-3.515625,-15.73828125,12.921875,0.84765625,-0.326171875,-0.25,-2.3984375,-22.13671875,9.84375,1.0
3450497,,,,,,,,-7.4140625,-10.40625,9.3359375,-0.384765625,-0.314453125,-1.921875,-6.265625,-16.8125,6.28125,1.0
3450498,,,,,,,,-10.19921875,-10.0546875,7.22265625,-0.77734375,0.076171875,-3.22265625,-8.91015625,-16.4296875,4.13671875,1.0
3450499,,,,,,,,-5.67578125,-16.7421875,8.40234375,-0.130859375,0.037109375,-1.291015625,-4.16015625,-23.05859375,5.28515625,1.0
3450500,36.01302016666667,129.3189205,28.892711092405314,68.81326722856983,2.4000000000000004,344.0,0.0,-4.34375,-18.6328125,11.4453125,0.615234375,0.126953125,0.341796875,-2.8203125,-24.97265625,8.3515625,1.0
3450501,,,,,,,,-3.98828125,-16.2890625,9.6171875,0.76171875,0.25390625,0.638671875,-2.51171875,-22.67578125,6.5859375,1.0
3450502,,,,,,,,-2.76953125,-13.33984375,7.5234375,0.65234375,0.625,-0.037109375,-1.32421875,-19.796875,4.59375,1.0
3450503,,,,,,,,-2.04296875,-12.2109375,7.1484375,0.619140625,0.734375,-0.06640625,-0.59765625,-18.6875,4.25,1.0
3450504,,,,,,,,-0.25,-8.609375,6.08984375,0.42578125,0.8671875,0.130859375,1.203125,-15.125,3.25390625,1.0
3450505,,,,,,,,-0.16015625,-6.578125,5.15625,0.4140625,0.833984375,0.3984375,1.27734375,-13.13671875,2.375,1.0
3450506,,,,,,,,0.1796875,-3.7734375,4.06640625,0.515625,0.736328125,0.646484375,1.5859375,-10.37890625,1.33984375,1.0
3450507,,,,,,,,0.5234375,-2.43359375,3.23828125,0.50390625,0.71484375,0.8828125,1.890625,-9.0703125,0.57421875,1.0
3450508,,,,,,,,0.78515625,-1.06640625,2.32421875,0.458984375,0.697265625,1.0078125,2.12109375,-7.73046875,-0.30859375,1.0
3450509,,,,,,,,1.171875,0.59375,1.93359375,0.462890625,0.611328125,1.28515625,2.4296875,-6.12890625,-0.65234375,1.0
3450510,36.01302233333333,129.31892116666668,28.952809546267844,69.05367911685715,2.5,355.0,,2.27734375,4.01171875,2.5234375,0.615234375,0.126953125,0.341796875,-2.8203125,-24.97265625,8.3515625,1.0
3450511,,,,,,,,2.84375,4.61328125,2.69140625,0.82421875,0.453125,1.826171875,4.6484375,-1.44921875,0.6484375,1.0
3450512,,,,,,,,3.671875,5.40234375,3.0703125,0.8359375,0.412109375,1.765625,5.109375,-0.875,0.6875,1.0
3450513,,,,,,,,5.01171875,5.671875,2.80078125,0.896484375,0.265625,1.224609375,6.6015625,-1.7578125,-0.15625,1.0
3450514,,,,,,,,5.87109375,5.1953125,2.109375,0.9296875,0.228515625,0.955078125,7.2109375,-2.5234375,-1.11328125,1.0
3450515,,,,,,,,7.2421875,1.3359375,-0.16015625,0.83203125,0.265625,0.09765625,7.87109375,-5.703125,-2.26171875,1.0
3450516,,,,,,,,4.015625,2.81640625,1.2109375,-0.54296875,0.431640625,-0.35546875,4.65234375,-4.24609375,-0.84375,1.0
3450517,,,,,,,,2.35546875,4.53125,2.19140625,-1.1875,0.4453125,-0.490234375,3.0,-2.5234375,0.11328125,1.0
3450518,,,,,,,,0.70703125,6.9609375,3.18359375,-2.314453125,0.41015625,-0.720703125,1.390625,-0.0703125,0.99609375,1.0
3450519,,,,,,,,-0.7734375,9.53515625,4.08203125,-2.701171875,0.3828125,-0.83984375,-0.0625,2.53515625,1.80078125,1.0
3450520,36.0130245,129.318922,29.027932799804226,69.29409105611522,2.5,0.0,,-1.87109375,11.72265625,5.1484375,0.615234375,0.126953125,0.341796875,-1.09765625,4.79296875,2.6796875,1.0
3450521,,,,,,,,-1.91796875,13.4765625,4.59375,-3.291015625,0.064453125,-1.482421875,-1.05859375,6.63671875,1.9140625,1.0
3450522,,,,,,,,-2.05078125,14.203125,4.4765625,-3.029296875,0.0078125,-1.84375,-1.09765625,7.4375,1.609375,1.0
3450523,,,,,,,,-2.39453125,13.95703125,4.8515625,-2.767578125,-0.009765625,-1.96484375,-1.36328125,7.2421875,1.875,1.0
3450524,,,,,,,,-8.05859375,1.83984375,12.6640625,-2.513671875,-0.234375,-1.56640625,-6.87890625,-4.74609375,9.46484375,1.0
3450525,,,,,,,,-13.81640625,-22.71484375,24.04296875,-1.662109375,-0.103515625,0.24609375,-12.58984375,-29.18359375,20.64453125,1.0
3450526,,,,,,,,-3.9765625,-32.20703125,10.8125,0.59375,0.361328125,1.79296875,-2.8203125,-38.68359375,7.390625,1.0
3450527,,,,,,,,-7.84375,-13.58984375,9.70703125,1.47265625,0.685546875,1.3828125,-6.8046875,-20.14453125,6.39453125,1.0
3450528,,,,,,,,-6.48046875,-10.01171875,8.0,-0.396484375,0.234375,0.09375,-5.46484375,-16.578125,4.7109375,1.0
3450529,,,,,,,,-2.7109375,-9.9375,6.578125,-4.353515625,-0.439453125,-2.40234375,-1.6328125,-16.43359375,3.140625,1.0
3450530,36.01302716666667,129.318922,29.027931821969275,69.58998236779894,2.8000000000000003,2.0,,-1.11328125,-19.5234375,9.6953125,-2.037109375,-0.583984375,-1.890625,0.16796875,-25.81640625,5.9375,1.0
3450531,,,,,,,,-5.2890625,-21.47265625,12.6015625,-2.224609375,-1.201171875,0.099609375,-4.0078125,-27.6875,8.734375,1.0
3450532,,,,,,,,-6.515625,-20.23828125,12.02734375,-2.873046875,-1.3671875,0.74609375,-5.2734375,-26.42578125,8.08203125,1.0
3450533,,,,,,,,-6.37109375,-10.296875,7.3515625,-2.927734375,-1.8125,-0.529296875,-5.30859375,-16.27734375,3.0234375,1.0
3450534,,,,,,,,-5.56640625,-9.73046875,7.9453125,-2.859375,-1.896484375,-0.375,-4.54296875,-15.65625,3.5234375,1.0
3450535,,,,,,,,-2.73046875,-7.828125,7.93359375,-3.109375,-2.052734375,0.392578125,-1.86328125,-13.59375,3.25390625,1.0
3450536,,,,,,,,-1.78125,-6.0078125,7.51171875,-3.181640625,-2.244140625,0.748046875,-1.1328125,-11.6015625,2.56640625,1.0
3450537,,,,,,,,-1.8125,-5.46484375,7.16796875,-3.103515625,-2.2578125,0.830078125,-1.25,-10.984375,2.14453125,1.0
3450538,,,,,,,,-2.19921875,-5.359375,7.0234375,-2.83984375,-2.255859375,0.900390625,-1.82421875,-10.7578125,1.8359375,1.0
3450539,,,,,,,,-3.5390625,-4.984375,7.1328125,-2.71484375,-2.19921875,0.87109375,-3.2421875,-10.3359375,1.875,1.0
3450540,36.01302933333333,129.31892333333332,29.14812949975159,69.83039445749138,2.6,12.0,,-4.78515625,-4.3671875,6.84375,-2.59765625,-2.015625,0.794921875,-4.66015625,-9.609375,1.453125,1.0
3450541,,,,,,,,-6.58984375,-1.6796875,6.42578125,-2.626953125,-1.673828125,0.689453125,-6.61328125,-6.81640625,0.91796875,1.0
3450542,,,,,,,,-7.3828125,1.98828125,6.8046875,-2.6875,-1.259765625,0.595703125,-7.53515625,-3.01953125,1.1875,1.0
3450543,,,,,,,,-7.3984375,4.921875,7.01953125,-2.7109375,-1.095703125,0.568359375,-7.609375,-0.03125,1.33984375,1.0
3450544,,,,,,,,-7.1875,7.73828125,6.79296875,-2.642578125,-0.869140625,0.439453125,-7.49609375,2.91796875,0.99609375,1.0
3450545,,,,,,,,-6.23046875,9.765625,6.04296875,-2.349609375,-0.7421875,0.205078125,-6.609375,5.0625,0.15234375,1.0
3450546,,,,,,,,-5.484375,8.828125,5.4296875,-1.771484375,-0.611328125,-0.033203125,-5.921875,4.21875,-0.5390625,1.0
3450547,,,,,,,,-4.296875,6.62109375,5.2109375,-0.9921875,-0.49609375,-0.185546875,-4.7734375,2.07421875,-0.8046875,1.0
3450548,,,,,,,,-3.30859375,4.54296875,5.71484375,-0.236328125,-0.416015625,-0.119140625,-3.8125,0.00390625,-0.30859375,1.0
3450549,,,,,,,,-1.52734375,2.4453125,8.21875,0.716796875,-0.353515625,0.513671875,-2.12890625,-2.1796875,2.26171875,1.0
3450550,36.013031500000004,129.31892533333334,29.328426408490678,70.07080674928561,2.9000000000000004,21.0,,-0.1640625,3.19921875,9.0078125,-2.59765625,-2.015625,0.794921875,-4.66015625,-9.609375,1.453125,1.0
3450551,,,,,,,,1.15625,5.69140625,8.2109375,0.962890625,-0.349609375,0.330078125,0.4375,0.92578125,2.37890625,1.0
3450552,,,,,,,,1.84375,7.4453125,7.11328125,0.796875,-0.373046875,-0.107421875,1.0859375,2.609375,1.33984375,1.0
3450553,,,,,,,,2.359375,9.26171875,4.26171875,0.533203125,-0.392578125,-0.48046875,1.5859375,4.37109375,-1.45703125,1.0
3450554,,,,,,,,2.3359375,9.265625,3.80078125,0.279296875,-0.419921875,-0.544921875,1.46875,4.14453125,-2.26171875,1.0
3450555,,,,,,,,1.8828125,8.125,3.265625,0.197265625,-0.447265625,-0.240234375,0.8203125,2.453125,-2.30078125,1.0
3450556,,,,,,,,1.2578125,6.546875,3.5703125,0.09375,-0.44921875,0.17578125,0.0546875,0.3125,-1.65234375,1.0
3450557,,,,,,,,0.13671875,2.109375,4.84765625,-0.021484375,-0.423828125,0.54296875,-1.36328125,-4.8984375,0.3046875,1.0
3450558,,,,,,,,-1.125,-2.74609375,7.4375,-0.1328125,-0.37890625,0.8046875,-3.546875,-12.1328125,4.82421875,1.0
3450559,,,,,,,,-6.73046875,-19.296875,16.1875,0.0078125,-0.287109375,0.947265625,-7.72265625,-24.3203125,10.6484375,1.0
3450560,36.0130335,129.3189275,29.523748172346274,70.29272588750425,2.8000000000000003,30.0,,0.08984375,-40.3125,20.8671875,1.634765625,-0.244140625,1.2109375,-0.98046875,-45.3515625,15.359375,1.0
3450561,,,,,,,,11.390625,-43.54296875,24.4375,3.58203125,0.15625,1.1015625,10.47265625,-36.00390625,19.34375,1.0
3450562,,,,,,,,10.6171875,-20.9296875,19.1328125,3.779296875,0.193359375,0.81640625,9.4375,-26.15625,13.828125,1.0
3450563,,,,,,,,2.14453125,-8.78125,12.015625,1.736328125,0.103515625,-1.103515625,0.93359375,-14.28125,7.0078125,1.0
3450564,,,,,,,,-5.06640625,-8.046875,9.6015625,0.623046875,0.548828125,-2.701171875,-6.23046875,-13.59375,4.6328125,1.0
3450565,,,,,,,,-7.62109375,-10.98046875,8.16015625,-0.47265625,0.728515625,-3.552734375,-8.56640625,-16.58203125,3.21484375,1.0
3450566,,,,,,,,-4.23046875,-14.83984375,8.71484375,0.6640625,0.673828125,-1.451171875,-5.00390625,-20.48828125,3.79296875,1.0
3450567,,,,,,,,-2.73046875,-15.3359375,9.70703125,1.529296875,0.728515625,-0.13671875,-3.47265625,-21.0234375,4.82421875,1.0
3450568,,,,,,,,2.98046875,-13.3203125,13.93359375,2.28125,0.943359375,0.84765625,2.23828125,-19.19140625,9.26953125,1.0
3450569,,,,,,,,3.0234375,-9.67578125,7.47265625,1.701171875,1.001953125,0.345703125,2.2734375,-15.66015625,2.94921875,1.0
3450570,36.01303533333333,129.31892933333333,29.689020376383922,70.49615172210488,2.8000000000000003,35.0,,3.078125,-7.8359375,7.62890625,1.8984375,1.46875,0.396484375,2.390625,-14.01953125,3.37109375,1.0
3450571,,,,,,,,3.51171875,-4.984375,7.92578125,1.57421875,1.447265625,0.640625,2.84765625,-11.2578125,3.79296875,1.0
3450572,,,,,,,,3.3125,-4.21484375,7.5546875,1.349609375,1.3984375,0.68359375,2.65625,-10.52734375,3.484375,1.0
3450573,,,,,,,,3.015625,-1.625,6.54296875,1.033203125,1.212890625,0.669921875,2.3515625,-8.0,2.56640625,1.0
3450574,,,,,,,,3.58984375,0.8125,5.64453125,0.939453125,1.01953125,0.63671875,2.92578125,-5.62890625,1.76171875,1.0
3450575,,,,,,,,4.02734375,3.08203125,4.79296875,0.900390625,0.896484375,0.634765625,3.34765625,-3.3984375,0.99609375,1.0
3450576,,,,,,,,4.07421875,3.80078125,4.5625,0.89453125,0.802734375,0.65234375,3.3828125,-2.71484375,0.8046875,1.0
3450577,,,,,,,,3.875,5.765625,3.90234375,0.92578125,0.623046875,0.705078125,3.16015625,-0.796875,0.23046875,1.0
3450578,,,,,,,,3.33203125,7.11328125,3.578125,0.99609375,0.46484375,0.748046875,2.58203125,0.50390625,0.0,1.0
3450579,,,,,,,,3.125,8.32421875,3.33984375,0.986328125,0.40234375,0.720703125,2.35546875,1.69140625,-0.19140625,1.0
3450930,36.013009499999995,129.3189631666667,32.73906706069009,67.62971547259649,3.4000000000000004,226.0,,4.16015625,-16.140625,3.703125,-4.89453125,-1.572265625,1.111328125,-0.55859375,-19.15234375,1.875,1.0
3450931,,,,,,,,5.1328125,-13.0390625,2.03515625,-4.998046875,-1.943359375,0.06640625,0.3984375,-15.97265625,0.15234375,1.0
3450932,,,,,,,,5.1875,-9.61328125,0.82421875,-4.201171875,-2.11328125,-0.54296875,0.4375,-12.51953125,-1.07421875,1.0
3450933,,,,,,,,4.03515625,-7.5546875,2.546875,-3.93359375,-2.341796875,-0.51953125,-0.71484375,-10.453125,0.6484375,1.0
3450934,,,,,,,,1.03515625,-4.99609375,3.71875,-3.787109375,-2.55859375,0.0625,-3.73828125,-7.8828125,1.8359375,1.0
3450935,,,,,,,,0.63671875,-4.91796875,3.58203125,-3.564453125,-2.4609375,0.591796875,-4.58203125,-7.58203125,1.22265625,1.0
3450936,,,,,,,,-0.2734375,-3.50390625,1.64453125,-3.689453125,-2.134765625,0.361328125,-5.34765625,-5.85546875,-1.07421875,1.0
3450937,,,,,,,,-0.90234375,-2.5078125,0.01953125,-4.005859375,-1.912109375,0.119140625,-6.61328125,-3.48046875,-2.64453125,1.0
3450938,,,,,,,,-1.73046875,-0.73046875,-0.80859375,-4.080078125,-1.82421875,0.1171875,-6.80859375,-2.4453125,-2.8359375,1.0
3450939,,,,,,,,-2.01953125,1.109375,-1.03125,-3.9296875,-1.53125,0.46484375,-6.9921875,-0.1484375,-2.26171875,1.0
3450940,36.0130085,129.31895983333334,32.438571214015,67.51875511604686,3.3000000000000003,236.0,,4.16015625,-16.140625,3.703125,-4.89453125,-1.572265625,1.111328125,-7.1875,0.42578125,-1.5703125,1.0
3450941,,,,,,,,-2.1484375,2.98046875,0.44140625,-2.630859375,-0.826171875,1.626953125,-7.23046875,0.04296875,-1.5703125,1.0
3450942,,,,,,,,-2.609375,2.08203125,0.2734375,-1.947265625,-0.79296875,1.779296875,-7.875,-1.10546875,-1.609375,1.0
3450943,,,,,,,,-2.984375,-1.18359375,1.171875,-1.296875,-0.900390625,1.791015625,-8.03515625,-3.55859375,-0.8046875,1.0
3450944,,,,,,,,-2.74609375,-1.7109375,1.66015625,-0.759765625,-0.775390625,1.67578125,-6.84765625,-4.4765625,0.6484375,1.0
3450945,,,,,,,,0.0703125,-1.71484375,3.8125,0.341796875,-0.505859375,1.119140625,-4.50390625,-3.40234375,2.18359375,1.0
3450946,,,,,,,,1.6640625,0.66796875,4.6484375,1.59765625,-0.482421875,0.166015625,-2.9296875,-0.453125,2.91015625,1.0
3450947,,,,,,,,3.80859375,3.828125,4.4765625,1.94140625,-0.482421875,-0.544921875,-0.75,2.34375,2.10546875,1.0
3450948,,,,,,,,5.33203125,5.61328125,3.03515625,2.103515625,-0.52734375,-1.271484375,1.05078125,4.296875,0.6484375,1.0
3450949,,,,,,,,7.66796875,9.30859375,1.50390625,1.98046875,-0.642578125,-1.822265625,2.54296875,6.78515625,-0.19140625,1.0
3450950,36.01300716666666,129.31895633333335,32.123050682558514,67.37080830040571,3.4000000000000004,240.0,,4.16015625,-16.140625,3.703125,1.529296875,-0.861328125,-1.966796875,4.11328125,8.43359375,-0.84375,1.0
3450951,,,,,,,,9.3515625,11.08203125,0.6796875,1.265625,-0.994140625,-1.916015625,4.3046875,8.31640625,-0.8828125,1.0
3450952,,,,,,,,9.296875,10.23046875,1.0234375,0.732421875,-1.140625,-1.59765625,4.3046875,7.32421875,-0.4609375,1.0
3450953,,,,,,,,7.18359375,6.62890625,4.5859375,0.525390625,-1.126953125,-1.2421875,2.23828125,3.6015625,3.1796875,1.0
3450954,,,,,,,,2.41015625,-6.0546875,10.3828125,0.298828125,-0.916015625,0.005859375,-2.51171875,-9.15234375,9.0390625,1.0
3450955,,,,,,,,3.296875,-11.83203125,12.734375,0.34375,-0.880859375,0.775390625,-1.6328125,-14.93359375,11.4140625,1.0
3450956,,,,,,,,10.58984375,-31.18359375,10.97265625,0.580078125,-0.92578125,1.4375,5.64453125,-34.2734375,9.69140625,1.0
3450957,,,,,,,,16.859375,-62.27734375,14.1796875,1.337890625,-1.369140625,3.00390625,11.8125,-65.26953125,13.0234375,1.0
3450958,,,,,,,,26.9453125,-75.1953125,31.38671875,1.318359375,-1.5625,3.03515625,21.8515625,-78.14453125,30.30078125,1.0
3450959,,,,,,,,12.2109375,-28.5625,13.75390625,-3.228515625,-0.869140625,1.02734375,7.0234375,-31.3671875,12.75390625,1.0
3450960,36.01300633333334,129.3189525,31.77748031119429,67.27834100922834,3.3000000000000003,247.0,,-6.22265625,-4.5,9.71875,1.529296875,-0.861328125,-1.966796875,4.11328125,8.43359375,-0.84375,1.0
3450961,,,,,,,,-11.640625,2.78125,0.16796875,-3.39453125,0.962890625,-7.201171875,-16.5703125,-0.4140625,-1.03515625,1.0
3450962,,,,,,,,-10.0546875,-6.0078125,-3.38671875,-0.251953125,-0.1015625,-5.119140625,-14.73828125,-9.53125,-4.67578125,1.0
3450963,,,,,,,,-6.41796875,-12.9453125,-3.125,0.5703125,-0.783203125,-1.21875,-10.98046875,-16.66015625,-4.3671875,1.0
3450964,,,,,,,,-3.51953125,-13.4921875,4.734375,-0.75,-0.44921875,1.33984375,-8.06640625,-17.234375,3.5234375,1.0
3450965,,,,,,,,4.1640625,-13.8203125,5.421875,0.763671875,-0.017578125,2.525390625,-0.484375,-17.46484375,4.2109375,1.0
3450966,,,,,,,,11.96484375,-9.2578125,7.1328125,2.466796875,0.494140625,1.63671875,7.25390625,-12.8671875,5.9765625,1.0
3450967,,,,,,,,15.16015625,-7.25,8.66796875,2.6796875,0.974609375,0.8671875,10.43359375,-10.87890625,7.58203125,1.0
3450968,,,,,,,,11.55078125,-5.4609375,5.03515625,2.005859375,1.119140625,0.55078125,6.83203125,-9.15234375,4.01953125,1.0
3450969,,,,,,,,8.13671875,-5.78515625,2.23046875,0.505859375,0.951171875,0.587890625,3.42578125,-9.4921875,1.22265625,1.0
3450970,36.01300583333333,129.31894966666667,31.522058683282687,67.22286046728458,3.0,250.0,,5.5625,-4.28125,1.765625,-0.482421875,0.7734375,0.7265625,4.11328125,8.43359375,-0.84375,1.0
3450971,,,,,,,,4.45703125,-2.6640625,2.47265625,-1.369140625,0.4921875,0.859375,-0.25390625,-6.39453125,1.37890625,1.0
3450972,,,,,,,,4.43359375,-0.3515625,2.7265625,-1.630859375,0.12890625,0.935546875,-0.29296875,-4.0546875,1.5703125,1.0
3450973,,,,,,,,4.94921875,3.07421875,1.65234375,-1.046875,-0.134765625,0.982421875,0.20703125,-0.60546875,0.45703125,1.0
3450974,,,,,,,,6.0078125,5.09375,-0.0390625,-0.12109375,-0.3828125,0.966796875,1.2421875,1.421875,-1.2265625,1.0
3450975,,,,,,,,9.73828125,6.93359375,-1.56640625,0.84765625,-0.607421875,0.837890625,4.95703125,3.26171875,-2.72265625,1.0
3450976,,,,,,,,10.6640625,7.5546875,-1.49609375,1.267578125,-0.6484375,0.83203125,5.875,3.875,-2.60546875,1.0
3450977,,,,,,,,13.22265625,9.4765625,-0.6015625,1.681640625,-0.67578125,0.966796875,8.40234375,5.7890625,-1.609375,1.0
3450978,,,,,,,,16.15234375,11.203125,1.2578125,1.318359375,-0.82421875,1.02734375,11.31640625,7.515625,0.34375,1.0
3450979,,,,,,,,13.69140625,8.58984375,-0.25390625,0.478515625,-0.873046875,0.8125,8.82421875,4.91015625,-1.07421875,1.0
3450980,36.013006000000004,129.31894633333334,31.221562350057468,67.24135260236432,3.1,262.0,,8.40625,3.6171875,-2.4375,-1.421875,-0.37890625,0.361328125,4.11328125,8.43359375,-0.84375,1.0
3450981,,,,,,,,5.83203125,1.5078125,-0.66015625,-2.080078125,-0.029296875,0.419921875,0.97265625,-2.1796875,-1.49609375,1.0
3450982,,,,,,,,4.8046875,1.5234375,2.23046875,-3.224609375,0.064453125,0.66015625,-0.0625,-2.14453125,1.26171875,1.0
3450983,,,,,,,,4.56640625,1.80859375,3.10546875,-3.34765625,0.064453125,0.748046875,-0.29296875,-1.83203125,2.06640625,1.0
3450984,,,,,,,,4.62109375,2.3359375,4.91015625,-3.125,0.0625,0.693359375,-0.25390625,-1.2578125,3.75,1.0
3450985,,,,,,,,5.71875,2.42578125,4.88671875,-2.103515625,0.14453125,-0.0546875,0.859375,-1.14453125,3.59375,1.0
3450986,,,,,,,,9.203125,1.21484375,6.453125,-1.794921875,0.1328125,-0.708984375,4.3828125,-2.37109375,5.09765625,1.0
3450987,,,,,,,,7.1953125,-3.48828125,8.515625,-2.56640625,-0.029296875,-0.994140625,2.4296875,-7.12109375,7.0859375,1.0
3450988,,,,,,,,3.33984375,-8.796875,10.9375,-3.53515625,-0.109375,-0.853515625,-1.40234375,-12.44921875,9.4609375,1.0
3450989,,,,,,,,-8.4140625,-39.3125,20.9765625,-4.439453125,0.166015625,0.478515625,-13.125,-42.94140625,19.34375,1.0
3450990,36.01300533333333,129.31894283333335,30.906041527572697,67.16737865793995,3.1,259.0,,-20.47265625,-60.8046875,16.015625,-2.248046875,0.291015625,1.373046875,4.11328125,8.43359375,-0.84375,1.0
3450991,,,,,,,,-3.9609375,-9.265625,8.58984375,2.544921875,-0.095703125,1.587890625,-8.71875,-12.79296875,6.85546875,1.0
3450992,,,,,,,,6.53515625,-6.5234375,-2.7890625,-3.158203125,0.376953125,-0.93359375,1.77734375,-10.0703125,-4.5234375,1.0
3450993,,,,,,,,6.6875,-7.76171875,-5.12890625,-5.310546875,0.41796875,-3.130859375,1.96875,-11.33203125,-6.93359375,1.0
3450994,,,,,,,,8.3203125,-13.4140625,-4.20703125,-2.109375,-0.279296875,-3.705078125,3.8828125,-17.23828125,-6.24609375,1.0
3450995,,,,,,,,6.59765625,-19.29296875,5.6328125,-1.361328125,-0.962890625,-0.4765625,2.23828125,-23.203125,3.5625,1.0
3450996,,,,,,,,3.265625,-23.01171875,8.60546875,-2.59765625,-1.04296875,2.017578125,-1.1328125,-26.8828125,6.51171875,1.0
3450997,,,,,,,,4.15625,-20.29296875,5.41015625,-3.404296875,-1.4765625,1.833984375,-0.328125,-24.05078125,3.25390625,1.0
3450998,,,,,,,,3.6484375,-16.89453125,2.8515625,-3.109375,-1.607421875,0.6171875,-0.90625,-20.56640625,0.6484375,1.0
3450999,,,,,,,,2.09375,-10.10546875,2.47265625,-3.251953125,-1.93359375,-0.349609375,-2.4765625,-13.74609375,0.23046875,1.0
3451000,36.013005,129.31894,30.65061982464796,67.13039134925967,2.7,259.0,0.0,-0.6171875,-5.5234375,4.1875,-2.248046875,0.291015625,1.373046875,-5.1953125,-9.1484375,1.9140625,1.0
3451001,,,,,,,,-1.046875,-3.96875,4.35546875,-3.2734375,-2.33203125,-0.11328125,-5.65625,-7.578125,2.06640625,1.0
3451002,,,,,,,,-2.421875,-2.9296875,1.33984375,-2.869140625,-2.1640625,0.044921875,-7.07421875,-6.5078125,-0.95703125,1.0
3451003,,,,,,,,-3.06640625,-2.20703125,0.80859375,-2.728515625,-2.03515625,0.0234375,-7.71875,-5.77734375,-1.49609375,1.0
3451004,,,,,,,,-4.58203125,-0.75390625,0.9765625,-2.830078125,-1.892578125,0.330078125,-9.29296875,-4.28515625,-1.34375,1.0
3451005,,,,,,,,-5.9140625,1.796875,2.15234375,-2.896484375,-1.59765625,0.982421875,-10.67578125,-1.6796875,-0.19140625,1.0
3451006,,,,,,,,-5.5,4.8125,2.95703125,-2.580078125,-1.19921875,1.4609375,-10.33203125,1.421875,0.57421875,1.0
3451007,,,,,,,,-3.55859375,5.984375,2.64453125,-1.87109375,-0.958984375,1.54296875,-8.44921875,2.6875,0.23046875,1.0
3451008,,,,,,,,-1.96484375,6.56640625,2.3046875,-1.435546875,-0.8828125,1.4609375,-6.875,3.30078125,-0.1171875,1.0
3451009,,,,,,,,0.5234375,5.3828125,1.8671875,-0.083984375,-0.966796875,1.08984375,-4.47265625,2.1875,-0.5390625,1.0
3451010,36.01300616666666,129.31893666666667,30.350123104368826,67.25984275476327,3.1,279.0,,1.60546875,2.42578125,3.31640625,0.5546875,-0.88671875,0.931640625,-3.4296875,-0.76171875,0.95703125,1.0
3451011,,,,,,,,1.60546875,-0.32421875,6.640625,0.79296875,-0.658203125,0.875,-3.47265625,-3.51953125,4.328125,1.0
3451012,,,,,,,,2.19921875,-0.24609375,7.11328125,0.875,-0.5546875,0.8125,-2.89453125,-3.44140625,4.8203125,1.0
3451013,,,,,,,,4.765625,2.12890625,6.53125,1.435546875,-0.47265625,0.333984375,-0.3671875,-1.10546875,4.328125,1.0
3451014,,,,,,,,7.1875,5.265625,4.34375,1.779296875,-0.595703125,-0.205078125,2.046875,1.9609375,2.22265625,1.0
3451015,,,,,,,,9.03125,8.5390625,3.20703125,1.646484375,-0.80859375,-0.751953125,3.921875,5.1015625,1.22265625,1.0
3451016,,,,,,,,9.0234375,9.3984375,3.1328125,1.384765625,-0.830078125,-0.70703125,3.921875,5.91015625,1.1875,1.0
3451017,,,,,,,,8.36328125,9.62109375,3.12890625,0.52734375,-0.85546875,-0.275390625,3.26953125,6.05859375,1.26171875,1.0
3451018,,,,,,,,7.63671875,6.2421875,4.31640625,-0.380859375,-0.927734375,0.33984375,2.54296875,2.65234375,2.48828125,1.0
3451019,,,,,,,,7.73046875,1.0625,4.1796875,-0.611328125,-0.939453125,0.638671875,2.62109375,-2.5234375,2.375,1.0
3451020,36.01300716666666,129.31893383333332,30.094700894515995,67.37080111750643,2.8000000000000003,286.0,,12.359375,-25.1640625,9.12890625,-0.416015625,-1.009765625,1.533203125,7.1796875,-28.6875,7.35546875,1.0
3451021,,,,,,,,17.67578125,-56.8828125,16.21875,-0.361328125,-0.998046875,2.4921875,12.38671875,-60.29296875,14.515625,1.0
3451022,,,,,,,,24.234375,-74.7890625,28.5390625,-0.716796875,-1.021484375,2.541015625,18.8984375,-78.14453125,26.8515625,1.0
3451023,,,,,,,,9.8203125,-24.2578125,9.40234375,-0.71484375,-0.58203125,1.552734375,4.3828125,-27.46484375,7.73828125,1.0
3451024,,,,,,,,-7.98046875,-1.87890625,6.96484375,-2.041015625,0.40625,-2.904296875,-13.39453125,-5.12890625,5.28515625,1.0
3451025,,,,,,,,-11.01171875,-7.515625,0.79296875,-3.62109375,0.294921875,-5.904296875,-16.11328125,-11.140625,-1.11328125,1.0
3451026,,,,,,,,-7.703125,-9.69140625,0.390625,-2.3046875,-0.2109375,-4.849609375,-12.703125,-13.44140625,-1.5703125,1.0
3451027,,,,,,,,-3.140625,-16.4453125,2.84765625,0.224609375,-0.2421875,0.76953125,-8.03125,-20.375,0.87890625,1.0
3451028,,,,,,,,-2.2109375,-17.2578125,3.90625,0.375,-0.23828125,1.6640625,-7.109375,-21.18359375,1.953125,1.0
3451029,,,,,,,,3.71875,-15.2734375,9.58984375,0.34765625,-0.09765625,1.87109375,-1.25,-19.15234375,7.66015625,1.0
3451030,36.013008,129.3189315,29.884353194495993,67.46326643430424,2.4000000000000004,290.0,,5.16015625,-13.94921875,10.76171875,0.326171875,0.298828125,1.630859375,0.16796875,-17.8046875,8.84765625,1.0
3451031,,,,,,,,6.90625,-8.0625,7.5078125,0.46484375,1.2265625,0.63671875,1.890625,-11.90625,5.5546875,1.0
3451032,,,,,,,,7.12109375,-6.8984375,5.99609375,0.287109375,1.283203125,0.255859375,2.12109375,-10.76171875,4.01953125,1.0
3451033,,,,,,,,7.7734375,-5.3671875,2.86328125,0.201171875,1.130859375,-0.142578125,2.8125,-9.26953125,0.83984375,1.0
3451034,,,,,,,,7.90234375,-5.41015625,2.23046875,0.28125,1.041015625,-0.119140625,2.96484375,-9.3359375,0.19140625,1.0
3451035,,,,,,,,8.18359375,-5.79296875,1.03515625,0.4296875,0.828125,0.310546875,3.26953125,-9.7578125,-1.03515625,1.0
3451036,,,,,,,,8.30078125,-5.82421875,2.0546875,0.0546875,0.513671875,1.291015625,3.38671875,-9.796875,-0.0390625,1.0
3451037,,,,,,,,8.1328125,-4.99609375,3.02734375,-0.267578125,0.41015625,1.587890625,3.1953125,-8.95703125,0.91796875,1.0
3451038,,,,,,,,8.1328125,-4.01171875,3.89453125,-0.82421875,0.12109375,2.0,3.15625,-7.92578125,1.76171875,1.0
3451039,,,,,,,,8.28515625,-3.55859375,4.17578125,-0.978515625,-0.03125,2.087890625,3.26953125,-7.421875,2.02734375,1.0
3451040,36.01300983333333,129.31892916666666,29.674005126374908,67.66669099803805,2.9000000000000004,302.0,,8.41796875,-0.6640625,4.36328125,0.326171875,0.298828125,1.630859375,0.16796875,-17.8046875,8.84765625,1.0
3451041,,,,,,,,8.51171875,2.26171875,3.7109375,-0.572265625,-0.529296875,1.443359375,3.34375,-1.41015625,1.53125,1.0
3451042,,,,,,,,8.87109375,3.1484375,2.8359375,-0.32421875,-0.640625,0.6796875,3.6484375,-0.4921875,0.6875,1.0
3451043,,,,,,,,9.46484375,4.2578125,1.92578125,-0.4921875,-0.5859375,0.228515625,4.23046875,0.6171875,-0.19140625,1.0
3451044,,,,,,,,9.8828125,5.046875,1.609375,-0.9375,-0.548828125,-0.095703125,4.65234375,1.3828125,-0.5,1.0
3451045,,,,,,,,9.90625,5.44921875,1.85546875,-1.568359375,-0.501953125,-0.416015625,4.6875,1.76953125,-0.26953125,1.0
3451046,,,,,,,,9.66015625,6.84375,2.1015625,-1.951171875,-0.46484375,-0.603515625,4.453125,3.1484375,-0.0390625,1.0
3451047,,,,,,,,8.58984375,8.20703125,2.890625,-2.775390625,-0.365234375,-0.990234375,3.42578125,4.484375,0.6875,1.0
3451048,,,,,,,,7.0,10.4453125,2.1484375,-3.443359375,-0.28515625,-1.3359375,1.890625,6.7109375,-0.15625,1.0
3451049,,,,,,,,5.8671875,10.91796875,2.3046875,-3.7578125,-0.21484375,-1.5390625,0.8203125,7.16796875,-0.1171875,1.0
3451050,36.01301183333333,129.31892699999997,29.478681813988906,67.88860882429503,3.0,311.0,,5.71875,10.78125,2.28515625,0.326171875,0.298828125,1.630859375,0.7421875,7.015625,-0.26953125,1.0
3451051,,,,,,,,6.18359375,9.96875,2.37109375,-3.68359375,-0.3125,-1.287109375,1.27734375,6.21484375,-0.30859375,1.0
3451052,,,,,,,,6.921875,9.38671875,3.09375,-3.447265625,-0.359375,-1.13671875,2.046875,5.6328125,0.34375,1.0
3451053,,,,,,,,8.10546875,4.65234375,6.09765625,-3.05078125,-0.548828125,-0.595703125,3.265625,0.92578125,3.25390625,1.0
3451054,,,,,,,,7.02734375,0.8359375,7.2109375,-3.107421875,-0.646484375,-0.1484375,2.19921875,-2.8671875,4.328125,1.0
3451055,,,,,,,,-5.17578125,-33.69140625,22.50390625,-4.3515625,-0.712890625,1.9140625,-10.05859375,-37.19140625,19.45703125,1.0
3451056,,,,,,,,-14.4375,-65.64453125,14.76171875,-3.58203125,-0.330078125,3.3203125,-19.40625,-68.91015625,11.60546875,1.0
3451057,,,,,,,,-9.74609375,-50.15625,10.1953125,0.984375,-1.263671875,2.705078125,-14.80859375,-53.28125,7.046875,1.0
3451058,,,,,,,,7.84375,-7.15234375,2.59375,-4.087890625,-0.748046875,-2.427734375,2.734375,-10.30078125,-0.4609375,1.0
3451059,,,,,,,,9.25,-4.93359375,1.6328125,-5.59375,-0.240234375,-5.1953125,4.265625,-8.15234375,-1.5703125,1.0
3451060,36.01301316666666,129.31892466666667,29.26833395044371,68.03655377683069,2.6,308.0,,5.76171875,-13.3125,2.31640625,0.326171875,0.298828125,1.630859375,0.93359375,-16.65625,-0.99609375,1.0
3451061,,,,,,,,-0.52734375,-19.02734375,9.1953125,-2.82421875,-1.80859375,-0.888671875,-5.30859375,-22.4375,5.859375,1.0
3451062,,,,,,,,-0.3515625,-23.703125,11.44140625,-4.357421875,-2.046875,1.91796875,-5.1953125,-27.00390625,8.08203125,1.0
3451063,,,,,,,,3.13671875,-18.8671875,9.265625,-4.36328125,-2.12109375,1.845703125,-1.82421875,-21.9453125,5.859375,1.0
3451064,,,,,,,,5.40625,-13.58203125,6.84375,-3.05078125,-2.5078125,0.05859375,0.3203125,-16.4609375,3.4453125,1.0
3451065,,,,,,,,5.046875,-7.5625,3.55078125,-2.375,-2.53515625,-0.431640625,-0.1015625,-10.4140625,0.19140625,1.0
3451066,,,,,,,,3.49609375,-5.82421875,3.87109375,-2.5,-2.439453125,-0.11328125,-1.70703125,-8.65234375,0.57421875,1.0
3451067,,,,,,,,2.5234375,-5.671875,4.12890625,-3.37109375,-2.19140625,0.876953125,-2.78125,-8.3828125,0.87890625,1.0
3451068,,,,,,,,1.7578125,-6.6484375,2.7421875,-3.568359375,-1.845703125,1.224609375,-3.625,-9.2265625,-0.5,1.0
3451069,,,,,,,,0.44921875,-5.80859375,2.484375,-3.521484375,-1.484375,1.37109375,-5.00390625,-8.23046875,-0.765625,1.0
3451070,36.013015333333335,129.31892333333332,29.14813465403956,68.27696506858548,2.7,318.0,,0.2421875,-2.6640625,2.078125,0.326171875,0.298828125,1.630859375,-5.2734375,-4.9375,-1.1875,1.0
3451071,,,,,,,,0.4296875,-0.09765625,2.31640625,-3.19921875,-1.21875,1.578125,-5.16015625,-2.21484375,-0.95703125,1.0
3451072,,,,,,,,0.33203125,3.5078125,2.25390625,-2.84375,-0.9765625,1.537109375,-5.30859375,1.5390625,-1.03515625,1.0
3451073,,,,,,,,0.0390625,4.34765625,2.18359375,-2.62109375,-0.87109375,1.48046875,-5.6171875,2.45703125,-1.11328125,1.0
3451074,,,,,,,,-0.7578125,3.578125,2.4296875,-2.134765625,-0.7421875,1.279296875,-6.46484375,1.8046875,-0.8828125,1.0
3451075,,,,,,,,-1.9140625,1.1796875,3.77734375,-1.849609375,-0.56640625,1.048828125,-7.6484375,-0.4921875,0.45703125,1.0
3451076,,,,,,,,-2.01171875,-0.09375,4.484375,-1.79296875,-0.359375,0.833984375,-7.7578125,-1.6796875,1.1484375,1.0
3451077,,,,,,,,0.1796875,-0.078125,4.62109375,-1.60546875,-0.24609375,0.65234375,-5.58203125,-1.6015625,1.26171875,1.0
3451078,,,,,,,,1.26171875,0.40234375,4.515625,-1.30859375,-0.19140625,0.58203125,-4.50390625,-1.10546875,1.1484375,1.0
3451079,,,,,,,,3.13671875,1.62890625,4.1171875,-0.412109375,-0.0546875,0.478515625,-2.625,0.16015625,0.7265625,1.0
3451080,36.013017833333336,129.3189225,29.073009681741766,68.55436292534279,3.0,329.0,,5.13671875,3.55078125,4.01953125,0.412109375,-0.03125,0.33984375,-0.63671875,2.07421875,0.61328125,1.0
3451081,,,,,,,,6.39453125,4.76171875,5.265625,0.982421875,-0.291015625,0.19140625,0.62890625,3.21875,1.875,1.0
3451082,,,,,,,,6.36328125,4.54296875,6.546875,0.78125,-0.44140625,0.125,0.58984375,2.95703125,3.1796875,1.0
3451083,,,,,,,,5.91015625,3.2109375,6.62890625,0.42578125,-0.591796875,0.0390625,0.12890625,1.578125,3.2890625,1.0
3451084,,,,,,,,5.390625,-0.484375,5.48046875,0.322265625,-0.76171875,0.142578125,-0.40625,-2.140625,2.1796875,1.0
3451085,,,,,,,,5.3671875,-2.26953125,5.125,0.009765625,-1.064453125,0.908203125,-0.94140625,-6.35546875,1.68359375,1.0
3451086,,,,,,,,4.88671875,-4.6875,4.91015625,-0.08984375,-1.134765625,1.2109375,-1.25,-9.1875,1.875,1.0
3451087,,,,,,,,4.09765625,-15.30859375,6.96484375,-0.369140625,-1.25,1.826171875,-2.58984375,-21.59765625,5.28515625,1.0
3451088,,,,,,,,2.65625,-26.234375,9.27734375,-0.681640625,-1.310546875,2.3203125,-1.2109375,-38.875,7.546875,1.0
3451089,,,,,,,,4.75,-37.40625,10.625,-0.580078125,-1.287109375,2.294921875,0.51171875,-41.94140625,9.34375,1.0
3451090,36.0130205,129.31892183333332,29.012909456200298,68.85025403803405,2.8000000000000003,337.0,,9.1015625,-42.08203125,14.58203125,0.064453125,-0.80078125,1.71875,-0.63671875,2.07421875,0.61328125,1.0
3451091,,,,,,,,7.1875,-29.3984375,17.83203125,0.65234375,-0.279296875,0.19140625,0.703125,-26.54296875,12.33203125,1.0
3451092,,,,,,,,6.765625,-25.25390625,15.29296875,0.732421875,-0.166015625,-0.814453125,-4.88671875,-19.4140625,6.55078125,1.0
3451093,,,,,,,,-1.79296875,-15.48828125,8.52734375,-0.025390625,0.193359375,-3.3671875,-11.0546875,-16.390625,4.44140625,1.0
3451094,,,,,,,,-5.03125,-14.8828125,7.37890625,-0.677734375,0.185546875,-3.994140625,-11.1328125,-17.62109375,3.5625,1.0
3451095,,,,,,,,-3.08984375,-19.3359375,4.99609375,-0.9296875,0.251953125,-3.072265625,-7.72265625,-22.67578125,2.41015625,1.0
3451096,,,,,,,,-1.08984375,-21.41015625,6.70703125,-0.232421875,0.263671875,-0.85546875,-6.57421875,-23.3203125,5.24609375,1.0
3451097,,,,,,,,-0.73046875,-21.31640625,8.25390625,-0.01953125,0.31640625,-0.08984375,-5.1953125,-22.671875,6.359375,1.0
3451098,,,,,,,,1.84375,-20.296875,9.46484375,0.603515625,0.44921875,0.220703125,-1.01953125,-19.9140625,6.47265625,1.0
3451099,,,,,,,,4.78515625,-17.8203125,9.51171875,0.57421875,0.716796875,-0.25390625,-0.40625,-17.3828125,5.78125,1.0
3451100,36.01302283333334,129.31892166666665,28.997883791076255,69.10915888681929,2.5,345.0,0.0,9.1015625,-42.08203125,14.58203125,0.064453125,-0.80078125,1.71875,0.4375,-13.13671875,2.60546875,1.0
3451101,,,,,,,,5.85546875,-10.1953125,5.03125,-0.107421875,1.001953125,-0.08984375,-0.13671875,-11.8671875,1.1875,1.0
3451102,,,,,,,,5.34765625,-8.19140625,3.71484375,0.203125,0.943359375,0.185546875,-0.13671875,-9.95703125,0.3828125,1.0
3451103,,,,,,,,5.83984375,-6.30859375,3.26953125,0.4453125,0.763671875,0.919921875,0.4375,-7.8828125,-0.0390625,1.0
3451104,,,,,,,,6.3515625,-4.65234375,3.01953125,0.50390625,0.634765625,1.326171875,1.77734375,-5.01171875,-0.421875,1.0
3451105,,,,,,,,7.921875,-1.7109375,2.890625,0.529296875,0.517578125,1.603515625,3.1953125,-3.2109375,-0.421875,1.0
3451106,,,,,,,,8.7734375,-0.84375,2.8515625,0.5703125,0.46484375,1.72265625,3.84765625,-2.33203125,-0.5,1.0
3451107,,,,,,,,10.55859375,1.0546875,3.2421875,0.6796875,0.3046875,1.892578125,5.296875,-0.9140625,0.421875,1.0
3451108,,,,,,,,11.1953125,2.04296875,3.9453125,0.83984375,0.05078125,1.94921875,5.5703125,-0.22265625,0.6875,1.0
3451109,,,,,,,,11.9921875,0.9375,2.6875,1.0234375,-0.173828125,1.703125,6.33984375,-1.296875,-0.5390625,1.0
3451110,36.013025500000005,129.31892299999998,29.118081292176043,69.40505059705349,2.9000000000000004,0.0,,11.74609375,0.5078125,1.953125,0.064453125,-0.80078125,1.71875,6.0625,-1.71875,-1.2265625,1.0
3451111,,,,,,,,10.109375,0.35546875,2.49609375,0.4375,-0.087890625,0.076171875,4.421875,-1.91015625,-0.65234375,1.0
3451112,,,,,,,,9.41796875,0.28125,3.140625,-0.9453125,0.01953125,-1.080078125,3.765625,-2.0625,0.0,1.0
3451113,,,,,,,,8.97265625,0.17578125,4.38671875,-1.302734375,0.220703125,-1.568359375,3.38671875,-2.25390625,1.22265625,1.0
3451114,,,,,,,,8.21875,1.6328125,5.078125,-1.40234375,0.326171875,-1.64453125,2.69921875,-0.875,1.875,1.0
3451115,,,,,,,,7.765625,4.8984375,6.54296875,-1.4140625,0.314453125,-1.43359375,2.3125,2.3046875,3.2890625,1.0
3451116,,,,,,,,7.66796875,5.9921875,7.2578125,-1.517578125,0.271484375,-1.28515625,2.23828125,3.375,3.984375,1.0
3451117,,,,,,,,6.4921875,7.09765625,8.03125,-2.09375,0.173828125,-0.9140625,1.125,4.44921875,4.71484375,1.0
3451118,,,,,,,,5.7265625,3.44140625,7.25,-2.69140625,-0.03125,-0.53125,0.3984375,0.80859375,3.87109375,1.0
3451119,,,,,,,,5.2421875,-2.11328125,8.1484375,-2.580078125,-0.169921875,-0.146484375,-0.0625,-4.70703125,4.71484375,1.0
3451120,36.01302833333333,129.31892366666668,29.178179490411047,69.71943531556265,3.1,6.0,,1.89453125,-24.0390625,16.72265625,0.064453125,-0.80078125,1.71875,-3.39453125,-26.58203125,13.25390625,1.0
3451121,,,,,,,,1.48046875,-34.99609375,16.64453125,-1.328125,0.009765625,1.185546875,-3.81640625,-37.453125,13.13671875,1.0
3451122,,,,,,,,-0.734375,-37.05859375,15.04296875,-0.64453125,0.17578125,1.330078125,-6.0390625,-39.48828125,11.52734375,1.0
3451123,,,,,,,,-5.4296875,-27.4140625,17.3671875,-0.509765625,-0.396484375,0.857421875,-10.75,-29.796875,13.8671875,1.0
3451124,,,,,,,,8.17578125,-16.58203125,2.7421875,-2.931640625,-0.19140625,-1.9765625,2.88671875,-18.9140625,-0.8046875,1.0
3451125,,,,,,,,5.79296875,-17.453125,7.9453125,-3.119140625,-0.900390625,-1.904296875,0.55078125,-19.83984375,4.3671875,1.0
3451126,,,,,,,,4.12890625,-19.67578125,8.21875,-3.521484375,-1.10546875,-1.208984375,-1.09765625,-22.05859375,4.6328125,1.0
3451127,,,,,,,,3.45703125,-19.35546875,6.85546875,-3.62890625,-1.333984375,0.140625,-1.78515625,-21.67578125,3.25390625,1.0
3451128,,,,,,,,2.41796875,-13.8203125,5.9140625,-3.451171875,-1.82421875,0.099609375,-2.89453125,-16.0078125,2.3359375,1.0
3451129,,,,,,,,2.74609375,-12.44921875,5.9375,-3.439453125,-1.927734375,-0.044921875,-2.58984375,-14.58984375,2.375,1.0
3451130,36.01303083333333,129.31892449999998,29.253302608736426,69.99683367016173,2.9000000000000004,10.0,,3.63671875,-10.02734375,6.625,-3.505859375,-2.162109375,-0.005859375,-1.74609375,-12.09375,3.1015625,1.0
3451131,,,,,,,,2.88671875,-8.546875,5.97265625,-3.408203125,-2.267578125,0.302734375,-2.58984375,-10.49609375,2.52734375,1.0
3451132,,,,,,,,1.39453125,-8.5625,5.47265625,-3.3203125,-2.228515625,0.291015625,-4.12109375,-10.45703125,2.06640625,1.0
3451133,,,,,,,,-0.03125,-8.125,5.3125,-3.22265625,-2.072265625,0.228515625,-5.6171875,-9.91796875,1.9921875,1.0
3451134,,,,,,,,-1.68359375,-6.7109375,4.70703125,-3.1484375,-1.95703125,0.24609375,-7.30078125,-8.4609375,1.41796875,1.0
3451135,,,,,,,,-2.01953125,-5.171875,4.28125,-2.92578125,-1.6015625,0.3125,-7.6796875,-6.8515625,1.03125,1.0
3451136,,,,,,,,-1.765625,-3.1328125,3.76171875,-2.8203125,-1.412109375,0.326171875,-7.453125,-4.78125,0.53515625,1.0
3451137,,,,,,,,-1.23828125,-0.76953125,3.43359375,-2.6953125,-0.92578125,0.212890625,-6.95703125,-2.33203125,0.23046875,1.0
3451138,,,,,,,,0.078125,3.49609375,3.203125,-2.529296875,-0.6640625,0.177734375,-5.65625,1.99609375,0.0,1.0
3451139,,,,,,,,1.45703125,6.32421875,2.51953125,-2.126953125,-0.439453125,0.2109375,-4.27734375,4.8671875,-0.69140625,1.0
3451140,36.013033166666666,129.31892616666667,29.403549830591842,70.25573907046233,2.9000000000000004,16.0,,1.84375,5.87890625,2.49609375,-1.5546875,-0.328125,0.248046875,-3.890625,4.4453125,-0.73046875,1.0
3451141,,,,,,,,1.49609375,1.6015625,4.296875,-1.091796875,-0.302734375,0.337890625,-4.23828125,0.1953125,1.0703125,1.0
3451142,,,,,,,,1.265625,0.75390625,4.95703125,-0.888671875,-0.169921875,0.486328125,-4.46875,-0.64453125,1.72265625,1.0
3451143,,,,,,,,2.0625,-0.7265625,5.8828125,-0.611328125,-0.0546875,0.65234375,-3.6640625,-2.1015625,2.640625,1.0
3451144,,,,,,,,3.3984375,-0.703125,5.82421875,-0.107421875,0.001953125,0.666015625,-2.3203125,-2.0625,2.5625,1.0
3451145,,,,,,,,5.19140625,0.68359375,5.44921875,0.181640625,0.0078125,0.46484375,-0.51953125,-0.68359375,2.18359375,1.0
3451146,,,,,,,,5.80078125,1.43359375,5.1015625,0.330078125,-0.048828125,0.224609375,0.08984375,0.04296875,1.8359375,1.0
3451147,,,,,,,,7.2890625,4.0390625,4.4453125,0.31640625,-0.16796875,0.0703125,1.5859375,2.609375,1.1875,1.0
3451148,,,,,,,,7.96875,5.640625,2.93359375,0.119140625,-0.310546875,0.029296875,2.2734375,4.1796875,-0.30859375,1.0
3451149,,,,,,,,7.93359375,5.8203125,2.390625,0.029296875,-0.359375,0.037109375,2.23828125,4.3359375,-0.84375,1.0
3451150,36.0130355,129.3189285,29.613896274102686,70.51464467661329,3.1,25.0,,7.85546875,5.15234375,1.83203125,-1.5546875,-0.328125,0.248046875,2.16015625,3.64453125,-1.37890625,1.0
3451151,,,,,,,,6.546875,3.0625,2.03515625,-0.146484375,-0.4921875,0.30859375,0.859375,1.54296875,-1.15234375,1.0
3451152,,,,,,,,5.3671875,0.9921875,3.0546875,-0.212890625,-0.54296875,0.51953125,-0.328125,-0.53515625,-0.1171875,1.0
3451153,,,,,,,,2.38671875,-5.296875,7.58984375,-0.3671875,-0.546875,0.68359375,-3.31640625,-6.8125,4.44140625,1.0
3451154,,,,,,,,0.9453125,-18.4453125,12.9140625,-0.341796875,-0.453125,0.77734375,-4.7734375,-19.9140625,9.8046875,1.0
3451155,,,,,,,,2.4921875,-34.7421875,16.1484375,0.62109375,-0.44921875,1.01171875,-3.2421875,-36.19921875,13.0625,1.0
3451156,,,,,,,,6.984375,-45.12109375,17.1953125,1.07421875,-0.451171875,1.328125,1.2421875,-46.5703125,14.1328125,1.0
3451157,,,,,,,,13.96875,-50.37109375,21.9140625,1.5234375,-0.037109375,1.392578125,8.2109375,-51.8203125,18.8828125,1.0
3451158,,,,,,,,4.1875,-12.796875,12.546875,0.873046875,0.19921875,0.34375,-1.5546875,-14.28125,9.5390625,1.0
3451159,,,,,,,,-1.171875,-9.8671875,9.609375,-0.7109375,0.611328125,-3.712890625,-6.84375,-11.5234375,6.5859375,1.0
3451530,36.013012,129.31896466666666,32.87428933488253,67.90711408285888,3.0,227.0,,5.84765625,-13.83203125,3.953125,-3.9375,-1.537109375,1.0859375,1.31640625,-17.26953125,1.9921875,1.0
3451531,,,,,,,,5.58203125,-12.02734375,3.5234375,-3.60546875,-1.798828125,0.5703125,1.01171875,-15.390625,1.53125,1.0
3451532,,,,,,,,3.4375,-10.65625,3.53125,-3.509765625,-1.9765625,0.498046875,-1.171875,-13.98046875,1.53125,1.0
3451533,,,,,,,,1.62890625,-7.2265625,3.69140625,-3.6796875,-2.236328125,0.509765625,-3.01171875,-10.49609375,1.68359375,1.0
3451534,,,,,,,,0.45703125,-5.1875,1.77734375,-3.857421875,-2.259765625,0.10546875,-4.23828125,-8.38671875,-0.23046875,1.0
3451535,,,,,,,,-1.13671875,-2.69140625,-1.25,-3.830078125,-2.18359375,-0.255859375,-5.84765625,-5.85546875,-3.2578125,1.0
3451536,,,,,,,,-1.51953125,-1.6640625,-1.89453125,-3.8515625,-2.115234375,-0.28125,-6.23046875,-4.8203125,-3.91015625,1.0
3451537,,,,,,,,-3.11328125,1.21484375,-1.41796875,-3.779296875,-1.87890625,0.091796875,-7.8359375,-1.91015625,-3.44921875,1.0
3451538,,,,,,,,-2.8515625,4.37890625,0.60546875,-3.537109375,-1.578125,0.775390625,-7.61328125,1.30859375,-1.45703125,1.0
3451539,,,,,,,,-1.9609375,5.83203125,1.51953125,-3.203125,-1.119140625,1.376953125,-6.765625,2.83984375,-0.57421875,1.0
3451540,36.013010666666666,129.31896183333336,32.61886807743093,67.75916747388608,3.1,234.0,,-0.96484375,6.08203125,2.27734375,-2.68359375,-0.771484375,1.640625,-5.8046875,3.18359375,0.15234375,1.0
3451541,,,,,,,,-0.07421875,3.078125,1.88671875,-2.087890625,-0.822265625,1.578125,-4.9609375,0.2734375,-0.26953125,1.0
3451542,,,,,,,,0.2109375,0.78125,2.0859375,-1.75,-0.89453125,1.5,-4.69921875,-1.984375,-0.078125,1.0
3451543,,,,,,,,0.04296875,-0.9921875,2.63671875,-0.716796875,-0.86328125,1.447265625,-4.921875,-3.671875,0.49609375,1.0
3451544,,,,,,,,0.2109375,-2.49609375,3.6484375,-0.103515625,-0.701171875,1.505859375,-4.8125,-5.12890625,1.53125,1.0
3451545,,,,,,,,1.58203125,-1.4140625,4.18359375,0.470703125,-0.38671875,1.314453125,-3.47265625,-4.01953125,2.10546875,1.0
3451546,,,,,,,,2.05078125,-0.65625,4.40625,0.734375,-0.2421875,1.08984375,-3.01171875,-3.25390625,2.3359375,1.0
3451547,,,,,,,,3.9375,2.73828125,4.40625,1.0546875,-0.166015625,0.41015625,-1.1328125,0.12109375,2.375,1.0
3451548,,,,,,,,5.71484375,6.5546875,2.6484375,1.2109375,-0.302734375,-0.84765625,0.66796875,3.83984375,0.6875,1.0
3451549,,,,,,,,6.84765625,8.71484375,1.36328125,1.236328125,-0.345703125,-1.228515625,1.81640625,5.94140625,-0.57421875,1.0
3451550,36.01300916666666,129.3189585,32.31837243859816,67.59272750068278,3.4000000000000004,238.0,,7.52734375,11.22265625,0.42578125,1.126953125,-0.42578125,-1.7265625,2.54296875,8.31640625,-1.45703125,1.0
3451551,,,,,,,,7.2734375,10.16796875,1.55859375,0.67578125,-0.50390625,-1.763671875,2.3515625,7.125,-0.26953125,1.0
3451552,,,,,,,,4.95703125,7.25390625,4.9609375,0.01953125,-0.587890625,-1.2734375,0.08984375,4.10546875,3.1796875,1.0
3451553,,,,,,,,3.15625,3.90625,7.46484375,-0.3125,-0.634765625,-0.29296875,-1.671875,0.6953125,5.70703125,1.0
3451554,,,,,,,,3.6640625,-3.81640625,7.125,0.171875,-0.654296875,0.912109375,-1.171875,-7.0390625,5.3984375,1.0
3451555,,,,,,,,6.65234375,-20.203125,4.95703125,0.8828125,-0.783203125,1.572265625,1.77734375,-23.3984375,3.29296875,1.0
3451556,,,,,,,,9.92578125,-44.796875,1.34765625,1.265625,-1.095703125,2.056640625,4.99609375,-47.953125,-0.23046875,1.0
3451557,,,,,,,,11.7578125,-73.62109375,24.3046875,0.556640625,-1.4140625,2.216796875,6.7578125,-76.72265625,22.828125,1.0
3451558,,,,,,,,16.0859375,-27.78515625,27.5546875,-1.6484375,-1.6328125,0.998046875,11.0078125,-30.79296875,26.1640625,1.0
3451559,,,,,,,,-0.67578125,-10.74609375,0.46875,-0.5390625,0.376953125,-3.142578125,-5.73046875,-13.8203125,-0.8828125,1.0
3451560,36.01300833333333,129.31895516666665,32.01787651568867,67.5002603658838,3.1,242.0,,-8.77734375,-3.8984375,1.51171875,-2.1484375,0.7734375,-6.560546875,-13.6171875,-7.2734375,0.07421875,1.0
3451561,,,,,,,,-11.71875,-7.75390625,-1.52734375,-0.533203125,0.59765625,-4.599609375,-16.34375,-11.41015625,-3.02734375,1.0
3451562,,,,,,,,-7.8515625,-13.19140625,-2.171875,0.701171875,-0.11328125,-1.837890625,-12.3203125,-17.0390625,-3.6796875,1.0
3451563,,,,,,,,-4.7734375,-13.38671875,1.10546875,0.55859375,-0.25,0.853515625,-9.21875,-17.30859375,-0.34765625,1.0
3451564,,,,,,,,1.16796875,-11.6484375,5.640625,0.19921875,0.080078125,2.171875,-3.31640625,-15.55078125,4.2109375,1.0
3451565,,,,,,,,4.37890625,-9.28125,5.390625,0.9921875,0.140625,1.92578125,-0.17578125,-13.13671875,3.984375,1.0
3451566,,,,,,,,10.4609375,-7.06640625,5.25,2.400390625,0.435546875,1.0703125,5.875,-10.90625,3.90625,1.0
3451567,,,,,,,,15.71875,-6.75390625,9.79296875,3.333984375,0.8984375,0.572265625,11.125,-10.64453125,8.54296875,1.0
3451568,,,,,,,,11.48828125,-5.2734375,6.77734375,2.900390625,0.986328125,0.27734375,6.91015625,-9.2265625,5.62890625,1.0
3451569,,,,,,,,6.79296875,-5.72265625,3.03125,0.0703125,0.892578125,0.05078125,2.23828125,-9.71875,1.9140625,1.0
3451570,36.0130075,129.31895216666666,31.747430217035394,67.40779335017551,3.0,247.0,,4.546875,-4.62109375,1.96875,-0.8515625,0.849609375,0.4140625,0.015625,-8.6484375,0.8046875,1.0
3451571,,,,,,,,4.61328125,-2.20703125,2.03125,-1.33203125,0.435546875,0.693359375,0.08984375,-6.23828125,0.8046875,1.0
3451572,,,,,,,,4.515625,1.41796875,1.76171875,-1.046875,-0.041015625,0.98046875,-0.0234375,-2.59375,0.49609375,1.0
3451573,,,,,,,,4.68359375,2.47265625,1.46484375,-0.693359375,-0.2890625,1.060546875,0.12890625,-1.52734375,0.19140625,1.0
3451574,,,,,,,,5.65234375,5.8359375,-0.0859375,0.5390625,-0.75,1.08203125,1.05078125,1.84375,-1.3046875,1.0
3451575,,,,,,,,7.17578125,8.203125,0.06640625,1.03515625,-0.75390625,1.078125,2.54296875,4.22265625,-1.07421875,1.0
3451576,,,,,,,,8.31640625,10.33984375,0.1171875,1.14453125,-0.7421875,1.125,3.65234375,6.359375,-0.921875,1.0
3451577,,,,,,,,9.54296875,10.53125,0.37890625,1.041015625,-0.857421875,1.01171875,4.83984375,6.5546875,-0.57421875,1.0
3451578,,,,,,,,11.55078125,9.19140625,0.67578125,0.87890625,-0.90625,0.890625,6.828125,5.21484375,-0.23046875,1.0
3451579,,,,,,,,13.63671875,5.0546875,-0.32421875,0.34765625,-0.873046875,0.58203125,8.8984375,1.078125,-1.15234375,1.0
3451580,36.0130075,129.31894866666667,31.431909140457392,67.40779221543434,3.2,260.0,,12.06640625,1.890625,-0.796875,-0.8515625,0.849609375,0.4140625,7.33203125,-2.1015625,-1.5703125,1.0
3451581,,,,,,,,9.19921875,0.2421875,-0.76171875,-0.1484375,-0.021484375,0.80078125,4.45703125,-3.75,-1.49609375,1.0
3451582,,,,,,,,7.875,0.94921875,0.59375,-0.875,0.208984375,1.001953125,3.1171875,-3.01953125,-0.15625,1.0
3451583,,,,,,,,7.26953125,1.66796875,1.5,-1.455078125,0.22265625,0.888671875,2.50390625,-2.29296875,0.7265625,1.0
3451584,,,,,,,,6.16015625,3.40625,3.80078125,-2.669921875,0.185546875,0.3671875,1.39453125,-0.53125,2.94921875,1.0
3451585,,,,,,,,6.18359375,4.44921875,4.4140625,-3.3671875,0.15234375,-0.478515625,1.43359375,0.50390625,3.44921875,1.0
3451586,,,,,,,,9.375,3.015625,7.0546875,-3.287109375,0.029296875,-1.89453125,4.7265625,-0.9921875,5.8984375,1.0
3451587,,,,,,,,7.41796875,-2.2578125,9.4765625,-3.5390625,-0.029296875,-2.392578125,2.88671875,-6.3515625,8.1953125,1.0
3451588,,,,,,,,4.75,-7.546875,10.6953125,-4.080078125,-0.015625,-2.25390625,0.28125,-11.68359375,9.34375,1.0
3451589,,,,,,,,-18.546875,-46.53515625,25.40625,-3.470703125,0.638671875,1.28125,-22.9296875,-50.67578125,23.7890625,1.0
3451590,36.01300683333333,129.3189455,31.146437953908077,67.33381836996648,3.0,257.0,,-17.7265625,-47.73828125,10.3359375,-0.8515625,0.849609375,0.4140625,7.33203125,-2.1015625,-1.5703125,1.0
3451591,,,,,,,,-7.015625,-18.54296875,11.796875,2.453125,-0.021484375,1.55859375,-11.515625,-22.5546875,10.1484375,1.0
3451592,,,,,,,,6.19140625,-7.5234375,0.92578125,-3.853515625,-0.203125,-1.57421875,1.69921875,-11.56640625,-0.73046875,1.0
3451593,,,,,,,,18.5859375,-8.83984375,-0.43359375,-3.677734375,-0.4453125,-3.763671875,14.23046875,-12.98046875,-2.22265625,1.0
3451594,,,,,,,,8.44140625,-14.4296875,4.78515625,-1.830078125,-0.369140625,-2.525390625,4.23046875,-18.69140625,2.91015625,1.0
3451595,,,,,,,,3.94921875,-18.75,4.00390625,-3.2734375,-1.05078125,0.576171875,-0.21484375,-23.05859375,2.06640625,1.0
3451596,,,,,,,,2.05859375,-20.40625,3.78515625,-3.83984375,-1.21875,2.04296875,-2.12890625,-24.6640625,1.80078125,1.0
3451597,,,,,,,,0.78125,-23.83203125,4.66015625,-4.130859375,-1.53125,1.984375,-3.5078125,-27.953125,2.56640625,1.0
3451598,,,,,,,,2.60546875,-18.46484375,4.23828125,-4.064453125,-1.603515625,0.71484375,-1.74609375,-22.48046875,2.06640625,1.0
3451599,,,,,,,,4.20703125,-7.91796875,0.87109375,-3.623046875,-2.00390625,-0.708984375,-0.17578125,-11.87109375,-1.41796875,1.0
3451600,36.01300633333334,129.3189426666667,30.891016324177805,67.27833784734692,2.8000000000000003,257.0,0.0,2.98046875,-3.38671875,1.5625,-3.61328125,-2.365234375,-1.02734375,7.33203125,-2.1015625,-1.5703125,1.0
3451601,,,,,,,,1.21875,-1.18359375,2.06640625,-3.701171875,-2.37109375,-0.5546875,-3.1640625,-5.125,-0.30859375,1.0
3451602,,,,,,,,-0.09765625,-0.8984375,1.00390625,-3.837890625,-2.1640625,-0.064453125,-4.50390625,-4.82421875,-1.41796875,1.0
3451603,,,,,,,,-2.16796875,-0.1640625,-0.046875,-3.98828125,-2.056640625,0.4375,-6.61328125,-4.015625,-2.53125,1.0
3451604,,,,,,,,-2.44921875,-0.10546875,-0.05078125,-3.72265625,-1.919921875,1.177734375,-6.95703125,-3.86328125,-2.60546875,1.0
3451605,,,,,,,,-4.171875,-0.0703125,0.80078125,-3.109375,-1.591796875,1.8984375,-8.76171875,-3.7109375,-1.80078125,1.0
3451606,,,,,,,,-4.1171875,0.28125,1.20703125,-2.779296875,-1.5,2.15625,-8.7578125,-3.2890625,-1.41796875,1.0
3451607,,,,,,,,-3.515625,3.18359375,2.45703125,-2.115234375,-1.306640625,2.376953125,-8.26171875,-0.26171875,-0.19140625,1.0
3451608,,,,,,,,-3.1953125,3.6796875,2.59375,-1.447265625,-1.046875,2.216796875,-8.03515625,0.3515625,-0.078125,1.0
3451609,,,,,,,,-2.08203125,2.81640625,2.81640625,-0.814453125,-0.943359375,1.271484375,-7.03515625,-0.37890625,0.15234375,1.0
3451610,36.013007,129.31893933333333,30.590519796006816,67.3523096241043,3.1,273.0,,-1.8515625,1.0625,3.84375,-0.671875,-0.671875,0.57421875,-6.84765625,-2.1015625,1.1875,1.0
3451611,,,,,,,,-2.26953125,0.45703125,5.19140625,-0.53515625,-0.38671875,0.009765625,-7.26171875,-2.71484375,2.52734375,1.0
3451612,,,,,,,,-1.765625,1.35546875,6.4921875,-0.359375,-0.271484375,-0.2109375,-6.765625,-1.83203125,3.828125,1.0
3451613,,,,,,,,2.83984375,3.69140625,4.9140625,0.97265625,-0.0625,-0.4765625,-2.12890625,0.42578125,2.26171875,1.0
3451614,,,,,,,,5.6484375,5.51953125,3.71875,2.39453125,-0.177734375,-0.416015625,2.390625,4.484375,0.49609375,1.0
3451615,,,,,,,,8.9609375,10.31640625,3.6640625,2.349609375,-0.599609375,-0.30078125,4.0390625,6.78515625,1.1875,1.0
3451616,,,,,,,,9.54296875,11.16796875,4.25,2.103515625,-0.79296875,-0.19140625,4.61328125,7.5859375,1.8359375,1.0
3451617,,,,,,,,8.9296875,8.40234375,6.10546875,1.431640625,-0.931640625,0.123046875,4.0,4.75390625,3.79296875,1.0
3451618,,,,,,,,8.33984375,6.56640625,6.21875,0.400390625,-0.83984375,0.775390625,1.77734375,-1.83203125,5.17578125,1.0
3451619,,,,,,,,6.74609375,1.84765625,7.3828125,0.1328125,-0.822265625,1.12890625,0.97265625,-4.74609375,5.05859375,1.0
3451620,36.01300766666667,129.31893649999998,30.335097713645155,67.42628156550091,2.8000000000000003,278.0,,4.9609375,-10.2890625,5.5703125,-0.419921875,-0.92578125,1.7265625,-0.0625,-13.9375,3.40625,1.0
3451621,,,,,,,,6.6015625,-28.125,7.49609375,-0.51953125,-1.087890625,2.150390625,1.5078125,-31.71484375,5.36328125,1.0
3451622,,,,,,,,8.16796875,-40.65234375,6.67578125,-0.712890625,-1.212890625,2.427734375,3.04296875,-44.1953125,4.55859375,1.0
3451623,,,,,,,,19.7890625,-71.984375,19.4296875,-1.365234375,-1.314453125,2.634765625,14.5703125,-75.421875,17.3515625,1.0
3451624,,,,,,,,25.4921875,-28.03515625,23.88671875,-1.25,-0.505859375,2.373046875,20.125,-31.2890625,21.83203125,1.0
3451625,,,,,,,,-4.74609375,-7.078125,0.59765625,-3.095703125,0.251953125,-3.58203125,-10.09765625,-10.3359375,-1.49609375,1.0
3451626,,,,,,,,-7.921875,-8.0625,0.265625,-5.228515625,0.490234375,-5.365234375,-13.0859375,-11.5234375,-1.9921875,1.0
3451627,,,,,,,,-8.5625,-14.09765625,-0.453125,-2.98828125,-0.0859375,-3.654296875,-13.546875,-17.73046875,-2.875,1.0
3451628,,,,,,,,-4.2421875,-15.56640625,1.83203125,0.412109375,-0.4453125,0.783203125,-9.140625,-19.33984375,-0.61328125,1.0
3451629,,,,,,,,-3.4140625,-15.92578125,2.53515625,0.568359375,-0.201171875,1.591796875,-8.3359375,-19.68359375,0.11328125,1.0
3451630,36.01300833333333,129.31893399999998,30.10972526310163,67.50025361845381,2.4000000000000004,283.0,,1.23046875,-14.1484375,6.11328125,0.533203125,-0.228515625,1.77734375,-3.73828125,-17.88671875,3.71484375,1.0
3451631,,,,,,,,6.66796875,-11.484375,7.5078125,0.498046875,0.2578125,1.05078125,1.66015625,-15.20703125,5.1328125,1.0
3451632,,,,,,,,11.25,-7.8671875,8.9609375,1.447265625,1.10546875,0.115234375,6.2578125,-11.64453125,6.5859375,1.0
3451633,,,,,,,,12.26953125,-7.14453125,9.3828125,1.599609375,1.212890625,-0.0546875,7.29296875,-10.9453125,7.0078125,1.0
3451634,,,,,,,,10.0703125,-5.98046875,7.125,1.146484375,1.201171875,-0.353515625,5.1484375,-9.87890625,4.75,1.0
3451635,,,,,,,,6.94140625,-5.89453125,4.46484375,-0.05859375,1.0625,-0.7109375,2.08203125,-9.87890625,2.06640625,1.0
3451636,,,,,,,,5.30078125,-5.2265625,2.97265625,-1.09375,1.13671875,-0.5625,0.51171875,-9.265625,0.49609375,1.0
3451637,,,,,,,,4.01171875,-3.5546875,2.76171875,-1.736328125,0.986328125,-0.0390625,-0.71484375,-7.6171875,0.19140625,1.0
3451638,,,,,,,,3.8828125,-2.91015625,3.47265625,-1.78125,0.81640625,0.349609375,-0.828125,-6.9609375,0.83984375,1.0
3451639,,,,,,,,4.19140625,0.45703125,5.62890625,-1.4453125,0.408203125,1.142578125,-0.51953125,-3.5546875,2.91015625,1.0
3451640,36.01301,129.31893166666666,29.89937725402234,67.6851849693785,2.9000000000000004,296.0,,5.4375,3.0078125,6.48828125,0.533203125,-0.228515625,1.77734375,0.703125,-0.953125,3.7109375,1.0
3451641,,,,,,,,7.70703125,8.35546875,5.140625,-0.544921875,-0.1640625,0.66796875,2.92578125,4.4453125,2.3359375,1.0
3451642,,,,,,,,8.7109375,10.78515625,3.75390625,-0.439453125,-0.49609375,-0.173828125,3.921875,6.859375,0.95703125,1.0
3451643,,,,,,,,11.76171875,13.0078125,1.28515625,-0.25,-0.796875,-0.771484375,6.98828125,9.046875,-1.49609375,1.0
3451644,,,,,,,,12.140625,8.94140625,0.7890625,-0.353515625,-0.904296875,-0.947265625,7.40625,4.91015625,-1.953125,1.0
3451645,,,,,,,,9.62109375,5.39453125,0.28125,-1.736328125,-0.833984375,-0.177734375,4.9140625,1.30859375,-2.453125,1.0
3451646,,,,,,,,7.4140625,2.59765625,1.046875,-2.2109375,-0.73046875,0.609375,2.69921875,-1.44921875,-1.7265625,1.0
3451647,,,,,,,,6.41015625,1.64453125,2.09765625,-2.6328125,-0.587890625,0.91796875,1.66015625,-2.328125,-0.73046875,1.0
3451648,,,,,,,,4.828125,2.31640625,3.3046875,-3.046875,-0.369140625,0.900390625,0.0546875,-1.5625,0.3828125,1.0
3451649,,,,,,,,3.30859375,3.01171875,4.8984375,-3.201171875,-0.115234375,0.734375,-1.48046875,-0.76171875,1.875,1.0
3451650,36.013012,129.318929,29.658979502846584,67.90710263922632,3.1,305.0,,2.4375,3.35546875,6.92578125,-3.265625,0.025390625,0.208984375,-2.359375,-0.26171875,3.71484375,1.0
3451651,,,,,,,,2.7578125,1.5703125,8.0625,-2.697265625,-0.03125,-0.359375,-2.015625,-1.984375,4.75390625,1.0
3451652,,,,,,,,1.81640625,-0.4765625,8.828125,-2.283203125,-0.134765625,-0.650390625,-2.93359375,-4.015625,5.4765625,1.0
3451653,,,,,,,,-2.66796875,-13.5390625,17.921875,-1.82421875,-0.380859375,-1.041015625,-7.37890625,-17.08203125,14.515625,1.0
3451654,,,,,,,,-4.63671875,-22.765625,21.6640625,-1.865234375,-0.439453125,-1.001953125,-9.33203125,-26.3125,18.234375,1.0
3451655,,,,,,,,-6.7734375,-50.53125,15.43359375,-0.62109375,-0.216796875,0.8203125,-11.4375,-54.046875,11.94921875,1.0
3451656,,,,,,,,-3.08984375,-12.24609375,11.8515625,-3.08984375,-0.421875,-0.017578125,-7.80078125,-15.69921875,8.3515625,1.0
3451657,,,,,,,,2.7109375,-6.9140625,1.1171875,-5.2734375,-0.1953125,-1.529296875,-1.9765625,-10.33984375,-2.453125,1.0
3451658,,,,,,,,3.6953125,-11.7265625,-1.57421875,-4.8125,0.1953125,-4.26171875,-0.8671875,-15.12890625,-5.32421875,1.0
3451659,,,,,,,,4.65234375,-19.78515625,6.73828125,-3.51953125,-0.4765625,-3.7265625,0.16796875,-23.20703125,2.91015625,1.0
3451660,36.01301316666666,129.31892666666667,29.448631696377262,68.03655437921454,2.5,303.0,,2.98046875,-26.0078125,12.80078125,-3.265625,0.025390625,0.208984375,-2.359375,-0.26171875,3.71484375,1.0
3451661,,,,,,,,0.59375,-20.6875,4.51171875,-3.203125,-1.626953125,1.71484375,-3.96875,-23.9375,0.61328125,1.0
3451662,,,,,,,,-1.08984375,-15.08984375,2.328125,-4.064453125,-1.78515625,-0.232421875,-5.73046875,-18.19140625,-1.609375,1.0
3451663,,,,,,,,-1.296875,-14.20703125,3.1484375,-4.16796875,-1.841796875,-0.654296875,-5.9609375,-17.26953125,-0.8046875,1.0
3451664,,,,,,,,-0.0625,-12.9765625,5.515625,-3.7734375,-2.021484375,-0.302734375,-4.7734375,-15.9296875,1.53125,1.0
3451665,,,,,,,,2.56640625,-10.71875,7.66796875,-2.9765625,-2.125,0.1640625,-2.20703125,-13.59765625,3.67578125,1.0
3451666,,,,,,,,2.875,-9.1171875,6.48828125,-2.51171875,-2.28515625,0.1640625,-1.9765625,-11.90625,2.52734375,1.0
3451667,,,,,,,,1.18359375,-7.3671875,5.375,-2.515625,-2.458984375,0.001953125,-3.73828125,-10.109375,1.453125,1.0
3451668,,,,,,,,0.69140625,-6.75390625,4.96875,-2.650390625,-2.44921875,0.005859375,-4.27734375,-9.45703125,1.0703125,1.0
3451669,,,,,,,,-0.75390625,-5.26953125,4.44921875,-2.99609375,-2.142578125,0.390625,-5.84765625,-7.84765625,0.61328125,1.0
3451670,36.013015,129.31892516666667,29.3134077093833,68.23997920499335,2.6,313.0,,-2.8359375,-2.015625,4.31640625,-3.265625,0.025390625,0.208984375,-8.03125,-4.4375,0.49609375,1.0
3451671,,,,,,,,-2.46484375,1.484375,3.3203125,-3.02734375,-1.33984375,0.701171875,-7.71875,-0.8359375,-0.5,1.0
3451672,,,,,,,,-1.58203125,4.70703125,2.87109375,-2.72265625,-1.1328125,0.64453125,-6.87890625,2.49609375,-0.95703125,1.0
3451673,,,,,,,,-0.06640625,6.4296875,3.328125,-2.44921875,-1.095703125,0.646484375,-5.38671875,4.2578125,-0.5,1.0
3451674,,,,,,,,1.21484375,6.87890625,3.48046875,-1.736328125,-1.029296875,0.734375,-4.16015625,4.7890625,-0.34765625,1.0
3451675,,,,,,,,2.08984375,3.6015625,4.84375,-1.099609375,-0.8828125,0.759765625,-3.3125,1.578125,1.03125,1.0
3451676,,,,,,,,1.5,-0.0625,6.125,-0.728515625,-0.724609375,0.6953125,-3.96875,-2.0234375,2.3359375,1.0
3451677,,,,,,,,2.13671875,-0.25,7.51953125,-0.615234375,-0.73046875,0.634765625,-3.35546875,-2.1796875,3.75,1.0
3451678,,,,,,,,2.55078125,0.234375,7.42578125,-0.255859375,-0.609375,0.609375,-2.97265625,-1.6796875,3.67578125,1.0
3451679,,,,,,,,4.2578125,2.48828125,5.83203125,0.041015625,-0.60546875,0.3984375,-1.2890625,0.58203125,2.1015625,1.0
3451680,36.013017500000004,129.31892416666668,29.223257915559934,68.51737700941914,2.9000000000000004,327.0,,5.69921875,3.97265625,4.5,0.27734375,-0.712890625,0.130859375,-8.03125,-4.4375,0.49609375,1.0
3451681,,,,,,,,7.0859375,6.76171875,4.14453125,0.380859375,-0.81640625,0.08203125,1.5078125,4.79296875,0.49609375,1.0
3451682,,,,,,,,7.640625,7.24609375,4.3125,0.345703125,-0.88671875,0.166015625,2.046875,5.25,0.6875,1.0
3451683,,,,,,,,7.78515625,6.5625,4.71875,0.064453125,-1.033203125,0.505859375,2.16015625,4.56640625,1.1484375,1.0
3451684,,,,,,,,7.25,4.40234375,4.671875,-0.3671875,-1.134765625,0.822265625,1.5859375,2.41796875,1.1484375,1.0
3451685,,,,,,,,6.64453125,-0.1953125,5.15234375,-0.623046875,-1.17578125,1.078125,0.93359375,-2.140625,1.68359375,1.0
3451686,,,,,,,,7.09765625,-4.70703125,5.28125,-0.669921875,-1.197265625,1.203125,1.35546875,-6.62109375,1.8359375,1.0
3451687,,,,,,,,7.10546875,-17.53515625,9.94140625,-0.654296875,-1.251953125,1.412109375,1.31640625,-19.37890625,6.55078125,1.0
3451688,,,,,,,,7.15234375,-37.1171875,13.984375,-0.64453125,-1.31640625,1.564453125,1.27734375,-38.8359375,10.6875,1.0
3451689,,,,,,,,9.484375,-44.94140625,15.59765625,-0.5703125,-1.33203125,1.517578125,3.578125,-46.61328125,12.33203125,1.0
3451690,36.013019666666665,129.31892383333334,29.19320749486547,68.75778860043029,2.4000000000000004,338.0,,7.1484375,-15.42578125,13.40625,0.078125,-0.5,-0.01171875,1.1640625,-17.0390625,10.265625,1.0
3451691,,,,,,,,2.71875,-10.07421875,12.00390625,-1.279296875,-0.53515625,-2.7578125,-3.2421875,-11.7890625,8.88671875,1.0
3451692,,,,,,,,-5.76953125,-11.0625,7.8671875,-1.970703125,-0.359375,-3.89453125,-11.70703125,-12.8671875,4.75,1.0
3451693,,,,,,,,-5.203125,-15.76171875,6.78515625,-2.294921875,-0.185546875,-3.70703125,-11.0546875,-17.76953125,3.63671875,1.0
3451694,,,,,,,,-1.6796875,-20.65234375,9.53125,-0.591796875,-0.1875,-0.3359375,-7.453125,-22.82421875,6.359375,1.0
3451695,,,,,,,,2.2265625,-19.98046875,11.5078125,0.115234375,-0.111328125,0.287109375,-3.546875,-22.171875,8.3515625,1.0
3451696,,,,,,,,3.8203125,-19.16015625,11.0078125,0.30078125,-0.033203125,0.037109375,-1.9375,-21.3671875,7.8515625,1.0
3451697,,,,,,,,6.25390625,-16.90625,9.5078125,0.46484375,0.216796875,-0.494140625,0.51171875,-19.1875,6.359375,1.0
3451698,,,,,,,,6.9453125,-17.82421875,8.2890625,0.33203125,0.53125,-0.375,1.2421875,-20.1796875,5.1328125,1.0
3451699,,,,,,,,7.53515625,-18.01953125,8.609375,0.310546875,0.669921875,-0.1796875,1.85546875,-20.41015625,5.4375,1.0
3451700,36.013022,129.31892299999998,29.11808257945807,69.01669324955986,2.5,344.0,0.0,8.14453125,-17.4296875,9.4453125,0.3984375,1.025390625,0.255859375,2.50390625,-19.875,6.2421875,1.0
3451701,,,,,,,,7.83203125,-13.18359375,7.171875,0.173828125,1.06640625,0.814453125,2.23828125,-15.65625,3.90625,1.0
3451702,,,,,,,,6.91015625,-10.6953125,5.02734375,0.083984375,0.8359375,0.8125,1.35546875,-13.171875,1.72265625,1.0
3451703,,,,,,,,6.13671875,-8.47265625,3.3046875,-0.12109375,0.69921875,0.853515625,0.58984375,-10.9453125,-0.0390625,1.0
3451704,,,,,,,,6.3046875,-7.15625,3.52734375,-0.44140625,0.623046875,1.095703125,0.78125,-9.61328125,0.15234375,1.0
3451705,,,,,,,,7.109375,-5.39453125,4.4375,-0.625,0.4921875,1.451171875,1.5859375,-7.80859375,1.03125,1.0
3451706,,,,,,,,7.18359375,-4.7734375,4.609375,-0.67578125,0.416015625,1.5859375,1.66015625,-7.16015625,1.1875,1.0
3451707,,,,,,,,8.12109375,-2.35546875,4.8984375,-0.654296875,0.275390625,1.662109375,2.58203125,-4.66796875,1.453125,1.0
3451708,,,,,,,,7.9453125,1.55078125,5.87890625,-0.083984375,0.150390625,1.328125,2.390625,-0.64453125,2.41015625,1.0
3451709,,,,,,,,7.80078125,3.09765625,4.1484375,0.111328125,0.103515625,0.9453125,2.234375,0.92578125,0.6875,1.0
3451710,36.013024333333334,129.31892383333334,29.193205774048764,69.27559839722012,2.7,355.0,,7.76953125,3.1875,2.83984375,0.3984375,1.025390625,0.255859375,2.19921875,1.0,-0.61328125,1.0
3451711,,,,,,,,7.76953125,2.2421875,2.171875,-0.00390625,0.130859375,-0.515625,2.234375,-0.03125,-1.265625,1.0
3451712,,,,,,,,7.70703125,1.8828125,2.2109375,-0.30078125,0.15234375,-0.65234375,2.1953125,-0.4140625,-1.2265625,1.0
3451713,,,,,,,,8.09765625,0.95703125,3.296875,-0.73828125,0.16796875,-0.765625,2.62109375,-1.41015625,-0.15625,1.0
3451714,,,,,,,,8.2421875,1.53125,3.7734375,-0.91796875,0.228515625,-0.71875,2.81640625,-0.875,0.3046875,1.0
3451715,,,,,,,,7.8203125,3.1875,5.328125,-0.9296875,0.265625,-0.599609375,2.43359375,0.734375,1.8359375,1.0
3451716,,,,,,,,7.796875,3.1953125,5.34375,-1.1484375,0.263671875,-0.490234375,1.625,1.8046875,2.296875,1.0
3451717,,,,,,,,6.30078125,4.94140625,5.99609375,-1.5,0.20703125,-0.494140625,0.12890625,3.4921875,2.52734375,1.0
3451718,,,,,,,,5.2890625,6.22265625,5.890625,-1.8515625,0.05078125,-0.6640625,-0.1015625,4.0625,1.33984375,1.0
3451719,,,,,,,,5.15625,6.55859375,4.95703125,-1.89453125,-0.00390625,-0.69140625,-0.17578125,4.0625,1.03125,1.0
3451720,36.013027,129.31892449999998,29.25330402506752,69.57148990877535,2.9000000000000004,3.0,,7.76953125,3.1875,2.83984375,-1.876953125,-0.19140625,-0.572265625,-0.21484375,2.41796875,1.53125,1.0
3451721,,,,,,,,4.98046875,1.140625,7.80859375,-1.84375,-0.375,-0.04296875,-0.21484375,-1.3359375,4.1328125,1.0
3451722,,,,,,,,1.87109375,-8.6640625,16.296875,-1.658203125,-0.3828125,0.771484375,-3.31640625,-11.1015625,12.6015625,1.0
3451723,,,,,,,,1.72265625,-30.33203125,22.08984375,-0.6015625,-0.267578125,1.70703125,-3.47265625,-32.703125,18.38671875,1.0
3451724,,,,,,,,5.44140625,-40.296875,14.56640625,1.6953125,-0.15625,2.333984375,0.20703125,-42.59765625,10.87890625,1.0
3451725,,,,,,,,-3.1484375,-35.4140625,7.078125,1.568359375,0.025390625,0.900390625,-8.4140625,-37.6875,3.4453125,1.0
3451726,,,,,,,,-1.30859375,-18.66796875,11.125,-2.40625,-0.55859375,-1.107421875,-6.57421875,-20.984375,7.546875,1.0
3451727,,,,,,,,7.41015625,-13.87109375,2.7109375,-3.73828125,-0.41796875,-2.248046875,2.16015625,-16.19921875,-0.8828125,1.0
3451728,,,,,,,,11.1015625,-16.12890625,9.38671875,-1.896484375,-0.48828125,-2.533203125,5.9140625,-18.49609375,5.74609375,1.0
3451729,,,,,,,,9.73828125,-19.40625,13.109375,-2.376953125,-1.1484375,-0.62109375,4.61328125,-21.8671875,9.4609375,1.0
3451730,36.01302933333333,129.31892483333334,29.28335278252191,69.83039490708636,2.8000000000000003,8.0,,6.93359375,-19.1015625,8.2734375,-3.359375,-1.244140625,1.2421875,1.77734375,-21.484375,4.6328125,1.0
3451731,,,,,,,,4.49609375,-12.39453125,5.70703125,-3.787109375,-1.486328125,0.74609375,-0.71484375,-14.62890625,2.06640625,1.0
3451732,,,,,,,,4.31640625,-10.3671875,5.078125,-3.853515625,-1.923828125,0.1484375,-0.94140625,-12.48828125,1.453125,1.0
3451733,,,,,,,,2.21875,-10.0390625,5.09375,-3.822265625,-2.25390625,0.072265625,-3.125,-12.02734375,1.53125,1.0
3451734,,,,,,,,1.93359375,-9.98828125,4.953125,-3.5234375,-2.322265625,0.34375,-3.47265625,-11.8671875,1.453125,1.0
3451735,,,,,,,,0.50390625,-9.16796875,4.05078125,-3.169921875,-2.099609375,0.623046875,-4.96484375,-10.94921875,0.61328125,1.0
3451736,,,,,,,,-0.0390625,-8.91015625,3.7578125,-3.056640625,-1.94921875,0.7109375,-5.5390625,-10.64453125,0.34375,1.0
3451737,,,,,,,,-1.1328125,-7.05859375,3.05078125,-2.943359375,-1.697265625,0.810546875,-6.6875,-8.69140625,-0.30859375,1.0
3451738,,,,,,,,-1.37109375,-6.26171875,3.02734375,-2.91015625,-1.548828125,0.85546875,-6.95703125,-7.84375,-0.30859375,1.0
3451739,,,,,,,,-1.609375,-3.08984375,3.49609375,-2.86328125,-1.197265625,0.943359375,-7.23046875,-4.58984375,0.19140625,1.0
3451740,36.013031833333336,129.318926,29.38852551781642,70.10779336366795,2.9000000000000004,14.0,,-0.7734375,-1.0078125,4.3984375,-3.359375,-1.244140625,1.2421875,1.77734375,-21.484375,4.6328125,1.0
3451741,,,,,,,,1.09765625,2.6640625,4.97265625,-2.341796875,-0.525390625,0.923828125,-4.578125,1.421875,1.68359375,1.0
3451742,,,,,,,,2.21484375,4.51171875,4.55078125,-1.814453125,-0.50390625,0.625,-3.47265625,3.33984375,1.26171875,1.0
3451743,,,,,,,,2.875,4.87109375,3.2421875,-1.17578125,-0.453125,0.259765625,-2.8203125,3.72265625,-0.0390625,1.0
3451744,,,,,,,,1.87890625,0.76953125,3.30859375,-0.822265625,-0.37109375,-0.064453125,-3.81640625,-0.37890625,0.03515625,1.0
3451745,,,,,,,,0.609375,-1.3515625,5.609375,-1.0546875,-0.33203125,-0.232421875,-5.08203125,-2.5234375,2.3359375,1.0
3451746,,,,,,,,0.53125,-1.3515625,5.9453125,-1.251953125,-0.365234375,-0.1875,-5.15625,-2.5234375,2.6796875,1.0
3451747,,,,,,,,1.17578125,-0.66015625,6.25390625,-0.953125,-0.357421875,0.0625,-4.5,-1.83203125,2.98828125,1.0
3451748,,,,,,,,3.3125,0.51171875,5.35546875,0.068359375,-0.341796875,0.298828125,-2.359375,-0.68359375,2.10546875,1.0
3451749,,,,,,,,4.765625,2.6875,4.52734375,0.701171875,-0.37109375,0.224609375,-0.90625,1.46484375,1.30078125,1.0
3451750,36.013034166666664,129.31892766666667,29.538772733876904,70.36669876624586,3.0,19.0,,5.88671875,4.92578125,4.234375,-3.359375,-1.244140625,1.2421875,0.20703125,3.64453125,1.03125,1.0
3451751,,,,,,,,6.26171875,5.48828125,4.06640625,0.330078125,-0.5078125,-0.291015625,1.125,4.44921875,0.57421875,1.0
3451752,,,,,,,,6.68359375,5.375,3.0703125,-0.130859375,-0.57421875,-0.30078125,1.01171875,3.91796875,-0.0390625,1.0
3451753,,,,,,,,5.83203125,3.671875,3.24609375,-0.224609375,-0.599609375,-0.154296875,0.16796875,2.1875,0.15234375,1.0
3451754,,,,,,,,3.87890625,-1.17578125,5.62890625,-0.34375,-0.6484375,0.326171875,-1.78515625,-2.67578125,2.56640625,1.0
3451755,,,,,,,,3.25,-7.21484375,7.16796875,-0.384765625,-0.71875,0.8984375,-2.4375,-8.6875,4.13671875,1.0
3451756,,,,,,,,2.61328125,-24.40625,14.59765625,0.078125,-0.759765625,1.49609375,-3.08984375,-25.8515625,11.60546875,1.0
3451757,,,,,,,,14.94140625,-49.0625,19.5625,0.58984375,-0.8671875,2.20703125,9.20703125,-50.4453125,16.625,1.0
3451758,,,,,,,,18.78125,-54.7265625,21.4921875,1.443359375,-0.599609375,2.244140625,13.0,-56.04296875,18.6171875,1.0
3451759,,,,,,,,10.1796875,-25.11328125,15.4765625,1.8828125,0.068359375,1.09765625,4.3828125,-26.421875,12.640625,1.0
3452150,36.01301133333333,129.31896116666667,32.55876855283924,67.83314007881971,3.4000000000000004,232.0,,-5.05078125,-0.46875,2.95703125,-0.91796875,0.859375,0.685546875,-3.05078125,-8.73046875,-0.921875,1.0
3452151,,,,,,,,-4.20703125,1.04296875,3.68359375,0.3125,-0.169921875,1.1953125,-5.0,-3.40234375,0.91796875,1.0
3452152,,,,,,,,-2.83984375,4.828125,3.69140625,0.810546875,-0.091796875,0.669921875,-3.6953125,0.3515625,0.95703125,1.0
3452153,,,,,,,,-1.35546875,8.3984375,3.13671875,1.173828125,-0.0625,-0.033203125,-2.24609375,3.87890625,0.45703125,1.0
3452154,,,,,,,,0.0234375,10.3359375,2.546875,1.244140625,-0.072265625,-0.67578125,-0.8671875,5.75,-0.078125,1.0
3452155,,,,,,,,2.34375,11.51171875,1.87109375,1.19921875,-0.1953125,-1.044921875,1.46875,6.86328125,-0.69140625,1.0
3452156,,,,,,,,3.53125,9.84375,1.92578125,1.037109375,-0.400390625,-1.138671875,2.6953125,5.140625,-0.57421875,1.0
3452157,,,,,,,,3.43359375,6.640625,3.4765625,0.681640625,-0.591796875,-0.96484375,2.62109375,1.8828125,1.03125,1.0
3452158,,,,,,,,0.4375,2.99609375,10.11328125,0.369140625,-0.70703125,-0.607421875,-0.3671875,-1.79296875,7.6953125,1.0
3452159,,,,,,,,-3.65625,-6.4453125,15.0703125,0.052734375,-0.6484375,-0.08203125,-4.46875,-11.2578125,12.6796875,1.0
3452160,36.01301,129.31895766666668,32.24324803425235,67.68519325970885,3.3000000000000003,235.0,,-1.0625,-12.34375,13.12109375,0.8984375,-0.576171875,0.654296875,-1.9375,-17.19921875,10.76171875,1.0
3452161,,,,,,,,9.80859375,-38.92578125,6.5546875,1.94921875,-1.033203125,1.5546875,8.86328125,-43.8125,4.2890625,1.0
3452162,,,,,,,,16.3828125,-56.6015625,12.32421875,1.80859375,-1.16796875,1.9609375,15.375,-61.51953125,10.11328125,1.0
3452163,,,,,,,,15.69921875,-36.2734375,27.8203125,-1.947265625,-1.119140625,1.44140625,14.49609375,-41.2109375,25.6640625,1.0
3452164,,,,,,,,8.91796875,-24.61328125,19.6328125,-2.953125,-0.810546875,0.44921875,7.67578125,-29.52734375,17.4296875,1.0
3452165,,,,,,,,-7.48046875,-5.77734375,9.72265625,-2.736328125,0.537109375,-4.9140625,-8.60546875,-10.6796875,7.35546875,1.0
3452166,,,,,,,,-11.296875,-1.70703125,6.52734375,-2.837890625,0.533203125,-5.947265625,-12.28125,-6.62109375,4.09765625,1.0
3452167,,,,,,,,-9.6796875,-7.10546875,-1.30078125,1.08984375,-0.052734375,-3.439453125,-10.2890625,-12.09765625,-3.79296875,1.0
3452168,,,,,,,,-8.6328125,-9.51953125,-1.76171875,1.541015625,-0.255859375,-1.904296875,-9.1796875,-14.55078125,-4.21484375,1.0
3452169,,,,,,,,-4.73828125,-10.33203125,6.38671875,-0.09375,-0.294921875,1.484375,-5.30859375,-15.43359375,4.01953125,1.0
3452170,36.01300883333333,129.31895466666668,31.9728018779634,67.55573982193025,3.1,237.0,,-1.7734375,-10.859375,7.5390625,0.8984375,-0.576171875,0.654296875,-2.3984375,-15.96875,5.171875,1.0
3452171,,,,,,,,2.3515625,-10.3671875,6.1640625,1.103515625,0.240234375,1.841796875,1.625,-15.51171875,3.828125,1.0
3452172,,,,,,,,3.61328125,-9.5390625,6.1953125,1.958984375,0.484375,1.3984375,2.84765625,-14.70703125,3.90625,1.0
3452173,,,,,,,,6.6875,-7.0859375,7.28125,2.75,0.916015625,0.724609375,5.875,-12.328125,5.1328125,1.0
3452174,,,,,,,,4.71875,-6.34765625,5.57421875,1.861328125,1.046875,0.654296875,3.8828125,-11.7109375,3.63671875,1.0
3452175,,,,,,,,2.7578125,-6.1875,3.89453125,0.4609375,0.845703125,0.76171875,1.890625,-11.60546875,2.02734375,1.0
3452176,,,,,,,,1.39453125,-4.21875,3.734375,-0.2109375,0.77734375,0.81640625,0.51171875,-9.65234375,1.875,1.0
3452177,,,,,,,,1.2265625,-1.55859375,3.78125,-1.08984375,0.44921875,0.98046875,0.28125,-7.0,1.875,1.0
3452178,,,,,,,,1.890625,5.796875,2.09765625,-0.24609375,-0.03125,0.962890625,0.859375,0.3515625,0.15234375,1.0
3452179,,,,,,,,2.2578125,6.8828125,1.4375,0.224609375,-0.158203125,0.89453125,1.203125,1.421875,-0.5,1.0
3452180,36.01300833333333,129.31895133333333,31.672305817050244,67.50025911314073,3.2,246.0,,3.8046875,8.984375,0.2265625,1.0625,-0.337890625,0.75,2.6953125,3.49609375,-1.6484375,1.0
3452181,,,,,,,,5.0859375,11.0625,0.36328125,1.5,-0.37109375,0.71875,3.921875,5.52734375,-1.41796875,1.0
3452182,,,,,,,,5.2578125,12.546875,0.69140625,1.294921875,-0.482421875,0.748046875,4.0390625,6.9765625,-0.99609375,1.0
3452183,,,,,,,,5.47265625,13.0703125,1.1015625,0.984375,-0.578125,0.74609375,4.23046875,7.48046875,-0.5390625,1.0
3452184,,,,,,,,8.0546875,12.7109375,1.9296875,0.2578125,-0.80078125,0.576171875,6.7578125,7.09765625,0.34375,1.0
3452185,,,,,,,,9.08984375,10.53515625,1.62890625,-0.28515625,-0.8359375,0.30078125,7.75,4.91015625,0.07421875,1.0
3452186,,,,,,,,7.12890625,6.14453125,0.2421875,-0.4375,-0.63671875,0.3203125,5.76171875,0.50390625,-1.3046875,1.0
3452187,,,,,,,,5.4453125,3.04296875,-0.71484375,-0.166015625,-0.26171875,1.396484375,4.00390625,-2.59765625,-2.26171875,1.0
3452188,,,,,,,,5.421875,2.265625,-0.0390625,-0.052734375,-0.2109375,1.712890625,3.92578125,-3.3671875,-1.5703125,1.0
3452189,,,,,,,,4.734375,1.44921875,2.02734375,-0.453125,-0.220703125,2.18359375,3.1171875,-4.16796875,0.49609375,1.0
3452190,36.01300783333333,129.31894783333334,31.356784944317525,67.44477836001786,3.2,252.0,,4.2265625,1.890625,4.54296875,-1.90625,-0.1015625,2.04296875,2.4296875,-3.67578125,2.94921875,1.0
3452191,,,,,,,,2.9765625,3.3671875,5.203125,-2.962890625,0.208984375,1.03515625,1.0859375,-2.140625,3.48828125,1.0
3452192,,,,,,,,2.37890625,3.8046875,5.328125,-3.375,0.330078125,0.33203125,0.47265625,-1.6796875,3.5234375,1.0
3452193,,,,,,,,0.2109375,4.96875,4.4609375,-3.642578125,0.3984375,-1.607421875,-1.6328125,-0.453125,2.375,1.0
3452194,,,,,,,,0.109375,3.19140625,4.75390625,-3.36328125,0.365234375,-2.06640625,-1.671875,-2.21484375,2.56640625,1.0
3452195,,,,,,,,-0.58984375,-29.578125,15.68359375,-2.3203125,0.359375,-2.69140625,-2.16796875,-34.96875,13.29296875,1.0
3452196,,,,,,,,-23.76171875,-59.02734375,31.71875,-2.015625,0.43359375,-2.3984375,-25.19140625,-64.42578125,29.2265625,1.0
3452197,,,,,,,,-21.87890625,-57.03515625,25.15625,-1.921875,0.630859375,-1.759765625,-23.23828125,-62.43359375,22.6015625,1.0
3452198,,,,,,,,-11.48046875,-25.2265625,16.89453125,0.81640625,-0.1796875,2.615234375,-12.85546875,-30.64453125,14.32421875,1.0
3452199,,,,,,,,-1.56640625,-6.875,5.7265625,0.5546875,-0.435546875,3.68359375,-3.01171875,-12.29296875,3.1796875,1.0
3452200,36.013006499999996,129.31894466666665,31.07131401532007,67.29683169022073,3.1,246.0,0.0,5.09375,-9.5078125,-1.05078125,-1.90625,-0.1015625,2.04296875,3.6171875,-14.8203125,-3.83203125,1.0
3452201,,,,,,,,8.12890625,-9.453125,1.21484375,-3.158203125,0.40625,-4.087890625,6.87109375,-14.74609375,-1.76171875,1.0
3452202,,,,,,,,6.85546875,-17.734375,9.14453125,-2.052734375,-0.9921875,-2.0625,5.76171875,-23.01953125,6.05078125,1.0
3452203,,,,,,,,5.765625,-20.296875,8.265625,-2.298828125,-1.041015625,1.8125,4.6484375,-25.55078125,5.09375,1.0
3452204,,,,,,,,3.73828125,-19.46875,2.69140625,-3.84765625,-1.568359375,1.923828125,2.46484375,-24.625,-0.61328125,1.0
3452205,,,,,,,,1.0078125,-16.59765625,-0.578125,-4.365234375,-1.53125,0.083984375,-0.3671875,-21.6328125,-4.0625,1.0
3452206,,,,,,,,-3.20703125,-10.01171875,3.35546875,-4.279296875,-1.72265625,-0.814453125,-4.62109375,-14.9296875,-0.30859375,1.0
3452207,,,,,,,,-2.67578125,-6.4140625,5.05859375,-4.544921875,-1.962890625,-0.416015625,-4.12109375,-11.22265625,1.22265625,1.0
3452208,,,,,,,,-2.5625,-5.6953125,4.6953125,-3.88671875,-2.08203125,0.029296875,-4.0859375,-10.37890625,0.6875,1.0
3452209,,,,,,,,-4.359375,-2.93359375,3.16796875,-3.349609375,-2.09765625,0.017578125,-5.9609375,-7.5,-0.95703125,1.0
3452210,36.01300666666667,129.3189416666667,30.800867313724147,67.3153239446652,2.8000000000000003,257.0,,-5.875,-1.6328125,2.92578125,-3.716796875,-2.0078125,0.025390625,-7.61328125,-6.046875,-1.37890625,1.0
3452211,,,,,,,,-7.3984375,-0.1953125,3.6640625,-3.8046875,-1.685546875,0.314453125,-9.22265625,-4.4765625,-0.765625,1.0
3452212,,,,,,,,-8.25390625,1.6953125,4.15625,-3.47265625,-1.359375,0.802734375,-10.17578125,-2.4453125,-0.3828125,1.0
3452213,,,,,,,,-7.81640625,4.09765625,3.91796875,-2.978515625,-1.064453125,1.107421875,-9.83203125,0.08203125,-0.73046875,1.0
3452214,,,,,,,,-6.33984375,5.66796875,3.390625,-2.46875,-0.82421875,1.126953125,-8.4453125,1.76953125,-1.34375,1.0
3452215,,,,,,,,-3.390625,6.60546875,3.4765625,-1.365234375,-0.73046875,1.080078125,-5.6171875,2.83984375,-1.34375,1.0
3452216,,,,,,,,-2.73046875,4.765625,4.4140625,-0.498046875,-0.7578125,1.04296875,-5.04296875,1.0390625,-0.421875,1.0
3452217,,,,,,,,-3.1171875,1.90234375,7.41796875,0.185546875,-0.501953125,0.845703125,-5.54296875,-1.83203125,2.60546875,1.0
3452218,,,,,,,,-2.7578125,1.16015625,8.6953125,0.4140625,-0.40625,0.65234375,-5.23828125,-2.59765625,3.90625,1.0
3452219,,,,,,,,-0.609375,1.6328125,9.421875,0.962890625,-0.34765625,0.3515625,-3.125,-2.1796875,4.671875,1.0
3452220,36.01300683333333,129.31893866666667,30.530420608728036,67.33381620784786,2.9000000000000004,266.0,,2.40234375,4.47265625,8.44140625,1.412109375,-0.314453125,-0.044921875,-0.13671875,0.58203125,3.75,1.0
3452221,,,,,,,,4.6015625,6.79296875,7.22265625,1.60546875,-0.416015625,-0.4453125,2.046875,2.796875,2.60546875,1.0
3452222,,,,,,,,5.296875,7.921875,6.71484375,1.609375,-0.49609375,-0.591796875,2.734375,3.875,2.14453125,1.0
3452223,,,,,,,,6.0625,9.48828125,6.59765625,1.349609375,-0.677734375,-0.587890625,3.5,5.328125,2.10546875,1.0
3452224,,,,,,,,4.8984375,8.69140625,7.8203125,0.7421875,-0.79296875,-0.140625,2.3125,4.4453125,3.40625,1.0
3452225,,,,,,,,4.01953125,6.078125,7.27734375,0.03125,-0.8125,0.333984375,1.39453125,1.8046875,2.90625,1.0
3452226,,,,,,,,3.90625,4.43359375,7.30078125,-0.15234375,-0.822265625,0.47265625,1.2421875,0.16015625,2.94921875,1.0
3452227,,,,,,,,4.2265625,-0.47265625,6.05078125,-0.140625,-0.837890625,0.654296875,1.5078125,-4.7421875,1.72265625,1.0
3452228,,,,,,,,5.0703125,-17.21875,6.40234375,0.095703125,-0.853515625,0.98046875,2.2734375,-21.48828125,2.10546875,1.0
3452229,,,,,,,,5.03515625,-27.8671875,7.6796875,0.130859375,-0.88671875,1.19921875,2.19921875,-32.13671875,3.40625,1.0
3452230,36.013007333333334,129.318936,30.290023405170132,67.38929499678527,2.5,274.0,,11.97265625,-67.53125,18.55859375,-1.076171875,-1.064453125,1.759765625,8.98046875,-71.7421875,14.32421875,1.0
3452231,,,,,,,,14.10546875,-21.17578125,19.88671875,0.66015625,-0.728515625,2.169921875,10.93359375,-25.3125,15.66796875,1.0
3452232,,,,,,,,-2.88671875,-8.08984375,5.51171875,-0.7265625,0.263671875,-1.466796875,-6.11328125,-12.25390625,1.33984375,1.0
3452233,,,,,,,,-13.05078125,-9.7578125,3.76953125,-3.5,0.609375,-4.85546875,-15.9921875,-13.9765625,-0.57421875,1.0
3452234,,,,,,,,-8.16796875,-12.23828125,4.3828125,-0.685546875,-0.265625,-2.486328125,-10.94140625,-16.50390625,-0.0390625,1.0
3452235,,,,,,,,-3.76171875,-14.87890625,6.14453125,0.90625,-0.23046875,0.3671875,-6.49609375,-19.21875,1.76171875,1.0
3452236,,,,,,,,-1.05859375,-15.4921875,6.50390625,0.9921875,-0.146484375,1.46875,-3.85546875,-19.87890625,2.18359375,1.0
3452237,,,,,,,,2.56640625,-11.578125,8.35546875,1.17578125,0.140625,1.19921875,-0.29296875,-16.0078125,4.09765625,1.0
3452238,,,,,,,,4.69140625,-9.21484375,10.32421875,1.33984375,0.72265625,0.828125,1.81640625,-13.703125,6.12890625,1.0
3452239,,,,,,,,6.59765625,-7.53515625,10.078125,1.31640625,0.93359375,0.546875,3.73046875,-12.09375,5.9375,1.0
3452240,36.01300783333333,129.31893333333335,30.04962620496071,67.44477379142826,2.4000000000000004,278.0,,5.578125,-6.5390625,7.1640625,0.87890625,1.068359375,-0.001953125,2.734375,-11.1796875,3.0625,1.0
3452241,,,,,,,,4.56640625,-5.86328125,6.26953125,0.404296875,1.08984375,-0.2734375,1.77734375,-10.5625,2.18359375,1.0
3452242,,,,,,,,4.12109375,-5.52734375,5.9140625,0.1875,1.060546875,-0.2109375,1.35546875,-10.26171875,1.8359375,1.0
3452243,,,,,,,,3.25390625,-4.3671875,5.44140625,-0.453125,0.8671875,0.306640625,0.55078125,-9.15234375,1.33984375,1.0
3452244,,,,,,,,3.5546875,-3.2578125,4.66015625,-0.87109375,0.607421875,0.6875,0.859375,-8.0390625,0.53515625,1.0
3452245,,,,,,,,4.56640625,-0.26953125,5.12109375,-0.982421875,0.291015625,1.05859375,1.85546875,-5.01171875,0.95703125,1.0
3452246,,,,,,,,5.35546875,2.42578125,5.98046875,-0.919921875,0.14453125,1.234375,2.6171875,-2.29296875,1.80078125,1.0
3452247,,,,,,,,6.796875,5.828125,7.0,-0.654296875,-0.328125,1.453125,3.9609375,1.15625,2.796875,1.0
3452248,,,,,,,,7.6796875,7.52734375,6.40625,-0.40234375,-0.5859375,1.083984375,4.765625,2.87890625,2.21875,1.0
3452249,,,,,,,,8.859375,7.98046875,5.48046875,-0.21875,-0.671875,0.76953125,5.9140625,3.33984375,1.30078125,1.0
3452250,36.013009499999995,129.3189306666667,29.809228568266043,67.62970504228937,3.0,292.0,,10.25390625,8.0390625,4.24609375,0.177734375,-0.81640625,-0.0234375,7.25390625,3.375,0.11328125,1.0
3452251,,,,,,,,10.453125,7.28125,2.92578125,0.271484375,-0.7421875,-0.62890625,7.44921875,2.5703125,-1.15234375,1.0
3452252,,,,,,,,7.98046875,4.6015625,2.09375,-0.48046875,-0.52734375,-0.8671875,4.99609375,-0.1484375,-1.953125,1.0
3452253,,,,,,,,5.2734375,3.46875,2.75,-1.48828125,-0.328125,-0.599609375,2.3125,-1.296875,-1.3046875,1.0
3452254,,,,,,,,4.9609375,4.2734375,3.84765625,-2.244140625,-0.34765625,-0.142578125,2.0078125,-0.453125,-0.26953125,1.0
3452255,,,,,,,,4.9375,5.61328125,5.234375,-2.75390625,-0.4453125,0.111328125,1.97265625,0.96484375,1.03125,1.0
3452256,,,,,,,,5.17578125,6.27734375,5.68359375,-2.951171875,-0.49609375,0.1171875,2.1953125,1.73046875,1.37890625,1.0
3452257,,,,,,,,5.45703125,6.81640625,5.515625,-2.99609375,-0.55859375,-0.154296875,2.46484375,2.37890625,1.109375,1.0
3452258,,,,,,,,6.73046875,6.609375,5.953125,-3.08203125,-0.685546875,-0.5546875,3.7265625,2.265625,1.453125,1.0
3452259,,,,,,,,5.95703125,4.32421875,6.32421875,-3.34375,-0.845703125,-0.822265625,2.96484375,0.08203125,1.72265625,1.0
3452260,36.013010666666666,129.31892833333333,29.598880750913857,67.75915677958348,2.7,297.0,,3.3515625,-1.01171875,6.38671875,0.177734375,-0.81640625,-0.0234375,0.359375,-5.12890625,1.68359375,1.0
3452261,,,,,,,,-14.734375,-34.6015625,24.05859375,-4.85546875,-0.802734375,0.34375,-17.7578125,-38.45703125,19.15234375,1.0
3452262,,,,,,,,-14.7109375,-51.33203125,19.5546875,-3.626953125,-0.63671875,1.765625,-17.796875,-54.96484375,14.515625,1.0
3452263,,,,,,,,-9.32421875,-51.11328125,14.484375,-1.22265625,-1.119140625,2.73046875,-12.47265625,-54.66015625,9.421875,1.0
3452264,,,,,,,,-0.671875,-13.578125,4.34765625,0.728515625,-0.5625,2.556640625,-3.96875,-17.078125,-0.65234375,1.0
3452265,,,,,,,,1.91796875,-10.45703125,2.50390625,-6.26171875,-1.025390625,-3.716796875,-1.40234375,-13.78125,-2.60546875,1.0
3452266,,,,,,,,1.640625,-12.12890625,1.41796875,-5.181640625,-1.2109375,-3.984375,-1.59375,-15.31640625,-3.83203125,1.0
3452267,,,,,,,,1.125,-19.8984375,7.640625,-2.544921875,-1.814453125,-1.39453125,-2.09375,-23.01953125,2.3359375,1.0
3452268,,,,,,,,-0.59765625,-22.078125,10.58984375,-2.1796875,-1.93359375,0.21875,-3.85546875,-25.16796875,5.28515625,1.0
3452269,,,,,,,,-0.65625,-22.37109375,12.28125,-3.07421875,-2.171875,2.046875,-4.046875,-25.3125,6.96875,1.0
3452270,36.0130115,129.31892583333334,29.37350825333317,67.85162205780806,2.4000000000000004,296.0,,3.9921875,-14.203125,6.3984375,-2.4765625,-2.439453125,0.404296875,0.28125,-16.8125,1.109375,1.0
3452271,,,,,,,,4.125,-8.94921875,5.6640625,-2.21875,-2.828125,-0.265625,0.28125,-11.48828125,0.421875,1.0
3452272,,,,,,,,3.921875,-6.265625,4.55078125,-2.220703125,-2.8828125,-0.330078125,0.015625,-8.76953125,-0.65234375,1.0
3452273,,,,,,,,2.58984375,-5.44140625,3.99609375,-2.412109375,-2.5859375,-0.255859375,-1.44140625,-7.88671875,-1.15234375,1.0
3452274,,,,,,,,0.3125,-5.87109375,4.15625,-2.71875,-2.28125,0.208984375,-3.890625,-8.1875,-0.921875,1.0
3452275,,,,,,,,-1.38671875,-5.3359375,4.5078125,-2.78125,-1.880859375,0.650390625,-5.69140625,-7.54296875,-0.5390625,1.0
3452276,,,,,,,,-1.5234375,-4.671875,4.80859375,-2.763671875,-1.673828125,0.83203125,-5.8828125,-6.8125,-0.23046875,1.0
3452277,,,,,,,,-1.9765625,-1.59375,5.20703125,-2.763671875,-1.365234375,1.0390625,-6.421875,-3.59375,0.19140625,1.0
3452278,,,,,,,,-2.01953125,0.44921875,5.08984375,-2.68359375,-1.13671875,0.94140625,-6.53515625,-1.41015625,0.07421875,1.0
3452279,,,,,,,,-1.8359375,1.7265625,4.66796875,-2.556640625,-1.0234375,0.787109375,-6.38671875,-0.0703125,-0.34765625,1.0
3452280,36.013014,129.318924,29.20823439575681,68.12901961130953,3.1,313.0,,-2.203125,1.84765625,4.4765625,-2.4765625,-2.439453125,0.404296875,0.28125,-16.8125,1.109375,1.0
3452281,,,,,,,,-4.0078125,-0.15625,7.19921875,-2.1015625,-0.47265625,0.2265625,-8.64453125,-1.7578125,2.18359375,1.0
3452282,,,,,,,,-6.21484375,-0.71484375,9.6640625,-2.013671875,-0.30078125,0.095703125,-10.86328125,-2.25390625,4.6328125,1.0
3452283,,,,,,,,-2.29296875,2.546875,8.5234375,-0.02734375,-0.08203125,-0.38671875,-6.95703125,1.0390625,3.484375,1.0
3452284,,,,,,,,1.828125,5.546875,5.7578125,1.21875,0.02734375,-0.751953125,-2.8203125,3.95703125,0.7265625,1.0
3452285,,,,,,,,4.6875,8.0,4.5,1.650390625,-0.197265625,-0.94921875,0.0546875,6.25390625,-0.5,1.0
3452286,,,,,,,,5.63671875,8.69140625,4.8515625,1.70703125,-0.357421875,-0.923828125,1.01171875,6.86328125,-0.1171875,1.0
3452287,,,,,,,,6.72265625,9.68359375,6.0234375,1.544921875,-0.58203125,-0.5625,2.08203125,7.70703125,1.109375,1.0
3452288,,,,,,,,6.9609375,8.52734375,8.4140625,1.2109375,-0.7421875,0.009765625,2.3125,6.4375,3.5625,1.0
3452289,,,,,,,,7.328125,7.03515625,8.10546875,1.12890625,-0.79296875,0.310546875,2.65625,4.91015625,3.29296875,1.0
3452290,36.013016500000006,129.3189225,29.073010170979863,68.40641726882907,3.1,324.0,,7.17578125,1.3125,8.46484375,-2.4765625,-2.439453125,0.404296875,2.46484375,-0.875,3.7109375,1.0
3452291,,,,,,,,6.3671875,-4.2734375,8.9921875,0.8515625,-0.9140625,1.904296875,1.5859375,-6.46875,4.328125,1.0
3452292,,,,,,,,5.2265625,-20.41796875,10.5,0.1953125,-1.2109375,2.646484375,0.359375,-22.5546875,5.8984375,1.0
3452293,,,,,,,,8.4765625,-40.4921875,13.265625,-0.236328125,-1.333984375,3.279296875,3.5,-42.515625,8.734375,1.0
3452294,,,,,,,,28.17578125,-60.1484375,36.90625,-0.615234375,-1.16015625,3.806640625,23.07421875,-62.015625,32.4453125,1.0
3452295,,,,,,,,12.21875,-26.5,14.296875,-0.521484375,-0.384765625,3.267578125,7.0234375,-28.19140625,9.8828125,1.0
3452296,,,,,,,,0.359375,-17.01171875,9.8984375,-2.150390625,0.283203125,-0.583984375,-4.8515625,-18.61328125,5.4765625,1.0
3452297,,,,,,,,-7.15625,-10.91015625,11.109375,-4.3984375,0.490234375,-4.7109375,-12.28125,-12.55859375,6.625,1.0
3452298,,,,,,,,-6.5078125,-9.29296875,8.15234375,-4.3671875,0.521484375,-5.021484375,-11.59375,-10.98828125,3.63671875,1.0
3452299,,,,,,,,-1.484375,-11.3046875,7.71875,-1.220703125,0.119140625,-3.798828125,-6.4609375,-13.13671875,3.140625,1.0
3452300,36.013018333333335,129.31892116666668,28.95281100879476,68.60984214888694,2.3000000000000003,329.0,0.0,0.078125,-15.64453125,11.9765625,-2.4765625,-2.439453125,0.404296875,2.46484375,-0.875,3.7109375,1.0
3452301,,,,,,,,2.2265625,-19.71484375,14.265625,0.482421875,-0.158203125,1.11328125,-2.703125,-21.7890625,9.765625,1.0
3452302,,,,,,,,2.70703125,-18.43359375,12.7890625,-0.0625,0.4453125,1.259765625,-2.24609375,-20.48828125,8.3125,1.0
3452303,,,,,,,,3.7734375,-16.02734375,11.953125,-0.146484375,0.78515625,1.146484375,-1.171875,-18.07421875,7.46875,1.0
3452304,,,,,,,,4.1015625,-12.56640625,9.83203125,-0.6328125,1.2734375,0.716796875,-0.7890625,-14.5859375,5.28515625,1.0
3452305,,,,,,,,3.77734375,-10.3515625,6.5078125,-0.3828125,1.232421875,0.5234375,-1.05859375,-12.3671875,1.9140625,1.0
3452306,,,,,,,,3.80078125,-8.56640625,4.71484375,0.046875,1.125,0.4765625,-0.98046875,-10.6015625,0.07421875,1.0
3452307,,,,,,,,4.00390625,-8.11328125,5.0625,0.09375,1.013671875,0.9609375,-0.71484375,-10.1796875,0.3828125,1.0
3452308,,,,,,,,4.56640625,-7.6171875,6.2578125,0.021484375,0.93359375,1.23828125,-0.13671875,-9.6875,1.5703125,1.0
3452309,,,,,,,,5.0859375,-6.48046875,7.19921875,-0.046875,0.84765625,1.7265625,0.3984375,-8.53125,2.48828125,1.0
3452310,36.013020833333336,129.31892116666668,28.95281009480852,68.88724025390317,2.8000000000000003,342.0,,6.06640625,-3.734375,7.64453125,-0.193359375,0.724609375,1.7578125,1.39453125,-5.74609375,2.91015625,1.0
3452311,,,,,,,,6.984375,-1.58984375,7.546875,-0.244140625,0.5546875,1.3984375,2.3125,-3.5546875,2.796875,1.0
3452312,,,,,,,,8.73828125,1.34765625,6.3671875,0.021484375,0.375,0.935546875,4.07421875,-0.60546875,1.609375,1.0
3452313,,,,,,,,9.66015625,2.10546875,5.5,0.4609375,0.18359375,0.525390625,4.99609375,0.12109375,0.765625,1.0
3452314,,,,,,,,11.03125,3.578125,4.43359375,0.794921875,0.005859375,0.1796875,6.37890625,1.5390625,-0.26953125,1.0
3452315,,,,,,,,12.01953125,3.42578125,3.23046875,0.83203125,-0.107421875,-0.11328125,7.3671875,1.26953125,-1.41796875,1.0
3452316,,,,,,,,11.8203125,2.66796875,3.046875,0.650390625,-0.111328125,-0.1640625,7.18359375,0.46484375,-1.5703125,1.0
3452317,,,,,,,,9.4375,0.28125,3.20703125,-0.095703125,-0.052734375,-0.166015625,4.80859375,-1.984375,-1.37890625,1.0
3452318,,,,,,,,7.734375,-0.43359375,3.62109375,-1.154296875,0.0703125,-0.05859375,3.12109375,-2.71484375,-0.95703125,1.0
3452319,,,,,,,,5.57421875,0.37890625,5.21484375,-2.259765625,0.25,-0.037109375,0.97265625,-1.8671875,0.61328125,1.0
3452320,36.01302333333333,129.31892150000002,28.982858800347465,69.16463845729719,2.9000000000000004,353.0,,3.3203125,2.62890625,7.91015625,-3.109375,0.333984375,-0.11328125,-1.25,0.46484375,3.25390625,1.0
3452321,,,,,,,,2.984375,3.8984375,7.62890625,-3.279296875,0.267578125,-0.25390625,-1.5546875,1.84375,2.91015625,1.0
3452322,,,,,,,,4.1796875,5.34375,6.11328125,-2.548828125,0.142578125,-0.486328125,-0.328125,3.37890625,1.33984375,1.0
3452323,,,,,,,,4.65234375,6.08203125,5.41015625,-1.681640625,0.02734375,-0.779296875,0.16796875,4.140625,0.61328125,1.0
3452324,,,,,,,,4.8984375,6.69140625,5.140625,-1.44140625,-0.248046875,-0.94140625,0.4375,4.75,0.34375,1.0
3452325,,,,,,,,3.81640625,4.2421875,8.85546875,-1.619140625,-0.5078125,-0.71484375,-0.63671875,2.3046875,4.05859375,1.0
3452326,,,,,,,,3.42578125,2.125,10.37890625,-1.84765625,-0.599609375,-0.416015625,-1.01953125,0.1953125,5.5859375,1.0
3452327,,,,,,,,-1.875,-15.01953125,23.4375,-2.181640625,-0.78125,0.4765625,-6.34375,-16.88671875,18.66015625,1.0
3452328,,,,,,,,-4.81640625,-33.44921875,23.94921875,-1.853515625,-0.80859375,1.533203125,-9.33203125,-35.1953125,19.19140625,1.0
3452329,,,,,,,,1.98046875,-50.21484375,15.3046875,-0.56640625,-0.533203125,1.75,-2.58984375,-51.859375,10.5703125,1.0
3452330,36.01302616666667,129.318921,28.937783330613023,69.47902282898552,2.9000000000000004,355.0,,-9.765625,-32.140625,15.87890625,-3.109375,0.333984375,-0.11328125,-14.3515625,-33.78125,11.18359375,1.0
3452331,,,,,,,,2.140625,-15.4375,9.93359375,-3.150390625,-0.287109375,-1.029296875,-2.4375,-17.08203125,5.24609375,1.0
3452332,,,,,,,,6.0390625,-13.53125,6.15234375,-3.18359375,0.001953125,-2.986328125,1.5078125,-15.08984375,1.41796875,1.0
3452333,,,,,,,,7.44140625,-18.49609375,10.41015625,-2.265625,-0.705078125,-2.830078125,2.92578125,-20.0625,5.66796875,1.0
3452334,,,,,,,,3.375,-21.68359375,11.20703125,-2.822265625,-1.396484375,0.78515625,-1.171875,-23.24609375,6.51171875,1.0
3452335,,,,,,,,-0.1484375,-18.74609375,10.046875,-3.8046875,-1.75,1.23828125,-4.7734375,-20.140625,5.3984375,1.0
3452336,,,,,,,,-1.1796875,-15.875,6.4375,-3.51953125,-1.822265625,0.0390625,-5.578125,-16.15625,1.8359375,1.0
3452337,,,,,,,,-0.26953125,-13.01171875,7.37890625,-3.35546875,-2.0234375,0.431640625,-4.390625,-13.55859375,3.0625,1.0
3452338,,,,,,,,0.421875,-12.4921875,7.5703125,-3.306640625,-2.119140625,0.71875,-3.96875,-13.171875,3.0625,1.0
3452339,,,,,,,,1.015625,-11.98046875,7.4921875,-3.23828125,-2.033203125,0.8046875,-3.85546875,-12.7109375,2.87109375,1.0
3452340,36.01302833333333,129.31892150000002,28.982856969811635,69.71943466904825,2.5,0.0,,1.4765625,-11.36328125,6.3046875,-3.2265625,-1.986328125,0.603515625,-3.47265625,-11.71484375,1.37890625,1.0
3452341,,,,,,,,0.5859375,-9.71875,5.57421875,-3.033203125,-1.7734375,0.58203125,-4.46875,-10.4140625,1.30078125,1.0
3452342,,,,,,,,-0.29296875,-8.32421875,5.94921875,-2.953125,-1.646484375,0.6640625,-5.38671875,-8.95703125,1.72265625,1.0
3452343,,,,,,,,-0.7734375,-6.50390625,6.0390625,-2.84375,-1.388671875,0.818359375,-5.921875,-7.0390625,1.875,1.0
3452344,,,,,,,,-0.63671875,-3.2734375,4.66796875,-2.8359375,-1.1328125,0.7265625,-5.84765625,-3.7109375,0.57421875,1.0
3452345,,,,,,,,-0.609375,3.015625,5.453125,-2.689453125,-0.9296875,0.466796875,-5.8828125,2.765625,1.453125,1.0
3452346,,,,,,,,-0.47265625,4.3515625,5.5625,-2.33203125,-0.8515625,0.529296875,-5.765625,4.1796875,1.609375,1.0
3452347,,,,,,,,0.5859375,5.1328125,4.6796875,-1.712890625,-0.732421875,0.541015625,-4.734375,5.02734375,0.765625,1.0
3452348,,,,,,,,0.953125,3.578125,4.3046875,-0.984375,-0.625,0.35546875,-4.390625,3.4921875,0.421875,1.0
3452349,,,,,,,,0.76953125,2.390625,4.5078125,-0.76953125,-0.611328125,0.271484375,-4.578125,2.3046875,0.6484375,1.0
3452350,36.01303083333333,129.31892283333335,29.103054524363976,69.99683317135862,3.0,9.0,,0.8984375,0.16796875,4.859375,-0.716796875,-0.619140625,0.212890625,-4.47265625,0.08203125,1.03125,1.0
3452351,,,,,,,,1.98828125,-0.6875,5.04296875,-0.349609375,-0.5625,0.412109375,-3.390625,-0.796875,1.26171875,1.0
3452352,,,,,,,,4.07421875,-0.296875,4.71484375,-0.072265625,-0.609375,0.43359375,-1.32421875,-0.4140625,0.95703125,1.0
3452353,,,,,,,,4.80859375,0.0546875,4.73828125,0.09375,-0.646484375,0.41015625,-0.59765625,-0.0703125,0.9921875,1.0
3452354,,,,,,,,6.2421875,0.9296875,5.1875,0.396484375,-0.740234375,0.427734375,0.8203125,0.7734375,1.49609375,1.0
3452355,,,,,,,,7.63671875,2.109375,5.21875,0.3828125,-0.81640625,0.525390625,2.1953125,1.921875,1.5703125,1.0
3452356,,,,,,,,7.58203125,2.9375,4.44921875,0.076171875,-0.837890625,0.517578125,2.12109375,2.73046875,0.83984375,1.0
3452357,,,,,,,,6.6875,2.21484375,3.90625,-0.3359375,-0.83203125,0.408203125,1.203125,1.9921875,0.34375,1.0
3452358,,,,,,,,5.66015625,1.57421875,4.37109375,-0.498046875,-0.837890625,0.361328125,0.16796875,1.34375,0.83984375,1.0
3452359,,,,,,,,4.12109375,-0.46484375,6.1640625,-0.576171875,-0.845703125,0.33984375,-1.40234375,-0.68359375,2.68359375,1.0
3452360,36.013033,129.3189243333333,29.238276999627722,70.2372453125643,2.8000000000000003,19.0,,2.98828125,-6.2890625,6.37890625,-0.716796875,-0.619140625,0.212890625,-4.47265625,0.08203125,1.03125,1.0
3452361,,,,,,,,3.73046875,-13.40625,7.52734375,0.060546875,-0.845703125,0.5703125,-1.82421875,-13.63671875,4.13671875,1.0
3452362,,,,,,,,4.59765625,-33.00390625,13.109375,0.7421875,-0.796875,0.763671875,-0.98046875,-33.24609375,9.765625,1.0
3452363,,,,,,,,11.96875,-50.46484375,17.8359375,0.861328125,-0.81640625,1.201171875,6.375,-50.71484375,14.5546875,1.0
3452364,,,,,,,,10.0390625,-30.71875,22.8828125,1.115234375,-0.65625,1.115234375,4.421875,-30.98828125,19.6484375,1.0
3452365,,,,,,,,6.09765625,-15.46484375,10.06640625,0.556640625,-0.4765625,-0.22265625,0.47265625,-15.81640625,6.89453125,1.0
3452366,,,,,,,,2.765625,-14.0,8.984375,-0.0078125,-0.1484375,-1.330078125,-2.859375,-14.40234375,5.8203125,1.0
3452367,,,,,,,,-2.0546875,-17.0390625,7.21484375,-0.763671875,0.197265625,-3.3359375,-7.6484375,-17.6171875,4.05859375,1.0
3452368,,,,,,,,0.3984375,-18.796875,8.13671875,-0.28125,0.203125,-2.291015625,-5.15625,-19.5703125,4.98046875,1.0
3452369,,,,,,,,4.734375,-19.28515625,9.3984375,1.1328125,0.3359375,-0.412109375,-0.7890625,-20.1796875,6.2421875,1.0
3452370,36.01303516666667,129.31892583333334,29.373499472407367,70.47765745497861,2.6,28.0,,7.75,-17.625,8.703125,1.970703125,0.54296875,0.05078125,2.2734375,-18.6875,5.5546875,1.0
3452371,,,,,,,,7.484375,-17.09375,7.78125,1.646484375,0.822265625,-0.013671875,2.046875,-18.265625,4.6328125,1.0
3452372,,,,,,,,5.4453125,-16.39453125,7.1171875,1.373046875,1.169921875,0.3125,0.0546875,-17.6484375,3.9453125,1.0
3452373,,,,,,,,6.0546875,-15.18359375,7.66015625,1.21484375,1.529296875,0.509765625,0.7421875,-16.54296875,4.44140625,1.0
