time,latitude,longitude,enu_x,enu_y,speed,course,Hrage,accX,accY,accZ,gyrX,gyrY,gyrZ,eulR,eulP,eulY
3355700,36.013322499999994,129.31995899999998,122.51183909004848,102.3607523387068,2.1,279.0,166.0,1.18359375,-8.90625,6.1171875,0.744140625,1.0703125,0.71875,356.0,355.9888888888889,356.0111111111111
3355701,,,,,,,,1.18359375,-8.90625,6.1171875,0.744140625,1.0703125,0.71875,356.0,355.9888888888889,356.0111111111111
3355702,,,,,,,,1.18359375,-8.90625,6.1171875,0.744140625,1.0703125,0.71875,356.0,355.9888888888889,356.0111111111111
3355703,,,,,,,,1.18359375,-8.90625,6.1171875,0.744140625,1.0703125,0.71875,356.0,355.9888888888889,356.0111111111111
3355704,,,,,,,,1.18359375,-8.90625,6.1171875,-1.328125,-0.4453125,1.857421875,356.0,355.9888888888889,356.0111111111111
3355705,,,,,,,,1.18359375,-8.90625,6.1171875,-1.328125,-0.4453125,1.857421875,356.0,356.0,356.0111111111111
3355706,,,,,,,,1.18359375,-8.90625,6.1171875,0.228515625,-0.009765625,2.169921875,356.0,356.0,356.0111111111111
3355707,,,,,,,,1.18359375,-8.90625,6.1171875,0.228515625,-0.009765625,2.169921875,356.0,356.0,356.0111111111111
3355708,,,,,,,,1.18359375,-8.90625,6.1171875,-1.17578125,-0.322265625,1.109375,356.0,356.0,356.0111111111111
3355709,,,,,,,,1.18359375,-8.90625,6.1171875,-1.17578125,-0.322265625,1.109375,356.0,356.0,356.0111111111111
3355710,36.013322499999994,129.31995633333332,122.27144303673101,102.36074898951901,2.2,275.0,,1.18359375,-8.90625,6.1171875,-1.5859375,-0.697265625,-0.30859375,356.0,356.0,356.0111111111111
3355711,,,,,,,,1.18359375,-8.90625,6.1171875,-1.5859375,-0.697265625,-0.30859375,356.0,356.0,356.0111111111111
3355712,,,,,,,,1.18359375,-8.90625,6.1171875,-2.033203125,-1.005859375,1.099609375,356.0,356.0,356.0111111111111
3355713,,,,,,,,1.18359375,-8.90625,6.1171875,-2.033203125,-1.005859375,1.099609375,356.0,356.0,356.0111111111111
3355714,,,,,,,,1.18359375,-8.90625,6.1171875,-2.111328125,-1.564453125,1.09765625,356.0,356.0,356.0111111111111
3355715,,,,,,,,1.18359375,-8.90625,6.1171875,-2.111328125,-1.564453125,1.09765625,356.0,356.0,356.0111111111111
3355716,,,,,,,,1.18359375,-8.90625,6.1171875,-1.720703125,-1.71484375,1.291015625,356.0,356.0,356.0111111111111
3355717,,,,,,,,-1.015625,-7.921875,-1.30859375,-1.720703125,-1.71484375,1.291015625,356.0,356.0,356.0111111111111
3355718,,,,,,,,-1.015625,-7.921875,-1.30859375,-1.720703125,-1.71484375,1.291015625,356.0,356.0,356.0111111111111
3355719,,,,,,,,-1.015625,-7.921875,-1.30859375,-1.5703125,-1.69140625,0.921875,356.0,356.0,356.0111111111111
3355720,36.01332283333333,129.319954,122.06109597533674,102.39773248069159,2.1,272.0,,-1.015625,-7.921875,-1.30859375,-1.5703125,-1.69140625,0.921875,356.0,356.0,356.0111111111111
3355721,,,,,,,,-1.015625,-7.921875,-1.30859375,-1.66015625,-1.45703125,0.65234375,356.0,356.0,356.0111111111111
3355722,,,,,,,,-1.015625,-7.921875,-1.30859375,-1.66015625,-1.45703125,0.65234375,356.0,356.0,356.0111111111111
3355723,,,,,,,,-1.015625,-7.921875,-1.30859375,-1.30859375,-1.146484375,0.568359375,356.0,356.0,356.0111111111111
3355724,,,,,,,,-1.015625,-7.921875,-1.30859375,-1.30859375,-1.146484375,0.568359375,356.0,356.0,356.0111111111111
3355725,,,,,,,,-1.015625,-7.921875,-1.30859375,-0.599609375,-0.77734375,1.0546875,356.0,356.0,356.0111111111111
3355726,,,,,,,,-1.015625,-7.921875,-1.30859375,-0.599609375,-0.77734375,1.0546875,356.0,356.0,356.0111111111111
3355727,,,,,,,,-1.015625,-7.921875,-1.30859375,-0.21484375,-0.58203125,1.076171875,356.0,356.0,356.0111111111111
3355728,,,,,,,,-1.015625,-7.921875,-1.30859375,-0.21484375,-0.58203125,1.076171875,356.0,356.0,356.0111111111111
3355729,,,,,,,,-1.015625,-7.921875,-1.30859375,0.23046875,-0.33984375,0.615234375,356.0,356.0,356.0111111111111
3355730,36.013323166666666,129.31995083333334,121.77562515097489,102.43471493470041,2.5,274.0,,-1.015625,-7.921875,-1.30859375,0.23046875,-0.33984375,0.615234375,356.0,356.0,356.0111111111111
3355731,,,,,,,,-1.015625,-7.921875,-1.30859375,0.744140625,-0.330078125,0.2890625,356.0,356.0,356.0111111111111
3355732,,,,,,,,-2.96875,5.91015625,-2.41015625,0.744140625,-0.330078125,0.2890625,356.0,356.0,356.0111111111111
3355733,,,,,,,,-2.96875,5.91015625,-2.41015625,0.744140625,-0.330078125,0.2890625,356.0,356.0,356.0111111111111
3355734,,,,,,,,-2.96875,5.91015625,-2.41015625,1.234375,-0.25,0.408203125,356.0,356.0,356.0111111111111
3355735,,,,,,,,-2.96875,5.91015625,-2.41015625,1.234375,-0.25,0.408203125,356.0,356.0,356.0111111111111
3355736,,,,,,,,-2.96875,5.91015625,-2.41015625,1.033203125,-0.359375,0.5703125,356.0,356.0,356.0111111111111
3355737,,,,,,,,-2.96875,5.91015625,-2.41015625,1.033203125,-0.359375,0.5703125,356.0,356.0,356.0111111111111
3355738,,,,,,,,-2.96875,5.91015625,-2.41015625,-0.04296875,-0.271484375,1.75,356.0,356.0,356.0111111111111
3355739,,,,,,,,-2.96875,5.91015625,-2.41015625,-0.04296875,-0.271484375,1.75,356.0,356.0,356.0111111111111
3355740,36.01332333333333,129.31994733333335,121.46010507662837,102.4532037748323,2.9000000000000004,275.0,,-2.96875,5.91015625,-2.41015625,1.072265625,0.087890625,0.029296875,356.0,356.0,356.0111111111111
3355741,,,,,,,,-2.96875,5.91015625,-2.41015625,1.072265625,0.087890625,0.029296875,356.0,356.0,356.0111111111111
3355742,,,,,,,,-2.96875,5.91015625,-2.41015625,0.83203125,-0.095703125,-0.654296875,356.0,356.0,356.0111111111111
3355743,,,,,,,,-2.96875,5.91015625,-2.41015625,0.83203125,-0.095703125,-0.654296875,356.0,356.0,356.0111111111111
3355744,,,,,,,,-2.96875,5.91015625,-2.41015625,0.572265625,0.63671875,0.080078125,356.0,356.0,356.0111111111111
3355745,,,,,,,,-2.96875,5.91015625,-2.41015625,0.572265625,0.63671875,0.080078125,356.0,356.0,356.0111111111111
3355746,,,,,,,,-2.96875,5.91015625,-2.41015625,0.70703125,0.810546875,0.064453125,356.0,356.0,356.0111111111111
3355747,,,,,,,,0.1640625,-14.234375,1.00390625,0.70703125,0.810546875,0.064453125,356.0,356.0,356.0111111111111
3355748,,,,,,,,0.1640625,-14.234375,1.00390625,0.70703125,0.810546875,0.064453125,356.0,356.0,356.0111111111111
3355749,,,,,,,,0.1640625,-14.234375,1.00390625,0.70703125,0.810546875,0.064453125,356.0,356.0,356.0111111111111
3355750,36.01332383333333,129.319944,121.15960924649512,102.50867924879847,2.7,276.0,,0.1640625,-14.234375,1.00390625,1.6015625,1.05078125,0.466796875,356.0,356.0,356.0111111111111
3355751,,,,,,,,0.1640625,-14.234375,1.00390625,1.6015625,1.05078125,0.466796875,356.0,356.0,356.0111111111111
3355752,,,,,,,,0.1640625,-14.234375,1.00390625,2.03125,1.177734375,0.361328125,356.0,356.0,356.0111111111111
3355753,,,,,,,,0.1640625,-14.234375,1.00390625,2.03125,1.177734375,0.361328125,356.0,356.0,356.0111111111111
3355754,,,,,,,,0.1640625,-14.234375,1.00390625,1.908203125,1.21875,0.572265625,356.0,356.0,356.0111111111111
3355755,,,,,,,,0.1640625,-14.234375,1.00390625,1.908203125,1.21875,0.572265625,356.0,356.0,356.0111111111111
3355756,,,,,,,,0.1640625,-14.234375,1.00390625,1.6171875,1.041015625,0.763671875,356.0,356.0,356.0111111111111
3355757,,,,,,,,0.1640625,-14.234375,1.00390625,1.6171875,1.041015625,0.763671875,356.0,356.0,356.0111111111111
3355758,,,,,,,,0.1640625,-14.234375,1.00390625,1.005859375,0.71875,0.92578125,356.0,356.0,356.0111111111111
3355759,,,,,,,,0.1640625,-14.234375,1.00390625,1.005859375,0.71875,0.92578125,356.0,356.0,356.0111111111111
3355760,36.013324499999996,129.31993683333334,120.51354384761383,102.58264319415035,3.2,279.0,,0.1640625,-14.234375,1.00390625,0.880859375,0.412109375,1.080078125,356.0,356.0,356.0111111111111
3355761,,,,,,,,0.1640625,-14.234375,1.00390625,0.880859375,0.412109375,1.080078125,356.0,356.0,356.0111111111111
3355762,,,,,,,,0.1640625,-14.234375,1.00390625,0.982421875,0.490234375,0.861328125,356.0,356.0,356.0111111111111
3355763,,,,,,,,5.5390625,2.78125,-6.35546875,0.982421875,0.490234375,0.861328125,356.0,356.0,356.0111111111111
3355764,,,,,,,,5.5390625,2.78125,-6.35546875,0.982421875,0.490234375,0.861328125,356.0,356.0,356.0111111111111
3355765,,,,,,,,5.5390625,2.78125,-6.35546875,-1.4296875,0.595703125,0.345703125,356.0,356.0,356.0111111111111
3355766,,,,,,,,5.5390625,2.78125,-6.35546875,-1.4296875,0.595703125,0.345703125,356.0,356.0,356.0111111111111
3355767,,,,,,,,5.5390625,2.78125,-6.35546875,-1.796875,0.697265625,-0.380859375,356.0,356.0,356.0111111111111
3355768,,,,,,,,5.5390625,2.78125,-6.35546875,-1.796875,0.697265625,-0.380859375,356.0,356.0,356.0111111111111
3355769,,,,,,,,5.5390625,2.78125,-6.35546875,0.1796875,0.154296875,-0.76953125,356.0,356.0,356.0111111111111
3355770,36.01332466666667,129.31993316666666,120.18299902674379,102.60113187392255,3.1,277.0,,5.5390625,2.78125,-6.35546875,0.1796875,0.154296875,-0.76953125,356.0,356.0,356.0111111111111
3355771,,,,,,,,5.5390625,2.78125,-6.35546875,-0.017578125,0.75390625,1.734375,356.0,356.0,356.0111111111111
3355772,,,,,,,,5.5390625,2.78125,-6.35546875,-0.017578125,0.75390625,1.734375,356.0,356.0,356.0111111111111
3355773,,,,,,,,5.5390625,2.78125,-6.35546875,-1.00390625,-0.29296875,0.04296875,356.0,356.0,356.0111111111111
3355774,,,,,,,,5.5390625,2.78125,-6.35546875,-1.00390625,-0.29296875,0.04296875,356.0,356.0,356.0111111111111
3355775,,,,,,,,5.5390625,2.78125,-6.35546875,-1.5625,0.04296875,-0.34765625,356.0,356.0,356.0111111111111
3355776,,,,,,,,5.5390625,2.78125,-6.35546875,-1.5625,0.04296875,-0.34765625,356.0,356.0,356.0111111111111
3355777,,,,,,,,5.5390625,2.78125,-6.35546875,-1.4140625,-0.6484375,0.37890625,356.0,356.0,356.0111111111111
3355778,,,,,,,,3.03515625,-10.5546875,-1.58203125,-1.4140625,-0.6484375,0.37890625,356.0,356.0,356.0111111111111
3355779,,,,,,,,3.03515625,-10.5546875,-1.58203125,-1.4140625,-0.6484375,0.37890625,356.0,356.0,356.0111111111111
3355780,36.01332433333334,129.3199295,119.85245496805908,102.56414094275434,3.0,271.0,,3.03515625,-10.5546875,-1.58203125,-1.677734375,-1.30859375,1.263671875,356.0,356.0,356.0111111111111
3355781,,,,,,,,3.03515625,-10.5546875,-1.58203125,-1.677734375,-1.30859375,1.263671875,356.0,356.0,356.0111111111111
3355782,,,,,,,,3.03515625,-10.5546875,-1.58203125,-1.4453125,-1.76171875,0.822265625,356.0,356.0,356.0111111111111
3355783,,,,,,,,3.03515625,-10.5546875,-1.58203125,-1.4453125,-1.76171875,0.822265625,356.0,356.0,356.0111111111111
3355784,,,,,,,,3.03515625,-10.5546875,-1.58203125,-1.3828125,-2.015625,0.376953125,356.0,356.0,356.0111111111111
3355785,,,,,,,,3.03515625,-10.5546875,-1.58203125,-1.3828125,-2.015625,0.376953125,356.0,356.0,356.0111111111111
3355786,,,,,,,,3.03515625,-10.5546875,-1.58203125,-1.36328125,-1.9375,0.150390625,356.0,356.0,356.0111111111111
3355787,,,,,,,,3.03515625,-10.5546875,-1.58203125,-1.36328125,-1.9375,0.150390625,356.0,356.0,356.0111111111111
3355788,,,,,,,,3.03515625,-10.5546875,-1.58203125,-1.2890625,-1.736328125,0.490234375,356.0,356.0,356.0111111111111
3355789,,,,,,,,3.03515625,-10.5546875,-1.58203125,-1.2890625,-1.736328125,0.490234375,356.0,356.0,356.0111111111111
3355790,36.013324499999996,129.319926,119.53693490304369,102.58262985094252,3.1,274.0,,3.03515625,-10.5546875,-1.58203125,-1.267578125,-1.3828125,0.72265625,356.0,356.0,356.0111111111111
3355791,,,,,,,,3.03515625,-10.5546875,-1.58203125,-1.267578125,-1.3828125,0.72265625,356.0,356.0,356.0111111111111
3355792,,,,,,,,3.03515625,-10.5546875,-1.58203125,-1.267578125,-0.8046875,1.328125,356.0,356.0,356.0111111111111
3355793,,,,,,,,-4.71484375,12.46484375,-4.30078125,-1.267578125,-0.8046875,1.328125,356.0,356.0,356.0111111111111
3355794,,,,,,,,-4.71484375,12.46484375,-4.30078125,-1.267578125,-0.8046875,1.328125,356.0,356.0,356.0111111111111
3355795,,,,,,,,-4.71484375,12.46484375,-4.30078125,-0.61328125,-0.48046875,1.876953125,356.0,356.0,356.0111111111111
3355796,,,,,,,,-4.71484375,12.46484375,-4.30078125,-0.61328125,-0.48046875,1.876953125,356.0,356.0,356.0111111111111
3355797,,,,,,,,-4.71484375,12.46484375,-4.30078125,0.318359375,-0.4140625,1.67578125,356.0,356.0,356.0111111111111
3355798,,,,,,,,-4.71484375,12.46484375,-4.30078125,0.318359375,-0.4140625,1.67578125,356.0,356.0,356.0111111111111
3355799,,,,,,,,-4.71484375,12.46484375,-4.30078125,0.955078125,0.1328125,1.380859375,356.0,356.0,356.0111111111111
3355800,36.013325333333334,129.31991933333333,118.93594352981052,102.67508773362093,2.8000000000000003,277.0,166.0,-4.71484375,12.46484375,-4.30078125,0.955078125,0.1328125,1.380859375,356.0,356.0,356.0111111111111
3355801,,,,,,,,-4.71484375,12.46484375,-4.30078125,0.955078125,0.1328125,1.380859375,356.0,356.0,356.0111111111111
3355802,,,,,,,,-4.71484375,12.46484375,-4.30078125,0.955078125,0.1328125,1.380859375,356.0,356.0,356.0111111111111
3355803,,,,,,,,-4.71484375,12.46484375,-4.30078125,0.755859375,0.05859375,-0.95703125,356.0,356.0,356.0111111111111
3355804,,,,,,,,-4.71484375,12.46484375,-4.30078125,-0.0703125,0.26171875,-0.6796875,356.0,356.0,356.0111111111111
3355805,,,,,,,,-4.71484375,12.46484375,-4.30078125,-0.0703125,0.26171875,-0.6796875,356.0,356.0,356.0111111111111
3355806,,,,,,,,-4.71484375,12.46484375,-4.30078125,0.537109375,-0.626953125,-1.578125,356.0,356.0,356.0111111111111
3355807,,,,,,,,-4.71484375,12.46484375,-4.30078125,0.537109375,-0.626953125,-1.578125,356.0,356.0,356.0111111111111
3355808,,,,,,,,-4.71484375,12.46484375,-4.30078125,-0.505859375,-1.115234375,-1.322265625,356.0,356.0,356.0111111111111
3355809,,,,,,,,-4.71484375,12.46484375,-4.30078125,-0.505859375,-1.115234375,-1.322265625,356.0,356.0,356.0111111111111
3355810,36.013326166666666,129.31991333333332,118.39505117919065,102.7675464671745,2.8000000000000003,282.0,,-4.71484375,12.46484375,-4.30078125,-1.20703125,-1.46484375,-0.083984375,356.0,356.0,356.0111111111111
3355811,,,,,,,,-4.71484375,12.46484375,-4.30078125,-1.20703125,-1.46484375,-0.083984375,356.0,356.0,356.0111111111111
3355812,,,,,,,,-4.71484375,12.46484375,-4.30078125,-1.2421875,-1.1484375,-0.0078125,356.0,356.0,356.0111111111111
3355813,,,,,,,,-4.71484375,12.46484375,-4.30078125,-1.2421875,-1.1484375,-0.0078125,356.0,356.0,356.0111111111111
3355814,,,,,,,,-4.71484375,12.46484375,-4.30078125,-2.416015625,-1.09375,1.23828125,356.0,356.0,356.0111111111111
3355815,,,,,,,,-9.77734375,-13.99609375,7.43359375,-2.416015625,-1.09375,1.23828125,356.0,356.0,356.0111111111111
3355816,,,,,,,,-9.77734375,-13.99609375,7.43359375,-2.416015625,-1.09375,1.23828125,356.0111111111111,356.0,356.0111111111111
3355817,,,,,,,,-9.77734375,-13.99609375,7.43359375,-0.837890625,-1.6015625,-3.4375,356.0111111111111,356.0,356.0111111111111
3355818,,,,,,,,-9.77734375,-13.99609375,7.43359375,-0.837890625,-1.6015625,-3.4375,356.0111111111111,356.0,356.0111111111111
3355819,,,,,,,,-9.77734375,-13.99609375,7.43359375,-2.453125,-1.640625,-1.650390625,356.0111111111111,356.0,356.0111111111111
3355820,36.013326666666664,129.31991083333332,118.1696791449883,102.8230230561462,2.4000000000000004,283.0,,-9.77734375,-13.99609375,7.43359375,-2.453125,-1.640625,-1.650390625,356.0111111111111,356.0,356.0111111111111
3355821,,,,,,,,-9.77734375,-13.99609375,7.43359375,-1.466796875,-1.546875,-1.3828125,356.0111111111111,356.0,356.0111111111111
3355822,,,,,,,,-9.77734375,-13.99609375,7.43359375,-1.466796875,-1.546875,-1.3828125,356.0111111111111,356.0,356.0111111111111
3355823,,,,,,,,-9.77734375,-13.99609375,7.43359375,-1.109375,-1.533203125,-0.908203125,356.0111111111111,356.0,356.0111111111111
3355824,,,,,,,,-9.77734375,-13.99609375,7.43359375,-1.109375,-1.533203125,-0.908203125,356.0111111111111,356.0,356.0111111111111
3355825,,,,,,,,-9.77734375,-13.99609375,7.43359375,-1.2109375,-1.45703125,-0.3671875,356.0111111111111,356.0,356.0111111111111
3355826,,,,,,,,-9.77734375,-13.99609375,7.43359375,-1.2109375,-1.45703125,-0.3671875,356.0111111111111,356.0,356.0111111111111
3355827,,,,,,,,-9.77734375,-13.99609375,7.43359375,-1.158203125,-1.509765625,-0.330078125,356.0111111111111,356.0,356.0111111111111
3355828,,,,,,,,-9.77734375,-13.99609375,7.43359375,-1.158203125,-1.509765625,-0.330078125,356.0111111111111,356.0,356.0111111111111
3355829,,,,,,,,-9.77734375,-13.99609375,7.43359375,-1.296875,-1.564453125,0.119140625,356.0111111111111,356.0,356.0111111111111
3355830,36.013327499999995,129.3199085,117.95933136694934,102.91548626857399,2.2,285.0,,-11.5625,-6.26171875,7.69921875,-1.296875,-1.564453125,0.119140625,356.0111111111111,356.0,356.0111111111111
3355831,,,,,,,,-11.5625,-6.26171875,7.69921875,-1.296875,-1.564453125,0.119140625,356.0111111111111,356.0,356.0111111111111
3355832,,,,,,,,-11.5625,-6.26171875,7.69921875,-1.3125,-1.650390625,0.8125,356.0111111111111,356.0,356.0111111111111
3355833,,,,,,,,-11.5625,-6.26171875,7.69921875,-1.3125,-1.650390625,0.8125,356.0111111111111,356.0,356.0111111111111
3355834,,,,,,,,-11.5625,-6.26171875,7.69921875,-0.94921875,-1.52734375,1.146484375,356.0111111111111,356.0,356.0111111111111
3355835,,,,,,,,-11.5625,-6.26171875,7.69921875,-0.94921875,-1.52734375,1.146484375,356.0111111111111,356.0,356.0111111111111
3355836,,,,,,,,-11.5625,-6.26171875,7.69921875,-0.791015625,-1.3203125,0.9609375,356.0111111111111,356.0,356.0111111111111
3355837,,,,,,,,-11.5625,-6.26171875,7.69921875,-0.791015625,-1.3203125,0.9609375,356.0111111111111,356.0,356.0111111111111
3355838,,,,,,,,-11.5625,-6.26171875,7.69921875,-0.677734375,-1.078125,0.7578125,356.0111111111111,356.0,356.0111111111111
3355839,,,,,,,,-11.5625,-6.26171875,7.69921875,-0.677734375,-1.078125,0.7578125,356.0111111111111,356.0,356.0111111111111
3355840,36.013329,129.31990750000003,117.86918062177583,103.0819239302439,2.2,301.0,,-11.5625,-6.26171875,7.69921875,-0.849609375,-1.0234375,0.728515625,356.0111111111111,356.0,356.0111111111111
3355841,,,,,,,,-11.5625,-6.26171875,7.69921875,-0.849609375,-1.0234375,0.728515625,356.0111111111111,356.0,356.0111111111111
3355842,,,,,,,,-11.5625,-6.26171875,7.69921875,-0.90234375,-0.662109375,0.33203125,356.0111111111111,356.0,356.0111111111111
3355843,,,,,,,,-11.5625,-6.26171875,7.69921875,-0.90234375,-0.662109375,0.33203125,356.0111111111111,356.0,356.0111111111111
3355844,,,,,,,,-11.5625,-6.26171875,7.69921875,-1.3359375,-0.361328125,-0.01953125,356.0111111111111,356.0,356.0111111111111
3355845,,,,,,,,2.15234375,-1.2109375,7.72265625,-1.3359375,-0.361328125,-0.01953125,356.0111111111111,356.0,356.0111111111111
3355846,,,,,,,,2.15234375,-1.2109375,7.72265625,-1.3359375,-0.361328125,-0.01953125,356.0111111111111,356.0,356.0111111111111
3355847,,,,,,,,2.15234375,-1.2109375,7.72265625,-0.671875,-0.625,0.201171875,356.0111111111111,356.0,356.0111111111111
3355848,,,,,,,,2.15234375,-1.2109375,7.72265625,-0.671875,-0.625,0.201171875,356.0111111111111,356.0,356.0111111111111
3355849,,,,,,,,2.15234375,-1.2109375,7.72265625,-1.2421875,-0.755859375,-0.083984375,356.0111111111111,356.0,356.0111111111111
3355850,36.013331,129.31990733333333,117.85415288966067,103.3038422243233,2.4000000000000004,321.0,,2.15234375,-1.2109375,7.72265625,-1.2421875,-0.755859375,-0.083984375,356.0111111111111,356.0,356.0111111111111
3355851,,,,,,,,2.15234375,-1.2109375,7.72265625,-1.806640625,-0.3046875,0.0546875,356.0111111111111,356.0,356.0111111111111
3355852,,,,,,,,2.15234375,-1.2109375,7.72265625,-1.806640625,-0.3046875,0.0546875,356.0111111111111,356.0,356.0111111111111
3355853,,,,,,,,2.15234375,-1.2109375,7.72265625,-0.828125,0.125,0.369140625,356.0111111111111,356.0,356.0111111111111
3355854,,,,,,,,2.15234375,-1.2109375,7.72265625,-0.828125,0.125,0.369140625,356.0111111111111,355.9888888888889,356.0111111111111
3355855,,,,,,,,2.15234375,-1.2109375,7.72265625,-0.66015625,0.240234375,0.552734375,356.0111111111111,355.9888888888889,356.0111111111111
3355856,,,,,,,,2.15234375,-1.2109375,7.72265625,-0.66015625,0.240234375,0.552734375,356.0111111111111,355.9888888888889,356.0111111111111
3355857,,,,,,,,2.15234375,-1.2109375,7.72265625,-0.54296875,0.2890625,0.529296875,356.0111111111111,355.9888888888889,356.0111111111111
3355858,,,,,,,,2.15234375,-1.2109375,7.72265625,-0.54296875,0.2890625,0.529296875,356.0111111111111,355.9888888888889,356.0111111111111
3355859,,,,,,,,2.15234375,-1.2109375,7.72265625,-0.201171875,0.494140625,0.39453125,356.0111111111111,355.9888888888889,356.0111111111111
3355860,36.013332999999996,129.31990633333334,117.76400140446881,103.52575951093057,2.4000000000000004,332.0,,-2.11328125,-1.1953125,3.1640625,-0.201171875,0.494140625,0.39453125,356.0111111111111,355.9888888888889,356.0111111111111
3355861,,,,,,,,-2.11328125,-1.1953125,3.1640625,-0.201171875,0.494140625,0.39453125,356.0111111111111,355.9888888888889,356.0111111111111
3355862,,,,,,,,-2.11328125,-1.1953125,3.1640625,-0.201171875,0.494140625,0.39453125,356.0111111111111,355.9888888888889,356.0111111111111
3355863,,,,,,,,-2.11328125,-1.1953125,3.1640625,-0.099609375,0.390625,0.5546875,356.0111111111111,355.9888888888889,356.0111111111111
3355864,,,,,,,,-2.11328125,-1.1953125,3.1640625,-0.099609375,0.390625,0.5546875,356.0111111111111,355.9888888888889,356.0111111111111
3355865,,,,,,,,-2.11328125,-1.1953125,3.1640625,-0.3984375,0.529296875,0.345703125,356.0111111111111,355.9888888888889,356.0111111111111
3355866,,,,,,,,-2.11328125,-1.1953125,3.1640625,-0.3984375,0.529296875,0.345703125,356.0111111111111,355.9888888888889,356.0111111111111
3355867,,,,,,,,-2.11328125,-1.1953125,3.1640625,-0.33203125,0.328125,0.04296875,356.0111111111111,355.9888888888889,356.0111111111111
3355868,,,,,,,,-2.11328125,-1.1953125,3.1640625,-0.33203125,0.328125,0.04296875,356.0111111111111,355.9888888888889,356.0111111111111
3355869,,,,,,,,-2.11328125,-1.1953125,3.1640625,-0.63671875,-0.0703125,-0.12109375,356.0111111111111,355.9888888888889,356.0111111111111
3355870,36.013335,129.31990633333334,117.76399842966676,103.74767800674186,2.5,342.0,,-2.11328125,-1.1953125,3.1640625,-0.63671875,-0.0703125,-0.12109375,356.0111111111111,355.9888888888889,356.0111111111111
3355871,,,,,,,,-2.11328125,-1.1953125,3.1640625,-1.30078125,-0.3984375,-0.126953125,356.0111111111111,355.9888888888889,356.0111111111111
3355872,,,,,,,,-2.11328125,-1.1953125,3.1640625,-1.30078125,-0.3984375,-0.126953125,356.0111111111111,355.9888888888889,356.0111111111111
3355873,,,,,,,,-2.11328125,-1.1953125,3.1640625,-2.3984375,-0.388671875,0.302734375,356.0111111111111,355.9888888888889,356.0111111111111
3355874,,,,,,,,-2.11328125,-1.1953125,3.1640625,-2.3984375,-0.388671875,0.302734375,356.0111111111111,355.9888888888889,356.0111111111111
3355875,,,,,,,,-2.11328125,-1.1953125,3.1640625,-2.28125,-0.421875,0.87890625,356.0111111111111,355.9888888888889,356.0111111111111
3355876,,,,,,,,-2.6171875,2.69140625,13.3125,-2.28125,-0.421875,0.87890625,356.0111111111111,355.9888888888889,356.0111111111111
3355877,,,,,,,,-2.6171875,2.69140625,13.3125,-2.28125,-0.421875,0.87890625,356.0111111111111,355.9888888888889,356.0111111111111
3355878,,,,,,,,-2.6171875,2.69140625,13.3125,-1.458984375,-0.337890625,1.49609375,356.0111111111111,355.9888888888889,356.0111111111111
3355879,,,,,,,,-2.6171875,2.69140625,13.3125,-1.458984375,-0.337890625,1.49609375,356.0111111111111,355.9888888888889,356.0111111111111
3355880,36.013337666666665,129.31990633333334,117.76399446286479,104.04356933496118,3.0,350.0,,-2.6171875,2.69140625,13.3125,-1.634765625,-0.19140625,1.95703125,356.0111111111111,355.9888888888889,356.0111111111111
3355881,,,,,,,,-2.6171875,2.69140625,13.3125,-1.634765625,-0.19140625,1.95703125,356.0111111111111,355.9888888888889,356.0111111111111
3355882,,,,,,,,-2.6171875,2.69140625,13.3125,-1.4140625,-0.603515625,-0.310546875,356.0111111111111,355.9888888888889,356.0111111111111
3355883,,,,,,,,-2.6171875,2.69140625,13.3125,-1.4140625,-0.603515625,-0.310546875,356.0111111111111,355.9888888888889,356.0111111111111
3355884,,,,,,,,-2.6171875,2.69140625,13.3125,-1.85546875,-0.900390625,1.048828125,356.0111111111111,355.9888888888889,356.0111111111111
3355885,,,,,,,,-2.6171875,2.69140625,13.3125,-1.85546875,-0.900390625,1.048828125,356.0111111111111,355.9888888888889,356.0111111111111
3355886,,,,,,,,-2.6171875,2.69140625,13.3125,-1.947265625,-1.23046875,0.931640625,356.0111111111111,355.9888888888889,356.0111111111111
3355887,,,,,,,,-2.6171875,2.69140625,13.3125,-1.947265625,-1.23046875,0.931640625,356.0111111111111,355.9888888888889,356.0111111111111
3355888,,,,,,,,-2.6171875,2.69140625,13.3125,-2.203125,-1.462890625,1.07421875,356.0111111111111,355.9888888888889,356.0111111111111
3355889,,,,,,,,-2.6171875,2.69140625,13.3125,-2.203125,-1.462890625,1.07421875,356.0111111111111,355.9888888888889,356.0111111111111
3355890,36.01334216666667,129.31990566666667,117.70388877158769,104.54288514493173,2.6,353.0,,-2.6171875,2.69140625,13.3125,-1.810546875,-1.623046875,1.0078125,356.0111111111111,355.9888888888889,356.0111111111111
3355891,,,,,,,,-2.07421875,-3.25390625,5.47265625,-1.810546875,-1.623046875,1.0078125,356.0111111111111,355.9888888888889,356.0111111111111
3355892,,,,,,,,-2.07421875,-3.25390625,5.47265625,-1.810546875,-1.623046875,1.0078125,356.0,355.9888888888889,356.0444444444444
3355893,,,,,,,,-2.07421875,-3.25390625,5.47265625,-1.677734375,-1.53515625,0.349609375,356.0,355.9888888888889,356.0444444444444
3355894,,,,,,,,-2.07421875,-3.25390625,5.47265625,-1.677734375,-1.53515625,0.349609375,356.0,355.9888888888889,356.0444444444444
3355895,,,,,,,,-2.07421875,-3.25390625,5.47265625,-1.80078125,-1.302734375,0.2421875,356.0,355.9888888888889,356.0444444444444
3355896,,,,,,,,-2.07421875,-3.25390625,5.47265625,-1.80078125,-1.302734375,0.2421875,356.0,355.9888888888889,356.0444444444444
3355897,,,,,,,,-2.07421875,-3.25390625,5.47265625,-1.703125,-0.94921875,0.267578125,356.0,355.9888888888889,356.0444444444444
3355898,,,,,,,,-2.07421875,-3.25390625,5.47265625,-1.703125,-0.94921875,0.267578125,356.0,355.9888888888889,356.0444444444444
3355899,,,,,,,,-2.07421875,-3.25390625,5.47265625,-1.4453125,-0.666015625,0.16015625,356.0,355.9888888888889,356.0444444444444
3355900,36.01334766666666,129.319906,117.73393009105219,105.15316141093915,3.2,358.0,166.0,-2.07421875,-3.25390625,5.47265625,-1.4453125,-0.666015625,0.16015625,356.0,355.9888888888889,356.0444444444444
3355901,,,,,,,,-2.07421875,-3.25390625,5.47265625,-1.4453125,-0.666015625,0.16015625,356.0,355.9888888888889,356.0444444444444
3355902,,,,,,,,-2.07421875,-3.25390625,5.47265625,-1.4453125,-0.666015625,0.16015625,356.0,355.9888888888889,356.0444444444444
3355903,,,,,,,,-2.07421875,-3.25390625,5.47265625,-0.75,-0.458984375,0.171875,356.0,355.9888888888889,356.0444444444444
3355904,,,,,,,,-2.07421875,-3.25390625,5.47265625,1.64453125,1.412109375,0.0,356.0,355.9888888888889,356.0444444444444
3355905,,,,,,,,-2.07421875,-3.25390625,5.47265625,1.64453125,1.412109375,0.0,356.0,355.9888888888889,356.0444444444444
3355906,,,,,,,,-2.07421875,-3.25390625,5.47265625,1.568359375,1.40234375,0.38671875,356.0,355.9888888888889,356.0444444444444
3355907,,,,,,,,-2.07421875,-3.25390625,5.47265625,1.568359375,1.40234375,0.38671875,356.0,355.9888888888889,356.0444444444444
3355908,,,,,,,,-2.07421875,-3.25390625,5.47265625,1.412109375,1.330078125,0.4921875,356.0,355.9888888888889,356.0444444444444
3355909,,,,,,,,-2.07421875,-3.25390625,5.47265625,1.412109375,1.330078125,0.4921875,356.0,355.9888888888889,356.0111111111111
3355910,36.013352833333336,129.319907,117.82407089428555,105.7264520702415,3.1,2.0,,-2.07421875,-3.25390625,5.47265625,1.326171875,1.115234375,0.505859375,356.0,355.9888888888889,356.0111111111111
3355911,,,,,,,,-2.07421875,-3.25390625,5.47265625,1.326171875,1.115234375,0.505859375,356.0,355.9888888888889,356.0111111111111
3355912,,,,,,,,-2.07421875,-3.25390625,5.47265625,1.19140625,0.716796875,0.126953125,356.0,355.9888888888889,356.0111111111111
3355913,,,,,,,,-2.07421875,-3.25390625,5.47265625,1.19140625,0.716796875,0.126953125,356.0,355.9888888888889,356.0111111111111
3355914,,,,,,,,-2.07421875,-3.25390625,5.47265625,0.876953125,0.1015625,-0.146484375,356.0,355.9888888888889,356.0111111111111
3355915,,,,,,,,8.77734375,12.1796875,4.6953125,0.876953125,0.1015625,-0.146484375,356.0,355.9888888888889,356.0111111111111
3355916,,,,,,,,8.77734375,12.1796875,4.6953125,0.876953125,0.1015625,-0.146484375,356.0,355.9888888888889,356.0111111111111
3355917,,,,,,,,8.77734375,12.1796875,4.6953125,-1.703125,-0.568359375,-0.2265625,356.0,355.9888888888889,356.0111111111111
3355918,,,,,,,,8.77734375,12.1796875,4.6953125,-1.703125,-0.568359375,-0.2265625,356.0,355.9888888888889,356.0111111111111
3355919,,,,,,,,8.77734375,12.1796875,4.6953125,-1.6171875,-0.359375,1.611328125,356.0,355.9888888888889,356.0111111111111
3355920,36.01335566666667,129.319907,117.82406667727854,106.04083660581463,3.2,2.0,,8.77734375,12.1796875,4.6953125,-1.6171875,-0.359375,1.611328125,356.0,355.9888888888889,356.0111111111111
3355921,,,,,,,,8.77734375,12.1796875,4.6953125,0.994140625,0.41015625,1.859375,356.0,355.9888888888889,356.0111111111111
3355922,,,,,,,,8.77734375,12.1796875,4.6953125,0.994140625,0.41015625,1.859375,356.0,355.9888888888889,356.0111111111111
3355923,,,,,,,,8.77734375,12.1796875,4.6953125,-1.14453125,0.0234375,0.802734375,356.0,355.9888888888889,356.0111111111111
3355924,,,,,,,,8.77734375,12.1796875,4.6953125,-1.14453125,0.0234375,0.802734375,356.0,355.9888888888889,356.0111111111111
3355925,,,,,,,,8.77734375,12.1796875,4.6953125,-1.193359375,-0.34765625,-1.033203125,356.0,355.9888888888889,356.0111111111111
3355926,,,,,,,,8.77734375,12.1796875,4.6953125,-1.193359375,-0.34765625,-1.033203125,356.0,355.9888888888889,356.0111111111111
3355927,,,,,,,,8.77734375,12.1796875,4.6953125,-1.560546875,-0.58203125,0.671875,356.0,355.9888888888889,356.0111111111111
3355928,,,,,,,,8.77734375,12.1796875,4.6953125,-1.560546875,-0.58203125,0.671875,356.0,355.9888888888889,356.0111111111111
3355929,,,,,,,,8.77734375,12.1796875,4.6953125,-1.08203125,-0.884765625,0.513671875,356.0,355.9888888888889,356.0111111111111
3355930,36.01335816666666,129.31990683333333,117.80903820987889,106.31823452519853,2.8000000000000003,1.0,,3.36328125,-2.19140625,7.17578125,-1.08203125,-0.884765625,0.513671875,356.0,355.9888888888889,356.0111111111111
3355931,,,,,,,,3.36328125,-2.19140625,7.17578125,-1.08203125,-0.884765625,0.513671875,356.0,355.9888888888889,356.0111111111111
3355932,,,,,,,,3.36328125,-2.19140625,7.17578125,-0.52734375,-0.51171875,1.02734375,356.0,355.9888888888889,356.0111111111111
3355933,,,,,,,,3.36328125,-2.19140625,7.17578125,-0.52734375,-0.51171875,1.02734375,356.0,355.9888888888889,356.0111111111111
3355934,,,,,,,,3.36328125,-2.19140625,7.17578125,-0.16015625,-0.087890625,0.55859375,356.0,355.9888888888889,356.0111111111111
3355935,,,,,,,,3.36328125,-2.19140625,7.17578125,-0.16015625,-0.087890625,0.55859375,356.0,355.9888888888889,356.0111111111111
3355936,,,,,,,,3.36328125,-2.19140625,7.17578125,-0.080078125,0.96875,-0.45703125,356.0,355.9888888888889,356.0111111111111
3355937,,,,,,,,3.36328125,-2.19140625,7.17578125,-0.080078125,0.96875,-0.45703125,356.0,355.9888888888889,356.0111111111111
3355938,,,,,,,,3.36328125,-2.19140625,7.17578125,0.58203125,1.5,-0.91015625,356.0,355.9888888888889,356.0111111111111
3355939,,,,,,,,3.36328125,-2.19140625,7.17578125,0.58203125,1.5,-0.91015625,356.0,355.9888888888889,356.0111111111111
3355940,36.013361,129.31990733333333,117.85410823102339,106.63261966695,3.1,2.0,,3.36328125,-2.19140625,7.17578125,1.408203125,1.560546875,-0.658203125,356.0,355.9888888888889,356.0111111111111
3355941,,,,,,,,3.36328125,-2.19140625,7.17578125,1.408203125,1.560546875,-0.658203125,356.0,355.9888888888889,356.0111111111111
3355942,,,,,,,,3.36328125,-2.19140625,7.17578125,1.3125,1.673828125,0.650390625,356.0,355.9888888888889,356.0111111111111
3355943,,,,,,,,3.36328125,-2.19140625,7.17578125,1.3125,1.673828125,0.650390625,356.0,355.9888888888889,356.0111111111111
3355944,,,,,,,,3.36328125,-2.19140625,7.17578125,1.8515625,1.388671875,2.4140625,356.0,355.9888888888889,356.0111111111111
3355945,,,,,,,,9.8125,-35.05859375,11.55078125,1.8515625,1.388671875,2.4140625,356.0,355.9888888888889,356.0111111111111
3355946,,,,,,,,9.8125,-35.05859375,11.55078125,1.8515625,1.388671875,2.4140625,356.0,355.9888888888889,356.0111111111111
3355947,,,,,,,,9.8125,-35.05859375,11.55078125,1.8515625,1.388671875,2.4140625,356.0,355.9888888888889,356.0111111111111
3355948,,,,,,,,9.8125,-35.05859375,11.55078125,1.478515625,1.17578125,2.068359375,356.0,355.9888888888889,356.0111111111111
3355949,,,,,,,,9.8125,-35.05859375,11.55078125,1.478515625,1.17578125,2.068359375,356.0,355.9888888888889,356.0111111111111
3355950,36.01336366666667,129.31990716666667,117.83907951647271,106.92851079554512,3.0,0.0,,9.8125,-35.05859375,11.55078125,2.84765625,2.419921875,-0.572265625,356.0,355.9888888888889,356.0111111111111
3355951,,,,,,,,9.8125,-35.05859375,11.55078125,2.84765625,2.419921875,-0.572265625,356.0,355.9888888888889,356.0111111111111
3355952,,,,,,,,9.8125,-35.05859375,11.55078125,1.845703125,2.015625,0.234375,356.0,355.9888888888889,356.0111111111111
3355953,,,,,,,,9.8125,-35.05859375,11.55078125,1.845703125,2.015625,0.234375,356.0,355.9888888888889,356.0111111111111
3355954,,,,,,,,9.8125,-35.05859375,11.55078125,0.642578125,2.09765625,0.04296875,356.0,355.9888888888889,356.0111111111111
3355955,,,,,,,,9.8125,-35.05859375,11.55078125,0.642578125,2.09765625,0.04296875,356.0,355.9888888888889,356.0111111111111
3355956,,,,,,,,9.8125,-35.05859375,11.55078125,1.189453125,1.556640625,0.2421875,356.0,355.9888888888889,356.0111111111111
3355957,,,,,,,,9.8125,-35.05859375,11.55078125,1.189453125,1.556640625,0.2421875,356.0,355.9888888888889,356.0111111111111
3355958,,,,,,,,9.8125,-35.05859375,11.55078125,1.4140625,1.03125,-0.705078125,356.0,355.9888888888889,356.0111111111111
3355959,,,,,,,,9.8125,-35.05859375,11.55078125,1.4140625,1.03125,-0.705078125,356.0,355.9888888888889,356.0111111111111
3355960,36.01336583333333,129.31990750000003,117.86912578381126,107.16892290237737,2.5,2.0,,9.8125,-35.05859375,11.55078125,1.408203125,0.66796875,-0.931640625,356.0,355.9888888888889,356.0111111111111
3355961,,,,,,,,3.01953125,13.16015625,-0.3125,1.408203125,0.66796875,-0.931640625,356.0,355.9888888888889,356.0111111111111
3355962,,,,,,,,3.01953125,13.16015625,-0.3125,1.408203125,0.66796875,-0.931640625,356.0,355.9888888888889,356.0111111111111
3355963,,,,,,,,3.01953125,13.16015625,-0.3125,1.408203125,0.66796875,-0.931640625,356.0,355.9888888888889,356.0111111111111
3355964,,,,,,,,3.01953125,13.16015625,-0.3125,0.7734375,0.232421875,-0.17578125,356.0,355.9888888888889,356.0111111111111
3355965,,,,,,,,3.01953125,13.16015625,-0.3125,0.7734375,0.232421875,-0.17578125,356.0,355.9888888888889,356.0111111111111
3355966,,,,,,,,3.01953125,13.16015625,-0.3125,0.607421875,0.5859375,0.544921875,356.0,355.9888888888889,356.0111111111111
3355967,,,,,,,,3.01953125,13.16015625,-0.3125,0.607421875,0.5859375,0.544921875,356.0,355.9888888888889,356.0111111111111
3355968,,,,,,,,3.01953125,13.16015625,-0.3125,2.32421875,0.994140625,0.87109375,356.0,355.9888888888889,356.0111111111111
3355969,,,,,,,,3.01953125,13.16015625,-0.3125,2.32421875,0.994140625,0.87109375,356.0,355.9888888888889,356.0111111111111
3355970,36.013368166666666,129.31990683333333,117.80902332941777,107.42782700871997,2.8000000000000003,357.0,,3.01953125,13.16015625,-0.3125,1.158203125,0.560546875,-3.12109375,356.0,355.9888888888889,356.0111111111111
3355971,,,,,,,,3.01953125,13.16015625,-0.3125,1.158203125,0.560546875,-3.12109375,356.0,355.9888888888889,356.0111111111111
3355972,,,,,,,,3.01953125,13.16015625,-0.3125,0.56640625,0.453125,-2.921875,356.0,355.9888888888889,356.0111111111111
3355973,,,,,,,,3.01953125,13.16015625,-0.3125,0.56640625,0.453125,-2.921875,356.0,355.9888888888889,356.0111111111111
3355974,,,,,,,,3.01953125,13.16015625,-0.3125,0.701171875,0.279296875,-1.80078125,356.0,355.9888888888889,356.0111111111111
3355975,,,,,,,,3.01953125,13.16015625,-0.3125,0.701171875,0.279296875,-1.80078125,356.0,355.9888888888889,356.0111111111111
3355976,,,,,,,,3.01953125,13.16015625,-0.3125,1.115234375,0.111328125,-1.86328125,356.0,355.9888888888889,356.0111111111111
3355977,,,,,,,,-2.17578125,9.796875,5.97265625,1.115234375,0.111328125,-1.86328125,356.0,355.9888888888889,356.0111111111111
3355978,,,,,,,,-2.17578125,9.796875,5.97265625,1.115234375,0.111328125,-1.86328125,356.0111111111111,355.9888888888889,356.0111111111111
3355979,,,,,,,,-2.17578125,9.796875,5.97265625,1.609375,0.00390625,-1.66015625,356.0111111111111,355.9888888888889,356.0111111111111
3355980,36.01337016666666,129.3199065,117.77897086315745,107.64974510249358,2.2,355.0,,-2.17578125,9.796875,5.97265625,1.609375,0.00390625,-1.66015625,356.0111111111111,356.0,356.0111111111111
3355981,,,,,,,,-2.17578125,9.796875,5.97265625,1.74609375,0.611328125,-1.369140625,356.0111111111111,356.0,356.0111111111111
3355982,,,,,,,,-2.17578125,9.796875,5.97265625,1.74609375,0.611328125,-1.369140625,356.0111111111111,356.0,356.0111111111111
3355983,,,,,,,,-2.17578125,9.796875,5.97265625,1.900390625,1.224609375,-0.35546875,356.0111111111111,356.0,356.0111111111111
3355984,,,,,,,,-2.17578125,9.796875,5.97265625,1.900390625,1.224609375,-0.35546875,356.0111111111111,356.0,356.0111111111111
3355985,,,,,,,,-2.17578125,9.796875,5.97265625,1.091796875,0.466796875,0.57421875,356.0111111111111,356.0,356.0111111111111
3355986,,,,,,,,-2.17578125,9.796875,5.97265625,1.091796875,0.466796875,0.57421875,356.0111111111111,356.0,356.0111111111111
3355987,,,,,,,,-2.17578125,9.796875,5.97265625,1.37109375,1.1796875,-2.46875,356.0111111111111,356.0,356.0111111111111
3355988,,,,,,,,-2.17578125,9.796875,5.97265625,1.37109375,1.1796875,-2.46875,356.0111111111111,356.0,356.0111111111111
3355989,,,,,,,,-2.17578125,9.796875,5.97265625,1.87109375,0.896484375,-0.857421875,356.0111111111111,356.0,356.0111111111111
3355990,36.01337266666667,129.31990566666667,117.70384342632295,107.92714221777787,2.6,351.0,,-2.17578125,9.796875,5.97265625,1.87109375,0.896484375,-0.857421875,356.0111111111111,356.0,356.0111111111111
3355991,,,,,,,,-2.17578125,9.796875,5.97265625,1.95703125,1.2265625,-0.810546875,356.0111111111111,356.0,356.0111111111111
3355992,,,,,,,,10.44921875,-9.06640625,6.9609375,1.95703125,1.2265625,-0.810546875,356.0111111111111,356.0,356.0111111111111
3355993,,,,,,,,10.44921875,-9.06640625,6.9609375,1.95703125,1.2265625,-0.810546875,356.0111111111111,356.0,356.0111111111111
3355994,,,,,,,,10.44921875,-9.06640625,6.9609375,1.59375,1.818359375,-0.64453125,356.0111111111111,356.0,356.0111111111111
3355995,,,,,,,,10.44921875,-9.06640625,6.9609375,1.59375,1.818359375,-0.64453125,356.0111111111111,356.0,356.0111111111111
3355996,,,,,,,,10.44921875,-9.06640625,6.9609375,1.689453125,1.6953125,-0.130859375,356.0111111111111,356.0,356.0111111111111
3355997,,,,,,,,10.44921875,-9.06640625,6.9609375,1.689453125,1.6953125,-0.130859375,356.0111111111111,356.0,356.0111111111111
3355998,,,,,,,,10.44921875,-9.06640625,6.9609375,1.62109375,1.470703125,0.42578125,356.0111111111111,356.0,356.0111111111111
3355999,,,,,,,,10.44921875,-9.06640625,6.9609375,1.62109375,1.470703125,0.42578125,356.0111111111111,356.0,356.0111111111111
3356000,36.01337516666667,129.31990266666665,117.4333943254056,108.20453672009322,2.3000000000000003,332.0,166.0,10.44921875,-9.06640625,6.9609375,1.62109375,1.470703125,0.42578125,356.0111111111111,356.0,356.0111111111111
3356001,,,,,,,,10.44921875,-9.06640625,6.9609375,1.62109375,1.470703125,0.42578125,356.0111111111111,356.0,356.0111111111111
3356002,,,,,,,,10.44921875,-9.06640625,6.9609375,2.0,1.443359375,0.576171875,356.0111111111111,356.0,356.0111111111111
3356003,,,,,,,,10.44921875,-9.06640625,6.9609375,2.0,1.443359375,0.576171875,356.0111111111111,356.0,356.0111111111111
3356004,,,,,,,,10.44921875,-9.06640625,6.9609375,-0.703125,-0.451171875,-0.259765625,356.0111111111111,356.0,356.0111111111111
3356005,,,,,,,,10.44921875,-9.06640625,6.9609375,-0.703125,-0.451171875,-0.259765625,356.0,356.0,356.0111111111111
3356006,,,,,,,,10.44921875,-9.06640625,6.9609375,-0.556640625,-1.171875,0.34765625,356.0,356.0,356.0111111111111
3356007,,,,,,,,10.44921875,-9.06640625,6.9609375,-0.556640625,-1.171875,0.34765625,356.0,356.0,356.0111111111111
3356008,,,,,,,,10.44921875,-9.06640625,6.9609375,-0.86328125,-1.451171875,0.4765625,356.0,356.0,356.0111111111111
3356009,,,,,,,,10.44921875,-9.06640625,6.9609375,-0.86328125,-1.451171875,0.4765625,356.0,356.0,356.0111111111111
3356010,36.01337616666667,129.31989683333333,116.90752683237369,108.31548895506472,2.4000000000000004,302.0,,10.44921875,-9.06640625,6.9609375,-1.0078125,-1.40625,0.845703125,356.0,356.0,356.0111111111111
3356011,,,,,,,,10.44921875,-9.06640625,6.9609375,-1.0078125,-1.40625,0.845703125,356.0,356.0,356.0111111111111
3356012,,,,,,,,10.44921875,-9.06640625,6.9609375,-1.021484375,-1.1796875,0.75390625,356.0,356.0,356.0111111111111
3356013,,,,,,,,10.44921875,-9.06640625,6.9609375,-1.021484375,-1.1796875,0.75390625,356.0,356.0,356.0111111111111
3356014,,,,,,,,10.44921875,-9.06640625,6.9609375,-0.84375,-1.06640625,0.5390625,356.0,356.0,356.0111111111111
3356015,,,,,,,,-1.1953125,1.17578125,-4.40625,-0.84375,-1.06640625,0.5390625,356.0,356.0,356.0111111111111
3356016,,,,,,,,-1.1953125,1.17578125,-4.40625,-0.84375,-1.06640625,0.5390625,356.0,356.0,356.0111111111111
3356017,,,,,,,,-1.1953125,1.17578125,-4.40625,-0.486328125,-0.92578125,0.091796875,356.0,356.0,356.0111111111111
3356018,,,,,,,,-1.1953125,1.17578125,-4.40625,-0.486328125,-0.92578125,0.091796875,356.0,356.0,356.0111111111111
3356019,,,,,,,,-1.1953125,1.17578125,-4.40625,-0.4296875,-0.79296875,-0.126953125,356.0,356.0,356.0111111111111
3356020,36.013376666666666,129.31989383333334,116.63708071948544,108.37096498354471,2.5,293.0,,-1.1953125,1.17578125,-4.40625,-0.4296875,-0.79296875,-0.126953125,356.0,356.0,356.0111111111111
3356021,,,,,,,,-1.1953125,1.17578125,-4.40625,-0.015625,-0.412109375,-0.451171875,356.0,356.0,356.0111111111111
3356022,,,,,,,,-1.1953125,1.17578125,-4.40625,-0.015625,-0.412109375,-0.451171875,356.0,356.0,356.0111111111111
3356023,,,,,,,,-1.1953125,1.17578125,-4.40625,0.134765625,-0.21875,-0.90625,356.0,356.0,356.0111111111111
3356024,,,,,,,,-1.1953125,1.17578125,-4.40625,0.134765625,-0.21875,-0.90625,356.0,356.0,356.0111111111111
3356025,,,,,,,,-1.1953125,1.17578125,-4.40625,1.06640625,-0.03515625,-0.388671875,356.0,356.0,356.0111111111111
3356026,,,,,,,,-1.1953125,1.17578125,-4.40625,1.06640625,-0.03515625,-0.388671875,356.0,356.0,356.0111111111111
3356027,,,,,,,,-1.1953125,1.17578125,-4.40625,0.8515625,-0.08984375,0.77734375,356.0,356.0,356.0111111111111
3356028,,,,,,,,-1.1953125,1.17578125,-4.40625,0.8515625,-0.08984375,0.77734375,356.0,356.0,356.0111111111111
3356029,,,,,,,,-1.1953125,1.17578125,-4.40625,-0.05078125,-0.240234375,1.44140625,356.0,356.0,356.0111111111111
3356030,36.01337733333333,129.31989049999999,116.33658487488155,108.4449338319741,2.9000000000000004,290.0,,3.69140625,-22.8125,5.75390625,-0.05078125,-0.240234375,1.44140625,356.0,356.0,356.0111111111111
3356031,,,,,,,,3.69140625,-22.8125,5.75390625,-0.05078125,-0.240234375,1.44140625,356.0,356.0,356.0111111111111
3356032,,,,,,,,3.69140625,-22.8125,5.75390625,1.552734375,0.3046875,-0.41015625,356.0,356.0,356.0111111111111
3356033,,,,,,,,3.69140625,-22.8125,5.75390625,1.552734375,0.3046875,-0.41015625,356.0,356.0,356.0111111111111
3356034,,,,,,,,3.69140625,-22.8125,5.75390625,1.107421875,0.421875,-0.755859375,356.0,356.0,356.0111111111111
3356035,,,,,,,,3.69140625,-22.8125,5.75390625,1.107421875,0.421875,-0.755859375,356.0,356.0,356.0111111111111
3356036,,,,,,,,3.69140625,-22.8125,5.75390625,1.365234375,0.9609375,0.056640625,356.0,356.0,356.0111111111111
3356037,,,,,,,,3.69140625,-22.8125,5.75390625,1.365234375,0.9609375,0.056640625,356.0,356.0,356.0111111111111
3356038,,,,,,,,3.69140625,-22.8125,5.75390625,1.8828125,1.421875,0.037109375,356.0,356.0,356.0111111111111
3356039,,,,,,,,3.69140625,-22.8125,5.75390625,1.8828125,1.421875,0.037109375,356.0,356.0,356.0111111111111
3356040,36.013379,129.31988466666664,115.81071643238866,108.62985896449405,2.6,289.0,,3.69140625,-22.8125,5.75390625,2.078125,1.498046875,0.36328125,356.0,356.0,356.0111111111111
3356041,,,,,,,,3.69140625,-22.8125,5.75390625,2.078125,1.498046875,0.36328125,356.0,356.0,356.0111111111111
3356042,,,,,,,,3.69140625,-22.8125,5.75390625,2.244140625,1.3359375,0.62109375,356.0,356.0,356.0111111111111
3356043,,,,,,,,3.69140625,-22.8125,5.75390625,2.244140625,1.3359375,0.62109375,356.0,356.0,356.0111111111111
3356044,,,,,,,,3.69140625,-22.8125,5.75390625,1.9375,1.15625,0.951171875,356.0,356.0,356.0111111111111
3356045,,,,,,,,3.5625,-1.515625,-6.484375,1.9375,1.15625,0.951171875,356.0,356.0,356.0111111111111
3356046,,,,,,,,3.5625,-1.515625,-6.484375,1.9375,1.15625,0.951171875,356.0,356.0,356.0111111111111
3356047,,,,,,,,3.5625,-1.515625,-6.484375,1.52734375,1.06640625,0.974609375,356.0,356.0,356.0111111111111
3356048,,,,,,,,3.5625,-1.515625,-6.484375,1.52734375,1.06640625,0.974609375,356.0,356.0,356.0111111111111
3356049,,,,,,,,3.5625,-1.515625,-6.484375,1.3203125,0.75,0.421875,356.0,356.0,356.0111111111111
3356050,36.01337916666667,129.31988066666665,115.45012236678443,108.6483474258327,3.2,284.0,,3.5625,-1.515625,-6.484375,1.3203125,0.75,0.421875,356.0,356.0,356.0111111111111
3356051,,,,,,,,3.5625,-1.515625,-6.484375,0.822265625,0.568359375,-0.0859375,356.0,356.0,356.0111111111111
3356052,,,,,,,,3.5625,-1.515625,-6.484375,0.822265625,0.568359375,-0.0859375,356.0,356.0,356.0111111111111
3356053,,,,,,,,3.5625,-1.515625,-6.484375,-0.70703125,0.140625,-1.06640625,356.0,356.0,356.0111111111111
3356054,,,,,,,,3.5625,-1.515625,-6.484375,-0.70703125,0.140625,-1.06640625,356.0,356.0,356.0111111111111
3356055,,,,,,,,3.5625,-1.515625,-6.484375,-1.765625,0.1484375,-0.892578125,356.0,356.0,356.0111111111111
3356056,,,,,,,,3.5625,-1.515625,-6.484375,-1.765625,0.1484375,-0.892578125,356.0,356.0,356.0111111111111
3356057,,,,,,,,3.5625,-1.515625,-6.484375,0.021484375,0.0703125,0.041015625,356.0,356.0,356.0111111111111
3356058,,,,,,,,3.5625,-1.515625,-6.484375,0.021484375,0.0703125,0.041015625,356.0,356.0,356.0111111111111
3356059,,,,,,,,3.5625,-1.515625,-6.484375,-0.67578125,0.0625,2.30078125,356.0,356.0,356.0111111111111
3356060,36.0133795,129.31987683333332,115.10455280183518,108.68532930791841,3.4000000000000004,283.0,,2.46875,-23.2734375,-4.19921875,-0.67578125,0.0625,2.30078125,356.0,356.0,356.0111111111111
3356061,,,,,,,,2.46875,-23.2734375,-4.19921875,-0.67578125,0.0625,2.30078125,356.0,356.0,356.0111111111111
3356062,,,,,,,,2.46875,-23.2734375,-4.19921875,-0.67578125,0.0625,2.30078125,356.0,356.0,356.0111111111111
3356063,,,,,,,,2.46875,-23.2734375,-4.19921875,0.60546875,0.189453125,2.185546875,356.0,356.0,356.0111111111111
3356064,,,,,,,,2.46875,-23.2734375,-4.19921875,0.60546875,0.189453125,2.185546875,356.0,356.0,356.0111111111111
3356065,,,,,,,,2.46875,-23.2734375,-4.19921875,-1.271484375,-0.748046875,-0.390625,356.0,356.0,356.0111111111111
3356066,,,,,,,,2.46875,-23.2734375,-4.19921875,-1.271484375,-0.748046875,-0.390625,356.0,356.0,356.0111111111111
3356067,,,,,,,,2.46875,-23.2734375,-4.19921875,-1.66015625,-1.046875,1.134765625,356.0,356.0,356.0111111111111
3356068,,,,,,,,2.46875,-23.2734375,-4.19921875,-1.66015625,-1.046875,1.134765625,356.0,356.0,356.0111111111111
3356069,,,,,,,,2.46875,-23.2734375,-4.19921875,-1.630859375,-1.13671875,0.896484375,356.0,356.0,356.0111111111111
3356070,36.01337933333333,129.31987366666667,114.81908293648533,108.66683236344556,3.0,277.0,,2.46875,-23.2734375,-4.19921875,-1.630859375,-1.13671875,0.896484375,356.0,356.0,356.0111111111111
3356071,,,,,,,,2.46875,-23.2734375,-4.19921875,-1.294921875,-1.177734375,0.88671875,356.0,356.0,356.0111111111111
3356072,,,,,,,,2.46875,-23.2734375,-4.19921875,-1.294921875,-1.177734375,0.88671875,356.0,356.0,356.0111111111111
3356073,,,,,,,,2.46875,-23.2734375,-4.19921875,-1.0703125,-1.146484375,0.669921875,356.0,356.0,356.0111111111111
3356074,,,,,,,,2.46875,-23.2734375,-4.19921875,-1.0703125,-1.146484375,0.669921875,356.0,356.0,356.0111111111111
3356075,,,,,,,,2.46875,-23.2734375,-4.19921875,-0.8203125,-0.919921875,0.595703125,356.0,356.0,356.0111111111111
3356076,,,,,,,,-3.53125,1.2578125,-6.40234375,-0.8203125,-0.919921875,0.595703125,356.0,356.0,356.0111111111111
3356077,,,,,,,,-3.53125,1.2578125,-6.40234375,-0.8203125,-0.919921875,0.595703125,356.0,356.0,356.0111111111111
3356078,,,,,,,,-3.53125,1.2578125,-6.40234375,-0.8203125,-0.919921875,0.595703125,356.0,356.0,356.0111111111111
3356079,,,,,,,,-3.53125,1.2578125,-6.40234375,0.35546875,-0.474609375,0.328125,356.0,356.0,356.0111111111111
3356080,36.01337983333334,129.31986966666668,114.45848839199732,108.72230728471956,3.4000000000000004,278.0,,-3.53125,1.2578125,-6.40234375,0.35546875,-0.474609375,0.328125,356.0,356.0,356.0111111111111
3356081,,,,,,,,-3.53125,1.2578125,-6.40234375,1.05078125,-0.2578125,0.220703125,356.0,356.0,356.0111111111111
3356082,,,,,,,,-3.53125,1.2578125,-6.40234375,1.05078125,-0.2578125,0.220703125,356.0,356.0,356.0111111111111
3356083,,,,,,,,-3.53125,1.2578125,-6.40234375,1.16015625,-0.076171875,0.50390625,356.0,356.0,356.0111111111111
3356084,,,,,,,,-3.53125,1.2578125,-6.40234375,1.16015625,-0.076171875,0.50390625,356.0,356.0,356.0111111111111
3356085,,,,,,,,-3.53125,1.2578125,-6.40234375,1.18359375,0.294921875,0.525390625,356.0,356.0,356.0111111111111
3356086,,,,,,,,-3.53125,1.2578125,-6.40234375,1.18359375,0.294921875,0.525390625,356.0,356.0,356.0111111111111
3356087,,,,,,,,-3.53125,1.2578125,-6.40234375,-0.14453125,-0.365234375,2.31640625,356.0,356.0,356.0111111111111
3356088,,,,,,,,-3.53125,1.2578125,-6.40234375,-0.14453125,-0.365234375,2.31640625,356.0,356.0,356.0111111111111
3356089,,,,,,,,-3.53125,1.2578125,-6.40234375,-0.08203125,-0.435546875,0.2109375,356.0,356.0,356.0111111111111
3356090,36.01338016666667,129.31986583333335,114.11291883484604,108.7592892044338,3.4000000000000004,278.0,,-3.53125,1.2578125,-6.40234375,-0.08203125,-0.435546875,0.2109375,356.0,356.0,356.0111111111111
3356091,,,,,,,,-3.53125,1.2578125,-6.40234375,2.607421875,-0.10546875,-2.232421875,356.0,356.0,356.0111111111111
3356092,,,,,,,,2.8359375,-11.16796875,0.29296875,2.607421875,-0.10546875,-2.232421875,356.0,356.0,356.0111111111111
3356093,,,,,,,,2.8359375,-11.16796875,0.29296875,2.607421875,-0.10546875,-2.232421875,356.0,356.0,356.0111111111111
3356094,,,,,,,,2.8359375,-11.16796875,0.29296875,1.69140625,0.220703125,-0.166015625,356.0,356.0,356.0111111111111
3356095,,,,,,,,2.8359375,-11.16796875,0.29296875,1.69140625,0.220703125,-0.166015625,356.0,356.0,356.0111111111111
3356096,,,,,,,,2.8359375,-11.16796875,0.29296875,0.650390625,0.765625,-0.119140625,356.0,356.0,356.0111111111111
3356097,,,,,,,,2.8359375,-11.16796875,0.29296875,0.650390625,0.765625,-0.119140625,356.0,356.0,356.0111111111111
3356098,,,,,,,,2.8359375,-11.16796875,0.29296875,0.3828125,0.580078125,-0.025390625,356.0,356.0,356.0111111111111
3356099,,,,,,,,2.8359375,-11.16796875,0.29296875,0.3828125,0.580078125,-0.025390625,356.0,356.0,356.0111111111111
3356100,36.013380833333336,129.31985866666668,113.46685395204915,108.83325366850228,3.2,278.0,166.0,2.8359375,-11.16796875,0.29296875,0.505859375,0.208984375,-0.8125,356.0,356.0,356.0111111111111
3356101,,,,,,,,2.8359375,-11.16796875,0.29296875,0.505859375,0.208984375,-0.8125,356.0,356.0,356.0111111111111
3356102,,,,,,,,2.8359375,-11.16796875,0.29296875,-0.240234375,-1.48828125,0.283203125,356.0,356.0,356.0111111111111
3356103,,,,,,,,2.8359375,-11.16796875,0.29296875,-0.25,-0.955078125,0.0390625,356.0,356.0,356.0111111111111
3356104,,,,,,,,2.8359375,-11.16796875,0.29296875,-0.25,-0.955078125,0.0390625,356.0,356.0,356.0111111111111
3356105,,,,,,,,2.8359375,-11.16796875,0.29296875,-0.625,-0.419921875,0.259765625,356.0,356.0,356.0111111111111
3356106,,,,,,,,-1.83984375,8.65625,-4.296875,-0.625,-0.419921875,0.259765625,356.0,356.0,356.0111111111111
3356107,,,,,,,,-1.83984375,8.65625,-4.296875,-0.625,-0.419921875,0.259765625,356.0,356.0,356.0111111111111
3356108,,,,,,,,-1.83984375,8.65625,-4.296875,-0.3203125,-0.162109375,0.21484375,356.0,356.0,356.0111111111111
3356109,,,,,,,,-1.83984375,8.65625,-4.296875,-0.3203125,-0.162109375,0.21484375,356.0,356.0,356.0111111111111
3356110,36.013381333333335,129.31985216666666,112.88088828847572,108.88872574279533,2.7,275.0,,-1.83984375,8.65625,-4.296875,-0.546875,-0.580078125,1.0703125,356.0,356.0,356.0111111111111
3356111,,,,,,,,-1.83984375,8.65625,-4.296875,-0.546875,-0.580078125,1.0703125,356.0,356.0,356.0111111111111
3356112,,,,,,,,-1.83984375,8.65625,-4.296875,-0.84375,-1.42578125,1.453125,356.0,356.0,356.0111111111111
3356113,,,,,,,,-1.83984375,8.65625,-4.296875,-0.84375,-1.42578125,1.453125,356.0,356.0,356.0111111111111
3356114,,,,,,,,-1.83984375,8.65625,-4.296875,0.4140625,-0.177734375,-2.5546875,356.0,356.0,356.0111111111111
3356115,,,,,,,,-1.83984375,8.65625,-4.296875,0.4140625,-0.177734375,-2.5546875,356.0,356.0,356.0111111111111
3356116,,,,,,,,-1.83984375,8.65625,-4.296875,0.2890625,-0.208984375,-1.24609375,356.0,356.0,356.0111111111111
3356117,,,,,,,,-1.83984375,8.65625,-4.296875,0.2890625,-0.208984375,-1.24609375,356.0111111111111,356.0,356.0111111111111
3356118,,,,,,,,-1.83984375,8.65625,-4.296875,-0.6015625,0.05859375,-1.228515625,356.0111111111111,356.0,356.0111111111111
3356119,,,,,,,,-1.83984375,8.65625,-4.296875,-0.6015625,0.05859375,-1.228515625,356.0111111111111,356.0,356.0111111111111
3356120,36.01338233333333,129.31984683333334,112.4000951190188,108.99967882704752,2.4000000000000004,280.0,,-1.83984375,8.65625,-4.296875,0.083984375,0.369140625,-1.841796875,356.0111111111111,356.0,356.0111111111111
3356121,,,,,,,,3.30078125,3.984375,-2.5078125,0.083984375,0.369140625,-1.841796875,356.0111111111111,356.0,356.0111111111111
3356122,,,,,,,,3.30078125,3.984375,-2.5078125,0.083984375,0.369140625,-1.841796875,356.0111111111111,356.0,356.0111111111111
3356123,,,,,,,,3.30078125,3.984375,-2.5078125,0.095703125,0.365234375,-1.396484375,356.0111111111111,356.0,356.0111111111111
3356124,,,,,,,,3.30078125,3.984375,-2.5078125,0.095703125,0.365234375,-1.396484375,356.0111111111111,356.0,356.0111111111111
3356125,,,,,,,,3.30078125,3.984375,-2.5078125,-0.91796875,-0.705078125,-0.427734375,356.0111111111111,356.0,356.0111111111111
3356126,,,,,,,,3.30078125,3.984375,-2.5078125,-0.91796875,-0.705078125,-0.427734375,356.0111111111111,356.0,356.0111111111111
3356127,,,,,,,,3.30078125,3.984375,-2.5078125,-0.99609375,-0.751953125,-0.130859375,356.0111111111111,356.0,356.0111111111111
3356128,,,,,,,,3.30078125,3.984375,-2.5078125,-0.99609375,-0.751953125,-0.130859375,356.0111111111111,356.0,356.0111111111111
3356129,,,,,,,,3.30078125,3.984375,-2.5078125,-0.337890625,-0.625,0.42578125,356.0111111111111,356.0,356.0111111111111
3356130,36.01338316666667,129.31984416666668,112.15969806614245,109.09214179529059,2.5,286.0,,3.30078125,3.984375,-2.5078125,-0.337890625,-0.625,0.42578125,356.0111111111111,356.0,356.0111111111111
3356131,,,,,,,,3.30078125,3.984375,-2.5078125,-1.056640625,-0.623046875,-0.634765625,356.0111111111111,356.0,356.0111111111111
3356132,,,,,,,,3.30078125,3.984375,-2.5078125,-1.056640625,-0.623046875,-0.634765625,356.0111111111111,356.0,356.0111111111111
3356133,,,,,,,,3.30078125,3.984375,-2.5078125,-2.322265625,-1.287109375,-1.62109375,356.0111111111111,356.0,356.0111111111111
3356134,,,,,,,,3.30078125,3.984375,-2.5078125,-2.322265625,-1.287109375,-1.62109375,356.0111111111111,356.0,356.0111111111111
3356135,,,,,,,,3.30078125,3.984375,-2.5078125,-2.8984375,-1.3125,-0.97265625,356.0111111111111,356.0,356.0111111111111
3356136,,,,,,,,-8.890625,-7.734375,6.375,-2.8984375,-1.3125,-0.97265625,356.0111111111111,356.0,356.0111111111111
3356137,,,,,,,,-8.890625,-7.734375,6.375,-2.8984375,-1.3125,-0.97265625,356.0111111111111,356.0,356.0111111111111
3356138,,,,,,,,-8.890625,-7.734375,6.375,-2.8984375,-1.3125,-0.97265625,356.0111111111111,356.0,356.0111111111111
3356139,,,,,,,,-8.890625,-7.734375,6.375,-2.76953125,-1.892578125,-0.369140625,356.0111111111111,356.0,356.0111111111111
3356140,36.01338333333333,129.31984233333333,111.99442566887495,109.1106328940136,2.0,284.0,,-8.890625,-7.734375,6.375,-2.76953125,-1.892578125,-0.369140625,356.0111111111111,356.0,356.0111111111111
3356141,,,,,,,,-8.890625,-7.734375,6.375,-1.75390625,-1.591796875,-0.224609375,356.0111111111111,356.0,356.0111111111111
3356142,,,,,,,,-8.890625,-7.734375,6.375,-1.75390625,-1.591796875,-0.224609375,356.0111111111111,356.0,356.0111111111111
3356143,,,,,,,,-8.890625,-7.734375,6.375,-1.66015625,-1.68359375,-0.013671875,356.0111111111111,356.0,356.0111111111111
3356144,,,,,,,,-8.890625,-7.734375,6.375,-1.66015625,-1.68359375,-0.013671875,356.0111111111111,356.0,356.0111111111111
3356145,,,,,,,,-8.890625,-7.734375,6.375,-1.611328125,-1.8359375,0.130859375,356.0111111111111,356.0,356.0111111111111
3356146,,,,,,,,-8.890625,-7.734375,6.375,-1.611328125,-1.8359375,0.130859375,356.0111111111111,356.0,356.0111111111111
3356147,,,,,,,,-8.890625,-7.734375,6.375,-1.748046875,-1.892578125,0.181640625,356.0111111111111,356.0,356.0111111111111
3356148,,,,,,,,-8.890625,-7.734375,6.375,-1.748046875,-1.892578125,0.181640625,356.0111111111111,356.0,356.0111111111111
3356149,,,,,,,,-8.890625,-7.734375,6.375,-1.673828125,-1.833984375,0.26953125,356.0111111111111,356.0,356.0111111111111
3356150,36.01338466666667,129.31984083333333,111.85920110890788,109.25857683647152,2.1,297.0,,-8.890625,-7.734375,6.375,-1.673828125,-1.833984375,0.26953125,356.0111111111111,356.0,356.0111111111111
3356151,,,,,,,,-8.890625,-7.734375,6.375,-1.47265625,-1.494140625,0.181640625,356.0111111111111,356.0,356.0111111111111
3356152,,,,,,,,-4.98828125,7.31640625,-1.76953125,-1.47265625,-1.494140625,0.181640625,356.0111111111111,356.0,356.0111111111111
3356153,,,,,,,,-4.98828125,7.31640625,-1.76953125,-1.47265625,-1.494140625,0.181640625,356.0111111111111,356.0,356.0111111111111
3356154,,,,,,,,-4.98828125,7.31640625,-1.76953125,-1.47265625,-1.494140625,0.181640625,356.0111111111111,356.0,356.0111111111111
3356155,,,,,,,,-4.98828125,7.31640625,-1.76953125,-1.42578125,-0.931640625,0.24609375,356.0111111111111,356.0,356.0111111111111
3356156,,,,,,,,-4.98828125,7.31640625,-1.76953125,-1.42578125,-0.931640625,0.24609375,356.0111111111111,356.0,356.0111111111111
3356157,,,,,,,,-4.98828125,7.31640625,-1.76953125,-1.98046875,-0.283203125,-0.21484375,356.0111111111111,356.0,356.0111111111111
3356158,,,,,,,,-4.98828125,7.31640625,-1.76953125,-1.98046875,-0.283203125,-0.21484375,356.0111111111111,356.0,356.0111111111111
3356159,,,,,,,,-4.98828125,7.31640625,-1.76953125,-1.890625,-0.158203125,0.06640625,356.0111111111111,356.0,356.0111111111111
3356160,36.013386999999994,129.31984016666667,111.7990988465808,109.5174809852916,2.6,318.0,,-4.98828125,7.31640625,-1.76953125,-1.890625,-0.158203125,0.06640625,356.0111111111111,356.0,356.0111111111111
3356161,,,,,,,,-4.98828125,7.31640625,-1.76953125,-1.55078125,-0.513671875,0.3203125,356.0111111111111,356.0,356.0111111111111
3356162,,,,,,,,-4.98828125,7.31640625,-1.76953125,-1.55078125,-0.513671875,0.3203125,356.0111111111111,356.0,356.0111111111111
3356163,,,,,,,,-4.98828125,7.31640625,-1.76953125,-0.841796875,-0.748046875,0.283203125,356.0111111111111,356.0,356.0111111111111
3356164,,,,,,,,-4.98828125,7.31640625,-1.76953125,-0.841796875,-0.748046875,0.283203125,356.0111111111111,356.0,356.0111111111111
3356165,,,,,,,,-4.98828125,7.31640625,-1.76953125,-0.4609375,-0.568359375,-0.1640625,356.0111111111111,356.0,356.0111111111111
3356166,,,,,,,,-4.98828125,7.31640625,-1.76953125,-0.4609375,-0.568359375,-0.1640625,356.0111111111111,356.0,356.0111111111111
3356167,,,,,,,,-4.98828125,7.31640625,-1.76953125,-0.255859375,-0.1796875,0.47265625,356.0111111111111,356.0,356.0111111111111
3356168,,,,,,,,-2.9921875,-2.671875,10.29296875,-0.255859375,-0.1796875,0.47265625,356.0111111111111,356.0,356.0111111111111
3356169,,,,,,,,-2.9921875,-2.671875,10.29296875,-0.255859375,-0.1796875,0.47265625,356.0111111111111,356.0,356.0111111111111
3356170,36.013389,129.31983983333333,111.76904654140246,109.73939909993095,2.3000000000000003,329.0,,-2.9921875,-2.671875,10.29296875,-0.255859375,-0.1796875,0.47265625,356.0111111111111,356.0,356.0111111111111
3356171,,,,,,,,-2.9921875,-2.671875,10.29296875,-0.23046875,0.23046875,0.59375,356.0111111111111,356.0,356.0111111111111
3356172,,,,,,,,-2.9921875,-2.671875,10.29296875,-0.23046875,0.23046875,0.59375,356.0111111111111,356.0,356.0111111111111
3356173,,,,,,,,-2.9921875,-2.671875,10.29296875,-0.05859375,0.490234375,0.658203125,356.0111111111111,356.0,356.0111111111111
3356174,,,,,,,,-2.9921875,-2.671875,10.29296875,-0.05859375,0.490234375,0.658203125,356.0111111111111,356.0,356.0111111111111
3356175,,,,,,,,-2.9921875,-2.671875,10.29296875,0.181640625,0.490234375,0.673828125,356.0111111111111,356.0,356.0111111111111
3356176,,,,,,,,-2.9921875,-2.671875,10.29296875,0.181640625,0.490234375,0.673828125,356.0111111111111,356.0,356.0111111111111
3356177,,,,,,,,-2.9921875,-2.671875,10.29296875,0.19140625,0.447265625,0.740234375,356.0111111111111,356.0,356.0111111111111
3356178,,,,,,,,-2.9921875,-2.671875,10.29296875,0.19140625,0.447265625,0.740234375,356.0111111111111,356.0,356.0111111111111
3356179,,,,,,,,-2.9921875,-2.671875,10.29296875,0.2109375,0.34765625,0.650390625,356.0111111111111,356.0,356.0111111111111
3356180,36.013391,129.31983983333333,111.76904371786226,109.96131759744313,2.4000000000000004,341.0,,-2.9921875,-2.671875,10.29296875,0.2109375,0.34765625,0.650390625,356.0111111111111,356.0,356.0111111111111
3356181,,,,,,,,-2.9921875,-2.671875,10.29296875,0.392578125,0.28515625,0.3046875,356.0111111111111,356.0,356.0111111111111
3356182,,,,,,,,-2.9921875,-2.671875,10.29296875,0.392578125,0.28515625,0.3046875,356.0111111111111,356.0,356.0111111111111
3356183,,,,,,,,-2.9921875,-2.671875,10.29296875,0.248046875,0.1171875,0.1171875,356.0111111111111,356.0,356.0111111111111
3356184,,,,,,,,1.875,9.4765625,2.73046875,0.248046875,0.1171875,0.1171875,356.0111111111111,356.0,356.0111111111111
3356185,,,,,,,,1.875,9.4765625,2.73046875,0.248046875,0.1171875,0.1171875,356.0111111111111,356.0,356.0111111111111
3356186,,,,,,,,1.875,9.4765625,2.73046875,-0.931640625,-0.326171875,-0.466796875,356.0111111111111,356.0,356.0111111111111
3356187,,,,,,,,1.875,9.4765625,2.73046875,-0.931640625,-0.326171875,-0.466796875,356.0111111111111,356.0,356.0111111111111
3356188,,,,,,,,1.875,9.4765625,2.73046875,-1.87890625,-0.451171875,0.541015625,356.0111111111111,356.0,356.0111111111111
3356189,,,,,,,,1.875,9.4765625,2.73046875,-1.87890625,-0.451171875,0.541015625,356.0111111111111,356.0,356.0111111111111
3356190,36.0133935,129.31983983333333,111.76904018849952,110.23871572061121,2.8000000000000003,350.0,,1.875,9.4765625,2.73046875,-1.84375,-0.40234375,1.353515625,356.0111111111111,356.0,356.0111111111111
3356191,,,,,,,,1.875,9.4765625,2.73046875,-1.84375,-0.40234375,1.353515625,356.0111111111111,356.0,356.0111111111111
3356192,,,,,,,,1.875,9.4765625,2.73046875,-0.625,0.017578125,1.90234375,356.0111111111111,356.0,356.0111111111111
3356193,,,,,,,,1.875,9.4765625,2.73046875,-0.625,0.017578125,1.90234375,356.0111111111111,356.0,356.0111111111111
3356194,,,,,,,,1.875,9.4765625,2.73046875,-1.068359375,-0.091796875,1.783203125,356.0111111111111,356.0,356.0111111111111
3356195,,,,,,,,1.875,9.4765625,2.73046875,-1.068359375,-0.091796875,1.783203125,356.0111111111111,356.0,356.0111111111111
3356196,,,,,,,,1.875,9.4765625,2.73046875,-1.90234375,-0.6796875,0.08984375,356.0111111111111,356.0,356.0111111111111
3356197,,,,,,,,1.875,9.4765625,2.73046875,-1.90234375,-0.6796875,0.08984375,356.0111111111111,355.9888888888889,356.0111111111111
3356198,,,,,,,,1.875,9.4765625,2.73046875,-1.578125,-1.07421875,0.734375,356.0111111111111,355.9888888888889,356.0111111111111
3356199,,,,,,,,-1.12109375,-5.7578125,9.26953125,-1.578125,-1.07421875,0.734375,356.0111111111111,355.9888888888889,356.0111111111111
3356200,36.0133985,129.31983983333333,111.76903312965717,110.79351196595637,2.6,358.0,166.0,-1.12109375,-5.7578125,9.26953125,-1.578125,-1.07421875,0.734375,356.0111111111111,355.9888888888889,356.0111111111111
3356201,,,,,,,,-1.12109375,-5.7578125,9.26953125,-1.578125,-1.07421875,0.734375,356.0111111111111,355.9888888888889,356.0111111111111
3356202,,,,,,,,-1.12109375,-5.7578125,9.26953125,-1.578125,-1.07421875,0.734375,356.0111111111111,355.9888888888889,356.0111111111111
3356203,,,,,,,,-1.12109375,-5.7578125,9.26953125,-2.1796875,-1.68359375,0.771484375,356.0111111111111,355.9888888888889,356.0111111111111
3356204,,,,,,,,-1.12109375,-5.7578125,9.26953125,-2.1796875,-1.68359375,0.771484375,356.0111111111111,355.9888888888889,356.0111111111111
3356205,,,,,,,,-1.12109375,-5.7578125,9.26953125,0.58203125,0.16796875,0.916015625,356.0111111111111,355.9888888888889,356.0111111111111
3356206,,,,,,,,-1.12109375,-5.7578125,9.26953125,0.58203125,0.16796875,0.916015625,356.0,355.9888888888889,356.0444444444444
3356207,,,,,,,,-1.12109375,-5.7578125,9.26953125,0.08203125,-0.044921875,2.07421875,356.0,355.9888888888889,356.0444444444444
3356208,,,,,,,,-1.12109375,-5.7578125,9.26953125,0.08203125,-0.044921875,2.07421875,356.0,355.9888888888889,356.0444444444444
3356209,,,,,,,,-1.12109375,-5.7578125,9.26953125,1.4375,0.560546875,2.806640625,356.0,355.9888888888889,356.0444444444444
3356210,36.013404,129.31984083333333,111.85917379268322,111.40378898384893,3.2,3.0,,-1.12109375,-5.7578125,9.26953125,1.4375,0.560546875,2.806640625,356.0,355.9888888888889,356.0444444444444
3356211,,,,,,,,-1.12109375,-5.7578125,9.26953125,0.515625,0.26171875,-0.6953125,356.0,355.9888888888889,356.0444444444444
3356212,,,,,,,,-1.12109375,-5.7578125,9.26953125,0.515625,0.26171875,-0.6953125,356.0,355.9888888888889,356.0444444444444
3356213,,,,,,,,-1.12109375,-5.7578125,9.26953125,1.77734375,0.658203125,0.15625,356.0,355.9888888888889,356.0444444444444
3356214,,,,,,,,-1.12109375,-5.7578125,9.26953125,1.77734375,0.658203125,0.15625,356.0,355.9888888888889,356.0444444444444
3356215,,,,,,,,-1.12109375,-5.7578125,9.26953125,1.369140625,0.884765625,0.482421875,356.0,355.9888888888889,356.0444444444444
3356216,,,,,,,,2.7890625,-5.21484375,6.91015625,1.369140625,0.884765625,0.482421875,356.0,355.9888888888889,356.0444444444444
3356217,,,,,,,,2.7890625,-5.21484375,6.91015625,1.369140625,0.884765625,0.482421875,356.0,355.9888888888889,356.0444444444444
3356218,,,,,,,,2.7890625,-5.21484375,6.91015625,1.83984375,1.494140625,0.498046875,356.0,355.9888888888889,356.0444444444444
3356219,,,,,,,,2.7890625,-5.21484375,6.91015625,1.83984375,1.494140625,0.498046875,356.0,355.9888888888889,356.0444444444444
3356220,36.013406333333336,129.3198416666667,111.93429418411863,111.662694855961,2.7,7.0,,2.7890625,-5.21484375,6.91015625,1.849609375,1.556640625,0.92578125,356.0,355.9888888888889,356.0444444444444
3356221,,,,,,,,2.7890625,-5.21484375,6.91015625,1.849609375,1.556640625,0.92578125,356.0,355.9888888888889,356.0444444444444
3356222,,,,,,,,2.7890625,-5.21484375,6.91015625,1.51953125,1.435546875,1.14453125,356.0,355.9888888888889,356.0444444444444
3356223,,,,,,,,2.7890625,-5.21484375,6.91015625,1.51953125,1.435546875,1.14453125,356.0,355.9888888888889,356.0444444444444
3356224,,,,,,,,2.7890625,-5.21484375,6.91015625,1.29296875,1.392578125,1.166015625,356.0,355.9888888888889,356.0444444444444
3356225,,,,,,,,2.7890625,-5.21484375,6.91015625,1.29296875,1.392578125,1.166015625,356.0,355.9888888888889,356.0111111111111
3356226,,,,,,,,2.7890625,-5.21484375,6.91015625,0.744140625,1.271484375,1.12890625,356.0,355.9888888888889,356.0111111111111
3356227,,,,,,,,2.7890625,-5.21484375,6.91015625,0.744140625,1.271484375,1.12890625,356.0,355.9888888888889,356.0111111111111
3356228,,,,,,,,2.7890625,-5.21484375,6.91015625,0.638671875,0.55859375,1.53125,356.0,355.9888888888889,356.0111111111111
3356229,,,,,,,,2.7890625,-5.21484375,6.91015625,0.638671875,0.55859375,1.53125,356.0,355.9888888888889,356.0111111111111
3356230,36.01340916666666,129.31984183333333,111.94931491272673,111.97707958488661,3.1,6.0,,2.7890625,-5.21484375,6.91015625,0.890625,-0.216796875,1.189453125,356.0,355.9888888888889,356.0111111111111
3356231,,,,,,,,9.640625,8.97265625,0.921875,0.890625,-0.216796875,1.189453125,356.0,355.9888888888889,356.0111111111111
3356232,,,,,,,,9.640625,8.97265625,0.921875,0.890625,-0.216796875,1.189453125,356.0,355.9888888888889,356.0111111111111
3356233,,,,,,,,9.640625,8.97265625,0.921875,-0.623046875,-0.015625,0.26171875,356.0,355.9888888888889,356.0111111111111
3356234,,,,,,,,9.640625,8.97265625,0.921875,-0.623046875,-0.015625,0.26171875,356.0,355.9888888888889,356.0111111111111
3356235,,,,,,,,9.640625,8.97265625,0.921875,-2.330078125,0.736328125,0.111328125,356.0,355.9888888888889,356.0111111111111
3356236,,,,,,,,9.640625,8.97265625,0.921875,-2.330078125,0.736328125,0.111328125,356.0,355.9888888888889,356.0111111111111
3356237,,,,,,,,9.640625,8.97265625,0.921875,-1.55078125,0.806640625,-0.66796875,356.0,355.9888888888889,356.0111111111111
3356238,,,,,,,,9.640625,8.97265625,0.921875,-1.55078125,0.806640625,-0.66796875,356.0,355.9888888888889,356.0111111111111
3356239,,,,,,,,9.640625,8.97265625,0.921875,2.896484375,0.958984375,-0.431640625,356.0,355.9888888888889,356.0111111111111
3356240,36.01341516666666,129.31984233333333,111.99438063711231,112.64283565606121,3.2,4.0,,9.640625,8.97265625,0.921875,2.896484375,0.958984375,-0.431640625,356.0,355.9888888888889,356.0111111111111
3356241,,,,,,,,9.640625,8.97265625,0.921875,-1.765625,0.10546875,-0.96875,356.0,355.9888888888889,356.0111111111111
3356242,,,,,,,,9.640625,8.97265625,0.921875,-1.765625,0.10546875,-0.96875,356.0,355.9888888888889,356.0111111111111
3356243,,,,,,,,9.640625,8.97265625,0.921875,-1.83984375,0.419921875,-0.546875,356.0,355.9888888888889,356.0111111111111
3356244,,,,,,,,9.640625,8.97265625,0.921875,-1.83984375,0.419921875,-0.546875,356.0,355.9888888888889,356.0111111111111
3356245,,,,,,,,9.640625,8.97265625,0.921875,-1.681640625,-0.234375,0.458984375,356.0,355.9888888888889,356.0111111111111
3356246,,,,,,,,4.25390625,-0.94140625,5.4453125,-1.681640625,-0.234375,0.458984375,356.0,355.9888888888889,356.0111111111111
3356247,,,,,,,,4.25390625,-0.94140625,5.4453125,-1.681640625,-0.234375,0.458984375,356.0,355.9888888888889,356.0111111111111
3356248,,,,,,,,4.25390625,-0.94140625,5.4453125,-1.681640625,-0.234375,0.458984375,356.0,355.9888888888889,356.0111111111111
3356249,,,,,,,,4.25390625,-0.94140625,5.4453125,-0.775390625,-1.40234375,0.50390625,356.0,355.9888888888889,356.0111111111111
3356250,36.01341816666666,129.31984266666666,112.02442586274535,112.97571378637814,3.2,4.0,,4.25390625,-0.94140625,5.4453125,-0.775390625,-1.40234375,0.50390625,356.0,355.9888888888889,356.0111111111111
3356251,,,,,,,,4.25390625,-0.94140625,5.4453125,-0.677734375,-0.61328125,0.548828125,356.0,355.9888888888889,356.0111111111111
3356252,,,,,,,,4.25390625,-0.94140625,5.4453125,-0.677734375,-0.61328125,0.548828125,356.0,355.9888888888889,356.0111111111111
3356253,,,,,,,,4.25390625,-0.94140625,5.4453125,-0.322265625,-0.248046875,-0.380859375,356.0,355.9888888888889,356.0111111111111
3356254,,,,,,,,4.25390625,-0.94140625,5.4453125,-0.322265625,-0.248046875,-0.380859375,356.0,355.9888888888889,356.0111111111111
3356255,,,,,,,,4.25390625,-0.94140625,5.4453125,0.052734375,0.603515625,-0.734375,356.0,355.9888888888889,356.0111111111111
3356256,,,,,,,,4.25390625,-0.94140625,5.4453125,0.052734375,0.603515625,-0.734375,356.0,355.9888888888889,356.0111111111111
3356257,,,,,,,,4.25390625,-0.94140625,5.4453125,1.267578125,1.14453125,0.32421875,356.0,355.9888888888889,356.0111111111111
3356258,,,,,,,,4.25390625,-0.94140625,5.4453125,1.267578125,1.14453125,0.32421875,356.0,355.9888888888889,356.0111111111111
3356259,,,,,,,,4.25390625,-0.94140625,5.4453125,1.75,1.6015625,0.6953125,356.0,355.9888888888889,356.0111111111111
3356260,36.013420833333335,129.31984283333335,112.03944682637903,113.27160531046421,3.1,3.0,,4.25390625,-0.94140625,5.4453125,1.75,1.6015625,0.6953125,356.0,355.9888888888889,356.0111111111111
3356261,,,,,,,,4.25390625,-0.94140625,5.4453125,1.490234375,1.919921875,0.85546875,356.0,355.9888888888889,356.0111111111111
3356262,,,,,,,,-9.234375,5.81640625,3.3671875,1.490234375,1.919921875,0.85546875,356.0,355.9888888888889,356.0111111111111
3356263,,,,,,,,-9.234375,5.81640625,3.3671875,1.490234375,1.919921875,0.85546875,356.0,355.9888888888889,356.0111111111111
3356264,,,,,,,,-9.234375,5.81640625,3.3671875,1.490234375,1.919921875,0.85546875,356.0,355.9888888888889,356.0111111111111
3356265,,,,,,,,-9.234375,5.81640625,3.3671875,4.69140625,2.05078125,2.10546875,356.0,355.9888888888889,356.0111111111111
3356266,,,,,,,,-9.234375,5.81640625,3.3671875,4.69140625,2.05078125,2.10546875,356.0,355.9888888888889,356.0111111111111
3356267,,,,,,,,-9.234375,5.81640625,3.3671875,-1.048828125,0.849609375,0.541015625,356.0,355.9888888888889,356.0111111111111
3356268,,,,,,,,-9.234375,5.81640625,3.3671875,-1.048828125,0.849609375,0.541015625,356.0,355.9888888888889,356.0111111111111
3356269,,,,,,,,-9.234375,5.81640625,3.3671875,3.8046875,1.572265625,-4.056640625,356.0,355.9888888888889,356.0111111111111
3356270,36.013423333333336,129.31984333333332,112.08451749000935,113.54900401078753,2.8000000000000003,6.0,,-9.234375,5.81640625,3.3671875,3.8046875,1.572265625,-4.056640625,356.0,355.9888888888889,356.0111111111111
3356271,,,,,,,,-9.234375,5.81640625,3.3671875,2.1875,1.427734375,-0.322265625,356.0,355.9888888888889,356.0111111111111
3356272,,,,,,,,-9.234375,5.81640625,3.3671875,2.1875,1.427734375,-0.322265625,356.0,356.0,356.0111111111111
3356273,,,,,,,,-9.234375,5.81640625,3.3671875,0.974609375,1.4609375,-0.630859375,356.0,356.0,356.0111111111111
3356274,,,,,,,,-9.234375,5.81640625,3.3671875,0.974609375,1.4609375,-0.630859375,356.0,356.0,356.0111111111111
3356275,,,,,,,,-9.234375,5.81640625,3.3671875,0.8828125,1.236328125,-0.984375,356.0,356.0,356.0111111111111
3356276,,,,,,,,-9.234375,5.81640625,3.3671875,0.8828125,1.236328125,-0.984375,356.0,356.0,356.0111111111111
3356277,,,,,,,,-9.234375,5.81640625,3.3671875,0.95703125,0.853515625,-0.96484375,356.0,356.0,356.0111111111111
3356278,,,,,,,,2.65234375,7.25,1.3203125,0.95703125,0.853515625,-0.96484375,356.0,356.0,356.0111111111111
3356279,,,,,,,,2.65234375,7.25,1.3203125,0.95703125,0.853515625,-0.96484375,356.0,356.0,356.0111111111111
3356280,36.01342566666666,129.31984366666666,112.1145636537872,113.80790930833464,2.7,7.0,,2.65234375,7.25,1.3203125,0.95703125,0.853515625,-0.96484375,356.0,356.0,356.0111111111111
3356281,,,,,,,,2.65234375,7.25,1.3203125,0.4375,0.611328125,-1.701171875,356.0,356.0,356.0111111111111
3356282,,,,,,,,2.65234375,7.25,1.3203125,0.4375,0.611328125,-1.701171875,356.0,356.0,356.0111111111111
3356283,,,,,,,,2.65234375,7.25,1.3203125,0.041015625,0.228515625,-0.486328125,356.0,356.0,356.0111111111111
3356284,,,,,,,,2.65234375,7.25,1.3203125,0.041015625,0.228515625,-0.486328125,356.0,356.0,356.0111111111111
3356285,,,,,,,,2.65234375,7.25,1.3203125,0.57421875,0.4765625,0.361328125,356.0,356.0,356.0111111111111
3356286,,,,,,,,2.65234375,7.25,1.3203125,0.57421875,0.4765625,0.361328125,356.0,356.0,356.0111111111111
3356287,,,,,,,,2.65234375,7.25,1.3203125,1.85546875,0.693359375,0.24609375,356.0,356.0,356.0111111111111
3356288,,,,,,,,2.65234375,7.25,1.3203125,1.85546875,0.693359375,0.24609375,356.0,356.0,356.0111111111111
3356289,,,,,,,,2.65234375,7.25,1.3203125,1.375,1.16015625,-1.107421875,356.0,356.0,356.0111111111111
3356290,36.01342783333334,129.31984266666666,112.02441218454267,114.04831986678812,2.6,1.0,,2.65234375,7.25,1.3203125,1.375,1.16015625,-1.107421875,356.0,356.0,356.0111111111111
3356291,,,,,,,,2.65234375,7.25,1.3203125,0.34375,0.62109375,-3.791015625,356.0,356.0,356.0111111111111
3356292,,,,,,,,2.65234375,7.25,1.3203125,0.34375,0.62109375,-3.791015625,356.0,356.0,356.0111111111111
3356293,,,,,,,,2.65234375,7.25,1.3203125,0.302734375,0.42578125,-1.884765625,356.0,356.0,356.0111111111111
3356294,,,,,,,,-0.2890625,9.8203125,4.38671875,0.302734375,0.42578125,-1.884765625,356.0,356.0,356.0111111111111
3356295,,,,,,,,-0.2890625,9.8203125,4.38671875,0.302734375,0.42578125,-1.884765625,356.0,356.0,356.0111111111111
3356296,,,,,,,,-0.2890625,9.8203125,4.38671875,1.583984375,0.453125,-1.830078125,356.0,356.0,356.0111111111111
3356297,,,,,,,,-0.2890625,9.8203125,4.38671875,1.583984375,0.453125,-1.830078125,356.0,356.0,356.0111111111111
3356298,,,,,,,,-0.2890625,9.8203125,4.38671875,1.853515625,1.208984375,-1.37890625,356.0,356.0,356.0111111111111
3356299,,,,,,,,-0.2890625,9.8203125,4.38671875,1.853515625,1.208984375,-1.37890625,356.0111111111111,356.0,356.0111111111111
3356300,36.01343166666666,129.31984183333333,111.94928309674218,114.47366269782225,2.1,353.0,166.0,-0.2890625,9.8203125,4.38671875,1.25390625,1.513671875,-0.48046875,356.0111111111111,356.0,356.0111111111111
3356301,,,,,,,,-0.2890625,9.8203125,4.38671875,1.25390625,1.513671875,-0.48046875,356.0111111111111,356.0,356.0111111111111
3356302,,,,,,,,-0.2890625,9.8203125,4.38671875,1.25390625,1.513671875,-0.48046875,356.0111111111111,356.0,356.0111111111111
3356303,,,,,,,,-0.2890625,9.8203125,4.38671875,1.25390625,1.513671875,-0.48046875,356.0111111111111,356.0,356.0111111111111
3356304,,,,,,,,-0.2890625,9.8203125,4.38671875,0.98046875,0.62890625,0.111328125,356.0111111111111,356.0,356.0111111111111
3356305,,,,,,,,-0.2890625,9.8203125,4.38671875,0.98046875,0.62890625,0.111328125,356.0,356.0,356.0111111111111
3356306,,,,,,,,-0.2890625,9.8203125,4.38671875,0.54296875,0.431640625,0.9765625,356.0,356.0,356.0111111111111
3356307,,,,,,,,-0.2890625,9.8203125,4.38671875,0.54296875,0.431640625,0.9765625,356.0,356.0,356.0111111111111
3356308,,,,,,,,-0.2890625,9.8203125,4.38671875,0.205078125,0.66015625,2.134765625,356.0,356.0,356.0111111111111
3356309,,,,,,,,-0.2890625,9.8203125,4.38671875,0.205078125,0.66015625,2.134765625,356.0,356.0,356.0111111111111
3356310,36.013434,129.31983483333335,111.31824104585904,114.73255959521848,2.6,304.0,,-0.2890625,9.8203125,4.38671875,-0.3515625,-0.119140625,0.111328125,356.0,356.0,356.0111111111111
3356311,,,,,,,,-0.2890625,9.8203125,4.38671875,-0.3515625,-0.119140625,0.111328125,356.0,356.0,356.0111111111111
3356312,,,,,,,,-0.2890625,9.8203125,4.38671875,-0.576171875,-0.67578125,0.365234375,356.0,356.0,356.0111111111111
3356313,,,,,,,,-0.2890625,9.8203125,4.38671875,-0.576171875,-0.67578125,0.365234375,356.0,356.0,356.0111111111111
3356314,,,,,,,,-0.2890625,9.8203125,4.38671875,-0.291015625,-0.90234375,0.68359375,356.0,356.0,356.0111111111111
3356315,,,,,,,,-0.2890625,9.8203125,4.38671875,-0.291015625,-0.90234375,0.68359375,356.0,356.0,356.0111111111111
3356316,,,,,,,,-0.2890625,9.8203125,4.38671875,-0.896484375,-0.935546875,0.7109375,356.0,356.0,356.0111111111111
3356317,,,,,,,,5.17578125,-7.51953125,-3.09375,-0.896484375,-0.935546875,0.7109375,356.0,356.0,356.0111111111111
3356318,,,,,,,,5.17578125,-7.51953125,-3.09375,-0.896484375,-0.935546875,0.7109375,356.0,356.0,356.0111111111111
3356319,,,,,,,,5.17578125,-7.51953125,-3.09375,-1.484375,-1.140625,0.623046875,356.0,356.0,356.0111111111111
3356320,36.013434,129.31983266666666,111.12291952425096,114.73255712209786,2.2,294.0,,5.17578125,-7.51953125,-3.09375,-1.484375,-1.140625,0.623046875,356.0,356.0,356.0111111111111
3356321,,,,,,,,5.17578125,-7.51953125,-3.09375,-1.4609375,-1.35546875,0.37109375,356.0,356.0,356.0111111111111
3356322,,,,,,,,5.17578125,-7.51953125,-3.09375,-1.4609375,-1.35546875,0.37109375,356.0,356.0,356.0111111111111
3356323,,,,,,,,5.17578125,-7.51953125,-3.09375,-1.2109375,-1.416015625,0.408203125,356.0,356.0,356.0111111111111
3356324,,,,,,,,5.17578125,-7.51953125,-3.09375,-1.2109375,-1.416015625,0.408203125,356.0,356.0,356.0111111111111
3356325,,,,,,,,5.17578125,-7.51953125,-3.09375,-0.171875,-1.234375,0.14453125,356.0,356.0,356.0111111111111
3356326,,,,,,,,5.17578125,-7.51953125,-3.09375,-0.171875,-1.234375,0.14453125,356.0,356.0,356.0111111111111
3356327,,,,,,,,5.17578125,-7.51953125,-3.09375,0.888671875,-0.806640625,0.662109375,356.0,356.0,356.0111111111111
3356328,,,,,,,,5.17578125,-7.51953125,-3.09375,0.888671875,-0.806640625,0.662109375,356.0,356.0,356.0111111111111
3356329,,,,,,,,5.17578125,-7.51953125,-3.09375,1.017578125,-0.1953125,0.33984375,356.0,356.0,356.0111111111111
3356330,36.01343416666667,129.31982983333333,110.86749884435872,114.75104710408264,2.5,288.0,,5.17578125,-7.51953125,-3.09375,1.017578125,-0.1953125,0.33984375,356.0,356.0,356.0111111111111
3356331,,,,,,,,5.17578125,-7.51953125,-3.09375,1.431640625,0.20703125,-0.5625,356.0,356.0,356.0111111111111
3356332,,,,,,,,-0.43359375,10.02734375,-2.5625,1.431640625,0.20703125,-0.5625,356.0,356.0,356.0111111111111
3356333,,,,,,,,-0.43359375,10.02734375,-2.5625,1.431640625,0.20703125,-0.5625,356.0,356.0,356.0111111111111
3356334,,,,,,,,-0.43359375,10.02734375,-2.5625,1.189453125,0.681640625,0.126953125,356.0,356.0,356.0111111111111
3356335,,,,,,,,-0.43359375,10.02734375,-2.5625,1.189453125,0.681640625,0.126953125,356.0,356.0,356.0111111111111
3356336,,,,,,,,-0.43359375,10.02734375,-2.5625,0.71484375,0.587890625,1.880859375,356.0,356.0,356.0111111111111
3356337,,,,,,,,-0.43359375,10.02734375,-2.5625,0.71484375,0.587890625,1.880859375,356.0,356.0,356.0111111111111
3356338,,,,,,,,-0.43359375,10.02734375,-2.5625,0.212890625,0.21484375,2.72265625,356.0,356.0,356.0111111111111
3356339,,,,,,,,-0.43359375,10.02734375,-2.5625,0.212890625,0.21484375,2.72265625,356.0,356.0,356.0111111111111
3356340,36.0134345,129.3198265,110.56700373661423,114.7880297333013,2.9000000000000004,284.0,,-0.43359375,10.02734375,-2.5625,1.87890625,0.333984375,0.7109375,356.0,356.0,356.0111111111111
3356341,,,,,,,,-0.43359375,10.02734375,-2.5625,1.87890625,0.333984375,0.7109375,356.0,356.0,356.0111111111111
3356342,,,,,,,,-0.43359375,10.02734375,-2.5625,0.787109375,0.591796875,-0.51171875,356.0,356.0,356.0111111111111
3356343,,,,,,,,-0.43359375,10.02734375,-2.5625,0.787109375,0.591796875,-0.51171875,356.0,356.0,356.0111111111111
3356344,,,,,,,,-0.43359375,10.02734375,-2.5625,1.419921875,0.759765625,0.314453125,356.0,356.0,356.0111111111111
3356345,,,,,,,,-0.43359375,10.02734375,-2.5625,1.419921875,0.759765625,0.314453125,356.0,356.0,356.0111111111111
3356346,,,,,,,,-0.43359375,10.02734375,-2.5625,1.240234375,1.087890625,0.60546875,356.0,356.0,356.0111111111111
3356347,,,,,,,,3.25,-12.765625,-1.5546875,1.240234375,1.087890625,0.60546875,356.0,356.0,356.0111111111111
3356348,,,,,,,,3.25,-12.765625,-1.5546875,1.240234375,1.087890625,0.60546875,356.0,356.0,356.0111111111111
3356349,,,,,,,,3.25,-12.765625,-1.5546875,1.240234375,1.087890625,0.60546875,356.0,356.0,356.0111111111111
3356350,36.013434999999994,129.319821,110.07118688032179,114.84350313056976,2.6,281.0,,3.25,-12.765625,-1.5546875,2.037109375,1.544921875,0.791015625,356.0,356.0,356.0111111111111
3356351,,,,,,,,3.25,-12.765625,-1.5546875,2.037109375,1.544921875,0.791015625,356.0,356.0,356.0111111111111
3356352,,,,,,,,3.25,-12.765625,-1.5546875,1.7890625,1.251953125,1.06640625,356.0,356.0,356.0111111111111
3356353,,,,,,,,3.25,-12.765625,-1.5546875,1.7890625,1.251953125,1.06640625,356.0,356.0,356.0111111111111
3356354,,,,,,,,3.25,-12.765625,-1.5546875,1.693359375,1.298828125,1.078125,356.0,356.0,356.0111111111111
3356355,,,,,,,,3.25,-12.765625,-1.5546875,1.693359375,1.298828125,1.078125,356.0,356.0,356.0111111111111
3356356,,,,,,,,3.25,-12.765625,-1.5546875,1.509765625,1.2421875,1.470703125,356.0,356.0,356.0111111111111
3356357,,,,,,,,3.25,-12.765625,-1.5546875,1.509765625,1.2421875,1.470703125,356.0,356.0,356.0111111111111
3356358,,,,,,,,3.25,-12.765625,-1.5546875,1.619140625,0.646484375,1.23046875,356.0,356.0,356.0111111111111
3356359,,,,,,,,3.25,-12.765625,-1.5546875,1.619140625,0.646484375,1.23046875,356.0,356.0,356.0111111111111
3356360,36.013434833333335,129.31981750000003,109.75566774097194,114.82500597570305,3.1,280.0,,3.25,-12.765625,-1.5546875,1.71484375,0.427734375,0.396484375,356.0,356.0,356.0111111111111
3356361,,,,,,,,3.25,-12.765625,-1.5546875,1.71484375,0.427734375,0.396484375,356.0,356.0,356.0111111111111
3356362,,,,,,,,3.25,-12.765625,-1.5546875,1.11328125,0.28515625,0.072265625,356.0,356.0,356.0111111111111
3356363,,,,,,,,10.66015625,4.8046875,-7.953125,1.11328125,0.28515625,0.072265625,356.0,356.0,356.0111111111111
3356364,,,,,,,,10.66015625,4.8046875,-7.953125,1.11328125,0.28515625,0.072265625,356.0,356.0,356.0111111111111
3356365,,,,,,,,10.66015625,4.8046875,-7.953125,1.11328125,0.28515625,0.072265625,356.0,356.0,356.0111111111111
3356366,,,,,,,,10.66015625,4.8046875,-7.953125,-3.28515625,0.19921875,-0.986328125,356.0,356.0,356.0111111111111
3356367,,,,,,,,10.66015625,4.8046875,-7.953125,-3.28515625,0.19921875,-0.986328125,356.0,356.0,356.0111111111111
3356368,,,,,,,,10.66015625,4.8046875,-7.953125,-0.25390625,0.197265625,0.51171875,356.0,356.0,356.0111111111111
3356369,,,,,,,,10.66015625,4.8046875,-7.953125,-0.25390625,0.197265625,0.51171875,356.0,356.0,356.0111111111111
3356370,36.013434833333335,129.3198138333333,109.42512363116155,114.82500185216146,3.1,276.0,,10.66015625,4.8046875,-7.953125,1.326171875,0.859375,3.71484375,356.0,356.0,356.0111111111111
3356371,,,,,,,,10.66015625,4.8046875,-7.953125,1.326171875,0.859375,3.71484375,356.0,356.0,356.0111111111111
3356372,,,,,,,,10.66015625,4.8046875,-7.953125,-2.033203125,0.01953125,-0.84765625,356.0,356.0,356.0111111111111
3356373,,,,,,,,10.66015625,4.8046875,-7.953125,-2.033203125,0.01953125,-0.84765625,356.0,356.0,356.0111111111111
3356374,,,,,,,,10.66015625,4.8046875,-7.953125,-1.7109375,-0.4453125,-0.14453125,356.0,356.0,356.0111111111111
3356375,,,,,,,,10.66015625,4.8046875,-7.953125,-1.7109375,-0.4453125,-0.14453125,356.0,356.0,356.0111111111111
3356376,,,,,,,,10.66015625,4.8046875,-7.953125,-1.7890625,-0.984375,0.2265625,356.0,356.0,356.0111111111111
3356377,,,,,,,,10.66015625,4.8046875,-7.953125,-1.7890625,-0.984375,0.2265625,356.0,356.0,356.0111111111111
3356378,,,,,,,,10.66015625,4.8046875,-7.953125,-2.09375,-1.447265625,0.931640625,356.0,356.0,356.0111111111111
3356379,,,,,,,,5.0,-10.8125,-3.6875,-2.09375,-1.447265625,0.931640625,356.0,356.0,356.0111111111111
3356380,36.01343416666667,129.319811,109.16970410637597,114.75102584125517,2.8000000000000003,269.0,,5.0,-10.8125,-3.6875,-2.09375,-1.447265625,0.931640625,356.0,356.0,356.0111111111111
3356381,,,,,,,,5.0,-10.8125,-3.6875,-1.970703125,-1.623046875,0.744140625,356.0,356.0,356.0111111111111
3356382,,,,,,,,5.0,-10.8125,-3.6875,-1.970703125,-1.623046875,0.744140625,356.0,356.0,356.0111111111111
3356383,,,,,,,,5.0,-10.8125,-3.6875,-1.705078125,-1.51171875,0.5859375,356.0,356.0,356.0111111111111
3356384,,,,,,,,5.0,-10.8125,-3.6875,-1.705078125,-1.51171875,0.5859375,356.0,356.0,356.0111111111111
3356385,,,,,,,,5.0,-10.8125,-3.6875,-1.580078125,-1.458984375,0.60546875,356.0,356.0,356.0111111111111
3356386,,,,,,,,5.0,-10.8125,-3.6875,-1.580078125,-1.458984375,0.60546875,356.0,356.0,356.0111111111111
3356387,,,,,,,,5.0,-10.8125,-3.6875,-1.23046875,-1.06640625,0.3984375,356.0,356.0,356.0111111111111
3356388,,,,,,,,5.0,-10.8125,-3.6875,-1.23046875,-1.06640625,0.3984375,356.0,356.0,356.0111111111111
3356389,,,,,,,,5.0,-10.8125,-3.6875,-1.087890625,-0.40234375,0.40625,356.0,356.0,356.0111111111111
3356390,36.01343433333333,129.319807,108.80911030597598,114.76951457462124,3.2,271.0,,5.0,-10.8125,-3.6875,-1.087890625,-0.40234375,0.40625,356.0,356.0,356.0111111111111
3356391,,,,,,,,5.0,-10.8125,-3.6875,-0.47265625,-0.09375,0.6875,356.0,356.0,356.0111111111111
3356392,,,,,,,,5.0,-10.8125,-3.6875,-0.47265625,-0.09375,0.6875,356.0,356.0,356.0111111111111
3356393,,,,,,,,5.0,-10.8125,-3.6875,0.607421875,-0.181640625,0.892578125,356.0,356.0,356.0111111111111
3356394,,,,,,,,0.671875,2.390625,-2.79296875,0.607421875,-0.181640625,0.892578125,356.0,356.0,356.0111111111111
3356395,,,,,,,,0.671875,2.390625,-2.79296875,0.607421875,-0.181640625,0.892578125,356.0,356.0,356.0111111111111
3356396,,,,,,,,0.671875,2.390625,-2.79296875,1.208984375,0.220703125,0.25,356.0,356.0,356.0111111111111
3356397,,,,,,,,0.671875,2.390625,-2.79296875,1.208984375,0.220703125,0.25,356.0,356.0,356.0111111111111
3356398,,,,,,,,0.671875,2.390625,-2.79296875,1.400390625,0.029296875,0.603515625,356.0,356.0,356.0111111111111
3356399,,,,,,,,0.671875,2.390625,-2.79296875,1.400390625,0.029296875,0.603515625,356.0,356.0,356.0111111111111
3356400,36.0134345,129.31979983333335,108.16304659764857,114.7879998053701,2.9000000000000004,270.0,166.0,0.671875,2.390625,-2.79296875,-0.37109375,-0.34375,1.109375,356.0,356.0,356.0111111111111
3356401,,,,,,,,0.671875,2.390625,-2.79296875,-0.37109375,-0.34375,1.109375,356.0,356.0,356.0111111111111
3356402,,,,,,,,0.671875,2.390625,-2.79296875,-0.37109375,-0.34375,1.109375,356.0,356.0,356.0111111111111
3356403,,,,,,,,0.671875,2.390625,-2.79296875,-0.37109375,-0.34375,1.109375,356.0,356.0,356.0111111111111
3356404,,,,,,,,0.671875,2.390625,-2.79296875,0.64453125,-0.11328125,0.05859375,356.0,356.0,356.0111111111111
3356405,,,,,,,,0.671875,2.390625,-2.79296875,0.64453125,-0.11328125,0.05859375,356.0,356.0,356.0111111111111
3356406,,,,,,,,0.671875,2.390625,-2.79296875,-0.01171875,-0.603515625,0.03125,356.0,356.0,356.0111111111111
3356407,,,,,,,,0.671875,2.390625,-2.79296875,-0.01171875,-0.603515625,0.03125,356.0,356.0,356.0111111111111
3356408,,,,,,,,0.671875,2.390625,-2.79296875,-1.189453125,-1.361328125,-0.33203125,356.0,356.0,356.0111111111111
3356409,,,,,,,,0.671875,2.390625,-2.79296875,-1.189453125,-1.361328125,-0.33203125,356.0,356.0,356.0111111111111
3356410,36.01343466666666,129.3197965,107.86255172507971,114.80648931773646,3.1,273.0,,0.671875,2.390625,-2.79296875,-1.666015625,-1.3828125,-0.693359375,356.0,356.0,356.0111111111111
3356411,,,,,,,,0.671875,2.390625,-2.79296875,-1.666015625,-1.3828125,-0.693359375,356.0,356.0,356.0111111111111
3356412,,,,,,,,0.671875,2.390625,-2.79296875,-2.2890625,-1.2265625,-0.759765625,356.0,356.0,356.0111111111111
3356413,,,,,,,,0.671875,2.390625,-2.79296875,-2.2890625,-1.2265625,-0.759765625,356.0,356.0,356.0111111111111
3356414,,,,,,,,0.671875,2.390625,-2.79296875,-1.140625,-0.814453125,1.705078125,356.0,356.0,356.0111111111111
3356415,,,,,,,,-6.9296875,-41.5546875,7.50390625,-1.140625,-0.814453125,1.705078125,356.0,356.0,356.0111111111111
3356416,,,,,,,,-6.9296875,-41.5546875,7.50390625,-1.140625,-0.814453125,1.705078125,356.0,356.0,356.0111111111111
3356417,,,,,,,,-6.9296875,-41.5546875,7.50390625,-1.884765625,-1.16015625,-2.81640625,356.0,356.0,356.0111111111111
3356418,,,,,,,,-6.9296875,-41.5546875,7.50390625,-1.884765625,-1.16015625,-2.81640625,356.0,356.0,356.0111111111111
3356419,,,,,,,,-6.9296875,-41.5546875,7.50390625,-1.705078125,-1.6953125,-0.568359375,356.0,356.0,356.0111111111111
3356420,36.0134345,129.31979283333334,107.5320078460365,114.78799205872193,3.1,272.0,,-6.9296875,-41.5546875,7.50390625,-1.705078125,-1.6953125,-0.568359375,356.0,356.0,356.0111111111111
3356421,,,,,,,,-6.9296875,-41.5546875,7.50390625,-2.677734375,-1.59375,0.34375,356.0,356.0,356.0111111111111
3356422,,,,,,,,-6.9296875,-41.5546875,7.50390625,-2.677734375,-1.59375,0.34375,356.0,356.0,356.0111111111111
3356423,,,,,,,,-6.9296875,-41.5546875,7.50390625,-1.181640625,-1.90625,-0.08203125,356.0,356.0,356.0111111111111
3356424,,,,,,,,-6.9296875,-41.5546875,7.50390625,-1.181640625,-1.90625,-0.08203125,356.0,356.0,356.0111111111111
3356425,,,,,,,,-6.9296875,-41.5546875,7.50390625,-0.1640625,-2.07421875,-0.2734375,356.0,356.0,356.0111111111111
3356426,,,,,,,,-6.9296875,-41.5546875,7.50390625,-0.1640625,-2.07421875,-0.2734375,356.0,356.0,356.0111111111111
3356427,,,,,,,,-6.9296875,-41.5546875,7.50390625,-0.138671875,-1.609375,-0.4375,356.0,356.0,356.0111111111111
3356428,,,,,,,,-6.9296875,-41.5546875,7.50390625,-0.138671875,-1.609375,-0.4375,356.0,356.0,356.0111111111111
3356429,,,,,,,,-6.9296875,-41.5546875,7.50390625,-0.35546875,-0.919921875,-0.5390625,356.0,356.0,356.0111111111111
3356430,36.013434833333335,129.31978666666666,106.97609230719078,114.82497168809981,2.8000000000000003,272.0,,-4.90234375,5.15234375,-6.14453125,-0.35546875,-0.919921875,-0.5390625,356.0,356.0,356.0111111111111
3356431,,,,,,,,-4.90234375,5.15234375,-6.14453125,-0.35546875,-0.919921875,-0.5390625,356.0,356.0,356.0111111111111
3356432,,,,,,,,-4.90234375,5.15234375,-6.14453125,-0.142578125,0.07421875,0.05859375,356.0,356.0,356.0111111111111
3356433,,,,,,,,-4.90234375,5.15234375,-6.14453125,-0.142578125,0.07421875,0.05859375,356.0,356.0,356.0111111111111
3356434,,,,,,,,-4.90234375,5.15234375,-6.14453125,-0.0234375,0.0078125,0.162109375,356.0,356.0,356.0111111111111
3356435,,,,,,,,-4.90234375,5.15234375,-6.14453125,-0.0234375,0.0078125,0.162109375,356.0,356.0,356.0111111111111
3356436,,,,,,,,-4.90234375,5.15234375,-6.14453125,0.15625,-0.052734375,0.42578125,356.0,356.0,356.0111111111111
3356437,,,,,,,,-4.90234375,5.15234375,-6.14453125,0.15625,-0.052734375,0.42578125,356.0,356.0,356.0111111111111
3356438,,,,,,,,-4.90234375,5.15234375,-6.14453125,-1.076171875,-0.927734375,1.56640625,356.0,356.0,356.0111111111111
3356439,,,,,,,,-4.90234375,5.15234375,-6.14453125,-1.076171875,-0.927734375,1.56640625,356.0,356.0,356.0111111111111
3356440,36.0134355,129.319784,106.73569569552704,114.89894159718224,2.6,276.0,,-4.90234375,5.15234375,-6.14453125,-0.5390625,-0.708984375,0.716796875,356.0,356.0,356.0111111111111
3356441,,,,,,,,-4.90234375,5.15234375,-6.14453125,-0.5390625,-0.708984375,0.716796875,356.0,356.0,356.0111111111111
3356442,,,,,,,,-4.90234375,5.15234375,-6.14453125,0.5703125,-0.29296875,-2.8984375,356.0,356.0,356.0111111111111
3356443,,,,,,,,-4.90234375,5.15234375,-6.14453125,0.5703125,-0.29296875,-2.8984375,356.0111111111111,356.0,356.0111111111111
3356444,,,,,,,,-4.90234375,5.15234375,-6.14453125,0.484375,-0.068359375,-1.919921875,356.0111111111111,356.0,356.0111111111111
3356445,,,,,,,,-1.85546875,0.046875,-0.31640625,0.484375,-0.068359375,-1.919921875,356.0111111111111,356.0,356.0111111111111
3356446,,,,,,,,-1.85546875,0.046875,-0.31640625,0.484375,-0.068359375,-1.919921875,356.0111111111111,356.0,356.0111111111111
3356447,,,,,,,,-1.85546875,0.046875,-0.31640625,-0.66015625,0.416015625,-1.673828125,356.0111111111111,356.0,356.0111111111111
3356448,,,,,,,,-1.85546875,0.046875,-0.31640625,-0.66015625,0.416015625,-1.673828125,356.0111111111111,356.0,356.0111111111111
3356449,,,,,,,,-1.85546875,0.046875,-0.31640625,-0.8046875,-0.009765625,-1.3046875,356.0111111111111,356.0,356.0111111111111
3356450,36.01343583333333,129.31978216666667,106.57042319483935,114.93592600600397,1.9000000000000001,276.0,,-1.85546875,0.046875,-0.31640625,-0.8046875,-0.009765625,-1.3046875,356.0111111111111,356.0,356.0111111111111
3356451,,,,,,,,-1.85546875,0.046875,-0.31640625,-1.357421875,-0.9296875,-0.666015625,356.0111111111111,356.0,356.0111111111111
3356452,,,,,,,,-1.85546875,0.046875,-0.31640625,-1.357421875,-0.9296875,-0.666015625,356.0111111111111,356.0,356.0111111111111
3356453,,,,,,,,-1.85546875,0.046875,-0.31640625,-1.775390625,-1.072265625,0.63671875,356.0111111111111,356.0,356.0111111111111
3356454,,,,,,,,-1.85546875,0.046875,-0.31640625,-1.775390625,-1.072265625,0.63671875,356.0111111111111,356.0,356.0111111111111
3356455,,,,,,,,-1.85546875,0.046875,-0.31640625,-0.44140625,-1.111328125,0.021484375,356.0111111111111,356.0,356.0111111111111
3356456,,,,,,,,-1.85546875,0.046875,-0.31640625,-0.44140625,-1.111328125,0.021484375,356.0111111111111,356.0,356.0111111111111
3356457,,,,,,,,-1.85546875,0.046875,-0.31640625,-1.8046875,-0.783203125,-0.28125,356.0111111111111,356.0,356.0111111111111
3356458,,,,,,,,-1.85546875,0.046875,-0.31640625,-1.8046875,-0.783203125,-0.28125,356.0111111111111,356.0,356.0111111111111
3356459,,,,,,,,-1.85546875,0.046875,-0.31640625,-2.501953125,-1.126953125,-0.548828125,356.0111111111111,356.0,356.0111111111111
3356460,36.01343633333333,129.31977999999998,106.37510100810819,114.99140326434943,2.0,282.0,,-8.90234375,-11.015625,8.015625,-2.501953125,-1.126953125,-0.548828125,356.0111111111111,356.0,356.0111111111111
3356461,,,,,,,,-8.90234375,-11.015625,8.015625,-2.501953125,-1.126953125,-0.548828125,356.0111111111111,356.0,356.0111111111111
3356462,,,,,,,,-8.90234375,-11.015625,8.015625,-1.955078125,-1.54296875,0.005859375,356.0111111111111,356.0,356.0111111111111
3356463,,,,,,,,-8.90234375,-11.015625,8.015625,-1.955078125,-1.54296875,0.005859375,356.0111111111111,356.0,356.0111111111111
3356464,,,,,,,,-8.90234375,-11.015625,8.015625,-2.03515625,-1.740234375,0.33984375,356.0111111111111,356.0,356.0111111111111
3356465,,,,,,,,-8.90234375,-11.015625,8.015625,-2.03515625,-1.740234375,0.33984375,356.0111111111111,356.0,356.0111111111111
3356466,,,,,,,,-8.90234375,-11.015625,8.015625,-2.203125,-1.787109375,0.501953125,356.0111111111111,356.0,356.0111111111111
3356467,,,,,,,,-8.90234375,-11.015625,8.015625,-2.203125,-1.787109375,0.501953125,356.0111111111111,356.0,356.0111111111111
3356468,,,,,,,,-8.90234375,-11.015625,8.015625,-2.05078125,-1.806640625,0.533203125,356.0111111111111,356.0,356.0111111111111
3356469,,,,,,,,-8.90234375,-11.015625,8.015625,-2.05078125,-1.806640625,0.533203125,356.0111111111111,356.0,356.0111111111111
3356470,36.01343716666667,129.3197785,106.2398773074483,115.08386767006508,1.6,285.0,,-8.90234375,-11.015625,8.015625,-1.705078125,-1.73828125,0.423828125,356.0111111111111,356.0,356.0111111111111
3356471,,,,,,,,-8.90234375,-11.015625,8.015625,-1.705078125,-1.73828125,0.423828125,356.0111111111111,356.0,356.0111111111111
3356472,,,,,,,,-8.90234375,-11.015625,8.015625,-1.240234375,-1.63671875,0.119140625,356.0111111111111,356.0,356.0111111111111
3356473,,,,,,,,-8.90234375,-11.015625,8.015625,-1.240234375,-1.63671875,0.119140625,356.0111111111111,356.0,356.0111111111111
3356474,,,,,,,,-8.90234375,-11.015625,8.015625,-1.05078125,-1.353515625,-0.01171875,356.0111111111111,356.0,356.0111111111111
3356475,,,,,,,,-2.7109375,8.0859375,-0.25,-1.05078125,-1.353515625,-0.01171875,356.0111111111111,356.0,356.0111111111111
3356476,,,,,,,,-2.7109375,8.0859375,-0.25,-1.05078125,-1.353515625,-0.01171875,356.0111111111111,356.0,356.0111111111111
3356477,,,,,,,,-2.7109375,8.0859375,-0.25,-1.05078125,-1.353515625,-0.01171875,356.0111111111111,356.0,356.0111111111111
3356478,,,,,,,,-2.7109375,8.0859375,-0.25,-1.10546875,-0.849609375,-0.439453125,356.0111111111111,356.0,356.0111111111111
3356479,,,,,,,,-2.7109375,8.0859375,-0.25,-1.10546875,-0.849609375,-0.439453125,356.0111111111111,356.0,356.0111111111111
3356480,36.013439,129.3197785,106.23987484685898,115.28729296026854,2.2,312.0,,-2.7109375,8.0859375,-0.25,-0.86328125,-0.189453125,-0.52734375,356.0111111111111,356.0,356.0111111111111
3356481,,,,,,,,-2.7109375,8.0859375,-0.25,-0.86328125,-0.189453125,-0.52734375,356.0111111111111,356.0,356.0111111111111
3356482,,,,,,,,-2.7109375,8.0859375,-0.25,-1.34765625,-0.32421875,0.54296875,356.0111111111111,356.0,356.0111111111111
3356483,,,,,,,,-2.7109375,8.0859375,-0.25,-1.34765625,-0.32421875,0.54296875,356.0111111111111,356.0,356.0111111111111
3356484,,,,,,,,-2.7109375,8.0859375,-0.25,-1.142578125,-0.6796875,0.455078125,356.0111111111111,356.0,356.0111111111111
3356485,,,,,,,,-2.7109375,8.0859375,-0.25,-1.142578125,-0.6796875,0.455078125,356.0111111111111,356.0,356.0111111111111
3356486,,,,,,,,-2.7109375,8.0859375,-0.25,-0.19140625,-0.599609375,0.60546875,356.0111111111111,356.0,356.0111111111111
3356487,,,,,,,,-2.7109375,8.0859375,-0.25,-0.19140625,-0.599609375,0.60546875,356.0111111111111,356.0,356.0111111111111
3356488,,,,,,,,-2.7109375,8.0859375,-0.25,-0.939453125,-0.216796875,0.10546875,356.0111111111111,356.0,356.0111111111111
3356489,,,,,,,,-2.7109375,8.0859375,-0.25,-0.939453125,-0.216796875,0.10546875,356.0111111111111,356.0,356.0111111111111
3356490,36.01344099999999,129.31977833333335,106.22484743251782,115.50921127781561,2.2,330.0,,-2.7109375,8.0859375,-0.25,-0.1015625,-0.01171875,0.337890625,356.0111111111111,356.0,356.0111111111111
3356491,,,,,,,,-3.390625,-3.390625,8.0703125,-0.1015625,-0.01171875,0.337890625,356.0111111111111,356.0,356.0111111111111
3356492,,,,,,,,-3.390625,-3.390625,8.0703125,-0.1015625,-0.01171875,0.337890625,356.0111111111111,356.0,356.0111111111111
3356493,,,,,,,,-3.390625,-3.390625,8.0703125,-0.1015625,-0.01171875,0.337890625,356.0111111111111,356.0,356.0111111111111
3356494,,,,,,,,-3.390625,-3.390625,8.0703125,-0.21484375,0.19140625,0.693359375,356.0111111111111,356.0,356.0111111111111
3356495,,,,,,,,-3.390625,-3.390625,8.0703125,-0.21484375,0.19140625,0.693359375,356.0111111111111,356.0,356.0111111111111
3356496,,,,,,,,-3.390625,-3.390625,8.0703125,-0.078125,0.421875,0.587890625,356.0111111111111,356.0,356.0111111111111
3356497,,,,,,,,-3.390625,-3.390625,8.0703125,-0.078125,0.421875,0.587890625,356.0111111111111,356.0,356.0111111111111
3356498,,,,,,,,-3.390625,-3.390625,8.0703125,0.015625,0.421875,0.669921875,356.0111111111111,356.0,356.0111111111111
3356499,,,,,,,,-3.390625,-3.390625,8.0703125,0.015625,0.421875,0.669921875,356.0111111111111,356.0,356.0111111111111
3356500,36.01344483333333,129.31977833333335,106.22484228910338,115.93455506976544,2.4000000000000004,349.0,166.0,-3.390625,-3.390625,8.0703125,0.015625,0.421875,0.669921875,356.0111111111111,356.0,356.0111111111111
3356501,,,,,,,,-3.390625,-3.390625,8.0703125,0.015625,0.421875,0.669921875,356.0111111111111,356.0,356.0111111111111
3356502,,,,,,,,-3.390625,-3.390625,8.0703125,0.177734375,0.5390625,0.779296875,356.0111111111111,356.0,356.0111111111111
3356503,,,,,,,,-3.390625,-3.390625,8.0703125,0.177734375,0.5390625,0.779296875,356.0111111111111,356.0,356.0111111111111
3356504,,,,,,,,-3.390625,-3.390625,8.0703125,-1.716796875,-0.283203125,2.28515625,356.0111111111111,356.0,356.0111111111111
3356505,,,,,,,,-3.390625,-3.390625,8.0703125,-1.716796875,-0.283203125,2.28515625,356.0111111111111,355.9888888888889,356.0111111111111
3356506,,,,,,,,-3.390625,-3.390625,8.0703125,-2.408203125,-0.763671875,0.583984375,356.0111111111111,355.9888888888889,356.0111111111111
3356507,,,,,,,,-0.5703125,-7.109375,7.76953125,-2.408203125,-0.763671875,0.583984375,356.0111111111111,355.9888888888889,356.0111111111111
3356508,,,,,,,,-0.5703125,-7.109375,7.76953125,-2.408203125,-0.763671875,0.583984375,356.0111111111111,355.9888888888889,356.0111111111111
3356509,,,,,,,,-0.5703125,-7.109375,7.76953125,-2.408203125,-0.763671875,0.583984375,356.0111111111111,355.9888888888889,356.0111111111111
3356510,36.01344916666667,129.319778,106.19478701427185,116.41537812289621,2.2,354.0,,-0.5703125,-7.109375,7.76953125,-2.955078125,-1.453125,0.869140625,356.0111111111111,355.9888888888889,356.0111111111111
3356511,,,,,,,,-0.5703125,-7.109375,7.76953125,-2.955078125,-1.453125,0.869140625,356.0111111111111,355.9888888888889,356.0444444444444
3356512,,,,,,,,-0.5703125,-7.109375,7.76953125,-2.36328125,-1.966796875,0.833984375,356.0111111111111,355.9888888888889,356.0444444444444
3356513,,,,,,,,-0.5703125,-7.109375,7.76953125,-2.36328125,-1.966796875,0.833984375,356.0,355.9888888888889,356.0444444444444
3356514,,,,,,,,-0.5703125,-7.109375,7.76953125,-2.13671875,-1.982421875,0.6875,356.0,355.9888888888889,356.0444444444444
3356515,,,,,,,,-0.5703125,-7.109375,7.76953125,-2.13671875,-1.982421875,0.6875,356.0,355.9888888888889,356.0444444444444
3356516,,,,,,,,-0.5703125,-7.109375,7.76953125,-1.9921875,-1.576171875,0.88671875,356.0,355.9888888888889,356.0444444444444
3356517,,,,,,,,-0.5703125,-7.109375,7.76953125,-1.9921875,-1.576171875,0.88671875,356.0,355.9888888888889,356.0444444444444
3356518,,,,,,,,-0.5703125,-7.109375,7.76953125,-2.166015625,-1.267578125,0.802734375,356.0,355.9888888888889,356.0444444444444
3356519,,,,,,,,-0.5703125,-7.109375,7.76953125,-2.166015625,-1.267578125,0.802734375,356.0,355.9888888888889,356.0444444444444
3356520,36.013451333333336,129.3197785,106.2398582967676,116.65579037653723,2.4000000000000004,356.0,,-0.5703125,-7.109375,7.76953125,-1.75390625,-0.990234375,0.322265625,356.0,355.9888888888889,356.0444444444444
3356521,,,,,,,,-0.5703125,-7.109375,7.76953125,-1.75390625,-0.990234375,0.322265625,356.0,355.9888888888889,356.0444444444444
3356522,,,,,,,,-0.5703125,-7.109375,7.76953125,-1.169921875,-0.6875,0.068359375,356.0,355.9888888888889,356.0444444444444
3356523,,,,,,,,-3.203125,10.2265625,6.75,-1.169921875,-0.6875,0.068359375,356.0,355.9888888888889,356.0444444444444
3356524,,,,,,,,-3.203125,10.2265625,6.75,-1.169921875,-0.6875,0.068359375,356.0,355.9888888888889,356.0444444444444
3356525,,,,,,,,-3.203125,10.2265625,6.75,-1.169921875,-0.6875,0.068359375,356.0,355.9888888888889,356.0444444444444
3356526,,,,,,,,-3.203125,10.2265625,6.75,-0.48046875,-0.482421875,-0.392578125,356.0,355.9888888888889,356.0444444444444
3356527,,,,,,,,-3.203125,10.2265625,6.75,-0.48046875,-0.482421875,-0.392578125,356.0,355.9888888888889,356.0444444444444
3356528,,,,,,,,-3.203125,10.2265625,6.75,0.650390625,-0.357421875,0.306640625,356.0,355.9888888888889,356.0444444444444
3356529,,,,,,,,-3.203125,10.2265625,6.75,0.650390625,-0.357421875,0.306640625,356.0,355.9888888888889,356.0444444444444
3356530,36.0134535,129.31977883333332,106.26990484330739,116.89620244782307,2.7,357.0,,-3.203125,10.2265625,6.75,1.19921875,-0.41796875,0.75,356.0,355.9888888888889,356.0444444444444
3356531,,,,,,,,-3.203125,10.2265625,6.75,1.19921875,-0.41796875,0.75,356.0,355.9888888888889,356.0444444444444
3356532,,,,,,,,-3.203125,10.2265625,6.75,-0.0859375,-0.4921875,1.765625,356.0,355.9888888888889,356.0444444444444
3356533,,,,,,,,-3.203125,10.2265625,6.75,-0.0859375,-0.4921875,1.765625,356.0,355.9888888888889,356.0444444444444
3356534,,,,,,,,-3.203125,10.2265625,6.75,-0.32421875,-0.060546875,-0.0625,356.0,355.9888888888889,356.0444444444444
3356535,,,,,,,,-3.203125,10.2265625,6.75,-0.32421875,-0.060546875,-0.0625,356.0,355.9888888888889,356.0444444444444
3356536,,,,,,,,-3.203125,10.2265625,6.75,0.904296875,0.07421875,-1.169921875,356.0,355.9888888888889,356.0444444444444
3356537,,,,,,,,-3.203125,10.2265625,6.75,0.904296875,0.07421875,-1.169921875,356.0,355.9888888888889,356.0444444444444
3356538,,,,,,,,-3.203125,10.2265625,6.75,1.6640625,0.39453125,0.28125,356.0,355.9888888888889,356.0444444444444
3356539,,,,,,,,3.14453125,-6.7734375,9.7109375,1.6640625,0.39453125,0.28125,356.0,355.9888888888889,356.0444444444444
3356540,36.01345583333333,129.3197795,106.33000062415609,117.15510809276199,2.7,1.0,,3.14453125,-6.7734375,9.7109375,1.6640625,0.39453125,0.28125,356.0,355.9888888888889,356.0444444444444
3356541,,,,,,,,3.14453125,-6.7734375,9.7109375,1.6640625,0.39453125,0.28125,356.0,355.9888888888889,356.0444444444444
3356542,,,,,,,,3.14453125,-6.7734375,9.7109375,1.5546875,1.04296875,0.779296875,356.0,355.9888888888889,356.0444444444444
3356543,,,,,,,,3.14453125,-6.7734375,9.7109375,1.5546875,1.04296875,0.779296875,356.0,355.9888888888889,356.0444444444444
3356544,,,,,,,,3.14453125,-6.7734375,9.7109375,1.69921875,1.353515625,1.00390625,356.0,355.9888888888889,356.0444444444444
3356545,,,,,,,,3.14453125,-6.7734375,9.7109375,1.69921875,1.353515625,1.00390625,356.0,355.9888888888889,356.0444444444444
3356546,,,,,,,,3.14453125,-6.7734375,9.7109375,1.849609375,1.34375,1.107421875,356.0,355.9888888888889,356.0444444444444
3356547,,,,,,,,3.14453125,-6.7734375,9.7109375,1.849609375,1.34375,1.107421875,356.0,355.9888888888889,356.0444444444444
3356548,,,,,,,,3.14453125,-6.7734375,9.7109375,1.69921875,1.265625,1.275390625,356.0,355.9888888888889,356.0444444444444
3356549,,,,,,,,3.14453125,-6.7734375,9.7109375,1.69921875,1.265625,1.275390625,356.0,355.9888888888889,356.0444444444444
3356550,36.013457833333334,129.31978016666665,106.39009684731097,117.37702732029786,2.4000000000000004,6.0,,3.14453125,-6.7734375,9.7109375,1.45703125,1.083984375,1.298828125,356.0,355.9888888888889,356.0444444444444
3356551,,,,,,,,3.14453125,-6.7734375,9.7109375,1.45703125,1.083984375,1.298828125,356.0,355.9888888888889,356.0444444444444
3356552,,,,,,,,3.14453125,-6.7734375,9.7109375,1.208984375,0.83203125,0.978515625,356.0,355.9888888888889,356.0444444444444
3356553,,,,,,,,3.14453125,-6.7734375,9.7109375,1.208984375,0.83203125,0.978515625,356.0,355.9888888888889,356.0111111111111
3356554,,,,,,,,3.14453125,-6.7734375,9.7109375,1.6015625,0.41796875,0.3125,356.0,355.9888888888889,356.0111111111111
3356555,,,,,,,,10.48828125,8.828125,1.61328125,1.6015625,0.41796875,0.3125,356.0,355.9888888888889,356.0111111111111
3356556,,,,,,,,10.48828125,8.828125,1.61328125,1.6015625,0.41796875,0.3125,356.0,355.9888888888889,356.0111111111111
3356557,,,,,,,,10.48828125,8.828125,1.61328125,0.099609375,0.06640625,0.26953125,356.0,355.9888888888889,356.0111111111111
3356558,,,,,,,,10.48828125,8.828125,1.61328125,0.099609375,0.06640625,0.26953125,356.0,355.9888888888889,356.0111111111111
3356559,,,,,,,,10.48828125,8.828125,1.61328125,-1.916015625,0.3671875,-0.138671875,356.0,355.9888888888889,356.0111111111111
3356560,36.013463,129.31978233333334,106.58541135171203,117.95031914723694,2.8000000000000003,12.0,,10.48828125,8.828125,1.61328125,-1.916015625,0.3671875,-0.138671875,356.0,355.9888888888889,356.0111111111111
3356561,,,,,,,,10.48828125,8.828125,1.61328125,-3.0859375,0.375,-1.08984375,356.0,355.9888888888889,356.0111111111111
3356562,,,,,,,,10.48828125,8.828125,1.61328125,-3.0859375,0.375,-1.08984375,356.0,355.9888888888889,356.0111111111111
3356563,,,,,,,,10.48828125,8.828125,1.61328125,2.369140625,0.494140625,1.248046875,356.0,355.9888888888889,356.0111111111111
3356564,,,,,,,,10.48828125,8.828125,1.61328125,2.369140625,0.494140625,1.248046875,356.0,355.9888888888889,356.0111111111111
3356565,,,,,,,,10.48828125,8.828125,1.61328125,-1.18359375,0.0078125,0.45703125,356.0,355.9888888888889,356.0111111111111
3356566,,,,,,,,10.48828125,8.828125,1.61328125,-1.18359375,0.0078125,0.45703125,356.0,355.9888888888889,356.0111111111111
3356567,,,,,,,,10.48828125,8.828125,1.61328125,-1.310546875,0.162109375,-1.349609375,356.0,355.9888888888889,356.0111111111111
3356568,,,,,,,,10.48828125,8.828125,1.61328125,-1.310546875,0.162109375,-1.349609375,356.0,355.9888888888889,356.0111111111111
3356569,,,,,,,,10.48828125,8.828125,1.61328125,-1.96875,0.0,0.4375,356.0,355.9888888888889,356.0111111111111
3356570,36.01346566666667,129.31978283333333,106.63048194226252,118.24621102806925,2.7,11.0,,3.06640625,-4.66015625,7.203125,-1.96875,0.0,0.4375,356.0,355.9888888888889,356.0111111111111
3356571,,,,,,,,3.06640625,-4.66015625,7.203125,-1.96875,0.0,0.4375,356.0,355.9888888888889,356.0111111111111
3356572,,,,,,,,3.06640625,-4.66015625,7.203125,-1.96875,0.0,0.4375,356.0,355.9888888888889,356.0111111111111
3356573,,,,,,,,3.06640625,-4.66015625,7.203125,-1.29296875,-1.076171875,0.513671875,356.0,355.9888888888889,356.0111111111111
3356574,,,,,,,,3.06640625,-4.66015625,7.203125,-1.29296875,-1.076171875,0.513671875,356.0,355.9888888888889,356.0111111111111
3356575,,,,,,,,3.06640625,-4.66015625,7.203125,-0.62890625,-0.970703125,0.853515625,356.0,355.9888888888889,356.0111111111111
3356576,,,,,,,,3.06640625,-4.66015625,7.203125,-0.62890625,-0.970703125,0.853515625,356.0,355.9888888888889,356.0111111111111
3356577,,,,,,,,3.06640625,-4.66015625,7.203125,-0.26953125,-0.353515625,0.259765625,356.0,355.9888888888889,356.0111111111111
3356578,,,,,,,,3.06640625,-4.66015625,7.203125,-0.26953125,-0.353515625,0.259765625,356.0,355.9888888888889,356.0111111111111
3356579,,,,,,,,3.06640625,-4.66015625,7.203125,0.00390625,-0.130859375,0.134765625,356.0,355.9888888888889,356.0111111111111
3356580,36.01346816666667,129.31978383333333,106.72062692929977,118.52361024914491,2.9000000000000004,11.0,,3.06640625,-4.66015625,7.203125,0.00390625,-0.130859375,0.134765625,356.0,355.9888888888889,356.0111111111111
3356581,,,,,,,,3.06640625,-4.66015625,7.203125,0.693359375,0.3203125,0.275390625,356.0,355.9888888888889,356.0111111111111
3356582,,,,,,,,3.06640625,-4.66015625,7.203125,0.693359375,0.3203125,0.275390625,356.0,355.9888888888889,356.0111111111111
3356583,,,,,,,,3.06640625,-4.66015625,7.203125,1.48828125,0.83203125,0.16015625,356.0,355.9888888888889,356.0111111111111
3356584,,,,,,,,3.06640625,-4.66015625,7.203125,1.48828125,0.83203125,0.16015625,356.0,355.9888888888889,356.0111111111111
3356585,,,,,,,,3.06640625,-4.66015625,7.203125,2.548828125,1.65234375,-0.654296875,356.0,355.9888888888889,356.0111111111111
3356586,,,,,,,,-5.44140625,11.42578125,3.84765625,2.548828125,1.65234375,-0.654296875,356.0,355.9888888888889,356.0111111111111
3356587,,,,,,,,-5.44140625,11.42578125,3.84765625,2.548828125,1.65234375,-0.654296875,356.0,355.9888888888889,356.0111111111111
3356588,,,,,,,,-5.44140625,11.42578125,3.84765625,2.548828125,1.65234375,-0.654296875,356.0,355.9888888888889,356.0111111111111
3356589,,,,,,,,-5.44140625,11.42578125,3.84765625,3.76171875,1.58203125,0.1484375,356.0,355.9888888888889,356.0111111111111
3356590,36.01347066666666,129.31978466666666,106.79574718418252,118.80100928735932,2.9000000000000004,11.0,,-5.44140625,11.42578125,3.84765625,3.76171875,1.58203125,0.1484375,356.0,355.9888888888889,356.0111111111111
3356591,,,,,,,,-5.44140625,11.42578125,3.84765625,-0.107421875,1.55859375,2.642578125,356.0,355.9888888888889,356.0111111111111
3356592,,,,,,,,-5.44140625,11.42578125,3.84765625,-0.107421875,1.55859375,2.642578125,356.0,355.9888888888889,356.0111111111111
3356593,,,,,,,,-5.44140625,11.42578125,3.84765625,3.71484375,1.525390625,-2.251953125,356.0,355.9888888888889,356.0111111111111
3356594,,,,,,,,-5.44140625,11.42578125,3.84765625,3.71484375,1.525390625,-2.251953125,356.0,355.9888888888889,356.0111111111111
3356595,,,,,,,,-5.44140625,11.42578125,3.84765625,3.66796875,1.8046875,-1.9921875,356.0,355.9888888888889,356.0111111111111
3356596,,,,,,,,-5.44140625,11.42578125,3.84765625,3.66796875,1.8046875,-1.9921875,356.0,355.9888888888889,356.0111111111111
3356597,,,,,,,,-5.44140625,11.42578125,3.84765625,2.912109375,1.4765625,-0.46875,356.0,355.9888888888889,356.0111111111111
3356598,,,,,,,,-5.44140625,11.42578125,3.84765625,2.912109375,1.4765625,-0.46875,356.0,355.9888888888889,356.0111111111111
3356599,,,,,,,,-5.44140625,11.42578125,3.84765625,1.1875,1.916015625,-0.546875,356.0,355.9888888888889,356.0111111111111
3356600,36.013475166666666,129.31978633333335,106.94598836152261,119.30032774247147,2.6,13.0,166.0,-5.44140625,11.42578125,3.84765625,1.1875,1.916015625,-0.546875,356.0,355.9888888888889,356.0111111111111
3356601,,,,,,,,-5.44140625,11.42578125,3.84765625,1.1875,1.916015625,-0.546875,356.0,355.9888888888889,356.0111111111111
3356602,,,,,,,,-5.44140625,11.42578125,3.84765625,1.1875,1.916015625,-0.546875,356.0,355.9888888888889,356.0111111111111
3356603,,,,,,,,-5.44140625,11.42578125,3.84765625,1.330078125,1.83203125,0.015625,356.0,355.9888888888889,356.0111111111111
3356604,,,,,,,,-5.44140625,11.42578125,3.84765625,1.330078125,1.83203125,0.015625,356.0,355.9888888888889,356.0111111111111
3356605,,,,,,,,-5.44140625,11.42578125,3.84765625,0.275390625,0.8828125,-2.333984375,356.0,355.9888888888889,356.0111111111111
3356606,,,,,,,,1.9296875,2.03515625,5.1875,0.275390625,0.8828125,-2.333984375,356.0,355.9888888888889,356.0111111111111
3356607,,,,,,,,1.9296875,2.03515625,5.1875,0.275390625,0.8828125,-2.333984375,356.0,356.0,356.0111111111111
3356608,,,,,,,,1.9296875,2.03515625,5.1875,0.732421875,0.75390625,-1.462890625,356.0,356.0,356.0111111111111
3356609,,,,,,,,1.9296875,2.03515625,5.1875,0.732421875,0.75390625,-1.462890625,356.0,356.0,356.0111111111111
3356610,36.013479,129.31978583333333,106.90090900921629,119.72567098685091,1.9000000000000001,4.0,,1.9296875,2.03515625,5.1875,1.12890625,0.544921875,-1.01171875,356.0,356.0,356.0111111111111
3356611,,,,,,,,1.9296875,2.03515625,5.1875,1.12890625,0.544921875,-1.01171875,356.0,356.0,356.0111111111111
3356612,,,,,,,,1.9296875,2.03515625,5.1875,1.953125,1.064453125,-0.650390625,356.0,356.0,356.0111111111111
3356613,,,,,,,,1.9296875,2.03515625,5.1875,1.953125,1.064453125,-0.650390625,356.0,356.0,356.0111111111111
3356614,,,,,,,,1.9296875,2.03515625,5.1875,2.701171875,1.525390625,-0.193359375,356.0,356.0,356.0111111111111
3356615,,,,,,,,1.9296875,2.03515625,5.1875,2.701171875,1.525390625,-0.193359375,356.0,356.0,356.0111111111111
3356616,,,,,,,,1.9296875,2.03515625,5.1875,1.744140625,1.134765625,1.09765625,356.0,356.0,356.0111111111111
3356617,,,,,,,,1.9296875,2.03515625,5.1875,1.744140625,1.134765625,1.09765625,356.0,356.0,356.0111111111111
3356618,,,,,,,,1.9296875,2.03515625,5.1875,1.005859375,0.900390625,0.8359375,356.0,356.0,356.0111111111111
3356619,,,,,,,,1.9296875,2.03515625,5.1875,1.005859375,0.900390625,0.8359375,356.0,356.0,356.0111111111111
3356620,36.013480666666666,129.31978533333333,106.85583258936072,119.91060252296401,2.1,357.0,,1.9296875,2.03515625,5.1875,0.91796875,1.35546875,-1.28515625,356.0,356.0,356.0111111111111
3356621,,,,,,,,10.28515625,-13.0546875,3.890625,0.91796875,1.35546875,-1.28515625,356.0,356.0,356.0111111111111
3356622,,,,,,,,10.28515625,-13.0546875,3.890625,0.91796875,1.35546875,-1.28515625,356.0,356.0,356.0111111111111
3356623,,,,,,,,10.28515625,-13.0546875,3.890625,1.4921875,1.404296875,-0.216796875,356.0,356.0,356.0111111111111
3356624,,,,,,,,10.28515625,-13.0546875,3.890625,1.4921875,1.404296875,-0.216796875,356.0,356.0,356.0111111111111
3356625,,,,,,,,10.28515625,-13.0546875,3.890625,1.576171875,1.619140625,0.05078125,356.0,356.0,356.0111111111111
3356626,,,,,,,,10.28515625,-13.0546875,3.890625,1.576171875,1.619140625,0.05078125,356.0,356.0,356.0111111111111
3356627,,,,,,,,10.28515625,-13.0546875,3.890625,2.275390625,2.072265625,0.005859375,356.0,356.0,356.0111111111111
3356628,,,,,,,,10.28515625,-13.0546875,3.890625,2.275390625,2.072265625,0.005859375,356.0,356.0,356.0111111111111
3356629,,,,,,,,10.28515625,-13.0546875,3.890625,2.44921875,2.08984375,0.10546875,356.0,356.0,356.0111111111111
3356630,36.013481999999996,129.319785,106.82578134203078,120.0585478241654,1.6,354.0,,10.28515625,-13.0546875,3.890625,2.44921875,2.08984375,0.10546875,356.0,356.0,356.0111111111111
3356631,,,,,,,,10.28515625,-13.0546875,3.890625,2.408203125,2.068359375,0.556640625,356.0,356.0,356.0111111111111
3356632,,,,,,,,10.28515625,-13.0546875,3.890625,2.408203125,2.068359375,0.556640625,356.0,356.0,356.0111111111111
3356633,,,,,,,,10.28515625,-13.0546875,3.890625,1.751953125,1.603515625,0.66015625,356.0,356.0,356.0111111111111
3356634,,,,,,,,10.28515625,-13.0546875,3.890625,1.751953125,1.603515625,0.66015625,356.0,356.0,356.0111111111111
3356635,,,,,,,,10.28515625,-13.0546875,3.890625,1.119140625,1.109375,0.22265625,356.0,356.0,356.0111111111111
3356636,,,,,,,,8.76171875,3.18359375,-1.60546875,1.119140625,1.109375,0.22265625,356.0,356.0,356.0111111111111
3356637,,,,,,,,8.76171875,3.18359375,-1.60546875,1.119140625,1.109375,0.22265625,356.0,356.0,356.0111111111111
3356638,,,,,,,,8.76171875,3.18359375,-1.60546875,1.119140625,1.109375,0.22265625,356.0,356.0,356.0111111111111
3356639,,,,,,,,8.76171875,3.18359375,-1.60546875,0.2109375,0.595703125,-1.4921875,356.0,356.0,356.0111111111111
3356640,36.013482999999994,129.31978233333334,106.58538442626543,120.16950415409713,2.3000000000000003,328.0,,8.76171875,3.18359375,-1.60546875,0.2109375,0.595703125,-1.4921875,356.0,356.0,356.0111111111111
3356641,,,,,,,,8.76171875,3.18359375,-1.60546875,1.451171875,0.53515625,-1.947265625,356.0,356.0,356.0111111111111
3356642,,,,,,,,8.76171875,3.18359375,-1.60546875,1.451171875,0.53515625,-1.947265625,356.0,356.0,356.0111111111111
3356643,,,,,,,,8.76171875,3.18359375,-1.60546875,0.7109375,0.12109375,0.5703125,356.0,356.0,356.0111111111111
3356644,,,,,,,,8.76171875,3.18359375,-1.60546875,0.7109375,0.12109375,0.5703125,356.0,356.0,356.0111111111111
3356645,,,,,,,,8.76171875,3.18359375,-1.60546875,0.736328125,0.58984375,1.44140625,356.0,356.0,356.0111111111111
3356646,,,,,,,,8.76171875,3.18359375,-1.60546875,0.736328125,0.58984375,1.44140625,356.0,356.0,356.0111111111111
3356647,,,,,,,,8.76171875,3.18359375,-1.60546875,0.03515625,0.1875,2.146484375,356.0,356.0,356.0111111111111
3356648,,,,,,,,8.76171875,3.18359375,-1.60546875,0.03515625,0.1875,2.146484375,356.0,356.0,356.0111111111111
3356649,,,,,,,,8.76171875,3.18359375,-1.60546875,0.236328125,0.025390625,0.474609375,356.0,356.0,356.0111111111111
