time,latitude,longitude,enu_x,enu_y,speed,course,Hrage,accX,accY,accZ,gyrX,gyrY,gyrZ,eulR,eulP,eulY
3249800.0,36.013634499999995,129.31970633333333,99.73391992063486,136.979750380517,0.0,65535.0,166.0,0.28515625,-0.8125,-1.46875,-0.015625,-0.009765625,0.0078125,356.0,356.0,356.0444444444444
3249801.0,,,,,,,,0.28515625,-0.8125,-1.46875,-0.015625,-0.009765625,0.0078125,356.0,356.0,356.0444444444444
3249802.0,,,,,,,,0.28515625,-0.8125,-1.46875,-0.005859375,-0.015625,0.017578125,356.0,356.0,356.0444444444444
3249803.0,,,,,,,,0.28515625,-0.8125,-1.46875,-0.005859375,-0.015625,0.017578125,356.0,356.0,356.0444444444444
3249804.0,,,,,,,,0.28515625,-0.8125,-1.46875,-0.005859375,-0.015625,0.017578125,356.0,356.0,356.0444444444444
3249805.0,,,,,,,,0.28515625,-0.8125,-1.46875,-0.0625,-0.041015625,-0.0078125,356.0,356.0,356.0444444444444
3249806.0,,,,,,,,0.28515625,-0.8125,-1.46875,-0.0625,-0.041015625,-0.0078125,356.0,356.0,356.0444444444444
3249807.0,,,,,,,,0.28515625,-0.8125,-1.46875,-0.060546875,-0.033203125,-0.015625,356.0,356.0,356.0444444444444
3249808.0,,,,,,,,0.28515625,-0.8125,-1.46875,-0.060546875,-0.033203125,-0.015625,356.0,356.0,356.0444444444444
3249809.0,,,,,,,,0.28515625,-0.8125,-1.46875,-0.0703125,-0.03125,0.005859375,356.0,356.0,356.0444444444444
3249810.0,36.013635,129.31970633333333,99.73391929081981,137.03523000809594,0.0,65535.0,,0.28515625,-0.8125,-1.46875,-0.0703125,-0.03125,0.005859375,356.0,356.0,356.0444444444444
3249811.0,,,,,,,,0.28515625,-0.8125,-1.46875,-0.091796875,-0.03515625,0.009765625,356.0,356.0,356.0444444444444
3249812.0,,,,,,,,0.28515625,-0.8125,-1.46875,-0.091796875,-0.03515625,0.009765625,356.0,356.0,356.0444444444444
3249813.0,,,,,,,,0.28515625,-0.8125,-1.46875,-0.095703125,-0.03125,-0.013671875,356.0,356.0,356.0444444444444
3249814.0,,,,,,,,0.12890625,-0.9765625,-1.27734375,-0.095703125,-0.03125,-0.013671875,356.0,356.0,356.0444444444444
3249815.0,,,,,,,,0.12890625,-0.9765625,-1.27734375,-0.095703125,-0.03125,-0.013671875,356.0,356.0,356.0444444444444
3249816.0,,,,,,,,0.12890625,-0.9765625,-1.27734375,-0.125,-0.017578125,-0.060546875,356.0,356.0,356.0444444444444
3249817.0,,,,,,,,0.12890625,-0.9765625,-1.27734375,-0.125,-0.017578125,-0.060546875,356.0,356.0,356.0444444444444
3249818.0,,,,,,,,0.12890625,-0.9765625,-1.27734375,-0.0859375,-0.009765625,-0.07421875,356.0,356.0,356.0444444444444
3249819.0,,,,,,,,0.12890625,-0.9765625,-1.27734375,-0.0859375,-0.009765625,-0.07421875,356.0,356.0,356.0444444444444
3249820.0,36.01363516666667,129.3197065,99.74894377476274,137.05372338749973,0.0,65535.0,,0.12890625,-0.9765625,-1.27734375,-0.08203125,0.001953125,-0.11328125,356.0,356.0,356.0444444444444
3249821.0,,,,,,,,0.12890625,-0.9765625,-1.27734375,-0.08203125,0.001953125,-0.11328125,356.0,356.0,356.0444444444444
3249822.0,,,,,,,,0.12890625,-0.9765625,-1.27734375,-0.04296875,0.015625,-0.09765625,356.0,356.0,356.0444444444444
3249823.0,,,,,,,,0.12890625,-0.9765625,-1.27734375,-0.04296875,0.015625,-0.09765625,356.0,356.0,356.0444444444444
3249824.0,,,,,,,,0.12890625,-0.9765625,-1.27734375,-0.0546875,-0.0078125,-0.103515625,356.0,356.0,356.0444444444444
3249825.0,,,,,,,,0.12890625,-0.9765625,-1.27734375,-0.0546875,-0.0078125,-0.103515625,356.0,356.0,356.0444444444444
3249826.0,,,,,,,,0.12890625,-0.9765625,-1.27734375,-0.0625,0.013671875,-0.1328125,356.0,356.0,356.0444444444444
3249827.0,,,,,,,,0.12890625,-0.9765625,-1.27734375,-0.0625,0.013671875,-0.1328125,356.0,356.0,356.0444444444444
3249828.0,,,,,,,,0.12890625,-0.9765625,-1.27734375,-0.08984375,0.0390625,-0.125,356.0,356.0,356.0444444444444
3249829.0,,,,,,,,0.15625,-0.7578125,-0.99609375,-0.08984375,0.0390625,-0.125,356.0,356.0,356.0444444444444
3249830.0,36.01363533333333,129.31970666666666,99.763968258215,137.07221676709423,0.1,65535.0,,0.15625,-0.7578125,-0.99609375,-0.08984375,0.0390625,-0.125,356.0,356.0,356.0444444444444
3249831.0,,,,,,,,0.15625,-0.7578125,-0.99609375,-0.0625,0.02734375,-0.11328125,356.0,356.0,356.0444444444444
3249832.0,,,,,,,,0.15625,-0.7578125,-0.99609375,-0.0625,0.02734375,-0.11328125,356.0,356.0,356.0444444444444
3249833.0,,,,,,,,0.15625,-0.7578125,-0.99609375,-0.044921875,0.037109375,-0.11328125,356.0,356.0,356.0444444444444
3249834.0,,,,,,,,0.15625,-0.7578125,-0.99609375,-0.044921875,0.037109375,-0.11328125,356.0,356.0,356.0444444444444
3249835.0,,,,,,,,0.15625,-0.7578125,-0.99609375,-0.130859375,0.060546875,-0.107421875,356.0,356.0,356.0444444444444
3249836.0,,,,,,,,0.15625,-0.7578125,-0.99609375,-0.130859375,0.060546875,-0.107421875,356.0,356.0,356.0444444444444
3249837.0,,,,,,,,0.15625,-0.7578125,-0.99609375,-0.083984375,0.048828125,-0.02734375,356.0,356.0,356.0444444444444
3249838.0,,,,,,,,0.15625,-0.7578125,-0.99609375,-0.083984375,0.048828125,-0.02734375,356.0,356.0,356.0444444444444
3249839.0,,,,,,,,0.15625,-0.7578125,-0.99609375,-0.021484375,0.015625,0.048828125,356.0,356.0,356.0444444444444
3249840.0,36.0136355,129.31970683333333,99.7789927415678,137.0907101460744,0.0,65535.0,,0.15625,-0.7578125,-0.99609375,-0.021484375,0.015625,0.048828125,356.0,356.0,356.0444444444444
3249841.0,,,,,,,,0.15625,-0.7578125,-0.99609375,-0.001953125,0.01953125,0.01171875,356.0,356.0,356.0444444444444
3249842.0,,,,,,,,0.15625,-0.7578125,-0.99609375,-0.001953125,0.01953125,0.01171875,356.0,356.0,356.0444444444444
3249843.0,,,,,,,,0.15625,-0.7578125,-0.99609375,-0.0546875,0.0,-0.01953125,356.0,356.0,356.0444444444444
3249844.0,,,,,,,,0.40234375,-0.59765625,-1.3203125,-0.0546875,0.0,-0.01953125,356.0,356.0,356.0444444444444
3249845.0,,,,,,,,0.40234375,-0.59765625,-1.3203125,-0.0546875,0.0,-0.01953125,356.0,356.0,356.0444444444444
3249846.0,,,,,,,,0.40234375,-0.59765625,-1.3203125,-0.06640625,-0.029296875,-0.02734375,356.0,356.0,356.0444444444444
3249847.0,,,,,,,,0.40234375,-0.59765625,-1.3203125,-0.06640625,-0.029296875,-0.02734375,356.0,356.0,356.0444444444444
3249848.0,,,,,,,,0.40234375,-0.59765625,-1.3203125,-0.111328125,-0.0234375,-0.033203125,356.0,356.0,356.0444444444444
3249849.0,,,,,,,,0.40234375,-0.59765625,-1.3203125,-0.111328125,-0.0234375,-0.033203125,356.0,356.0,356.0444444444444
3249850.0,36.0136355,129.319707,99.7940174375465,137.0907103169267,0.1,65535.0,,0.40234375,-0.59765625,-1.3203125,-0.162109375,-0.044921875,-0.052734375,356.0,356.0,356.0444444444444
3249851.0,,,,,,,,0.40234375,-0.59765625,-1.3203125,-0.162109375,-0.044921875,-0.052734375,356.0111111111111,356.0,356.0444444444444
3249852.0,,,,,,,,0.40234375,-0.59765625,-1.3203125,-0.25,-0.056640625,-0.048828125,356.0111111111111,356.0,356.0444444444444
3249853.0,,,,,,,,0.40234375,-0.59765625,-1.3203125,-0.25,-0.056640625,-0.048828125,356.0111111111111,356.0,356.0444444444444
3249854.0,,,,,,,,0.40234375,-0.59765625,-1.3203125,-0.30078125,-0.04296875,-0.015625,356.0111111111111,356.0,356.0444444444444
3249855.0,,,,,,,,0.40234375,-0.59765625,-1.3203125,-0.30078125,-0.04296875,-0.015625,356.0111111111111,356.0,356.0444444444444
3249856.0,,,,,,,,0.40234375,-0.59765625,-1.3203125,-0.443359375,-0.048828125,-0.02734375,356.0111111111111,356.0,356.0444444444444
3249857.0,,,,,,,,0.40234375,-0.59765625,-1.3203125,-0.443359375,-0.048828125,-0.02734375,356.0111111111111,356.0,356.0444444444444
3249858.0,,,,,,,,0.40234375,-0.59765625,-1.3203125,-0.396484375,-0.037109375,-0.12890625,356.0111111111111,356.0,356.0444444444444
3249859.0,,,,,,,,-0.87890625,-0.515625,-0.9609375,-0.396484375,-0.037109375,-0.12890625,356.0111111111111,356.0,356.0444444444444
3249860.0,36.01363583333333,129.3197071666667,99.80904171361534,137.12769690533239,0.1,65535.0,,-0.87890625,-0.515625,-0.9609375,-0.396484375,-0.037109375,-0.12890625,356.0111111111111,356.0,356.0444444444444
3249861.0,,,,,,,,-0.87890625,-0.515625,-0.9609375,-0.31640625,0.03125,-0.427734375,356.0111111111111,356.0,356.0444444444444
3249862.0,,,,,,,,-0.87890625,-0.515625,-0.9609375,-0.31640625,0.03125,-0.427734375,356.0111111111111,356.0,356.0444444444444
3249863.0,,,,,,,,-0.87890625,-0.515625,-0.9609375,-0.22265625,0.091796875,-0.38671875,356.0111111111111,356.0,356.0444444444444
3249864.0,,,,,,,,-0.87890625,-0.515625,-0.9609375,-0.22265625,0.091796875,-0.38671875,356.0111111111111,356.0,356.0444444444444
3249865.0,,,,,,,,-0.87890625,-0.515625,-0.9609375,-0.205078125,0.09375,-0.3359375,356.0111111111111,356.0,356.0444444444444
3249866.0,,,,,,,,-0.87890625,-0.515625,-0.9609375,-0.205078125,0.09375,-0.3359375,356.0111111111111,356.0,356.0444444444444
3249867.0,,,,,,,,-0.87890625,-0.515625,-0.9609375,-0.0390625,0.021484375,-0.236328125,356.0111111111111,356.0,356.0444444444444
3249868.0,,,,,,,,-0.87890625,-0.515625,-0.9609375,-0.0390625,0.021484375,-0.236328125,356.0111111111111,356.0,356.0444444444444
3249869.0,,,,,,,,-0.87890625,-0.515625,-0.9609375,0.076171875,-0.068359375,-0.2109375,356.0111111111111,356.0,356.0444444444444
3249870.0,36.013636,129.31970733333335,99.82406619719802,137.14619028490966,0.2,65535.0,,-0.87890625,-0.515625,-0.9609375,0.076171875,-0.068359375,-0.2109375,356.0111111111111,356.0,356.0444444444444
3249871.0,,,,,,,,-0.87890625,-0.515625,-0.9609375,0.185546875,-0.126953125,-0.220703125,356.0111111111111,356.0,356.0444444444444
3249872.0,,,,,,,,-0.87890625,-0.515625,-0.9609375,0.185546875,-0.126953125,-0.220703125,356.0111111111111,356.0,356.0444444444444
3249873.0,,,,,,,,-0.87890625,-0.515625,-0.9609375,0.21875,-0.107421875,-0.26171875,356.0111111111111,356.0,356.0444444444444
3249874.0,,,,,,,,-0.51953125,-0.2421875,-1.4375,0.21875,-0.107421875,-0.26171875,356.0111111111111,356.0,356.0444444444444
3249875.0,,,,,,,,-0.51953125,-0.2421875,-1.4375,0.21875,-0.107421875,-0.26171875,356.0111111111111,356.0,356.0444444444444
3249876.0,,,,,,,,-0.51953125,-0.2421875,-1.4375,0.21875,-0.107421875,-0.26171875,356.0111111111111,356.0,356.0444444444444
3249877.0,,,,,,,,-0.51953125,-0.2421875,-1.4375,0.248046875,-0.01171875,-0.302734375,356.0111111111111,356.0,356.0444444444444
3249878.0,,,,,,,,-0.51953125,-0.2421875,-1.4375,0.248046875,-0.01171875,-0.302734375,356.0111111111111,356.0,356.0444444444444
3249879.0,,,,,,,,-0.51953125,-0.2421875,-1.4375,0.19921875,-0.015625,-0.34765625,356.0111111111111,356.0,356.0444444444444
3249880.0,36.01363583333333,129.3197075,99.83909109829915,137.1276972470006,0.2,199.0,,-0.51953125,-0.2421875,-1.4375,0.19921875,-0.015625,-0.34765625,356.0111111111111,356.0,356.0444444444444
3249881.0,,,,,,,,-0.51953125,-0.2421875,-1.4375,0.19140625,-0.02734375,-0.46484375,356.0111111111111,356.0,356.0444444444444
3249882.0,,,,,,,,-0.51953125,-0.2421875,-1.4375,0.19140625,-0.02734375,-0.46484375,356.0111111111111,356.0,356.0444444444444
3249883.0,,,,,,,,-0.51953125,-0.2421875,-1.4375,0.234375,-0.052734375,-0.5,356.0111111111111,356.0,356.0444444444444
3249884.0,,,,,,,,-0.51953125,-0.2421875,-1.4375,0.234375,-0.052734375,-0.5,356.0111111111111,356.0,356.0444444444444
3249885.0,,,,,,,,-0.51953125,-0.2421875,-1.4375,0.134765625,-0.07421875,-0.513671875,356.0111111111111,356.0,356.0444444444444
3249886.0,,,,,,,,-0.51953125,-0.2421875,-1.4375,0.134765625,-0.07421875,-0.513671875,356.0111111111111,356.0,356.0444444444444
3249887.0,,,,,,,,-0.51953125,-0.2421875,-1.4375,0.087890625,-0.109375,-0.427734375,356.0111111111111,356.0,356.0444444444444
3249888.0,,,,,,,,-0.51953125,-0.2421875,-1.4375,0.087890625,-0.109375,-0.427734375,356.0111111111111,356.0,356.0444444444444
3249889.0,,,,,,,,-0.51953125,-0.2421875,-1.4375,0.109375,-0.15234375,-0.201171875,356.0111111111111,356.0,356.0444444444444
3249890.0,36.01363583333333,129.31970766666666,99.85411579165662,137.1276974176996,0.2,161.0,,-1.32421875,-1.3828125,-1.296875,0.109375,-0.15234375,-0.201171875,356.0111111111111,356.0,356.0444444444444
3249891.0,,,,,,,,-1.32421875,-1.3828125,-1.296875,0.109375,-0.15234375,-0.201171875,356.0111111111111,356.0,356.0444444444444
3249892.0,,,,,,,,-1.32421875,-1.3828125,-1.296875,0.05078125,-0.201171875,-0.017578125,356.0111111111111,356.0,356.0444444444444
3249893.0,,,,,,,,-1.32421875,-1.3828125,-1.296875,0.05078125,-0.201171875,-0.017578125,356.0111111111111,356.0,356.0444444444444
3249894.0,,,,,,,,-1.32421875,-1.3828125,-1.296875,0.0,-0.236328125,-0.052734375,356.0111111111111,356.0,356.0444444444444
3249895.0,,,,,,,,-1.32421875,-1.3828125,-1.296875,0.0,-0.236328125,-0.052734375,356.0111111111111,356.0,356.0444444444444
3249896.0,,,,,,,,-1.32421875,-1.3828125,-1.296875,-0.017578125,-0.263671875,-0.0390625,356.0111111111111,356.0,356.0444444444444
3249897.0,,,,,,,,-1.32421875,-1.3828125,-1.296875,-0.017578125,-0.263671875,-0.0390625,356.0111111111111,356.0,356.0444444444444
3249898.0,,,,,,,,-1.32421875,-1.3828125,-1.296875,0.05078125,-0.296875,0.11328125,356.0111111111111,356.0,356.0444444444444
3249899.0,,,,,,,,-1.32421875,-1.3828125,-1.296875,0.05078125,-0.296875,0.11328125,356.0111111111111,356.0,356.0444444444444
3249900.0,36.013635,129.31970833333335,99.91421562297016,137.03523205678826,0.6000000000000001,144.0,166.0,-1.32421875,-1.3828125,-1.296875,0.1015625,-0.265625,0.13671875,356.0111111111111,356.0,356.0444444444444
3249901.0,,,,,,,,-1.32421875,-1.3828125,-1.296875,0.1015625,-0.265625,0.13671875,356.0111111111111,356.0,356.0444444444444
3249902.0,,,,,,,,-1.32421875,-1.3828125,-1.296875,0.1015625,-0.265625,0.13671875,356.0111111111111,356.0,356.0444444444444
3249903.0,,,,,,,,-1.32421875,-1.3828125,-1.296875,0.1015625,-0.265625,0.13671875,356.0111111111111,356.0,356.0444444444444
3249904.0,,,,,,,,-1.32421875,-1.3828125,-1.296875,0.0234375,-0.115234375,0.126953125,356.0111111111111,356.0,356.0444444444444
3249905.0,,,,,,,,-1.32421875,-1.3828125,-1.296875,0.0234375,-0.115234375,0.126953125,356.0111111111111,356.0,356.0444444444444
3249906.0,,,,,,,,-1.32421875,-1.3828125,-1.296875,0.517578125,0.09765625,0.087890625,356.0111111111111,356.0,356.0444444444444
3249907.0,,,,,,,,-1.32421875,-1.3828125,-1.296875,0.517578125,0.09765625,0.087890625,356.0111111111111,356.0,356.0444444444444
3249908.0,,,,,,,,-1.32421875,-1.3828125,-1.296875,0.583984375,0.224609375,-0.009765625,356.0111111111111,356.0,356.0444444444444
3249909.0,,,,,,,,-1.32421875,-1.3828125,-1.296875,0.583984375,0.224609375,-0.009765625,356.0111111111111,356.0,356.0444444444444
3249910.0,36.013634,129.319709,99.97431565855524,136.92427348710316,0.9,148.0,,-1.32421875,-1.3828125,-1.296875,0.5859375,0.263671875,-0.060546875,356.0111111111111,356.0,356.0444444444444
3249911.0,,,,,,,,-1.32421875,-1.3828125,-1.296875,0.5859375,0.263671875,-0.060546875,356.0111111111111,356.0,356.0444444444444
3249912.0,,,,,,,,-1.32421875,-1.3828125,-1.296875,0.685546875,0.2734375,-0.009765625,356.0111111111111,356.0,356.0444444444444
3249913.0,,,,,,,,-1.32421875,-1.3828125,-1.296875,0.685546875,0.2734375,-0.009765625,356.0111111111111,356.0,356.0444444444444
3249914.0,,,,,,,,-1.32421875,-1.3828125,-1.296875,0.654296875,0.29296875,-0.03125,356.0111111111111,356.0,356.0444444444444
3249915.0,,,,,,,,-1.32421875,-1.3828125,-1.296875,0.654296875,0.29296875,-0.03125,356.0111111111111,356.0,356.0444444444444
3249916.0,,,,,,,,-1.32421875,-1.3828125,-1.296875,0.583984375,0.302734375,-0.044921875,356.0111111111111,356.0,356.0444444444444
3249917.0,,,,,,,,1.0,2.1015625,-2.4609375,0.583984375,0.302734375,-0.044921875,356.0111111111111,356.0,356.0444444444444
3249918.0,,,,,,,,1.0,2.1015625,-2.4609375,0.583984375,0.302734375,-0.044921875,356.0111111111111,356.0,356.0444444444444
3249919.0,,,,,,,,1.0,2.1015625,-2.4609375,0.435546875,0.291015625,-0.12890625,356.0111111111111,356.0,356.0444444444444
3249920.0,36.013633166666665,129.31970950000002,100.0193907972661,136.8318079553922,1.0,148.0,,1.0,2.1015625,-2.4609375,0.435546875,0.291015625,-0.12890625,356.0111111111111,356.0,356.0444444444444
3249921.0,,,,,,,,1.0,2.1015625,-2.4609375,0.33984375,0.267578125,-0.12890625,356.0111111111111,356.0,356.0444444444444
3249922.0,,,,,,,,1.0,2.1015625,-2.4609375,0.33984375,0.267578125,-0.12890625,356.0111111111111,356.0,356.0444444444444
3249923.0,,,,,,,,1.0,2.1015625,-2.4609375,0.224609375,0.24609375,-0.236328125,356.0111111111111,356.0,356.0444444444444
3249924.0,,,,,,,,1.0,2.1015625,-2.4609375,0.224609375,0.24609375,-0.236328125,356.0111111111111,356.0,356.0444444444444
3249925.0,,,,,,,,1.0,2.1015625,-2.4609375,0.01171875,0.23828125,-0.333984375,356.0111111111111,356.0,356.0444444444444
3249926.0,,,,,,,,1.0,2.1015625,-2.4609375,0.01171875,0.23828125,-0.333984375,356.0111111111111,356.0,356.0444444444444
3249927.0,,,,,,,,1.0,2.1015625,-2.4609375,-0.275390625,0.2265625,-0.3828125,356.0111111111111,356.0,356.0444444444444
3249928.0,,,,,,,,1.0,2.1015625,-2.4609375,-0.275390625,0.2265625,-0.3828125,356.0111111111111,356.0,356.0444444444444
3249929.0,,,,,,,,1.0,2.1015625,-2.4609375,-0.447265625,0.1953125,-0.412109375,356.0111111111111,356.0,356.0444444444444
3249930.0,36.013632333333334,129.31971066666668,100.12456470990082,136.7393431090477,1.1,145.0,,1.0,2.1015625,-2.4609375,-0.447265625,0.1953125,-0.412109375,356.0111111111111,356.0,356.0444444444444
3249931.0,,,,,,,,1.0,2.1015625,-2.4609375,-0.49609375,0.21875,-0.28515625,356.0111111111111,356.0,356.0444444444444
3249932.0,,,,,,,,-0.66796875,-1.96484375,-0.76171875,-0.49609375,0.21875,-0.28515625,356.0111111111111,356.0,356.0444444444444
3249933.0,,,,,,,,-0.66796875,-1.96484375,-0.76171875,-0.49609375,0.21875,-0.28515625,356.0111111111111,356.0,356.0444444444444
3249934.0,,,,,,,,-0.66796875,-1.96484375,-0.76171875,-0.376953125,0.23046875,-0.046875,356.0111111111111,356.0,356.0444444444444
3249935.0,,,,,,,,-0.66796875,-1.96484375,-0.76171875,-0.376953125,0.23046875,-0.046875,356.0111111111111,356.0,356.0444444444444
3249936.0,,,,,,,,-0.66796875,-1.96484375,-0.76171875,-0.203125,0.255859375,0.1796875,356.0111111111111,356.0,356.0444444444444
3249937.0,,,,,,,,-0.66796875,-1.96484375,-0.76171875,-0.203125,0.255859375,0.1796875,356.0111111111111,356.0,356.0444444444444
3249938.0,,,,,,,,-0.66796875,-1.96484375,-0.76171875,-0.060546875,0.251953125,0.427734375,356.0111111111111,356.0,356.0444444444444
3249939.0,,,,,,,,-0.66796875,-1.96484375,-0.76171875,-0.060546875,0.251953125,0.427734375,356.0111111111111,356.0,356.0444444444444
3249940.0,36.0136305,129.31971233333334,100.27481397928284,136.5359195246547,1.4000000000000001,141.0,,-0.66796875,-1.96484375,-0.76171875,0.03125,0.232421875,0.71875,356.0111111111111,356.0,356.0444444444444
3249941.0,,,,,,,,-0.66796875,-1.96484375,-0.76171875,0.03125,0.232421875,0.71875,356.0111111111111,356.0,356.0444444444444
3249942.0,,,,,,,,-0.66796875,-1.96484375,-0.76171875,0.087890625,0.15625,0.564453125,356.0111111111111,356.0,356.0444444444444
3249943.0,,,,,,,,-0.66796875,-1.96484375,-0.76171875,0.087890625,0.15625,0.564453125,356.0111111111111,356.0,356.0444444444444
3249944.0,,,,,,,,-0.66796875,-1.96484375,-0.76171875,-0.01171875,0.10546875,0.234375,356.0111111111111,356.0,356.0444444444444
3249945.0,,,,,,,,-0.66796875,-1.96484375,-0.76171875,-0.01171875,0.10546875,0.234375,356.0111111111111,356.0,356.0444444444444
3249946.0,,,,,,,,-0.66796875,-1.96484375,-0.76171875,-0.25,0.068359375,0.154296875,356.0111111111111,356.0,356.0444444444444
3249947.0,,,,,,,,-1.640625,-1.90234375,2.31640625,-0.25,0.068359375,0.154296875,356.0111111111111,356.0,356.0444444444444
3249948.0,,,,,,,,-1.640625,-1.90234375,2.31640625,-0.25,0.068359375,0.154296875,356.0111111111111,356.0,356.0444444444444
3249949.0,,,,,,,,-1.640625,-1.90234375,2.31640625,-0.3359375,-0.005859375,0.2109375,356.0111111111111,356.0,356.0444444444444
3249950.0,36.01362983333333,129.3197135,100.37998768660292,136.461947889482,1.4000000000000001,138.0,,-1.640625,-1.90234375,2.31640625,-0.3359375,-0.005859375,0.2109375,356.0111111111111,356.0,356.0444444444444
3249951.0,,,,,,,,-1.640625,-1.90234375,2.31640625,-0.18359375,-0.021484375,0.302734375,356.0111111111111,356.0,356.0444444444444
3249952.0,,,,,,,,-1.640625,-1.90234375,2.31640625,-0.18359375,-0.021484375,0.302734375,356.0111111111111,356.0,356.0444444444444
3249953.0,,,,,,,,-1.640625,-1.90234375,2.31640625,-0.1796875,0.0,0.326171875,356.0111111111111,356.0,356.0444444444444
3249954.0,,,,,,,,-1.640625,-1.90234375,2.31640625,-0.1796875,0.0,0.326171875,356.0111111111111,356.0,356.0444444444444
3249955.0,,,,,,,,-1.640625,-1.90234375,2.31640625,-0.451171875,-0.060546875,0.234375,356.0111111111111,356.0,356.0444444444444
3249956.0,,,,,,,,-1.640625,-1.90234375,2.31640625,-0.451171875,-0.060546875,0.234375,356.0111111111111,356.0,356.0444444444444
3249957.0,,,,,,,,-1.640625,-1.90234375,2.31640625,-0.583984375,-0.1953125,-0.033203125,356.0111111111111,356.0,356.0444444444444
3249958.0,,,,,,,,-1.640625,-1.90234375,2.31640625,-0.583984375,-0.1953125,-0.033203125,356.0111111111111,356.0,356.0444444444444
3249959.0,,,,,,,,-1.640625,-1.90234375,2.31640625,-0.595703125,-0.357421875,-0.046875,356.0111111111111,356.0,356.0444444444444
3249960.0,36.013629,129.3197145,100.47013691473192,136.36948287728623,1.3,135.0,,-1.640625,-1.90234375,2.31640625,-0.595703125,-0.357421875,-0.046875,356.0111111111111,356.0,356.0444444444444
3249961.0,,,,,,,,-1.640625,-1.90234375,2.31640625,-0.63671875,-0.44921875,-0.0390625,356.0111111111111,356.0,356.0444444444444
3249962.0,,,,,,,,-1.53515625,4.4375,-0.66015625,-0.63671875,-0.44921875,-0.0390625,356.0111111111111,356.0,356.0444444444444
3249963.0,,,,,,,,-1.53515625,4.4375,-0.66015625,-0.63671875,-0.44921875,-0.0390625,356.0111111111111,356.0,356.0444444444444
3249964.0,,,,,,,,-1.53515625,4.4375,-0.66015625,-0.642578125,-0.53515625,0.001953125,356.0111111111111,356.0,356.0444444444444
3249965.0,,,,,,,,-1.53515625,4.4375,-0.66015625,-0.642578125,-0.53515625,0.001953125,356.0111111111111,356.0,356.0444444444444
3249966.0,,,,,,,,-1.53515625,4.4375,-0.66015625,-0.5859375,-0.515625,0.015625,356.0111111111111,356.0,356.0444444444444
3249967.0,,,,,,,,-1.53515625,4.4375,-0.66015625,-0.5859375,-0.515625,0.015625,356.0111111111111,356.0,356.0444444444444
3249968.0,,,,,,,,-1.53515625,4.4375,-0.66015625,-0.427734375,-0.4140625,-0.02734375,356.0111111111111,356.0,356.0444444444444
3249969.0,,,,,,,,-1.53515625,4.4375,-0.66015625,-0.427734375,-0.4140625,-0.02734375,356.0111111111111,356.0,356.0444444444444
3249970.0,36.01362816666666,129.3197155,100.56028614541697,136.2770178629924,1.3,134.0,,-1.53515625,4.4375,-0.66015625,-0.322265625,-0.349609375,-0.041015625,356.0111111111111,356.0,356.0444444444444
3249971.0,,,,,,,,-1.53515625,4.4375,-0.66015625,-0.322265625,-0.349609375,-0.041015625,356.0111111111111,356.0,356.0444444444444
3249972.0,,,,,,,,-1.53515625,4.4375,-0.66015625,-0.140625,-0.251953125,-0.05078125,356.0111111111111,356.0,356.0444444444444
3249973.0,,,,,,,,-1.53515625,4.4375,-0.66015625,-0.140625,-0.251953125,-0.05078125,356.0111111111111,356.0,356.0444444444444
3249974.0,,,,,,,,-1.53515625,4.4375,-0.66015625,0.021484375,-0.232421875,-0.087890625,356.0111111111111,356.0,356.0444444444444
3249975.0,,,,,,,,-1.53515625,4.4375,-0.66015625,0.021484375,-0.232421875,-0.087890625,356.0111111111111,356.0,356.0444444444444
3249976.0,,,,,,,,-1.53515625,4.4375,-0.66015625,0.1171875,-0.21484375,-0.12109375,356.0111111111111,356.0,356.0444444444444
3249977.0,,,,,,,,-2.11328125,0.5234375,-0.44921875,0.1171875,-0.21484375,-0.12109375,356.0111111111111,356.0,356.0444444444444
3249978.0,,,,,,,,-2.11328125,0.5234375,-0.44921875,0.1171875,-0.21484375,-0.12109375,356.0111111111111,356.0,356.0444444444444
3249979.0,,,,,,,,-2.11328125,0.5234375,-0.44921875,0.1171875,-0.21484375,-0.12109375,356.0111111111111,356.0,356.0444444444444
3249980.0,36.0136275,129.319716,100.6053610777015,136.20304554473535,1.2000000000000002,137.0,,-2.11328125,0.5234375,-0.44921875,0.138671875,-0.232421875,0.1015625,356.0111111111111,356.0,356.0444444444444
3249981.0,,,,,,,,-2.11328125,0.5234375,-0.44921875,0.138671875,-0.232421875,0.1015625,356.0111111111111,356.0,356.0444444444444
3249982.0,,,,,,,,-2.11328125,0.5234375,-0.44921875,0.330078125,-0.189453125,0.501953125,356.0111111111111,356.0,356.0444444444444
3249983.0,,,,,,,,-2.11328125,0.5234375,-0.44921875,0.330078125,-0.189453125,0.501953125,356.0111111111111,356.0,356.0444444444444
3249984.0,,,,,,,,-2.11328125,0.5234375,-0.44921875,0.439453125,-0.171875,0.55859375,356.0111111111111,356.0,356.0444444444444
3249985.0,,,,,,,,-2.11328125,0.5234375,-0.44921875,0.439453125,-0.171875,0.55859375,356.0111111111111,356.0,356.0444444444444
3249986.0,,,,,,,,-2.11328125,0.5234375,-0.44921875,0.423828125,-0.080078125,0.619140625,356.0111111111111,356.0,356.0444444444444
3249987.0,,,,,,,,-2.11328125,0.5234375,-0.44921875,0.423828125,-0.080078125,0.619140625,356.0111111111111,356.0,356.0444444444444
3249988.0,,,,,,,,-2.11328125,0.5234375,-0.44921875,0.44140625,0.009765625,1.359375,356.0111111111111,356.0,356.0444444444444
3249989.0,,,,,,,,-2.11328125,0.5234375,-0.44921875,0.44140625,0.009765625,1.359375,356.0111111111111,356.0,356.0444444444444
3249990.0,36.0136265,129.3197165,100.65043643661366,136.09208680690057,1.2000000000000002,144.0,,-2.11328125,0.5234375,-0.44921875,0.564453125,-0.0234375,1.142578125,356.0111111111111,356.0,356.0444444444444
3249991.0,,,,,,,,-2.11328125,0.5234375,-0.44921875,0.564453125,-0.0234375,1.142578125,356.0111111111111,356.0,356.0444444444444
3249992.0,,,,,,,,-2.11328125,0.5234375,-0.44921875,0.431640625,-0.18359375,0.4453125,356.0111111111111,356.0,356.0444444444444
3249993.0,,,,,,,,1.60546875,-4.11328125,1.5390625,0.431640625,-0.18359375,0.4453125,356.0111111111111,356.0,356.0444444444444
3249994.0,,,,,,,,1.60546875,-4.11328125,1.5390625,0.431640625,-0.18359375,0.4453125,356.0,356.0,356.0444444444444
3249995.0,,,,,,,,1.60546875,-4.11328125,1.5390625,0.431640625,-0.18359375,0.4453125,356.0,356.0,356.0444444444444
3249996.0,,,,,,,,1.60546875,-4.11328125,1.5390625,0.138671875,-0.322265625,-0.111328125,356.0,356.0,356.0444444444444
3249997.0,,,,,,,,1.60546875,-4.11328125,1.5390625,0.138671875,-0.322265625,-0.111328125,356.0,356.0,356.0444444444444
3249998.0,,,,,,,,1.60546875,-4.11328125,1.5390625,0.166015625,0.0625,-0.462890625,356.0,356.0,356.0444444444444
3249999.0,,,,,,,,1.60546875,-4.11328125,1.5390625,0.166015625,0.0625,-0.462890625,356.0,356.0,356.0444444444444
3250000.0,36.013625499999996,129.3197175,100.74058588140328,135.98112858641593,0.9,145.0,166.0,1.60546875,-4.11328125,1.5390625,0.166015625,0.0625,-0.462890625,356.0,356.0,356.0444444444444
3250001.0,,,,,,,,1.60546875,-4.11328125,1.5390625,0.166015625,0.0625,-0.462890625,356.0,356.0,356.0444444444444
3250002.0,,,,,,,,1.60546875,-4.11328125,1.5390625,0.42578125,0.27734375,-0.34765625,356.0,356.0,356.0444444444444
3250003.0,,,,,,,,1.60546875,-4.11328125,1.5390625,0.42578125,0.27734375,-0.34765625,356.0,356.0,356.0444444444444
3250004.0,,,,,,,,1.60546875,-4.11328125,1.5390625,0.140625,0.283203125,-0.423828125,356.0,356.0,356.0444444444444
3250005.0,,,,,,,,1.60546875,-4.11328125,1.5390625,0.140625,0.283203125,-0.423828125,356.0111111111111,356.0,356.0444444444444
3250006.0,,,,,,,,1.60546875,-4.11328125,1.5390625,-0.076171875,0.2265625,-0.58984375,356.0111111111111,356.0,356.0444444444444
3250007.0,,,,,,,,1.60546875,-4.11328125,1.5390625,-0.076171875,0.2265625,-0.58984375,356.0111111111111,356.0,356.0444444444444
3250008.0,,,,,,,,1.60546875,-4.11328125,1.5390625,-0.2734375,0.203125,-0.53515625,356.0111111111111,356.0,356.0444444444444
3250009.0,,,,,,,,1.60546875,-4.11328125,1.5390625,-0.2734375,0.203125,-0.53515625,356.0111111111111,356.0,356.0444444444444
3250010.0,36.01362366666667,129.31971833333333,100.81571169619818,135.7777041519247,1.0,150.0,,1.60546875,-4.11328125,1.5390625,-0.1953125,0.12109375,0.09765625,356.0111111111111,356.0,356.0444444444444
3250011.0,,,,,,,,1.60546875,-4.11328125,1.5390625,-0.1953125,0.12109375,0.09765625,356.0111111111111,356.0,356.0444444444444
3250012.0,,,,,,,,1.60546875,-4.11328125,1.5390625,-0.279296875,0.111328125,0.06640625,356.0111111111111,356.0,356.0444444444444
3250013.0,,,,,,,,1.60546875,-4.11328125,1.5390625,-0.279296875,0.111328125,0.06640625,356.0111111111111,356.0,356.0444444444444
3250014.0,,,,,,,,1.60546875,-4.11328125,1.5390625,-0.70703125,0.158203125,0.265625,356.0111111111111,356.0,356.0444444444444
3250015.0,,,,,,,,1.26171875,-2.1015625,-1.7890625,-0.70703125,0.158203125,0.265625,356.0111111111111,356.0,356.0444444444444
3250016.0,,,,,,,,1.26171875,-2.1015625,-1.7890625,-0.70703125,0.158203125,0.265625,356.0111111111111,356.0,356.0444444444444
3250017.0,,,,,,,,1.26171875,-2.1015625,-1.7890625,-0.05859375,0.1875,0.12109375,356.0111111111111,356.0,356.0444444444444
3250018.0,,,,,,,,1.26171875,-2.1015625,-1.7890625,-0.05859375,0.1875,0.12109375,356.0111111111111,356.0,356.0444444444444
3250019.0,,,,,,,,1.26171875,-2.1015625,-1.7890625,-0.201171875,0.39453125,0.40234375,356.0111111111111,356.0,356.0444444444444
3250020.0,36.013623,129.31971883333333,100.86078663313845,135.70373183405195,1.0,148.0,,1.26171875,-2.1015625,-1.7890625,-0.201171875,0.39453125,0.40234375,356.0111111111111,356.0,356.0444444444444
3250021.0,,,,,,,,1.26171875,-2.1015625,-1.7890625,-0.244140625,0.259765625,0.78125,356.0111111111111,356.0,356.0444444444444
3250022.0,,,,,,,,1.26171875,-2.1015625,-1.7890625,-0.244140625,0.259765625,0.78125,356.0111111111111,356.0,356.0444444444444
3250023.0,,,,,,,,1.26171875,-2.1015625,-1.7890625,-0.201171875,0.24609375,0.453125,356.0111111111111,356.0,356.0444444444444
3250024.0,,,,,,,,1.26171875,-2.1015625,-1.7890625,-0.201171875,0.24609375,0.453125,356.0111111111111,356.0,356.0444444444444
3250025.0,,,,,,,,1.26171875,-2.1015625,-1.7890625,-0.46484375,0.205078125,0.365234375,356.0111111111111,356.0,356.0444444444444
3250026.0,,,,,,,,1.26171875,-2.1015625,-1.7890625,-0.46484375,0.205078125,0.365234375,356.0,356.0,356.0444444444444
3250027.0,,,,,,,,1.26171875,-2.1015625,-1.7890625,-0.58203125,0.201171875,0.1328125,356.0,356.0,356.0444444444444
3250028.0,,,,,,,,1.26171875,-2.1015625,-1.7890625,-0.58203125,0.201171875,0.1328125,356.0,356.0,356.0444444444444
3250029.0,,,,,,,,1.26171875,-2.1015625,-1.7890625,-0.353515625,0.2109375,-0.056640625,356.0,356.0,356.0444444444444
3250030.0,36.013622000000005,129.31971983333332,100.95093608632007,135.59277361646747,1.2000000000000002,146.0,,-0.30078125,-0.2734375,0.84375,-0.353515625,0.2109375,-0.056640625,356.0,356.0,356.0444444444444
3250031.0,,,,,,,,-0.30078125,-0.2734375,0.84375,-0.353515625,0.2109375,-0.056640625,356.0,356.0,356.0444444444444
3250032.0,,,,,,,,-0.30078125,-0.2734375,0.84375,-0.205078125,0.14453125,-0.091796875,356.0,356.0,356.0444444444444
3250033.0,,,,,,,,-0.30078125,-0.2734375,0.84375,-0.205078125,0.14453125,-0.091796875,356.0,356.0,356.0444444444444
3250034.0,,,,,,,,-0.30078125,-0.2734375,0.84375,-0.19921875,0.05859375,0.01953125,356.0,356.0,356.0444444444444
3250035.0,,,,,,,,-0.30078125,-0.2734375,0.84375,-0.19921875,0.05859375,0.01953125,356.0,356.0,356.0444444444444
3250036.0,,,,,,,,-0.30078125,-0.2734375,0.84375,-0.25390625,-0.0546875,0.013671875,356.0,356.0,356.0444444444444
3250037.0,,,,,,,,-0.30078125,-0.2734375,0.84375,-0.25390625,-0.0546875,0.013671875,356.0,356.0,356.0444444444444
3250038.0,,,,,,,,-0.30078125,-0.2734375,0.84375,-0.236328125,-0.208984375,0.001953125,356.0,356.0,356.0444444444444
3250039.0,,,,,,,,-0.30078125,-0.2734375,0.84375,-0.236328125,-0.208984375,0.001953125,356.0,356.0,356.0444444444444
3250040.0,36.01362133333334,129.31972016666666,100.98098632967302,135.51880112654527,1.0,144.0,,-0.30078125,-0.2734375,0.84375,-0.3125,-0.376953125,0.1015625,356.0,356.0,356.0444444444444
3250041.0,,,,,,,,-0.30078125,-0.2734375,0.84375,-0.3125,-0.376953125,0.1015625,356.0111111111111,356.0,356.0444444444444
3250042.0,,,,,,,,-0.30078125,-0.2734375,0.84375,-0.41796875,-0.40625,0.044921875,356.0111111111111,356.0,356.0444444444444
3250043.0,,,,,,,,-0.30078125,-0.2734375,0.84375,-0.41796875,-0.40625,0.044921875,356.0111111111111,356.0,356.0444444444444
3250044.0,,,,,,,,-0.30078125,-0.2734375,0.84375,-0.564453125,-0.4375,0.0078125,356.0111111111111,356.0,356.0444444444444
3250045.0,,,,,,,,-1.0,2.83203125,-1.7109375,-0.564453125,-0.4375,0.0078125,356.0111111111111,356.0,356.0444444444444
3250046.0,,,,,,,,-1.0,2.83203125,-1.7109375,-0.564453125,-0.4375,0.0078125,356.0111111111111,356.0,356.0444444444444
3250047.0,,,,,,,,-1.0,2.83203125,-1.7109375,0.09375,0.359375,-0.240234375,356.0111111111111,356.0,356.0444444444444
3250048.0,,,,,,,,-1.0,2.83203125,-1.7109375,0.09375,0.359375,-0.240234375,356.0111111111111,356.0,356.0444444444444
3250049.0,,,,,,,,-1.0,2.83203125,-1.7109375,-0.552734375,-0.341796875,-0.078125,356.0111111111111,356.0,356.0444444444444
3250050.0,36.0136205,129.31972133333332,101.08616027020786,135.42633629130026,1.2000000000000002,139.0,,-1.0,2.83203125,-1.7109375,-0.552734375,-0.341796875,-0.078125,356.0111111111111,356.0,356.0444444444444
3250051.0,,,,,,,,-1.0,2.83203125,-1.7109375,-0.40234375,-0.255859375,-0.130859375,356.0111111111111,356.0,356.0444444444444
3250052.0,,,,,,,,-1.0,2.83203125,-1.7109375,-0.40234375,-0.255859375,-0.130859375,356.0111111111111,356.0,356.0444444444444
3250053.0,,,,,,,,-1.0,2.83203125,-1.7109375,-0.291015625,-0.228515625,-0.0546875,356.0111111111111,356.0,356.0444444444444
3250054.0,,,,,,,,-1.0,2.83203125,-1.7109375,-0.291015625,-0.228515625,-0.0546875,356.0111111111111,356.0,356.0444444444444
3250055.0,,,,,,,,-1.0,2.83203125,-1.7109375,-0.123046875,-0.216796875,-0.02734375,356.0111111111111,356.0,356.0444444444444
3250056.0,,,,,,,,-1.0,2.83203125,-1.7109375,-0.123046875,-0.216796875,-0.02734375,356.0111111111111,356.0,356.0444444444444
3250057.0,,,,,,,,-1.0,2.83203125,-1.7109375,-0.14453125,-0.064453125,-0.197265625,356.0111111111111,356.0,356.0444444444444
3250058.0,,,,,,,,-1.0,2.83203125,-1.7109375,-0.14453125,-0.064453125,-0.197265625,356.0111111111111,356.0,356.0444444444444
3250059.0,,,,,,,,-1.0,2.83203125,-1.7109375,-0.01953125,-0.1875,-0.06640625,356.0111111111111,356.0,356.0444444444444
3250060.0,36.013618666666666,129.31972216666665,101.16128609785491,135.2229118578594,1.2000000000000002,146.0,,-1.1171875,-2.25,-1.94140625,-0.01953125,-0.1875,-0.06640625,356.0111111111111,356.0,356.0444444444444
3250061.0,,,,,,,,-1.1171875,-2.25,-1.94140625,-0.01953125,-0.1875,-0.06640625,356.0111111111111,356.0,356.0444444444444
3250062.0,,,,,,,,-1.1171875,-2.25,-1.94140625,-0.01953125,-0.1875,-0.06640625,356.0111111111111,356.0,356.0444444444444
3250063.0,,,,,,,,-1.1171875,-2.25,-1.94140625,-0.326171875,-0.22265625,0.0078125,356.0111111111111,356.0,356.0444444444444
3250064.0,,,,,,,,-1.1171875,-2.25,-1.94140625,-0.326171875,-0.22265625,0.0078125,356.0111111111111,356.0,356.0444444444444
3250065.0,,,,,,,,-1.1171875,-2.25,-1.94140625,0.146484375,-0.18359375,0.40625,356.0111111111111,356.0,356.0444444444444
3250066.0,,,,,,,,-1.1171875,-2.25,-1.94140625,0.146484375,-0.18359375,0.40625,356.0111111111111,356.0,356.0444444444444
3250067.0,,,,,,,,-1.1171875,-2.25,-1.94140625,0.08984375,-0.1640625,0.431640625,356.0111111111111,356.0,356.0444444444444
3250068.0,,,,,,,,-1.1171875,-2.25,-1.94140625,0.08984375,-0.1640625,0.431640625,356.0111111111111,356.0,356.0444444444444
3250069.0,,,,,,,,-1.1171875,-2.25,-1.94140625,-0.025390625,-0.380859375,0.595703125,356.0111111111111,356.0,356.0444444444444
3250070.0,36.013617833333335,129.31972283333334,101.22138595513691,135.13044650629556,1.1,147.0,,-1.1171875,-2.25,-1.94140625,-0.025390625,-0.380859375,0.595703125,356.0111111111111,356.0,356.0444444444444
3250071.0,,,,,,,,-1.1171875,-2.25,-1.94140625,0.79296875,-0.044921875,0.93359375,356.0111111111111,356.0,356.0444444444444
3250072.0,,,,,,,,-1.1171875,-2.25,-1.94140625,0.79296875,-0.044921875,0.93359375,356.0111111111111,356.0,356.0444444444444
3250073.0,,,,,,,,-1.1171875,-2.25,-1.94140625,1.2734375,-0.10546875,0.875,356.0111111111111,356.0,356.0444444444444
3250074.0,,,,,,,,-1.1171875,-2.25,-1.94140625,1.2734375,-0.10546875,0.875,356.0111111111111,356.0,356.0444444444444
3250075.0,,,,,,,,-1.1171875,-2.25,-1.94140625,0.607421875,-0.33984375,0.234375,356.0111111111111,356.0,356.0444444444444
3250076.0,,,,,,,,-0.8203125,-1.3359375,0.765625,0.607421875,-0.33984375,0.234375,356.0111111111111,356.0,356.0444444444444
3250077.0,,,,,,,,-0.8203125,-1.3359375,0.765625,0.607421875,-0.33984375,0.234375,356.0111111111111,356.0,356.0444444444444
3250078.0,,,,,,,,-0.8203125,-1.3359375,0.765625,0.607421875,-0.33984375,0.234375,356.0111111111111,356.0,356.0444444444444
3250079.0,,,,,,,,-0.8203125,-1.3359375,0.765625,0.037109375,-0.3046875,-0.63671875,356.0111111111111,356.0,356.0444444444444
3250080.0,36.01361716666667,129.31972233333332,101.17631271161105,135.0564731518681,0.8,151.0,,-0.8203125,-1.3359375,0.765625,0.037109375,-0.3046875,-0.63671875,356.0,356.0,356.0444444444444
3250081.0,,,,,,,,-0.8203125,-1.3359375,0.765625,0.341796875,0.10546875,-0.396484375,356.0,356.0,356.0444444444444
3250082.0,,,,,,,,-0.8203125,-1.3359375,0.765625,0.341796875,0.10546875,-0.396484375,356.0111111111111,356.0,356.0444444444444
3250083.0,,,,,,,,-0.8203125,-1.3359375,0.765625,0.302734375,-0.28125,0.173828125,356.0111111111111,356.0,356.0444444444444
3250084.0,,,,,,,,-0.8203125,-1.3359375,0.765625,0.302734375,-0.28125,0.173828125,356.0111111111111,356.0,356.0444444444444
3250085.0,,,,,,,,-0.8203125,-1.3359375,0.765625,0.232421875,-0.041015625,-0.208984375,356.0111111111111,356.0,356.0444444444444
3250086.0,,,,,,,,-0.8203125,-1.3359375,0.765625,0.232421875,-0.041015625,-0.208984375,356.0111111111111,356.0,356.0444444444444
3250087.0,,,,,,,,-0.8203125,-1.3359375,0.765625,0.302734375,-0.091796875,-0.146484375,356.0111111111111,356.0,356.0444444444444
3250088.0,,,,,,,,-0.8203125,-1.3359375,0.765625,0.302734375,-0.091796875,-0.146484375,356.0111111111111,356.0,356.0444444444444
3250089.0,,,,,,,,-0.8203125,-1.3359375,0.765625,0.36328125,0.18359375,-0.1484375,356.0111111111111,356.0,356.0444444444444
3250090.0,36.013616166666665,129.31972316666668,101.2514374807124,134.94551476335357,1.0,149.0,,-0.8203125,-1.3359375,0.765625,0.36328125,0.18359375,-0.1484375,356.0111111111111,356.0,356.0444444444444
3250091.0,,,,,,,,-0.8203125,-1.3359375,0.765625,0.267578125,-0.15625,0.173828125,356.0111111111111,356.0,356.0444444444444
3250092.0,,,,,,,,3.16015625,0.74609375,-1.4453125,0.267578125,-0.15625,0.173828125,356.0111111111111,356.0,356.0444444444444
3250093.0,,,,,,,,3.16015625,0.74609375,-1.4453125,0.267578125,-0.15625,0.173828125,356.0111111111111,356.0,356.0444444444444
3250094.0,,,,,,,,3.16015625,0.74609375,-1.4453125,0.267578125,-0.15625,0.173828125,356.0111111111111,356.0,356.0444444444444
3250095.0,,,,,,,,3.16015625,0.74609375,-1.4453125,0.646484375,0.1328125,0.169921875,356.0111111111111,356.0,356.0444444444444
3250096.0,,,,,,,,3.16015625,0.74609375,-1.4453125,0.646484375,0.1328125,0.169921875,356.0111111111111,356.0,356.0444444444444
3250097.0,,,,,,,,3.16015625,0.74609375,-1.4453125,0.162109375,0.23828125,-0.251953125,356.0111111111111,356.0,356.0444444444444
3250098.0,,,,,,,,3.16015625,0.74609375,-1.4453125,0.162109375,0.23828125,-0.251953125,356.0111111111111,356.0,356.0444444444444
3250099.0,,,,,,,,3.16015625,0.74609375,-1.4453125,-0.001953125,0.185546875,-0.423828125,356.0111111111111,356.0,356.0444444444444
3250100.0,36.013614,129.3197255,101.46178602441712,134.7051054757285,1.4000000000000001,144.0,166.0,3.16015625,0.74609375,-1.4453125,-0.001953125,0.185546875,-0.423828125,356.0111111111111,356.0,356.0444444444444
3250101.0,,,,,,,,3.16015625,0.74609375,-1.4453125,-0.001953125,0.185546875,-0.423828125,356.0111111111111,356.0,356.0444444444444
3250102.0,,,,,,,,3.16015625,0.74609375,-1.4453125,-0.001953125,0.185546875,-0.423828125,356.0111111111111,356.0,356.0444444444444
3250103.0,,,,,,,,3.16015625,0.74609375,-1.4453125,-0.056640625,0.177734375,-0.55078125,356.0111111111111,356.0,356.0444444444444
3250104.0,,,,,,,,3.16015625,0.74609375,-1.4453125,-0.083984375,0.1953125,1.08203125,356.0111111111111,356.0,356.0444444444444
3250105.0,,,,,,,,3.16015625,0.74609375,-1.4453125,-0.083984375,0.1953125,1.08203125,356.0111111111111,356.0,356.0444444444444
3250106.0,,,,,,,,3.16015625,0.74609375,-1.4453125,-0.267578125,0.048828125,1.076171875,356.0111111111111,356.0,356.0444444444444
3250107.0,,,,,,,,3.16015625,0.74609375,-1.4453125,-0.267578125,0.048828125,1.076171875,356.0111111111111,356.0,356.0444444444444
3250108.0,,,,,,,,3.16015625,0.74609375,-1.4453125,-0.06640625,0.158203125,0.052734375,356.0111111111111,356.0,356.0444444444444
3250109.0,,,,,,,,3.16015625,0.74609375,-1.4453125,-0.06640625,0.158203125,0.052734375,356.0,356.0,356.0444444444444
3250110.0,36.01361166666666,129.31972816666666,101.70218419034681,134.44620333113218,1.7000000000000002,139.0,,3.16015625,0.74609375,-1.4453125,-0.267578125,0.041015625,-0.265625,356.0,356.0,356.0444444444444
3250111.0,,,,,,,,3.16015625,0.74609375,-1.4453125,-0.267578125,0.041015625,-0.265625,356.0,356.0,356.0444444444444
3250112.0,,,,,,,,3.16015625,0.74609375,-1.4453125,-0.037109375,0.033203125,-0.2265625,356.0,356.0,356.0444444444444
3250113.0,,,,,,,,3.16015625,0.74609375,-1.4453125,-0.037109375,0.033203125,-0.2265625,356.0,356.0,356.0444444444444
3250114.0,,,,,,,,3.16015625,0.74609375,-1.4453125,-0.1328125,-0.1015625,-0.138671875,356.0,356.0,356.0444444444444
3250115.0,,,,,,,,0.95703125,3.18359375,-0.7265625,-0.1328125,-0.1015625,-0.138671875,356.0,356.0,356.0444444444444
3250116.0,,,,,,,,0.95703125,3.18359375,-0.7265625,-0.1328125,-0.1015625,-0.138671875,356.0,356.0,356.0444444444444
3250117.0,,,,,,,,0.95703125,3.18359375,-0.7265625,-0.236328125,-0.50390625,-0.162109375,356.0,356.0,356.0444444444444
3250118.0,,,,,,,,0.95703125,3.18359375,-0.7265625,-0.236328125,-0.50390625,-0.162109375,356.0111111111111,356.0,356.0444444444444
3250119.0,,,,,,,,0.95703125,3.18359375,-0.7265625,-0.078125,0.5859375,-0.3515625,356.0111111111111,356.0,356.0444444444444
3250120.0,36.01361083333334,129.31972916666666,101.79233345080516,134.35373833258438,1.6,138.0,,0.95703125,3.18359375,-0.7265625,-0.078125,0.5859375,-0.3515625,356.0111111111111,356.0,356.0444444444444
3250121.0,,,,,,,,0.95703125,3.18359375,-0.7265625,-0.583984375,-0.515625,0.091796875,356.0111111111111,356.0,356.0444444444444
3250122.0,,,,,,,,0.95703125,3.18359375,-0.7265625,-0.583984375,-0.515625,0.091796875,356.0111111111111,356.0,356.0444444444444
3250123.0,,,,,,,,0.95703125,3.18359375,-0.7265625,-0.185546875,0.216796875,-0.146484375,356.0111111111111,356.0,356.0444444444444
3250124.0,,,,,,,,0.95703125,3.18359375,-0.7265625,-0.185546875,0.216796875,-0.146484375,356.0111111111111,356.0,356.0444444444444
3250125.0,,,,,,,,0.95703125,3.18359375,-0.7265625,-0.865234375,-0.447265625,-0.001953125,356.0111111111111,356.0,356.0444444444444
3250126.0,,,,,,,,0.95703125,3.18359375,-0.7265625,-0.865234375,-0.447265625,-0.001953125,356.0111111111111,356.0,356.0444444444444
3250127.0,,,,,,,,0.95703125,3.18359375,-0.7265625,-0.646484375,-0.30078125,-0.060546875,356.0111111111111,356.0,356.0444444444444
3250128.0,,,,,,,,0.95703125,3.18359375,-0.7265625,-0.646484375,-0.30078125,-0.060546875,356.0111111111111,356.0,356.0444444444444
3250129.0,,,,,,,,0.95703125,3.18359375,-0.7265625,-0.626953125,-0.2734375,-0.15234375,356.0111111111111,356.0,356.0444444444444
3250130.0,36.01360966666667,129.31973083333332,101.94258194112184,134.22428761262128,1.7000000000000002,137.0,,-0.91015625,1.65234375,-1.31640625,-0.626953125,-0.2734375,-0.15234375,356.0111111111111,356.0,356.0444444444444
3250131.0,,,,,,,,-0.91015625,1.65234375,-1.31640625,-0.626953125,-0.2734375,-0.15234375,356.0111111111111,356.0,356.0444444444444
3250132.0,,,,,,,,-0.91015625,1.65234375,-1.31640625,-0.275390625,-0.1484375,-0.19921875,356.0111111111111,356.0,356.0444444444444
3250133.0,,,,,,,,-0.91015625,1.65234375,-1.31640625,-0.275390625,-0.1484375,-0.19921875,356.0111111111111,356.0,356.0444444444444
3250134.0,,,,,,,,-0.91015625,1.65234375,-1.31640625,-0.17578125,-0.1328125,-0.146484375,356.0111111111111,356.0,356.0444444444444
3250135.0,,,,,,,,-0.91015625,1.65234375,-1.31640625,-0.17578125,-0.1328125,-0.146484375,356.0111111111111,356.0,356.0444444444444
3250136.0,,,,,,,,-0.91015625,1.65234375,-1.31640625,-0.095703125,-0.12109375,-0.15234375,356.0111111111111,356.0,356.0444444444444
3250137.0,,,,,,,,-0.91015625,1.65234375,-1.31640625,-0.095703125,-0.12109375,-0.15234375,356.0111111111111,356.0,356.0444444444444
3250138.0,,,,,,,,-0.91015625,1.65234375,-1.31640625,0.005859375,-0.134765625,-0.1640625,356.0111111111111,356.0,356.0444444444444
3250139.0,,,,,,,,-0.91015625,1.65234375,-1.31640625,0.005859375,-0.134765625,-0.1640625,356.0111111111111,356.0,356.0444444444444
3250140.0,36.013608500000004,129.319732,102.04775633507613,134.09483637281144,1.7000000000000002,138.0,,-0.91015625,1.65234375,-1.31640625,-0.0859375,-0.203125,-0.091796875,356.0111111111111,356.0,356.0444444444444
3250141.0,,,,,,,,-0.91015625,1.65234375,-1.31640625,-0.0859375,-0.203125,-0.091796875,356.0111111111111,356.0,356.0444444444444
3250142.0,,,,,,,,-0.91015625,1.65234375,-1.31640625,0.033203125,-0.15625,0.1171875,356.0111111111111,356.0,356.0444444444444
3250143.0,,,,,,,,-0.91015625,1.65234375,-1.31640625,0.033203125,-0.15625,0.1171875,356.0111111111111,356.0,356.0444444444444
3250144.0,,,,,,,,-0.91015625,1.65234375,-1.31640625,0.29296875,-0.12109375,0.3828125,356.0111111111111,356.0,356.0444444444444
3250145.0,,,,,,,,0.5546875,-6.19921875,1.44140625,0.29296875,-0.12109375,0.3828125,356.0111111111111,356.0,356.0444444444444
3250146.0,,,,,,,,0.5546875,-6.19921875,1.44140625,0.29296875,-0.12109375,0.3828125,356.0111111111111,356.0,356.0444444444444
3250147.0,,,,,,,,0.5546875,-6.19921875,1.44140625,0.2578125,-0.123046875,0.728515625,356.0111111111111,356.0,356.0444444444444
3250148.0,,,,,,,,0.5546875,-6.19921875,1.44140625,0.2578125,-0.123046875,0.728515625,356.0111111111111,356.0,356.0444444444444
3250149.0,,,,,,,,0.5546875,-6.19921875,1.44140625,0.5625,-0.099609375,1.177734375,356.0111111111111,356.0,356.0444444444444
3250150.0,36.0136075,129.31973266666668,102.10785642472202,133.98387781777282,1.6,143.0,,0.5546875,-6.19921875,1.44140625,0.5625,-0.099609375,1.177734375,356.0111111111111,356.0,356.0444444444444
3250151.0,,,,,,,,0.5546875,-6.19921875,1.44140625,0.576171875,-0.197265625,0.767578125,356.0111111111111,356.0,356.0444444444444
3250152.0,,,,,,,,0.5546875,-6.19921875,1.44140625,0.576171875,-0.197265625,0.767578125,356.0111111111111,356.0,356.0444444444444
3250153.0,,,,,,,,0.5546875,-6.19921875,1.44140625,0.224609375,-0.328125,0.232421875,356.0111111111111,356.0,356.0444444444444
3250154.0,,,,,,,,0.5546875,-6.19921875,1.44140625,0.224609375,-0.328125,0.232421875,356.0111111111111,356.0,356.0444444444444
3250155.0,,,,,,,,0.5546875,-6.19921875,1.44140625,0.14453125,-0.408203125,-0.021484375,356.0111111111111,356.0,356.0444444444444
3250156.0,,,,,,,,0.5546875,-6.19921875,1.44140625,0.14453125,-0.408203125,-0.021484375,356.0111111111111,356.0,356.0444444444444
3250157.0,,,,,,,,0.5546875,-6.19921875,1.44140625,0.005859375,-0.080078125,-0.419921875,356.0111111111111,356.0,356.0444444444444
3250158.0,,,,,,,,0.5546875,-6.19921875,1.44140625,0.005859375,-0.080078125,-0.419921875,356.0111111111111,356.0,356.0444444444444
3250159.0,,,,,,,,0.5546875,-6.19921875,1.44140625,0.392578125,-0.498046875,0.0546875,356.0111111111111,356.0,356.0444444444444
3250160.0,36.013606333333335,129.31973333333332,102.16795672411516,133.85442605461213,1.5,147.0,,0.22265625,2.2421875,-0.16796875,0.392578125,-0.498046875,0.0546875,356.0111111111111,356.0,356.0444444444444
3250161.0,,,,,,,,0.22265625,2.2421875,-0.16796875,0.392578125,-0.498046875,0.0546875,356.0111111111111,356.0,356.0444444444444
3250162.0,,,,,,,,0.22265625,2.2421875,-0.16796875,0.73828125,0.302734375,-0.416015625,356.0111111111111,356.0,356.0444444444444
3250163.0,,,,,,,,0.22265625,2.2421875,-0.16796875,0.73828125,0.302734375,-0.416015625,356.0111111111111,356.0,356.0444444444444
3250164.0,,,,,,,,0.22265625,2.2421875,-0.16796875,0.4921875,-0.35546875,0.09765625,356.0111111111111,356.0,356.0444444444444
3250165.0,,,,,,,,0.22265625,2.2421875,-0.16796875,0.4921875,-0.35546875,0.09765625,356.0111111111111,356.0,356.0444444444444
3250166.0,,,,,,,,0.22265625,2.2421875,-0.16796875,0.859375,0.453125,-0.423828125,356.0111111111111,356.0,356.0444444444444
3250167.0,,,,,,,,0.22265625,2.2421875,-0.16796875,0.859375,0.453125,-0.423828125,356.0111111111111,356.0,356.0444444444444
3250168.0,,,,,,,,0.22265625,2.2421875,-0.16796875,0.611328125,0.037109375,-0.03515625,356.0111111111111,356.0,356.0444444444444
3250169.0,,,,,,,,0.22265625,2.2421875,-0.16796875,0.611328125,0.037109375,-0.03515625,356.0111111111111,356.0,356.0444444444444
3250170.0,36.013605500000004,129.31973433333332,102.25810599745658,133.76196105911976,1.4000000000000001,146.0,,0.22265625,2.2421875,-0.16796875,0.6796875,0.287109375,-0.1640625,356.0111111111111,356.0,356.0444444444444
3250171.0,,,,,,,,0.22265625,2.2421875,-0.16796875,0.6796875,0.287109375,-0.1640625,356.0111111111111,356.0,356.0444444444444
3250172.0,,,,,,,,0.22265625,2.2421875,-0.16796875,0.46484375,-0.01953125,0.1953125,356.0111111111111,356.0,356.0444444444444
3250173.0,,,,,,,,0.22265625,2.2421875,-0.16796875,0.46484375,-0.01953125,0.1953125,356.0111111111111,356.0,356.0444444444444
3250174.0,,,,,,,,0.22265625,2.2421875,-0.16796875,0.490234375,0.21484375,0.03125,356.0111111111111,356.0,356.0444444444444
3250175.0,,,,,,,,2.83984375,-0.09765625,-1.48046875,0.490234375,0.21484375,0.03125,356.0111111111111,356.0,356.0444444444444
3250176.0,,,,,,,,2.83984375,-0.09765625,-1.48046875,0.490234375,0.21484375,0.03125,356.0111111111111,356.0,356.0444444444444
3250177.0,,,,,,,,2.83984375,-0.09765625,-1.48046875,0.236328125,0.318359375,-0.375,356.0111111111111,356.0,356.0444444444444
3250178.0,,,,,,,,2.83984375,-0.09765625,-1.48046875,0.236328125,0.318359375,-0.375,356.0111111111111,356.0,356.0444444444444
3250179.0,,,,,,,,2.83984375,-0.09765625,-1.48046875,0.337890625,0.3984375,0.12890625,356.0111111111111,356.0,356.0444444444444
3250180.0,36.0136045,129.31973466666668,102.28815669042413,133.65100215635084,1.2000000000000002,147.0,,2.83984375,-0.09765625,-1.48046875,0.337890625,0.3984375,0.12890625,356.0111111111111,356.0,356.0444444444444
3250181.0,,,,,,,,2.83984375,-0.09765625,-1.48046875,-0.22265625,0.232421875,-0.591796875,356.0111111111111,356.0,356.0444444444444
3250182.0,,,,,,,,2.83984375,-0.09765625,-1.48046875,-0.22265625,0.232421875,-0.591796875,356.0111111111111,356.0,356.0444444444444
3250183.0,,,,,,,,2.83984375,-0.09765625,-1.48046875,-0.2890625,0.26953125,-0.19140625,356.0111111111111,356.0,356.0444444444444
3250184.0,,,,,,,,2.83984375,-0.09765625,-1.48046875,-0.2890625,0.26953125,-0.19140625,356.0111111111111,356.0,356.0444444444444
3250185.0,,,,,,,,2.83984375,-0.09765625,-1.48046875,-0.4765625,0.27734375,-0.4375,356.0111111111111,356.0,356.0444444444444
3250186.0,,,,,,,,2.83984375,-0.09765625,-1.48046875,-0.4765625,0.27734375,-0.4375,356.0111111111111,356.0,356.0444444444444
3250187.0,,,,,,,,2.83984375,-0.09765625,-1.48046875,-0.630859375,0.21875,0.185546875,356.0111111111111,356.0,356.0444444444444
3250188.0,,,,,,,,2.83984375,-0.09765625,-1.48046875,-0.630859375,0.21875,0.185546875,356.0111111111111,356.0,356.0444444444444
3250189.0,,,,,,,,2.83984375,-0.09765625,-1.48046875,-0.447265625,0.4140625,0.302734375,356.0111111111111,356.0,356.0444444444444
3250190.0,36.01360283333334,129.31973699999998,102.49850464421519,133.4660725208722,1.3,142.0,,0.0390625,-3.34375,-0.6796875,-0.447265625,0.4140625,0.302734375,356.0111111111111,356.0,356.0444444444444
3250191.0,,,,,,,,0.0390625,-3.34375,-0.6796875,-0.447265625,0.4140625,0.302734375,356.0111111111111,356.0,356.0444444444444
3250192.0,,,,,,,,0.0390625,-3.34375,-0.6796875,-0.7734375,0.205078125,0.228515625,356.0111111111111,356.0,356.0444444444444
3250193.0,,,,,,,,0.0390625,-3.34375,-0.6796875,-0.7734375,0.205078125,0.228515625,356.0111111111111,356.0,356.0444444444444
3250194.0,,,,,,,,0.0390625,-3.34375,-0.6796875,-0.509765625,0.349609375,0.373046875,356.0111111111111,356.0,356.0444444444444
3250195.0,,,,,,,,0.0390625,-3.34375,-0.6796875,-0.509765625,0.349609375,0.373046875,356.0111111111111,356.0,356.0444444444444
3250196.0,,,,,,,,0.0390625,-3.34375,-0.6796875,-0.318359375,0.333984375,0.42578125,356.0111111111111,356.0,356.0444444444444
3250197.0,,,,,,,,0.0390625,-3.34375,-0.6796875,-0.318359375,0.333984375,0.42578125,356.0,356.0,356.0444444444444
3250198.0,,,,,,,,0.0390625,-3.34375,-0.6796875,-0.22265625,0.2421875,0.830078125,356.0,356.0,356.0444444444444
3250199.0,,,,,,,,0.0390625,-3.34375,-0.6796875,-0.22265625,0.2421875,0.830078125,356.0,356.0,356.0444444444444
3250200.0,36.013601333333334,129.319739,102.6788029948263,133.29963574547855,1.3,136.0,166.0,0.0390625,-3.34375,-0.6796875,-0.349609375,0.23046875,0.517578125,356.0,356.0,356.0444444444444
3250201.0,,,,,,,,0.0390625,-3.34375,-0.6796875,-0.349609375,0.23046875,0.517578125,356.0,356.0,356.0444444444444
3250202.0,,,,,,,,0.0390625,-3.34375,-0.6796875,-0.349609375,0.23046875,0.517578125,356.0,356.0,356.0444444444444
3250203.0,,,,,,,,0.0390625,-3.34375,-0.6796875,-0.349609375,0.23046875,0.517578125,356.0,356.0,356.0444444444444
3250204.0,,,,,,,,0.0390625,-3.34375,-0.6796875,0.083984375,-0.1875,-0.169921875,356.0,356.0,356.0444444444444
3250205.0,,,,,,,,-0.8984375,-1.18359375,-1.90234375,0.083984375,-0.1875,-0.169921875,356.0,356.0,356.0444444444444
3250206.0,,,,,,,,-0.8984375,-1.18359375,-1.90234375,0.083984375,-0.1875,-0.169921875,356.0111111111111,356.0,356.0444444444444
3250207.0,,,,,,,,-0.8984375,-1.18359375,-1.90234375,0.12109375,-0.318359375,0.06640625,356.0111111111111,356.0,356.0444444444444
3250208.0,,,,,,,,-0.8984375,-1.18359375,-1.90234375,0.12109375,-0.318359375,0.06640625,356.0111111111111,356.0,356.0444444444444
3250209.0,,,,,,,,-0.8984375,-1.18359375,-1.90234375,-0.203125,-0.24609375,0.087890625,356.0111111111111,356.0,356.0444444444444
3250210.0,36.01359849999999,129.31974166666666,102.91920188513008,132.98525400867007,1.4000000000000001,141.0,,-0.8984375,-1.18359375,-1.90234375,-0.203125,-0.24609375,0.087890625,356.0111111111111,356.0,356.0444444444444
3250211.0,,,,,,,,-0.8984375,-1.18359375,-1.90234375,0.134765625,-0.263671875,0.36328125,356.0111111111111,356.0,356.0444444444444
3250212.0,,,,,,,,-0.8984375,-1.18359375,-1.90234375,0.134765625,-0.263671875,0.36328125,356.0111111111111,356.0,356.0444444444444
3250213.0,,,,,,,,-0.8984375,-1.18359375,-1.90234375,-0.01953125,-0.20703125,0.287109375,356.0111111111111,356.0,356.0444444444444
3250214.0,,,,,,,,-0.8984375,-1.18359375,-1.90234375,-0.01953125,-0.20703125,0.287109375,356.0111111111111,356.0,356.0444444444444
3250215.0,,,,,,,,-0.8984375,-1.18359375,-1.90234375,-0.298828125,-0.3515625,0.181640625,356.0111111111111,356.0,356.0444444444444
3250216.0,,,,,,,,-0.8984375,-1.18359375,-1.90234375,-0.298828125,-0.3515625,0.181640625,356.0111111111111,356.0,356.0444444444444
3250217.0,,,,,,,,-0.8984375,-1.18359375,-1.90234375,0.3984375,-0.0546875,0.966796875,356.0111111111111,356.0,356.0444444444444
3250218.0,,,,,,,,-0.8984375,-1.18359375,-1.90234375,0.3984375,-0.0546875,0.966796875,356.0111111111111,356.0,356.0444444444444
3250219.0,,,,,,,,-0.8984375,-1.18359375,-1.90234375,0.3828125,-0.138671875,0.595703125,356.0111111111111,356.0,356.0444444444444
3250220.0,36.01359733333334,129.31974233333332,102.97930220534194,132.85580225265537,1.4000000000000001,145.0,,0.90234375,-3.83984375,1.48046875,0.3828125,-0.138671875,0.595703125,356.0111111111111,356.0,356.0444444444444
3250221.0,,,,,,,,0.90234375,-3.83984375,1.48046875,0.3828125,-0.138671875,0.595703125,356.0111111111111,356.0,356.0444444444444
3250222.0,,,,,,,,0.90234375,-3.83984375,1.48046875,0.3828125,-0.138671875,0.595703125,356.0111111111111,356.0,356.0444444444444
3250223.0,,,,,,,,0.90234375,-3.83984375,1.48046875,0.265625,-0.349609375,0.19921875,356.0111111111111,356.0,356.0444444444444
3250224.0,,,,,,,,0.90234375,-3.83984375,1.48046875,0.265625,-0.349609375,0.19921875,356.0111111111111,356.0,356.0444444444444
3250225.0,,,,,,,,0.90234375,-3.83984375,1.48046875,0.390625,-0.41015625,0.1796875,356.0111111111111,356.0,356.0444444444444
3250226.0,,,,,,,,0.90234375,-3.83984375,1.48046875,0.390625,-0.41015625,0.1796875,356.0111111111111,356.0,356.0444444444444
3250227.0,,,,,,,,0.90234375,-3.83984375,1.48046875,0.3671875,-0.150390625,-0.064453125,356.0111111111111,356.0,356.0444444444444
3250228.0,,,,,,,,0.90234375,-3.83984375,1.48046875,0.3671875,-0.150390625,-0.064453125,356.0111111111111,356.0,356.0444444444444
3250229.0,,,,,,,,0.90234375,-3.83984375,1.48046875,0.458984375,0.130859375,-0.115234375,356.0111111111111,356.0,356.0444444444444
3250230.0,36.013596166666666,129.31974333333335,103.06945193445989,132.72635084814138,1.4000000000000001,145.0,,0.90234375,-3.83984375,1.48046875,0.458984375,0.130859375,-0.115234375,356.0111111111111,356.0,356.0444444444444
3250231.0,,,,,,,,0.90234375,-3.83984375,1.48046875,0.50390625,0.43359375,-0.482421875,356.0111111111111,356.0,356.0444444444444
3250232.0,,,,,,,,0.90234375,-3.83984375,1.48046875,0.50390625,0.43359375,-0.482421875,356.0111111111111,356.0,356.0444444444444
3250233.0,,,,,,,,0.90234375,-3.83984375,1.48046875,0.423828125,-0.17578125,0.1328125,356.0111111111111,356.0,356.0444444444444
3250234.0,,,,,,,,0.90234375,-3.83984375,1.48046875,0.423828125,-0.17578125,0.1328125,356.0111111111111,356.0,356.0444444444444
3250235.0,,,,,,,,0.90234375,-3.83984375,1.48046875,0.5625,0.46875,-0.3359375,356.0111111111111,356.0,356.0444444444444
3250236.0,,,,,,,,0.9765625,3.8984375,-2.17578125,0.5625,0.46875,-0.3359375,356.0111111111111,356.0,356.0444444444444
3250237.0,,,,,,,,0.9765625,3.8984375,-2.17578125,0.5625,0.46875,-0.3359375,356.0111111111111,356.0,356.0444444444444
3250238.0,,,,,,,,0.9765625,3.8984375,-2.17578125,0.3671875,-0.046875,0.08984375,356.0111111111111,356.0,356.0444444444444
3250239.0,,,,,,,,0.9765625,3.8984375,-2.17578125,0.3671875,-0.046875,0.08984375,356.0111111111111,356.0,356.0444444444444
3250240.0,36.01359516666666,129.319744,103.12955203909529,132.61539229964308,1.3,144.0,,0.9765625,3.8984375,-2.17578125,0.56640625,0.4453125,-0.32421875,356.0111111111111,356.0,356.0444444444444
3250241.0,,,,,,,,0.9765625,3.8984375,-2.17578125,0.56640625,0.4453125,-0.32421875,356.0111111111111,356.0,356.0444444444444
3250242.0,,,,,,,,0.9765625,3.8984375,-2.17578125,0.564453125,0.349609375,-0.064453125,356.0111111111111,356.0,356.0444444444444
3250243.0,,,,,,,,0.9765625,3.8984375,-2.17578125,0.564453125,0.349609375,-0.064453125,356.0111111111111,356.0,356.0444444444444
3250244.0,,,,,,,,0.9765625,3.8984375,-2.17578125,0.34765625,0.28515625,-0.240234375,356.0111111111111,356.0,356.0444444444444
3250245.0,,,,,,,,0.9765625,3.8984375,-2.17578125,0.34765625,0.28515625,-0.240234375,356.0111111111111,356.0,356.0444444444444
3250246.0,,,,,,,,0.9765625,3.8984375,-2.17578125,0.291015625,0.32421875,0.0625,356.0111111111111,356.0,356.0444444444444
3250247.0,,,,,,,,0.9765625,3.8984375,-2.17578125,0.291015625,0.32421875,0.0625,356.0111111111111,356.0,356.0444444444444
3250248.0,,,,,,,,0.9765625,3.8984375,-2.17578125,-0.009765625,0.326171875,-0.103515625,356.0111111111111,356.0,356.0444444444444
3250249.0,,,,,,,,0.9765625,3.8984375,-2.17578125,-0.009765625,0.326171875,-0.103515625,356.0111111111111,356.0,356.0444444444444
3250250.0,36.013594,129.31974499999998,103.21970177034721,132.48594089823442,1.5,144.0,,0.9765625,3.8984375,-2.17578125,-0.322265625,0.15625,-0.689453125,356.0111111111111,356.0,356.0444444444444
3250251.0,,,,,,,,-0.29296875,-0.59375,-1.1953125,-0.322265625,0.15625,-0.689453125,356.0111111111111,356.0,356.0444444444444
3250252.0,,,,,,,,-0.29296875,-0.59375,-1.1953125,-0.322265625,0.15625,-0.689453125,356.0111111111111,356.0,356.0444444444444
3250253.0,,,,,,,,-0.29296875,-0.59375,-1.1953125,-0.435546875,0.1796875,-0.1796875,356.0111111111111,356.0,356.0444444444444
3250254.0,,,,,,,,-0.29296875,-0.59375,-1.1953125,-0.435546875,0.1796875,-0.1796875,356.0111111111111,356.0,356.0444444444444
3250255.0,,,,,,,,-0.29296875,-0.59375,-1.1953125,-0.599609375,0.1484375,0.06640625,356.0111111111111,356.0,356.0444444444444
3250256.0,,,,,,,,-0.29296875,-0.59375,-1.1953125,-0.599609375,0.1484375,0.06640625,356.0111111111111,356.0,356.0444444444444
3250257.0,,,,,,,,-0.29296875,-0.59375,-1.1953125,-0.73828125,0.21484375,0.228515625,356.0111111111111,356.0,356.0444444444444
3250258.0,,,,,,,,-0.29296875,-0.59375,-1.1953125,-0.73828125,0.21484375,0.228515625,356.0111111111111,356.0,356.0444444444444
3250259.0,,,,,,,,-0.29296875,-0.59375,-1.1953125,-0.24609375,0.15234375,0.337890625,356.0111111111111,356.0,356.0444444444444
3250260.0,36.01359333333333,129.31974583333334,103.29482615278413,132.41196894544512,1.3,142.0,,-0.29296875,-0.59375,-1.1953125,-0.24609375,0.15234375,0.337890625,356.0111111111111,356.0,356.0444444444444
3250261.0,,,,,,,,-0.29296875,-0.59375,-1.1953125,-0.728515625,0.5546875,0.1953125,356.0111111111111,356.0,356.0444444444444
3250262.0,,,,,,,,-0.29296875,-0.59375,-1.1953125,-0.728515625,0.5546875,0.1953125,356.0111111111111,356.0,356.0444444444444
3250263.0,,,,,,,,-0.29296875,-0.59375,-1.1953125,-0.22265625,0.259765625,1.25390625,356.0111111111111,356.0,356.0444444444444
3250264.0,,,,,,,,-0.29296875,-0.59375,-1.1953125,-0.22265625,0.259765625,1.25390625,356.0,356.0,356.0444444444444
3250265.0,,,,,,,,-0.29296875,-0.59375,-1.1953125,0.046875,0.431640625,0.224609375,356.0,356.0,356.0444444444444
3250266.0,,,,,,,,-3.0703125,-5.97265625,2.02734375,0.046875,0.431640625,0.224609375,356.0,356.0,356.0444444444444
3250267.0,,,,,,,,-3.0703125,-5.97265625,2.02734375,0.046875,0.431640625,0.224609375,356.0,356.0,356.0444444444444
3250268.0,,,,,,,,-3.0703125,-5.97265625,2.02734375,-0.169921875,0.298828125,0.111328125,356.0,356.0,356.0444444444444
3250269.0,,,,,,,,-3.0703125,-5.97265625,2.02734375,-0.169921875,0.298828125,0.111328125,356.0,356.0,356.0444444444444
3250270.0,36.013592833333334,129.31974683333334,103.38497501752738,132.35649038031278,1.2000000000000002,136.0,,-3.0703125,-5.97265625,2.02734375,-0.173828125,0.25,-0.08203125,356.0,356.0,356.0444444444444
3250271.0,,,,,,,,-3.0703125,-5.97265625,2.02734375,-0.173828125,0.25,-0.08203125,356.0,356.0,356.0444444444444
3250272.0,,,,,,,,-3.0703125,-5.97265625,2.02734375,-0.3203125,0.02734375,-0.283203125,356.0,356.0,356.0444444444444
3250273.0,,,,,,,,-3.0703125,-5.97265625,2.02734375,-0.3203125,0.02734375,-0.283203125,356.0,356.0,356.0444444444444
3250274.0,,,,,,,,-3.0703125,-5.97265625,2.02734375,-0.2109375,0.029296875,-0.029296875,356.0,356.0,356.0444444444444
3250275.0,,,,,,,,-3.0703125,-5.97265625,2.02734375,-0.2109375,0.029296875,-0.029296875,356.0,356.0,356.0444444444444
3250276.0,,,,,,,,-3.0703125,-5.97265625,2.02734375,0.11328125,0.052734375,-0.423828125,356.0,356.0,356.0444444444444
3250277.0,,,,,,,,-3.0703125,-5.97265625,2.02734375,0.11328125,0.052734375,-0.423828125,356.0,356.0,356.0444444444444
3250278.0,,,,,,,,-3.0703125,-5.97265625,2.02734375,-0.013671875,0.009765625,-0.41015625,356.0,356.0,356.0444444444444
3250279.0,,,,,,,,-3.0703125,-5.97265625,2.02734375,-0.013671875,0.009765625,-0.41015625,356.0,356.0,356.0444444444444
3250280.0,36.01359216666666,129.3197475,103.4450746954632,132.28251825152824,1.1,136.0,,-3.0703125,-5.97265625,2.02734375,0.080078125,0.041015625,-0.37109375,356.0,356.0,356.0444444444444
3250281.0,,,,,,,,-0.1171875,3.76953125,-1.03515625,0.080078125,0.041015625,-0.37109375,356.0,356.0,356.0444444444444
3250282.0,,,,,,,,-0.1171875,3.76953125,-1.03515625,0.080078125,0.041015625,-0.37109375,356.0111111111111,356.0,356.0444444444444
3250283.0,,,,,,,,-0.1171875,3.76953125,-1.03515625,-0.14453125,-0.537109375,-0.080078125,356.0111111111111,356.0,356.0444444444444
3250284.0,,,,,,,,-0.1171875,3.76953125,-1.03515625,-0.14453125,-0.537109375,-0.080078125,356.0111111111111,356.0,356.0444444444444
3250285.0,,,,,,,,-0.1171875,3.76953125,-1.03515625,0.0703125,-0.1484375,-0.14453125,356.0111111111111,356.0,356.0444444444444
3250286.0,,,,,,,,-0.1171875,3.76953125,-1.03515625,0.0703125,-0.1484375,-0.14453125,356.0111111111111,356.0,356.0444444444444
3250287.0,,,,,,,,-0.1171875,3.76953125,-1.03515625,-0.400390625,-0.42578125,-0.328125,356.0111111111111,356.0,356.0444444444444
3250288.0,,,,,,,,-0.1171875,3.76953125,-1.03515625,-0.400390625,-0.42578125,-0.328125,356.0111111111111,356.0,356.0444444444444
3250289.0,,,,,,,,-0.1171875,3.76953125,-1.03515625,-0.18359375,-0.283203125,-0.30078125,356.0111111111111,356.0,356.0444444444444
3250290.0,36.0135915,129.31974833333334,103.52019907898425,132.20854630210982,1.1,133.0,,-0.1171875,3.76953125,-1.03515625,-0.18359375,-0.283203125,-0.30078125,356.0111111111111,356.0,356.0444444444444
3250291.0,,,,,,,,-0.1171875,3.76953125,-1.03515625,-0.07421875,-0.16796875,-0.32421875,356.0111111111111,356.0,356.0444444444444
3250292.0,,,,,,,,-0.1171875,3.76953125,-1.03515625,-0.07421875,-0.16796875,-0.32421875,356.0111111111111,356.0,356.0444444444444
3250293.0,,,,,,,,-0.1171875,3.76953125,-1.03515625,0.19140625,-0.115234375,-0.234375,356.0111111111111,356.0,356.0444444444444
3250294.0,,,,,,,,-0.1171875,3.76953125,-1.03515625,0.19140625,-0.115234375,-0.234375,356.0111111111111,356.0,356.0444444444444
3250295.0,,,,,,,,-0.1171875,3.76953125,-1.03515625,0.013671875,-0.083984375,-0.353515625,356.0111111111111,356.0,356.0444444444444
3250296.0,,,,,,,,-1.2578125,0.671875,-1.6796875,0.013671875,-0.083984375,-0.353515625,356.0111111111111,356.0,356.0444444444444
3250297.0,,,,,,,,-1.2578125,0.671875,-1.6796875,0.013671875,-0.083984375,-0.353515625,356.0111111111111,356.0,356.0444444444444
3250298.0,,,,,,,,-1.2578125,0.671875,-1.6796875,0.013671875,-0.083984375,-0.353515625,356.0111111111111,356.0,356.0444444444444
3250299.0,,,,,,,,-1.2578125,0.671875,-1.6796875,0.09765625,-0.146484375,-0.375,356.0111111111111,356.0,356.0444444444444
3250300.0,36.013589333333336,129.31975,103.67044893877126,131.9681363606964,1.3,141.0,166.0,-1.2578125,0.671875,-1.6796875,0.09765625,-0.146484375,-0.375,356.0111111111111,356.0,356.0444444444444
3250301.0,,,,,,,,-1.2578125,0.671875,-1.6796875,0.09765625,-0.146484375,-0.375,356.0111111111111,356.0,356.0444444444444
3250302.0,,,,,,,,-1.2578125,0.671875,-1.6796875,0.09765625,-0.146484375,-0.375,356.0111111111111,356.0,356.0444444444444
3250303.0,,,,,,,,-1.2578125,0.671875,-1.6796875,-0.537109375,-0.20703125,-0.017578125,356.0111111111111,356.0,356.0444444444444
3250304.0,,,,,,,,-1.2578125,0.671875,-1.6796875,0.498046875,-0.17578125,0.669921875,356.0111111111111,356.0,356.0444444444444
3250305.0,,,,,,,,-1.2578125,0.671875,-1.6796875,0.498046875,-0.17578125,0.669921875,356.0111111111111,356.0,356.0444444444444
3250306.0,,,,,,,,-1.2578125,0.671875,-1.6796875,0.498046875,-0.17578125,0.669921875,356.0111111111111,356.0,356.0444444444444
3250307.0,,,,,,,,-1.2578125,0.671875,-1.6796875,-0.048828125,-0.326171875,-0.361328125,356.0111111111111,356.0,356.0444444444444
3250308.0,,,,,,,,-1.2578125,0.671875,-1.6796875,-0.048828125,-0.326171875,-0.361328125,356.0111111111111,356.0,356.0444444444444
3250309.0,,,,,,,,-1.2578125,0.671875,-1.6796875,0.236328125,-0.240234375,0.015625,356.0111111111111,356.0,356.0444444444444
3250310.0,36.013587333333334,129.319751,103.76059977653635,131.74621891927205,1.2000000000000002,149.0,,-1.2578125,0.671875,-1.6796875,0.236328125,-0.240234375,0.015625,356.0111111111111,356.0,356.0444444444444
3250311.0,,,,,,,,-1.2578125,0.671875,-1.6796875,0.228515625,-0.12109375,-0.033203125,356.0111111111111,356.0,356.0444444444444
3250312.0,,,,,,,,-1.2578125,0.671875,-1.6796875,0.228515625,-0.12109375,-0.033203125,356.0111111111111,356.0,356.0444444444444
3250313.0,,,,,,,,-1.2578125,0.671875,-1.6796875,0.3515625,0.078125,-0.2265625,356.0111111111111,356.0,356.0444444444444
3250314.0,,,,,,,,-1.2578125,0.671875,-1.6796875,0.3515625,0.078125,-0.2265625,356.0111111111111,356.0,356.0444444444444
3250315.0,,,,,,,,-1.2578125,0.671875,-1.6796875,0.34765625,-0.302734375,0.2421875,356.0111111111111,356.0,356.0444444444444
3250316.0,,,,,,,,0.1328125,3.8984375,-1.04296875,0.34765625,-0.302734375,0.2421875,356.0111111111111,356.0,356.0444444444444
3250317.0,,,,,,,,0.1328125,3.8984375,-1.04296875,0.34765625,-0.302734375,0.2421875,356.0111111111111,356.0,356.0444444444444
3250318.0,,,,,,,,0.1328125,3.8984375,-1.04296875,0.458984375,0.2734375,-0.173828125,356.0111111111111,356.0,356.0444444444444
3250319.0,,,,,,,,0.1328125,3.8984375,-1.04296875,0.458984375,0.2734375,-0.173828125,356.0111111111111,356.0,356.0444444444444
3250320.0,36.013586499999995,129.3197516666667,103.82069968336053,131.6537535852157,1.2000000000000002,147.0,,0.1328125,3.8984375,-1.04296875,0.490234375,-0.099609375,0.123046875,356.0111111111111,356.0,356.0444444444444
3250321.0,,,,,,,,0.1328125,3.8984375,-1.04296875,0.490234375,-0.099609375,0.123046875,356.0111111111111,356.0,356.0444444444444
3250322.0,,,,,,,,0.1328125,3.8984375,-1.04296875,0.47265625,0.111328125,-0.064453125,356.0111111111111,356.0,356.0444444444444
3250323.0,,,,,,,,0.1328125,3.8984375,-1.04296875,0.47265625,0.111328125,-0.064453125,356.0111111111111,356.0,356.0444444444444
3250324.0,,,,,,,,0.1328125,3.8984375,-1.04296875,0.306640625,0.302734375,-0.45703125,356.0111111111111,356.0,356.0444444444444
3250325.0,,,,,,,,0.1328125,3.8984375,-1.04296875,0.306640625,0.302734375,-0.45703125,356.0111111111111,356.0,356.0444444444444
3250326.0,,,,,,,,0.1328125,3.8984375,-1.04296875,0.283203125,0.1875,-0.27734375,356.0111111111111,356.0,356.0444444444444
3250327.0,,,,,,,,0.1328125,3.8984375,-1.04296875,0.283203125,0.1875,-0.27734375,356.0111111111111,356.0,356.0444444444444
3250328.0,,,,,,,,0.1328125,3.8984375,-1.04296875,0.021484375,0.095703125,-0.521484375,356.0111111111111,356.0,356.0444444444444
3250329.0,,,,,,,,0.1328125,3.8984375,-1.04296875,0.021484375,0.095703125,-0.521484375,356.0111111111111,356.0,356.0444444444444
3250330.0,36.013585166666665,129.31975300000002,103.94089905890496,131.5058093364517,1.5,145.0,,0.1328125,3.8984375,-1.04296875,0.017578125,0.447265625,0.052734375,356.0111111111111,356.0,356.0444444444444
3250331.0,,,,,,,,1.171875,0.890625,-1.04296875,0.017578125,0.447265625,0.052734375,356.0111111111111,356.0,356.0444444444444
3250332.0,,,,,,,,1.171875,0.890625,-1.04296875,0.017578125,0.447265625,0.052734375,356.0111111111111,356.0,356.0444444444444
3250333.0,,,,,,,,1.171875,0.890625,-1.04296875,-0.3515625,0.12109375,-0.314453125,356.0111111111111,356.0,356.0444444444444
3250334.0,,,,,,,,1.171875,0.890625,-1.04296875,-0.3515625,0.12109375,-0.314453125,356.0111111111111,356.0,356.0444444444444
3250335.0,,,,,,,,1.171875,0.890625,-1.04296875,-0.513671875,0.158203125,-0.115234375,356.0111111111111,356.0,356.0444444444444
3250336.0,,,,,,,,1.171875,0.890625,-1.04296875,-0.513671875,0.158203125,-0.115234375,356.0111111111111,356.0,356.0444444444444
3250337.0,,,,,,,,1.171875,0.890625,-1.04296875,-0.513671875,0.224609375,0.21484375,356.0111111111111,356.0,356.0444444444444
3250338.0,,,,,,,,1.171875,0.890625,-1.04296875,-0.513671875,0.224609375,0.21484375,356.0111111111111,356.0,356.0444444444444
3250339.0,,,,,,,,1.171875,0.890625,-1.04296875,-0.720703125,0.27734375,0.294921875,356.0111111111111,356.0,356.0444444444444
3250340.0,36.01358416666667,129.31975416666668,104.04607329809897,131.3948513299581,1.5,144.0,,1.171875,0.890625,-1.04296875,-0.720703125,0.27734375,0.294921875,356.0111111111111,356.0,356.0444444444444
3250341.0,,,,,,,,1.171875,0.890625,-1.04296875,-0.48828125,0.248046875,0.34375,356.0111111111111,356.0,356.0444444444444
3250342.0,,,,,,,,1.171875,0.890625,-1.04296875,-0.48828125,0.248046875,0.34375,356.0111111111111,356.0,356.0444444444444
3250343.0,,,,,,,,1.171875,0.890625,-1.04296875,-0.033203125,0.25,0.88671875,356.0111111111111,356.0,356.0444444444444
3250344.0,,,,,,,,1.171875,0.890625,-1.04296875,-0.033203125,0.25,0.88671875,356.0111111111111,356.0,356.0444444444444
3250345.0,,,,,,,,1.171875,0.890625,-1.04296875,-0.29296875,0.400390625,0.357421875,356.0111111111111,356.0,356.0444444444444
3250346.0,,,,,,,,-2.74609375,-5.984375,3.60546875,-0.29296875,0.400390625,0.357421875,356.0111111111111,356.0,356.0444444444444
3250347.0,,,,,,,,-2.74609375,-5.984375,3.60546875,-0.29296875,0.400390625,0.357421875,356.0111111111111,356.0,356.0444444444444
3250348.0,,,,,,,,-2.74609375,-5.984375,3.60546875,-0.33984375,0.18359375,0.96875,356.0111111111111,356.0,356.0444444444444
3250349.0,,,,,,,,-2.74609375,-5.984375,3.60546875,-0.33984375,0.18359375,0.96875,356.0111111111111,356.0,356.0444444444444
3250350.0,36.01358333333334,129.319755,104.12119791116707,131.3023861761841,1.4000000000000001,143.0,,-2.74609375,-5.984375,3.60546875,-0.474609375,0.275390625,0.4921875,356.0111111111111,356.0,356.0444444444444
3250351.0,,,,,,,,-2.74609375,-5.984375,3.60546875,-0.474609375,0.275390625,0.4921875,356.0111111111111,356.0,356.0444444444444
3250352.0,,,,,,,,-2.74609375,-5.984375,3.60546875,-0.349609375,0.15625,0.076171875,356.0111111111111,356.0,356.0444444444444
3250353.0,,,,,,,,-2.74609375,-5.984375,3.60546875,-0.349609375,0.15625,0.076171875,356.0111111111111,356.0,356.0444444444444
3250354.0,,,,,,,,-2.74609375,-5.984375,3.60546875,-0.16796875,0.01953125,-0.046875,356.0111111111111,356.0,356.0444444444444
3250355.0,,,,,,,,-2.74609375,-5.984375,3.60546875,-0.16796875,0.01953125,-0.046875,356.0111111111111,356.0,356.0444444444444
3250356.0,,,,,,,,-2.74609375,-5.984375,3.60546875,-0.146484375,-0.052734375,0.216796875,356.0111111111111,356.0,356.0444444444444
3250357.0,,,,,,,,-2.74609375,-5.984375,3.60546875,-0.146484375,-0.052734375,0.216796875,356.0111111111111,356.0,356.0444444444444
3250358.0,,,,,,,,-2.74609375,-5.984375,3.60546875,0.052734375,0.033203125,-0.3125,356.0111111111111,356.0,356.0444444444444
3250359.0,,,,,,,,-2.74609375,-5.984375,3.60546875,0.052734375,0.033203125,-0.3125,356.0111111111111,356.0,356.0444444444444
3250360.0,36.0135825,129.31975633333334,104.2413966414815,131.20992155730423,1.4000000000000001,139.0,,-2.74609375,-5.984375,3.60546875,0.123046875,0.078125,-0.33203125,356.0111111111111,356.0,356.0444444444444
3250361.0,,,,,,,,0.8203125,3.828125,-1.00390625,0.123046875,0.078125,-0.33203125,356.0111111111111,356.0,356.0444444444444
3250362.0,,,,,,,,0.8203125,3.828125,-1.00390625,0.123046875,0.078125,-0.33203125,356.0111111111111,356.0,356.0444444444444
3250363.0,,,,,,,,0.8203125,3.828125,-1.00390625,-0.005859375,-0.361328125,-0.07421875,356.0111111111111,356.0,356.0444444444444
3250364.0,,,,,,,,0.8203125,3.828125,-1.00390625,-0.005859375,-0.361328125,-0.07421875,356.0111111111111,356.0,356.0444444444444
3250365.0,,,,,,,,0.8203125,3.828125,-1.00390625,-0.220703125,-0.5,-0.123046875,356.0111111111111,356.0,356.0444444444444
3250366.0,,,,,,,,0.8203125,3.828125,-1.00390625,-0.220703125,-0.5,-0.123046875,356.0111111111111,356.0,356.0444444444444
3250367.0,,,,,,,,0.8203125,3.828125,-1.00390625,0.005859375,0.009765625,-0.205078125,356.0111111111111,356.0,356.0444444444444
3250368.0,,,,,,,,0.8203125,3.828125,-1.00390625,0.005859375,0.009765625,-0.205078125,356.0111111111111,356.0,356.0444444444444
3250369.0,,,,,,,,0.8203125,3.828125,-1.00390625,-0.22265625,-0.287109375,-0.17578125,356.0111111111111,356.0,356.0444444444444
3250370.0,36.013582166666666,129.3197565,104.2564217841585,131.172935317958,1.0,140.0,,0.8203125,3.828125,-1.00390625,-0.22265625,-0.287109375,-0.17578125,356.0111111111111,356.0,356.0444444444444
3250371.0,,,,,,,,0.8203125,3.828125,-1.00390625,-0.537109375,-0.36328125,-0.26171875,356.0111111111111,356.0,356.0444444444444
3250372.0,,,,,,,,0.8203125,3.828125,-1.00390625,-0.537109375,-0.36328125,-0.26171875,356.0111111111111,356.0,356.0444444444444
3250373.0,,,,,,,,0.8203125,3.828125,-1.00390625,0.271484375,0.13671875,-0.08203125,356.0111111111111,356.0,356.0444444444444
3250374.0,,,,,,,,0.8203125,3.828125,-1.00390625,0.271484375,0.13671875,-0.08203125,356.0111111111111,356.0,356.0444444444444
3250375.0,,,,,,,,0.8203125,3.828125,-1.00390625,-0.236328125,-0.11328125,-0.251953125,356.0111111111111,356.0,356.0444444444444
3250376.0,,,,,,,,-1.375,0.84765625,-1.00390625,-0.236328125,-0.11328125,-0.251953125,356.0111111111111,356.0,356.0444444444444
3250377.0,,,,,,,,-1.375,0.84765625,-1.00390625,-0.236328125,-0.11328125,-0.251953125,356.0111111111111,356.0,356.0444444444444
3250378.0,,,,,,,,-1.375,0.84765625,-1.00390625,-0.16015625,-0.107421875,-0.26953125,356.0111111111111,356.0,356.0444444444444
3250379.0,,,,,,,,-1.375,0.84765625,-1.00390625,-0.16015625,-0.107421875,-0.26953125,356.0111111111111,356.0,356.0444444444444
3250380.0,36.013580499999996,129.31975849999998,104.43672042874552,130.9880053720644,1.2000000000000002,139.0,,-1.375,0.84765625,-1.00390625,-0.201171875,-0.11328125,-0.1796875,356.0111111111111,356.0,356.0444444444444
3250381.0,,,,,,,,-1.375,0.84765625,-1.00390625,-0.201171875,-0.11328125,-0.1796875,356.0111111111111,356.0,356.0444444444444
3250382.0,,,,,,,,-1.375,0.84765625,-1.00390625,-0.234375,0.013671875,-0.154296875,356.0111111111111,356.0,356.0444444444444
3250383.0,,,,,,,,-1.375,0.84765625,-1.00390625,-0.234375,0.013671875,-0.154296875,356.0111111111111,356.0,356.0444444444444
3250384.0,,,,,,,,-1.375,0.84765625,-1.00390625,0.185546875,-0.25390625,0.1796875,356.0111111111111,356.0,356.0444444444444
3250385.0,,,,,,,,-1.375,0.84765625,-1.00390625,0.185546875,-0.25390625,0.1796875,356.0111111111111,356.0,356.0444444444444
3250386.0,,,,,,,,-1.375,0.84765625,-1.00390625,0.001953125,-0.1953125,0.20703125,356.0111111111111,356.0,356.0444444444444
3250387.0,,,,,,,,-1.375,0.84765625,-1.00390625,0.001953125,-0.1953125,0.20703125,356.0111111111111,356.0,356.0444444444444
3250388.0,,,,,,,,-1.375,0.84765625,-1.00390625,-0.68359375,-0.505859375,0.072265625,356.0111111111111,356.0,356.0444444444444
3250389.0,,,,,,,,-1.375,0.84765625,-1.00390625,-0.68359375,-0.505859375,0.072265625,356.0111111111111,356.0,356.0444444444444
3250390.0,36.01357933333334,129.319759,104.48179608491013,130.8585534484779,1.2000000000000002,144.0,,-1.375,0.84765625,-1.00390625,-0.015625,-0.140625,0.8359375,356.0111111111111,356.0,356.0444444444444
3250391.0,,,,,,,,2.9140625,-6.97265625,3.1796875,-0.015625,-0.140625,0.8359375,356.0111111111111,356.0,356.0444444444444
3250392.0,,,,,,,,2.9140625,-6.97265625,3.1796875,-0.015625,-0.140625,0.8359375,356.0111111111111,356.0,356.0444444444444
3250393.0,,,,,,,,2.9140625,-6.97265625,3.1796875,0.431640625,-0.01171875,0.76953125,356.0111111111111,356.0,356.0444444444444
3250394.0,,,,,,,,2.9140625,-6.97265625,3.1796875,0.431640625,-0.01171875,0.76953125,356.0111111111111,356.0,356.0444444444444
3250395.0,,,,,,,,2.9140625,-6.97265625,3.1796875,0.56640625,-0.279296875,0.2265625,356.0111111111111,356.0,356.0444444444444
3250396.0,,,,,,,,2.9140625,-6.97265625,3.1796875,0.56640625,-0.279296875,0.2265625,356.0111111111111,356.0,356.0444444444444
3250397.0,,,,,,,,2.9140625,-6.97265625,3.1796875,0.40234375,-0.36328125,0.16796875,356.0111111111111,356.0,356.0444444444444
3250398.0,,,,,,,,2.9140625,-6.97265625,3.1796875,0.40234375,-0.36328125,0.16796875,356.0111111111111,356.0,356.0444444444444
3250399.0,,,,,,,,2.9140625,-6.97265625,3.1796875,0.205078125,-0.177734375,-0.431640625,356.0111111111111,356.0,356.0444444444444
3250400.0,36.01357766666667,129.31976,104.57194651414223,130.67362243363826,1.1,146.0,166.0,2.9140625,-6.97265625,3.1796875,0.205078125,-0.177734375,-0.431640625,356.0111111111111,356.0,356.0444444444444
3250401.0,,,,,,,,2.9140625,-6.97265625,3.1796875,0.205078125,-0.177734375,-0.431640625,356.0111111111111,356.0,356.0444444444444
3250402.0,,,,,,,,2.9140625,-6.97265625,3.1796875,0.205078125,-0.177734375,-0.431640625,356.0111111111111,356.0,356.0444444444444
3250403.0,,,,,,,,2.9140625,-6.97265625,3.1796875,0.4765625,-0.142578125,-0.1328125,356.0111111111111,356.0,356.0444444444444
3250404.0,,,,,,,,2.9140625,-6.97265625,3.1796875,0.4765625,-0.142578125,-0.1328125,356.0111111111111,356.0,356.0444444444444
3250405.0,,,,,,,,2.9140625,-6.97265625,3.1796875,-0.1015625,0.173828125,-0.5546875,356.0111111111111,356.0,356.0444444444444
3250406.0,,,,,,,,1.48828125,1.4296875,-0.5078125,-0.1015625,0.173828125,-0.5546875,356.0111111111111,356.0,356.0444444444444
3250407.0,,,,,,,,1.48828125,1.4296875,-0.5078125,-0.1015625,0.173828125,-0.5546875,356.0111111111111,356.0,356.0444444444444
3250408.0,,,,,,,,1.48828125,1.4296875,-0.5078125,-0.373046875,0.126953125,-0.51171875,356.0111111111111,356.0,356.0444444444444
3250409.0,,,,,,,,1.48828125,1.4296875,-0.5078125,-0.373046875,0.126953125,-0.51171875,356.0111111111111,356.0,356.0444444444444
3250410.0,36.0135755,129.31976166666666,104.72219642914271,130.43321250922813,1.4000000000000001,145.0,,1.48828125,1.4296875,-0.5078125,-0.474609375,0.37890625,-0.044921875,356.0111111111111,356.0,356.0444444444444
3250411.0,,,,,,,,1.48828125,1.4296875,-0.5078125,-0.474609375,0.37890625,-0.044921875,356.0111111111111,356.0,356.0444444444444
3250412.0,,,,,,,,1.48828125,1.4296875,-0.5078125,-0.57421875,0.279296875,-0.009765625,356.0111111111111,356.0,356.0444444444444
3250413.0,,,,,,,,1.48828125,1.4296875,-0.5078125,-0.57421875,0.279296875,-0.009765625,356.0111111111111,356.0,356.0444444444444
3250414.0,,,,,,,,1.48828125,1.4296875,-0.5078125,-0.5390625,0.220703125,0.2578125,356.0111111111111,356.0,356.0444444444444
3250415.0,,,,,,,,1.48828125,1.4296875,-0.5078125,-0.5390625,0.220703125,0.2578125,356.0111111111111,356.0,356.0444444444444
3250416.0,,,,,,,,1.48828125,1.4296875,-0.5078125,-1.099609375,0.38671875,0.19921875,356.0111111111111,356.0,356.0444444444444
3250417.0,,,,,,,,1.48828125,1.4296875,-0.5078125,-1.099609375,0.38671875,0.19921875,356.0111111111111,356.0,356.0444444444444
3250418.0,,,,,,,,1.48828125,1.4296875,-0.5078125,-0.4765625,0.10546875,0.572265625,356.0111111111111,356.0,356.0444444444444
3250419.0,,,,,,,,1.48828125,1.4296875,-0.5078125,-0.4765625,0.10546875,0.572265625,356.0111111111111,356.0,356.0444444444444
3250420.0,36.01357483333334,129.31976283333333,104.82737024973748,130.35924092902798,1.4000000000000001,143.0,,1.48828125,1.4296875,-0.5078125,-0.4296875,0.4765625,0.513671875,356.0111111111111,356.0,356.0444444444444
3250421.0,,,,,,,,-4.1640625,-7.92578125,4.48828125,-0.4296875,0.4765625,0.513671875,356.0111111111111,356.0,356.0444444444444
3250422.0,,,,,,,,-4.1640625,-7.92578125,4.48828125,-0.4296875,0.4765625,0.513671875,356.0111111111111,356.0,356.0444444444444
3250423.0,,,,,,,,-4.1640625,-7.92578125,4.48828125,-0.65625,0.130859375,1.359375,356.0111111111111,356.0,356.0444444444444
3250424.0,,,,,,,,-4.1640625,-7.92578125,4.48828125,-0.65625,0.130859375,1.359375,356.0,356.0,356.0444444444444
3250425.0,,,,,,,,-4.1640625,-7.92578125,4.48828125,-0.46875,0.2265625,0.6875,356.0,356.0,356.0444444444444
3250426.0,,,,,,,,-4.1640625,-7.92578125,4.48828125,-0.46875,0.2265625,0.6875,356.0,356.0,356.0444444444444
3250427.0,,,,,,,,-4.1640625,-7.92578125,4.48828125,-0.501953125,0.267578125,0.00390625,356.0,356.0,356.0444444444444
3250428.0,,,,,,,,-4.1640625,-7.92578125,4.48828125,-0.501953125,0.267578125,0.00390625,356.0,356.0,356.0444444444444
3250429.0,,,,,,,,-4.1640625,-7.92578125,4.48828125,-0.21875,0.134765625,-0.123046875,356.0,356.0,356.0444444444444
3250430.0,36.013574166666665,129.31976350000002,104.8874699557381,130.28526881119535,1.2000000000000002,141.0,,-4.1640625,-7.92578125,4.48828125,-0.21875,0.134765625,-0.123046875,356.0,356.0,356.0444444444444
3250431.0,,,,,,,,-4.1640625,-7.92578125,4.48828125,0.173828125,-0.080078125,-0.32421875,356.0,356.0,356.0444444444444
3250432.0,,,,,,,,-4.1640625,-7.92578125,4.48828125,0.173828125,-0.080078125,-0.32421875,356.0,356.0,356.0444444444444
3250433.0,,,,,,,,-4.1640625,-7.92578125,4.48828125,-0.16015625,-0.109375,0.078125,356.0,356.0,356.0444444444444
3250434.0,,,,,,,,-4.1640625,-7.92578125,4.48828125,-0.16015625,-0.109375,0.078125,356.0,356.0,356.0444444444444
3250435.0,,,,,,,,-4.1640625,-7.92578125,4.48828125,0.04296875,-0.173828125,-0.359375,356.0,356.0,356.0444444444444
3250436.0,,,,,,,,1.37109375,3.72265625,-0.921875,0.04296875,-0.173828125,-0.359375,356.0,356.0,356.0444444444444
3250437.0,,,,,,,,1.37109375,3.72265625,-0.921875,0.04296875,-0.173828125,-0.359375,356.0,356.0,356.0444444444444
3250438.0,,,,,,,,1.37109375,3.72265625,-0.921875,0.1171875,-0.4921875,-0.291015625,356.0,356.0,356.0444444444444
3250439.0,,,,,,,,1.37109375,3.72265625,-0.921875,0.1171875,-0.4921875,-0.291015625,356.0111111111111,356.0,356.0444444444444
3250440.0,36.013572999999994,129.31976466666669,104.99264444231304,130.1558176051277,1.4000000000000001,140.0,,1.37109375,3.72265625,-0.921875,0.140625,-0.1875,-0.318359375,356.0111111111111,356.0,356.0444444444444
3250441.0,,,,,,,,1.37109375,3.72265625,-0.921875,0.140625,-0.1875,-0.318359375,356.0111111111111,356.0,356.0444444444444
3250442.0,,,,,,,,1.37109375,3.72265625,-0.921875,-0.376953125,-0.5703125,-0.087890625,356.0111111111111,356.0,356.0444444444444
3250443.0,,,,,,,,1.37109375,3.72265625,-0.921875,-0.376953125,-0.5703125,-0.087890625,356.0111111111111,356.0,356.0444444444444
3250444.0,,,,,,,,1.37109375,3.72265625,-0.921875,0.03515625,0.11328125,-0.240234375,356.0111111111111,356.0,356.0444444444444
3250445.0,,,,,,,,1.37109375,3.72265625,-0.921875,0.03515625,0.11328125,-0.240234375,356.0111111111111,356.0,356.0444444444444
3250446.0,,,,,,,,1.37109375,3.72265625,-0.921875,-0.369140625,-0.46484375,-0.36328125,356.0111111111111,356.0,356.0444444444444
3250447.0,,,,,,,,1.37109375,3.72265625,-0.921875,-0.369140625,-0.46484375,-0.36328125,356.0111111111111,356.0,356.0444444444444
3250448.0,,,,,,,,1.37109375,3.72265625,-0.921875,0.046875,0.001953125,-0.181640625,356.0111111111111,356.0,356.0444444444444
3250449.0,,,,,,,,1.37109375,3.72265625,-0.921875,0.046875,0.001953125,-0.181640625,356.0111111111111,356.0,356.0444444444444
3250450.0,36.01357183333334,129.31976583333332,105.09781892948145,130.02636640375167,1.6,141.0,,1.37109375,3.72265625,-0.921875,-0.265625,-0.21484375,-0.140625,356.0111111111111,356.0,356.0444444444444
3250451.0,,,,,,,,-0.7109375,0.6484375,-0.84765625,-0.265625,-0.21484375,-0.140625,356.0111111111111,356.0,356.0444444444444
3250452.0,,,,,,,,-0.7109375,0.6484375,-0.84765625,-0.265625,-0.21484375,-0.140625,356.0111111111111,356.0,356.0444444444444
3250453.0,,,,,,,,-0.7109375,0.6484375,-0.84765625,-0.236328125,-0.14453125,-0.20703125,356.0111111111111,356.0,356.0444444444444
3250454.0,,,,,,,,-0.7109375,0.6484375,-0.84765625,-0.236328125,-0.14453125,-0.20703125,356.0111111111111,356.0,356.0444444444444
3250455.0,,,,,,,,-0.7109375,0.6484375,-0.84765625,-0.12890625,-0.18359375,-0.3515625,356.0111111111111,356.0,356.0444444444444
3250456.0,,,,,,,,-0.7109375,0.6484375,-0.84765625,-0.12890625,-0.18359375,-0.3515625,356.0111111111111,356.0,356.0444444444444
3250457.0,,,,,,,,-0.7109375,0.6484375,-0.84765625,-0.056640625,-0.333984375,-0.291015625,356.0111111111111,356.0,356.0444444444444
3250458.0,,,,,,,,-0.7109375,0.6484375,-0.84765625,-0.056640625,-0.333984375,-0.291015625,356.0111111111111,356.0,356.0444444444444
3250459.0,,,,,,,,-0.7109375,0.6484375,-0.84765625,0.037109375,-0.419921875,-0.013671875,356.0111111111111,356.0,356.0444444444444
3250460.0,36.01357083333333,129.31976733333335,105.23304261502638,129.9154087696353,1.6,142.0,,-0.7109375,0.6484375,-0.84765625,0.037109375,-0.419921875,-0.013671875,356.0111111111111,356.0,356.0444444444444
3250461.0,,,,,,,,-0.7109375,0.6484375,-0.84765625,-0.38671875,-0.55859375,0.015625,356.0111111111111,356.0,356.0444444444444
3250462.0,,,,,,,,-0.7109375,0.6484375,-0.84765625,-0.38671875,-0.55859375,0.015625,356.0111111111111,356.0,356.0444444444444
3250463.0,,,,,,,,-0.7109375,0.6484375,-0.84765625,-0.353515625,-0.626953125,-0.01171875,356.0111111111111,356.0,356.0444444444444
3250464.0,,,,,,,,-0.7109375,0.6484375,-0.84765625,-0.353515625,-0.626953125,-0.01171875,356.0111111111111,356.0,356.0444444444444
3250465.0,,,,,,,,-0.7109375,0.6484375,-0.84765625,0.5,0.03125,0.064453125,356.0111111111111,356.0,356.0444444444444
3250466.0,,,,,,,,2.140625,-5.92578125,1.3984375,0.5,0.03125,0.064453125,356.0111111111111,356.0,356.0444444444444
3250467.0,,,,,,,,2.140625,-5.92578125,1.3984375,0.5,0.03125,0.064453125,356.0111111111111,356.0,356.0444444444444
3250468.0,,,,,,,,2.140625,-5.92578125,1.3984375,-0.001953125,-0.728515625,-0.302734375,356.0111111111111,356.0,356.0444444444444
3250469.0,,,,,,,,2.140625,-5.92578125,1.3984375,-0.001953125,-0.728515625,-0.302734375,356.0111111111111,356.0,356.0444444444444
3250470.0,36.013569833333335,129.31976816666665,105.30816747518034,129.8044504175821,1.5,144.0,,2.140625,-5.92578125,1.3984375,0.708984375,-0.1015625,0.525390625,356.0111111111111,356.0,356.0444444444444
3250471.0,,,,,,,,2.140625,-5.92578125,1.3984375,0.708984375,-0.1015625,0.525390625,356.0111111111111,356.0,356.0444444444444
3250472.0,,,,,,,,2.140625,-5.92578125,1.3984375,0.8125,-0.15625,0.271484375,356.0111111111111,356.0,356.0444444444444
3250473.0,,,,,,,,2.140625,-5.92578125,1.3984375,0.8125,-0.15625,0.271484375,356.0111111111111,356.0,356.0444444444444
3250474.0,,,,,,,,2.140625,-5.92578125,1.3984375,0.6640625,-0.2421875,-0.126953125,356.0111111111111,356.0,356.0444444444444
3250475.0,,,,,,,,2.140625,-5.92578125,1.3984375,0.6640625,-0.2421875,-0.126953125,356.0111111111111,356.0,356.0444444444444
3250476.0,,,,,,,,2.140625,-5.92578125,1.3984375,0.517578125,-0.474609375,0.06640625,356.0111111111111,356.0,356.0444444444444
3250477.0,,,,,,,,2.140625,-5.92578125,1.3984375,0.517578125,-0.474609375,0.06640625,356.0111111111111,356.0,356.0444444444444
3250478.0,,,,,,,,2.140625,-5.92578125,1.3984375,0.556640625,0.109375,-0.490234375,356.0111111111111,356.0,356.0444444444444
3250479.0,,,,,,,,2.140625,-5.92578125,1.3984375,0.556640625,0.109375,-0.490234375,356.0111111111111,356.0,356.0444444444444
3250480.0,36.0135685,129.3197685,105.33821866340374,129.6565051084423,1.5,149.0,,2.140625,-5.92578125,1.3984375,0.59765625,0.033203125,-0.21875,356.0111111111111,356.0,356.0444444444444
3250481.0,,,,,,,,0.22265625,3.76171875,-1.359375,0.59765625,0.033203125,-0.21875,356.0111111111111,356.0,356.0444444444444
3250482.0,,,,,,,,0.22265625,3.76171875,-1.359375,0.59765625,0.033203125,-0.21875,356.0111111111111,356.0,356.0444444444444
3250483.0,,,,,,,,0.22265625,3.76171875,-1.359375,0.677734375,0.455078125,-0.591796875,356.0111111111111,356.0,356.0444444444444
3250484.0,,,,,,,,0.22265625,3.76171875,-1.359375,0.677734375,0.455078125,-0.591796875,356.0111111111111,356.0,356.0444444444444
3250485.0,,,,,,,,0.22265625,3.76171875,-1.359375,0.666015625,0.306640625,-0.302734375,356.0111111111111,356.0,356.0444444444444
3250486.0,,,,,,,,0.22265625,3.76171875,-1.359375,0.666015625,0.306640625,-0.302734375,356.0111111111111,356.0,356.0444444444444
3250487.0,,,,,,,,0.22265625,3.76171875,-1.359375,0.76953125,0.3828125,-0.169921875,356.0111111111111,356.0,356.0444444444444
3250488.0,,,,,,,,0.22265625,3.76171875,-1.359375,0.76953125,0.3828125,-0.169921875,356.0111111111111,356.0,356.0444444444444
3250489.0,,,,,,,,0.22265625,3.76171875,-1.359375,0.484375,0.001953125,0.1171875,356.0111111111111,356.0,356.0444444444444
3250490.0,36.013567333333334,129.31976916666665,105.39831904014308,129.52705336887882,1.4000000000000001,151.0,,0.22265625,3.76171875,-1.359375,0.484375,0.001953125,0.1171875,356.0111111111111,356.0,356.0444444444444
3250491.0,,,,,,,,0.22265625,3.76171875,-1.359375,0.486328125,0.390625,-0.255859375,356.0111111111111,356.0,356.0444444444444
3250492.0,,,,,,,,0.22265625,3.76171875,-1.359375,0.486328125,0.390625,-0.255859375,356.0111111111111,356.0,356.0444444444444
3250493.0,,,,,,,,0.22265625,3.76171875,-1.359375,0.32421875,0.34765625,-0.32421875,356.0111111111111,356.0,356.0444444444444
3250494.0,,,,,,,,0.22265625,3.76171875,-1.359375,0.32421875,0.34765625,-0.32421875,356.0111111111111,356.0,356.0444444444444
3250495.0,,,,,,,,0.22265625,3.76171875,-1.359375,0.244140625,0.27734375,-0.275390625,356.0111111111111,356.0,356.0444444444444
3250496.0,,,,,,,,2.20703125,1.52734375,-1.65625,0.244140625,0.27734375,-0.275390625,356.0111111111111,356.0,356.0444444444444
3250497.0,,,,,,,,2.20703125,1.52734375,-1.65625,0.244140625,0.27734375,-0.275390625,356.0111111111111,356.0,356.0444444444444
3250498.0,,,,,,,,2.20703125,1.52734375,-1.65625,0.244140625,0.27734375,-0.275390625,356.0111111111111,356.0,356.0444444444444
3250499.0,,,,,,,,2.20703125,1.52734375,-1.65625,-0.02734375,0.1953125,-0.509765625,356.0111111111111,356.0,356.0444444444444
3250500.0,36.013564833333334,129.31977166666667,105.623692981506,129.2496579444235,1.8,141.0,166.0,2.20703125,1.52734375,-1.65625,-0.02734375,0.1953125,-0.509765625,356.0111111111111,356.0,356.0444444444444
3250501.0,,,,,,,,2.20703125,1.52734375,-1.65625,-0.02734375,0.1953125,-0.509765625,356.0111111111111,356.0,356.0444444444444
3250502.0,,,,,,,,2.20703125,1.52734375,-1.65625,-0.02734375,0.1953125,-0.509765625,356.0111111111111,356.0,356.0444444444444
3250503.0,,,,,,,,2.20703125,1.52734375,-1.65625,-0.19140625,0.337890625,0.203125,356.0111111111111,356.0,356.0444444444444
3250504.0,,,,,,,,2.20703125,1.52734375,-1.65625,-0.19140625,0.337890625,0.203125,356.0111111111111,356.0,356.0444444444444
3250505.0,,,,,,,,2.20703125,1.52734375,-1.65625,-0.810546875,0.07421875,0.052734375,356.0111111111111,356.0,356.0444444444444
3250506.0,,,,,,,,-0.32421875,-1.703125,1.375,-0.810546875,0.07421875,0.052734375,356.0111111111111,356.0,356.0444444444444
3250507.0,,,,,,,,-0.32421875,-1.703125,1.375,-0.810546875,0.07421875,0.052734375,356.0111111111111,356.0,356.0444444444444
3250508.0,,,,,,,,-0.32421875,-1.703125,1.375,-0.380859375,-0.078125,0.052734375,356.0111111111111,356.0,356.0444444444444
3250509.0,,,,,,,,-0.32421875,-1.703125,1.375,-0.380859375,-0.078125,0.052734375,356.0111111111111,356.0,356.0444444444444
3250510.0,36.01356216666667,129.31977466666666,105.89414128222276,128.95376986239324,1.9000000000000001,137.0,,-0.32421875,-1.703125,1.375,-0.103515625,-0.044921875,-0.130859375,356.0111111111111,356.0,356.0444444444444
3250511.0,,,,,,,,-0.32421875,-1.703125,1.375,-0.103515625,-0.044921875,-0.130859375,356.0111111111111,356.0,356.0444444444444
3250512.0,,,,,,,,-0.32421875,-1.703125,1.375,-0.173828125,-0.181640625,-0.208984375,356.0111111111111,356.0,356.0444444444444
3250513.0,,,,,,,,-0.32421875,-1.703125,1.375,-0.173828125,-0.181640625,-0.208984375,356.0111111111111,356.0,356.0444444444444
3250514.0,,,,,,,,-0.32421875,-1.703125,1.375,0.103515625,0.17578125,-0.39453125,356.0111111111111,356.0,356.0444444444444
3250515.0,,,,,,,,-0.32421875,-1.703125,1.375,0.103515625,0.17578125,-0.39453125,356.0111111111111,356.0,356.0444444444444
3250516.0,,,,,,,,-0.32421875,-1.703125,1.375,0.060546875,0.046875,-0.30859375,356.0111111111111,356.0,356.0444444444444
3250517.0,,,,,,,,-0.32421875,-1.703125,1.375,0.060546875,0.046875,-0.30859375,356.0111111111111,356.0,356.0444444444444
3250518.0,,,,,,,,-0.32421875,-1.703125,1.375,-0.048828125,-0.255859375,-0.236328125,356.0111111111111,356.0,356.0444444444444
3250519.0,,,,,,,,-0.32421875,-1.703125,1.375,-0.048828125,-0.255859375,-0.236328125,356.0111111111111,356.0,356.0444444444444
3250520.0,36.01356116666667,129.3197756666667,105.98429087127153,128.84281169777603,1.8,136.0,,-0.32421875,-1.703125,1.375,-0.126953125,-0.271484375,-0.169921875,356.0111111111111,356.0,356.0444444444444
3250521.0,,,,,,,,-1.609375,3.29296875,-1.5625,-0.126953125,-0.271484375,-0.169921875,356.0111111111111,356.0,356.0444444444444
3250522.0,,,,,,,,-1.609375,3.29296875,-1.5625,-0.126953125,-0.271484375,-0.169921875,356.0111111111111,356.0,356.0444444444444
3250523.0,,,,,,,,-1.609375,3.29296875,-1.5625,-0.287109375,-0.396484375,-0.134765625,356.0111111111111,356.0,356.0444444444444
3250524.0,,,,,,,,-1.609375,3.29296875,-1.5625,-0.287109375,-0.396484375,-0.134765625,356.0111111111111,356.0,356.0444444444444
3250525.0,,,,,,,,-1.609375,3.29296875,-1.5625,-0.115234375,-0.173828125,-0.0703125,356.0111111111111,356.0,356.0444444444444
3250526.0,,,,,,,,-1.609375,3.29296875,-1.5625,-0.115234375,-0.173828125,-0.0703125,356.0111111111111,356.0,356.0444444444444
3250527.0,,,,,,,,-1.609375,3.29296875,-1.5625,-0.27734375,-0.099609375,-0.078125,356.0111111111111,356.0,356.0444444444444
3250528.0,,,,,,,,-1.609375,3.29296875,-1.5625,-0.27734375,-0.099609375,-0.078125,356.0111111111111,356.0,356.0444444444444
3250529.0,,,,,,,,-1.609375,3.29296875,-1.5625,-0.142578125,-0.037109375,-0.177734375,356.0111111111111,356.0,356.0444444444444
3250530.0,36.0135595,129.319778,106.19463901748811,128.65788215104772,1.5,137.0,,-1.609375,3.29296875,-1.5625,-0.142578125,-0.037109375,-0.177734375,356.0111111111111,356.0,356.0444444444444
3250531.0,,,,,,,,-1.609375,3.29296875,-1.5625,-0.255859375,0.013671875,-0.1328125,356.0111111111111,356.0,356.0444444444444
3250532.0,,,,,,,,-1.609375,3.29296875,-1.5625,-0.255859375,0.013671875,-0.1328125,356.0111111111111,356.0,356.0444444444444
3250533.0,,,,,,,,-1.609375,3.29296875,-1.5625,-0.265625,-0.03125,-0.099609375,356.0111111111111,356.0,356.0444444444444
3250534.0,,,,,,,,-1.609375,3.29296875,-1.5625,-0.265625,-0.03125,-0.099609375,356.0111111111111,356.0,356.0444444444444
3250535.0,,,,,,,,-1.609375,3.29296875,-1.5625,-0.078125,-0.115234375,0.052734375,356.0111111111111,356.0,356.0444444444444
3250536.0,,,,,,,,-1.16015625,-2.26953125,-0.6015625,-0.078125,-0.115234375,0.052734375,356.0111111111111,356.0,356.0444444444444
3250537.0,,,,,,,,-1.16015625,-2.26953125,-0.6015625,-0.078125,-0.115234375,0.052734375,356.0111111111111,356.0,356.0444444444444
3250538.0,,,,,,,,-1.16015625,-2.26953125,-0.6015625,0.04296875,-0.134765625,0.421875,356.0111111111111,356.0,356.0444444444444
3250539.0,,,,,,,,-1.16015625,-2.26953125,-0.6015625,0.04296875,-0.134765625,0.421875,356.0111111111111,356.0,356.0444444444444
3250540.0,36.01355816666667,129.31977883333332,106.26976434791412,128.509937390176,1.6,142.0,,-1.16015625,-2.26953125,-0.6015625,-0.353515625,-0.16015625,0.115234375,356.0111111111111,356.0,356.0444444444444
3250541.0,,,,,,,,-1.16015625,-2.26953125,-0.6015625,-0.353515625,-0.16015625,0.115234375,356.0111111111111,356.0,356.0444444444444
3250542.0,,,,,,,,-1.16015625,-2.26953125,-0.6015625,-0.2265625,-0.15234375,0.212890625,356.0111111111111,356.0,356.0444444444444
3250543.0,,,,,,,,-1.16015625,-2.26953125,-0.6015625,-0.2265625,-0.15234375,0.212890625,356.0111111111111,356.0,356.0444444444444
3250544.0,,,,,,,,-1.16015625,-2.26953125,-0.6015625,-0.05859375,-0.056640625,-0.044921875,356.0111111111111,356.0,356.0444444444444
3250545.0,,,,,,,,-1.16015625,-2.26953125,-0.6015625,-0.05859375,-0.056640625,-0.044921875,356.0111111111111,356.0,356.0444444444444
3250546.0,,,,,,,,-1.16015625,-2.26953125,-0.6015625,0.568359375,-0.087890625,0.9140625,356.0111111111111,356.0,356.0444444444444
3250547.0,,,,,,,,-1.16015625,-2.26953125,-0.6015625,0.568359375,-0.087890625,0.9140625,356.0111111111111,356.0,356.0444444444444
3250548.0,,,,,,,,-1.16015625,-2.26953125,-0.6015625,0.64453125,-0.146484375,0.380859375,356.0111111111111,356.0,356.0444444444444
3250549.0,,,,,,,,-1.16015625,-2.26953125,-0.6015625,0.64453125,-0.146484375,0.380859375,356.0111111111111,356.0,356.0444444444444
3250550.0,36.013557,129.3197795,106.3298647502892,128.38048565598723,1.6,145.0,,-1.16015625,-2.26953125,-0.6015625,-0.048828125,-0.310546875,0.052734375,356.0111111111111,356.0,356.0444444444444
3250551.0,,,,,,,,-1.35546875,-0.28515625,0.734375,-0.048828125,-0.310546875,0.052734375,356.0111111111111,356.0,356.0444444444444
3250552.0,,,,,,,,-1.35546875,-0.28515625,0.734375,-0.048828125,-0.310546875,0.052734375,356.0111111111111,356.0,356.0444444444444
3250553.0,,,,,,,,-1.35546875,-0.28515625,0.734375,0.177734375,-0.203125,-0.234375,356.0111111111111,356.0,356.0444444444444
3250554.0,,,,,,,,-1.35546875,-0.28515625,0.734375,0.177734375,-0.203125,-0.234375,356.0111111111111,356.0,356.0444444444444
3250555.0,,,,,,,,-1.35546875,-0.28515625,0.734375,0.205078125,0.138671875,-0.53125,356.0111111111111,356.0,356.0444444444444
3250556.0,,,,,,,,-1.35546875,-0.28515625,0.734375,0.205078125,0.138671875,-0.53125,356.0111111111111,356.0,356.0444444444444
3250557.0,,,,,,,,-1.35546875,-0.28515625,0.734375,0.373046875,0.193359375,-0.341796875,356.0111111111111,356.0,356.0444444444444
3250558.0,,,,,,,,-1.35546875,-0.28515625,0.734375,0.373046875,0.193359375,-0.341796875,356.0111111111111,356.0,356.0444444444444
3250559.0,,,,,,,,-1.35546875,-0.28515625,0.734375,0.314453125,-0.189453125,0.185546875,356.0111111111111,356.0,356.0444444444444
3250560.0,36.013556,129.31978016666665,106.38996492836647,128.2695271319833,1.4000000000000001,146.0,,-1.35546875,-0.28515625,0.734375,0.314453125,-0.189453125,0.185546875,356.0111111111111,356.0,356.0444444444444
3250561.0,,,,,,,,-1.35546875,-0.28515625,0.734375,0.412109375,-0.18359375,0.03125,356.0111111111111,356.0,356.0444444444444
3250562.0,,,,,,,,-1.35546875,-0.28515625,0.734375,0.412109375,-0.18359375,0.03125,356.0111111111111,356.0,356.0444444444444
3250563.0,,,,,,,,-1.35546875,-0.28515625,0.734375,0.447265625,0.033203125,-0.0390625,356.0111111111111,356.0,356.0444444444444
3250564.0,,,,,,,,-1.35546875,-0.28515625,0.734375,0.447265625,0.033203125,-0.0390625,356.0111111111111,356.0,356.0444444444444
3250565.0,,,,,,,,-1.35546875,-0.28515625,0.734375,0.544921875,0.353515625,-0.275390625,356.0111111111111,356.0,356.0444444444444
3250566.0,,,,,,,,2.34375,2.171875,-0.73046875,0.544921875,0.353515625,-0.275390625,356.0111111111111,356.0,356.0444444444444
3250567.0,,,,,,,,2.34375,2.171875,-0.73046875,0.544921875,0.353515625,-0.275390625,356.0111111111111,356.0,356.0444444444444
3250568.0,,,,,,,,2.34375,2.171875,-0.73046875,0.478515625,0.306640625,-0.328125,356.0111111111111,356.0,356.0444444444444
3250569.0,,,,,,,,2.34375,2.171875,-0.73046875,0.478515625,0.306640625,-0.328125,356.0111111111111,356.0,356.0444444444444
3250570.0,36.0135555,129.3197805,106.42001502053412,128.21404786950205,1.1,147.0,,2.34375,2.171875,-0.73046875,0.341796875,0.291015625,-0.306640625,356.0111111111111,356.0,356.0444444444444
3250571.0,,,,,,,,2.34375,2.171875,-0.73046875,0.341796875,0.291015625,-0.306640625,356.0111111111111,356.0,356.0444444444444
3250572.0,,,,,,,,2.34375,2.171875,-0.73046875,0.45703125,0.326171875,0.087890625,356.0111111111111,356.0,356.0444444444444
3250573.0,,,,,,,,2.34375,2.171875,-0.73046875,0.45703125,0.326171875,0.087890625,356.0111111111111,356.0,356.0444444444444
3250574.0,,,,,,,,2.34375,2.171875,-0.73046875,0.162109375,0.361328125,-0.080078125,356.0111111111111,356.0,356.0444444444444
3250575.0,,,,,,,,2.34375,2.171875,-0.73046875,0.162109375,0.361328125,-0.080078125,356.0111111111111,356.0,356.0444444444444
3250576.0,,,,,,,,2.34375,2.171875,-0.73046875,-0.0625,0.322265625,-0.11328125,356.0111111111111,356.0,356.0444444444444
3250577.0,,,,,,,,2.34375,2.171875,-0.73046875,-0.0625,0.322265625,-0.11328125,356.0111111111111,356.0,356.0444444444444
3250578.0,,,,,,,,2.34375,2.171875,-0.73046875,-0.3359375,0.189453125,-0.572265625,356.0111111111111,356.0,356.0444444444444
3250579.0,,,,,,,,2.34375,2.171875,-0.73046875,-0.3359375,0.189453125,-0.572265625,356.0111111111111,356.0,356.0444444444444
3250580.0,36.01355433333333,129.31978116666667,106.48011542713951,128.08459613738637,1.3,147.0,,2.34375,2.171875,-0.73046875,-0.447265625,0.193359375,-0.33203125,356.0111111111111,356.0,356.0444444444444
3250581.0,,,,,,,,-0.28515625,-0.83203125,-0.359375,-0.447265625,0.193359375,-0.33203125,356.0111111111111,356.0,356.0444444444444
3250582.0,,,,,,,,-0.28515625,-0.83203125,-0.359375,-0.447265625,0.193359375,-0.33203125,356.0111111111111,356.0,356.0444444444444
3250583.0,,,,,,,,-0.28515625,-0.83203125,-0.359375,-0.21875,0.19921875,0.3125,356.0111111111111,356.0,356.0444444444444
3250584.0,,,,,,,,-0.28515625,-0.83203125,-0.359375,-0.21875,0.19921875,0.3125,356.0111111111111,356.0,356.0444444444444
3250585.0,,,,,,,,-0.28515625,-0.83203125,-0.359375,-0.265625,0.1875,0.33984375,356.0111111111111,356.0,356.0444444444444
3250586.0,,,,,,,,-0.28515625,-0.83203125,-0.359375,-0.265625,0.1875,0.33984375,356.0111111111111,356.0,356.0444444444444
3250587.0,,,,,,,,-0.28515625,-0.83203125,-0.359375,-0.28125,0.125,0.361328125,356.0111111111111,356.0,356.0444444444444
3250588.0,,,,,,,,-0.28515625,-0.83203125,-0.359375,-0.28125,0.125,0.361328125,356.0111111111111,356.0,356.0444444444444
3250589.0,,,,,,,,-0.28515625,-0.83203125,-0.359375,-0.12890625,0.193359375,1.076171875,356.0111111111111,356.0,356.0444444444444
3250590.0,36.013553333333334,129.319782,106.55524031827792,127.97363779639818,1.3,146.0,,-0.28515625,-0.83203125,-0.359375,-0.12890625,0.193359375,1.076171875,356.0111111111111,356.0,356.0444444444444
3250591.0,,,,,,,,-0.28515625,-0.83203125,-0.359375,-0.251953125,0.228515625,0.30078125,356.0111111111111,356.0,356.0444444444444
3250592.0,,,,,,,,-0.28515625,-0.83203125,-0.359375,-0.251953125,0.228515625,0.30078125,356.0111111111111,356.0,356.0444444444444
3250593.0,,,,,,,,-0.28515625,-0.83203125,-0.359375,-0.25390625,0.11328125,0.599609375,356.0111111111111,356.0,356.0444444444444
3250594.0,,,,,,,,-0.28515625,-0.83203125,-0.359375,-0.25390625,0.11328125,0.599609375,356.0111111111111,356.0,356.0444444444444
3250595.0,,,,,,,,-0.28515625,-0.83203125,-0.359375,-0.41796875,0.140625,0.48046875,356.0111111111111,356.0,356.0444444444444
3250596.0,,,,,,,,-0.21484375,-0.8671875,1.34375,-0.41796875,0.140625,0.48046875,356.0111111111111,356.0,356.0444444444444
3250597.0,,,,,,,,-0.21484375,-0.8671875,1.34375,-0.41796875,0.140625,0.48046875,356.0111111111111,356.0,356.0444444444444
3250598.0,,,,,,,,-0.21484375,-0.8671875,1.34375,-0.12109375,0.029296875,-0.0703125,356.0111111111111,356.0,356.0444444444444
3250599.0,,,,,,,,-0.21484375,-0.8671875,1.34375,-0.12109375,0.029296875,-0.0703125,356.0,356.0,356.0444444444444
3250600.0,36.01355183333333,129.31978333333333,106.67544001569499,127.80720037680904,1.2000000000000002,141.0,166.0,-0.21484375,-0.8671875,1.34375,-0.08984375,-0.08984375,-0.103515625,356.0,356.0,356.0444444444444
3250601.0,,,,,,,,-0.21484375,-0.8671875,1.34375,-0.08984375,-0.08984375,-0.103515625,356.0,356.0,356.0444444444444
3250602.0,,,,,,,,-0.21484375,-0.8671875,1.34375,-0.08984375,-0.08984375,-0.103515625,356.0111111111111,356.0,356.0444444444444
3250603.0,,,,,,,,-0.21484375,-0.8671875,1.34375,-0.08984375,-0.08984375,-0.103515625,356.0111111111111,356.0,356.0444444444444
3250604.0,,,,,,,,-0.21484375,-0.8671875,1.34375,-0.08984375,-0.08984375,-0.103515625,356.0111111111111,356.0,356.0444444444444
3250605.0,,,,,,,,-0.21484375,-0.8671875,1.34375,-0.234375,-0.423828125,-0.080078125,356.0111111111111,356.0,356.0444444444444
3250606.0,,,,,,,,-0.21484375,-0.8671875,1.34375,-0.234375,-0.423828125,-0.080078125,356.0111111111111,356.0,356.0444444444444
3250607.0,,,,,,,,-0.21484375,-0.8671875,1.34375,-0.080078125,-0.291015625,-0.064453125,356.0111111111111,356.0,356.0444444444444
3250608.0,,,,,,,,-0.21484375,-0.8671875,1.34375,-0.080078125,-0.291015625,-0.064453125,356.0111111111111,356.0,356.0444444444444
3250609.0,,,,,,,,-0.21484375,-0.8671875,1.34375,0.216796875,-0.041015625,-0.146484375,356.0111111111111,356.0,356.0444444444444
3250610.0,36.01355016666666,129.319785,106.8256893626161,127.6222701160762,1.2000000000000002,138.0,,-0.21484375,-0.8671875,1.34375,0.216796875,-0.041015625,-0.146484375,356.0111111111111,356.0,356.0444444444444
3250611.0,,,,,,,,-0.21484375,-0.8671875,1.34375,0.013671875,-0.103515625,-0.2109375,356.0111111111111,356.0,356.0444444444444
3250612.0,,,,,,,,-0.21484375,-0.8671875,1.34375,0.013671875,-0.103515625,-0.2109375,356.0111111111111,356.0,356.0444444444444
3250613.0,,,,,,,,-0.21484375,-0.8671875,1.34375,-0.099609375,-0.119140625,-0.240234375,356.0111111111111,356.0,356.0444444444444
3250614.0,,,,,,,,-1.328125,-0.22265625,-1.65234375,-0.099609375,-0.119140625,-0.240234375,356.0111111111111,356.0,356.0444444444444
3250615.0,,,,,,,,-1.328125,-0.22265625,-1.65234375,-0.099609375,-0.119140625,-0.240234375,356.0111111111111,356.0,356.0444444444444
3250616.0,,,,,,,,-1.328125,-0.22265625,-1.65234375,0.0390625,-0.220703125,-0.203125,356.0111111111111,356.0,356.0444444444444
3250617.0,,,,,,,,-1.328125,-0.22265625,-1.65234375,0.0390625,-0.220703125,-0.203125,356.0111111111111,356.0,356.0444444444444
3250618.0,,,,,,,,-1.328125,-0.22265625,-1.65234375,-0.1171875,-0.158203125,-0.037109375,356.0111111111111,356.0,356.0444444444444
3250619.0,,,,,,,,-1.328125,-0.22265625,-1.65234375,-0.1171875,-0.158203125,-0.037109375,356.0111111111111,356.0,356.0444444444444
3250620.0,36.01354933333334,129.31978533333333,106.85573990905746,127.5298044393738,1.2000000000000002,144.0,,-1.328125,-0.22265625,-1.65234375,0.12109375,-0.29296875,0.427734375,356.0111111111111,356.0,356.0444444444444
3250621.0,,,,,,,,-1.328125,-0.22265625,-1.65234375,0.12109375,-0.29296875,0.427734375,356.0111111111111,356.0,356.0444444444444
3250622.0,,,,,,,,-1.328125,-0.22265625,-1.65234375,-0.7578125,-0.30078125,0.009765625,356.0111111111111,356.0,356.0444444444444
3250623.0,,,,,,,,-1.328125,-0.22265625,-1.65234375,-0.7578125,-0.30078125,0.009765625,356.0111111111111,356.0,356.0444444444444
3250624.0,,,,,,,,-1.328125,-0.22265625,-1.65234375,-0.236328125,-0.142578125,0.34375,356.0111111111111,356.0,356.0444444444444
3250625.0,,,,,,,,-1.328125,-0.22265625,-1.65234375,-0.236328125,-0.142578125,0.34375,356.0111111111111,356.0,356.0444444444444
3250626.0,,,,,,,,-1.328125,-0.22265625,-1.65234375,-0.08203125,-0.150390625,0.4765625,356.0111111111111,356.0,356.0444444444444
3250627.0,,,,,,,,-1.328125,-0.22265625,-1.65234375,-0.08203125,-0.150390625,0.4765625,356.0111111111111,356.0,356.0444444444444
3250628.0,,,,,,,,-1.328125,-0.22265625,-1.65234375,0.353515625,-0.052734375,0.94921875,356.0111111111111,356.0,356.0444444444444
3250629.0,,,,,,,,1.75390625,-3.87890625,1.83984375,0.353515625,-0.052734375,0.94921875,356.0111111111111,356.0,356.0444444444444
3250630.0,36.01354833333333,129.31978616666666,106.93086481016266,127.4188461006992,1.3,147.0,,1.75390625,-3.87890625,1.83984375,0.353515625,-0.052734375,0.94921875,356.0111111111111,356.0,356.0444444444444
3250631.0,,,,,,,,1.75390625,-3.87890625,1.83984375,0.28515625,-0.166015625,0.173828125,356.0111111111111,356.0,356.0444444444444
3250632.0,,,,,,,,1.75390625,-3.87890625,1.83984375,0.28515625,-0.166015625,0.173828125,356.0111111111111,356.0,356.0444444444444
3250633.0,,,,,,,,1.75390625,-3.87890625,1.83984375,0.23828125,-0.25,0.076171875,356.0111111111111,356.0,356.0444444444444
3250634.0,,,,,,,,1.75390625,-3.87890625,1.83984375,0.23828125,-0.25,0.076171875,356.0111111111111,356.0,356.0444444444444
3250635.0,,,,,,,,1.75390625,-3.87890625,1.83984375,0.35546875,-0.46484375,0.15625,356.0111111111111,356.0,356.0444444444444
3250636.0,,,,,,,,1.75390625,-3.87890625,1.83984375,0.35546875,-0.46484375,0.15625,356.0111111111111,356.0,356.0444444444444
3250637.0,,,,,,,,1.75390625,-3.87890625,1.83984375,0.4140625,-0.486328125,0.1875,356.0111111111111,356.0,356.0444444444444
3250638.0,,,,,,,,1.75390625,-3.87890625,1.83984375,0.4140625,-0.486328125,0.1875,356.0111111111111,356.0,356.0444444444444
3250639.0,,,,,,,,1.75390625,-3.87890625,1.83984375,0.41015625,-0.310546875,0.1015625,356.0111111111111,356.0,356.0444444444444
3250640.0,36.013547333333335,129.31978750000002,107.05106384854719,127.30788831346038,1.4000000000000001,145.0,,1.75390625,-3.87890625,1.83984375,0.41015625,-0.310546875,0.1015625,356.0111111111111,356.0,356.0444444444444
3250641.0,,,,,,,,1.75390625,-3.87890625,1.83984375,0.50390625,-0.056640625,-0.111328125,356.0111111111111,356.0,356.0444444444444
3250642.0,,,,,,,,1.75390625,-3.87890625,1.83984375,0.50390625,-0.056640625,-0.111328125,356.0111111111111,356.0,356.0444444444444
3250643.0,,,,,,,,1.75390625,-3.87890625,1.83984375,0.59765625,0.341796875,-0.484375,356.0111111111111,356.0,356.0444444444444
3250644.0,,,,,,,,0.3515625,3.8046875,-1.328125,0.59765625,0.341796875,-0.484375,356.0111111111111,356.0,356.0444444444444
3250645.0,,,,,,,,0.3515625,3.8046875,-1.328125,0.59765625,0.341796875,-0.484375,356.0111111111111,356.0,356.0444444444444
3250646.0,,,,,,,,0.3515625,3.8046875,-1.328125,0.525390625,0.2734375,-0.34375,356.0111111111111,356.0,356.0444444444444
3250647.0,,,,,,,,0.3515625,3.8046875,-1.328125,0.525390625,0.2734375,-0.34375,356.0111111111111,356.0,356.0444444444444
3250648.0,,,,,,,,0.3515625,3.8046875,-1.328125,0.42578125,0.32421875,-0.38671875,356.0111111111111,356.0,356.0444444444444
3250649.0,,,,,,,,0.3515625,3.8046875,-1.328125,0.42578125,0.32421875,-0.38671875,356.0111111111111,356.0,356.0444444444444
3250650.0,36.01354633333334,129.31978866666668,107.15623817702013,127.19693034391597,1.5,141.0,,0.3515625,3.8046875,-1.328125,0.564453125,0.03515625,0.060546875,356.0111111111111,356.0,356.0444444444444
3250651.0,,,,,,,,0.3515625,3.8046875,-1.328125,0.564453125,0.03515625,0.060546875,356.0111111111111,356.0,356.0444444444444
3250652.0,,,,,,,,0.3515625,3.8046875,-1.328125,0.533203125,0.158203125,-0.109375,356.0111111111111,356.0,356.0444444444444
3250653.0,,,,,,,,0.3515625,3.8046875,-1.328125,0.533203125,0.158203125,-0.109375,356.0111111111111,356.0,356.0444444444444
3250654.0,,,,,,,,0.3515625,3.8046875,-1.328125,0.4609375,0.1875,-0.169921875,356.0111111111111,356.0,356.0444444444444
3250655.0,,,,,,,,0.3515625,3.8046875,-1.328125,0.4609375,0.1875,-0.169921875,356.0111111111111,356.0,356.0444444444444
3250656.0,,,,,,,,0.3515625,3.8046875,-1.328125,-0.009765625,0.203125,-0.62890625,356.0111111111111,356.0,356.0444444444444
3250657.0,,,,,,,,0.3515625,3.8046875,-1.328125,-0.009765625,0.203125,-0.62890625,356.0111111111111,356.0,356.0444444444444
3250658.0,,,,,,,,0.3515625,3.8046875,-1.328125,-0.052734375,0.150390625,-0.578125,356.0111111111111,356.0,356.0444444444444
3250659.0,,,,,,,,1.22265625,0.82421875,-0.7578125,-0.052734375,0.150390625,-0.578125,356.0111111111111,356.0,356.0444444444444
3250660.0,36.01354516666667,129.31978933333332,107.21633859910227,127.06747861614194,1.5,143.0,,1.22265625,0.82421875,-0.7578125,-0.052734375,0.150390625,-0.578125,356.0111111111111,356.0,356.0444444444444
3250661.0,,,,,,,,1.22265625,0.82421875,-0.7578125,-0.1328125,0.10546875,-0.5,356.0111111111111,356.0,356.0444444444444
3250662.0,,,,,,,,1.22265625,0.82421875,-0.7578125,-0.1328125,0.10546875,-0.5,356.0111111111111,356.0,356.0444444444444
3250663.0,,,,,,,,1.22265625,0.82421875,-0.7578125,-0.208984375,0.125,-0.361328125,356.0111111111111,356.0,356.0444444444444
3250664.0,,,,,,,,1.22265625,0.82421875,-0.7578125,-0.208984375,0.125,-0.361328125,356.0111111111111,356.0,356.0444444444444
3250665.0,,,,,,,,1.22265625,0.82421875,-0.7578125,-0.32421875,0.181640625,-0.16015625,356.0111111111111,356.0,356.0444444444444
3250666.0,,,,,,,,1.22265625,0.82421875,-0.7578125,-0.32421875,0.181640625,-0.16015625,356.0111111111111,356.0,356.0444444444444
3250667.0,,,,,,,,1.22265625,0.82421875,-0.7578125,-0.734375,0.072265625,0.150390625,356.0111111111111,356.0,356.0444444444444
3250668.0,,,,,,,,1.22265625,0.82421875,-0.7578125,-0.734375,0.072265625,0.150390625,356.0111111111111,356.0,356.0444444444444
3250669.0,,,,,,,,1.22265625,0.82421875,-0.7578125,-0.669921875,0.357421875,0.291015625,356.0111111111111,356.0,356.0444444444444
3250670.0,36.013544333333336,129.3197905,107.32151270858503,126.97501385821035,1.4000000000000001,142.0,,1.22265625,0.82421875,-0.7578125,-0.669921875,0.357421875,0.291015625,356.0111111111111,356.0,356.0444444444444
3250671.0,,,,,,,,1.22265625,0.82421875,-0.7578125,-0.228515625,0.166015625,0.40625,356.0111111111111,356.0,356.0444444444444
3250672.0,,,,,,,,1.22265625,0.82421875,-0.7578125,-0.228515625,0.166015625,0.40625,356.0111111111111,356.0,356.0444444444444
3250673.0,,,,,,,,1.22265625,0.82421875,-0.7578125,-0.033203125,0.240234375,0.92578125,356.0111111111111,356.0,356.0444444444444
3250674.0,,,,,,,,-2.53125,-5.03515625,3.21484375,-0.033203125,0.240234375,0.92578125,356.0111111111111,356.0,356.0444444444444
3250675.0,,,,,,,,-2.53125,-5.03515625,3.21484375,-0.033203125,0.240234375,0.92578125,356.0111111111111,356.0,356.0444444444444
3250676.0,,,,,,,,-2.53125,-5.03515625,3.21484375,-0.55859375,0.140625,0.87890625,356.0111111111111,356.0,356.0444444444444
3250677.0,,,,,,,,-2.53125,-5.03515625,3.21484375,-0.55859375,0.140625,0.87890625,356.0111111111111,356.0,356.0444444444444
3250678.0,,,,,,,,-2.53125,-5.03515625,3.21484375,-0.39453125,0.18359375,0.677734375,356.0111111111111,356.0,356.0444444444444
3250679.0,,,,,,,,-2.53125,-5.03515625,3.21484375,-0.39453125,0.18359375,0.677734375,356.0111111111111,356.0,356.0444444444444
3250680.0,36.0135435,129.31979133333334,107.39663739427503,126.8825487320533,1.4000000000000001,143.0,,-2.53125,-5.03515625,3.21484375,-0.609375,0.197265625,0.31640625,356.0111111111111,356.0,356.0444444444444
3250681.0,,,,,,,,-2.53125,-5.03515625,3.21484375,-0.609375,0.197265625,0.31640625,356.0,356.0,356.0444444444444
3250682.0,,,,,,,,-2.53125,-5.03515625,3.21484375,-0.380859375,0.0625,0.0703125,356.0,356.0,356.0444444444444
3250683.0,,,,,,,,-2.53125,-5.03515625,3.21484375,-0.380859375,0.0625,0.0703125,356.0111111111111,356.0,356.0444444444444
3250684.0,,,,,,,,-2.53125,-5.03515625,3.21484375,-0.146484375,-0.087890625,0.091796875,356.0111111111111,356.0,356.0444444444444
3250685.0,,,,,,,,-2.53125,-5.03515625,3.21484375,-0.146484375,-0.087890625,0.091796875,356.0111111111111,356.0,356.0444444444444
3250686.0,,,,,,,,-2.53125,-5.03515625,3.21484375,0.0390625,-0.14453125,0.01953125,356.0111111111111,356.0,356.0444444444444
3250687.0,,,,,,,,-2.53125,-5.03515625,3.21484375,0.0390625,-0.14453125,0.01953125,356.0111111111111,356.0,356.0444444444444
3250688.0,,,,,,,,-2.53125,-5.03515625,3.21484375,0.064453125,-0.337890625,-0.033203125,356.0111111111111,356.0,356.0444444444444
3250689.0,,,,,,,,1.0546875,3.65234375,-0.91015625,0.064453125,-0.337890625,-0.033203125,356.0111111111111,356.0,356.0444444444444
3250690.0,36.0135425,129.3197925,107.50181173212461,126.77159076665887,1.4000000000000001,141.0,,1.0546875,3.65234375,-0.91015625,0.064453125,-0.337890625,-0.033203125,356.0111111111111,356.0,356.0444444444444
3250691.0,,,,,,,,1.0546875,3.65234375,-0.91015625,0.068359375,-0.490234375,-0.1484375,356.0111111111111,356.0,356.0444444444444
3250692.0,,,,,,,,1.0546875,3.65234375,-0.91015625,0.068359375,-0.490234375,-0.1484375,356.0111111111111,356.0,356.0444444444444
3250693.0,,,,,,,,1.0546875,3.65234375,-0.91015625,0.14453125,0.22265625,-0.39453125,356.0111111111111,356.0,356.0444444444444
3250694.0,,,,,,,,1.0546875,3.65234375,-0.91015625,0.14453125,0.22265625,-0.39453125,356.0111111111111,356.0,356.0444444444444
3250695.0,,,,,,,,1.0546875,3.65234375,-0.91015625,-0.01953125,-0.087890625,-0.21484375,356.0111111111111,356.0,356.0444444444444
3250696.0,,,,,,,,1.0546875,3.65234375,-0.91015625,-0.01953125,-0.087890625,-0.21484375,356.0111111111111,356.0,356.0444444444444
3250697.0,,,,,,,,1.0546875,3.65234375,-0.91015625,-0.125,-0.142578125,-0.142578125,356.0111111111111,356.0,356.0444444444444
3250698.0,,,,,,,,1.0546875,3.65234375,-0.91015625,-0.125,-0.142578125,-0.142578125,356.0111111111111,356.0,356.0444444444444
3250699.0,,,,,,,,1.0546875,3.65234375,-0.91015625,-0.185546875,-0.318359375,-0.10546875,356.0111111111111,356.0,356.0444444444444
3250700.0,36.01354083333333,129.31979383333334,107.62201169062902,126.58666015244978,1.3,140.0,166.0,1.0546875,3.65234375,-0.91015625,-0.185546875,-0.318359375,-0.10546875,356.0111111111111,356.0,356.0444444444444
3250701.0,,,,,,,,1.0546875,3.65234375,-0.91015625,-0.185546875,-0.318359375,-0.10546875,356.0111111111111,356.0,356.0444444444444
3250702.0,,,,,,,,1.0546875,3.65234375,-0.91015625,-0.185546875,-0.318359375,-0.10546875,356.0111111111111,356.0,356.0444444444444
3250703.0,,,,,,,,1.0546875,3.65234375,-0.91015625,0.03515625,-0.17578125,-0.09765625,356.0111111111111,356.0,356.0444444444444
3250704.0,,,,,,,,1.0546875,3.65234375,-0.91015625,0.03515625,-0.17578125,-0.09765625,356.0111111111111,356.0,356.0444444444444
3250705.0,,,,,,,,1.0546875,3.65234375,-0.91015625,-0.03125,-0.103515625,1.0234375,356.0111111111111,356.0,356.0444444444444
3250706.0,,,,,,,,5.07421875,-4.8984375,2.6015625,-0.03125,-0.103515625,1.0234375,356.0111111111111,356.0,356.0444444444444
3250707.0,,,,,,,,5.07421875,-4.8984375,2.6015625,-0.03125,-0.103515625,1.0234375,356.0111111111111,356.0,356.0444444444444
