time,latitude,longitude,enu_x,enu_y,speed,course,Hrage,accX,accY,accZ,gyrX,gyrY,gyrZ,eulR,eulP,eulY
3180400.0,36.013615333333334,129.31973416666668,102.2430686014255,134.85306020505354,0.0,65535.0,166.0,0.0234375,-0.25,-0.40234375,-0.021484375,0.017578125,-0.025390625,356.0111111111111,356.0,356.0444444444444
3180401.0,,,,,,,,0.0234375,-0.25,-0.40234375,-0.021484375,0.017578125,-0.025390625,356.0111111111111,356.0,356.0444444444444
3180402.0,,,,,,,,0.0234375,-0.25,-0.40234375,-0.033203125,0.025390625,0.001953125,356.0111111111111,356.0,356.0444444444444
3180403.0,,,,,,,,0.0234375,-0.25,-0.40234375,-0.033203125,0.025390625,0.001953125,356.0111111111111,356.0,356.0444444444444
3180404.0,,,,,,,,0.0234375,-0.25,-0.40234375,-0.00390625,-0.005859375,-0.00390625,356.0111111111111,356.0,356.0444444444444
3180405.0,,,,,,,,-0.0546875,0.28125,-0.75390625,-0.00390625,-0.005859375,-0.00390625,356.0111111111111,356.0,356.0444444444444
3180406.0,,,,,,,,-0.0546875,0.28125,-0.75390625,-0.00390625,-0.005859375,-0.00390625,356.0111111111111,356.0,356.0444444444444
3180407.0,,,,,,,,-0.0546875,0.28125,-0.75390625,0.02734375,-0.029296875,0.033203125,356.0111111111111,356.0,356.0444444444444
3180408.0,,,,,,,,-0.0546875,0.28125,-0.75390625,0.02734375,-0.029296875,0.033203125,356.0111111111111,356.0,356.0444444444444
3180409.0,,,,,,,,-0.0546875,0.28125,-0.75390625,0.064453125,-0.021484375,0.005859375,356.0111111111111,356.0,356.0444444444444
3180410.0,36.013615333333334,129.319734,102.22804390377254,134.85306003040677,0.0,65535.0,,-0.0546875,0.28125,-0.75390625,0.064453125,-0.021484375,0.005859375,356.0111111111111,356.0,356.0444444444444
3180411.0,,,,,,,,-0.0546875,0.28125,-0.75390625,0.07421875,0.06640625,0.005859375,356.0111111111111,356.0,356.0444444444444
3180412.0,,,,,,,,-0.0546875,0.28125,-0.75390625,0.07421875,0.06640625,0.005859375,356.0111111111111,356.0,356.0444444444444
3180413.0,,,,,,,,-0.0546875,0.28125,-0.75390625,0.05859375,-0.021484375,-0.025390625,356.0111111111111,356.0,356.0444444444444
3180414.0,,,,,,,,-0.0546875,0.28125,-0.75390625,0.05859375,-0.021484375,-0.025390625,356.0111111111111,356.0,356.0444444444444
3180415.0,,,,,,,,-0.0546875,0.28125,-0.75390625,0.0859375,-0.1875,-0.0625,356.0111111111111,356.0,356.0444444444444
3180416.0,,,,,,,,-0.0546875,0.28125,-0.75390625,0.0859375,-0.1875,-0.0625,356.0111111111111,356.0,356.0444444444444
3180417.0,,,,,,,,-0.0546875,0.28125,-0.75390625,0.01171875,-0.099609375,-0.078125,356.0111111111111,356.0,356.0444444444444
3180418.0,,,,,,,,-0.0546875,0.28125,-0.75390625,0.01171875,-0.099609375,-0.078125,356.0111111111111,356.0,356.0444444444444
3180419.0,,,,,,,,-0.0546875,0.28125,-0.75390625,-0.013671875,-0.04296875,-0.125,356.0111111111111,356.0,356.0444444444444
3180420.0,36.013615333333334,129.31973383333334,102.2130192061848,134.8530598553747,0.0,65535.0,,-1.12109375,-0.3046875,-1.55078125,-0.013671875,-0.04296875,-0.125,356.0111111111111,356.0,356.0444444444444
3180421.0,,,,,,,,-1.12109375,-0.3046875,-1.55078125,-0.013671875,-0.04296875,-0.125,356.0111111111111,356.0,356.0444444444444
3180422.0,,,,,,,,-1.12109375,-0.3046875,-1.55078125,-0.025390625,-0.0390625,-0.216796875,356.0111111111111,356.0,356.0444444444444
3180423.0,,,,,,,,-1.12109375,-0.3046875,-1.55078125,-0.025390625,-0.0390625,-0.216796875,356.0111111111111,356.0,356.0444444444444
3180424.0,,,,,,,,-1.12109375,-0.3046875,-1.55078125,-0.033203125,-0.015625,-0.24609375,356.0111111111111,356.0,356.0444444444444
3180425.0,,,,,,,,-1.12109375,-0.3046875,-1.55078125,-0.033203125,-0.015625,-0.24609375,356.0111111111111,356.0,356.0444444444444
3180426.0,,,,,,,,-1.12109375,-0.3046875,-1.55078125,-0.046875,-0.044921875,-0.203125,356.0111111111111,356.0,356.0444444444444
3180427.0,,,,,,,,-1.12109375,-0.3046875,-1.55078125,-0.046875,-0.044921875,-0.203125,356.0111111111111,356.0,356.0444444444444
3180428.0,,,,,,,,-1.12109375,-0.3046875,-1.55078125,-0.048828125,-0.091796875,-0.111328125,356.0111111111111,356.0,356.0444444444444
3180429.0,,,,,,,,-1.12109375,-0.3046875,-1.55078125,-0.048828125,-0.091796875,-0.111328125,356.0111111111111,356.0,356.0444444444444
3180430.0,36.013614999999994,129.319734,102.22804433427021,134.81607361194563,0.1,65535.0,,-1.12109375,-0.3046875,-1.55078125,-0.041015625,-0.115234375,-0.154296875,356.0111111111111,356.0,356.0444444444444
3180431.0,,,,,,,,-1.12109375,-0.3046875,-1.55078125,-0.041015625,-0.115234375,-0.154296875,356.0111111111111,356.0,356.0444444444444
3180432.0,,,,,,,,-1.12109375,-0.3046875,-1.55078125,0.009765625,-0.19140625,-0.271484375,356.0111111111111,356.0,356.0444444444444
3180433.0,,,,,,,,-1.12109375,-0.3046875,-1.55078125,0.009765625,-0.19140625,-0.271484375,356.0111111111111,356.0,356.0444444444444
3180434.0,,,,,,,,-1.12109375,-0.3046875,-1.55078125,0.033203125,-0.130859375,-0.388671875,356.0111111111111,356.0,356.0444444444444
3180435.0,,,,,,,,-0.51953125,-2.40234375,-0.921875,0.033203125,-0.130859375,-0.388671875,356.0111111111111,356.0,356.0444444444444
3180436.0,,,,,,,,-0.51953125,-2.40234375,-0.921875,0.033203125,-0.130859375,-0.388671875,356.0111111111111,356.0,356.0444444444444
3180437.0,,,,,,,,-0.51953125,-2.40234375,-0.921875,-0.001953125,-0.302734375,-0.65234375,356.0111111111111,356.0,356.0444444444444
3180438.0,,,,,,,,-0.51953125,-2.40234375,-0.921875,-0.001953125,-0.302734375,-0.65234375,356.0111111111111,356.0,356.0444444444444
3180439.0,,,,,,,,-0.51953125,-2.40234375,-0.921875,-0.056640625,-0.517578125,-0.6484375,356.0111111111111,356.0,356.0444444444444
3180440.0,36.013614833333335,129.31973383333334,102.21301985153843,134.79758022936747,0.2,65535.0,,-0.51953125,-2.40234375,-0.921875,-0.056640625,-0.517578125,-0.6484375,356.0111111111111,356.0,356.0444444444444
3180441.0,,,,,,,,-0.51953125,-2.40234375,-0.921875,-0.099609375,-0.408203125,-0.732421875,356.0111111111111,356.0,356.0444444444444
3180442.0,,,,,,,,-0.51953125,-2.40234375,-0.921875,-0.099609375,-0.408203125,-0.732421875,356.0111111111111,356.0,356.0444444444444
3180443.0,,,,,,,,-0.51953125,-2.40234375,-0.921875,-0.111328125,-0.349609375,-0.740234375,356.0111111111111,356.0,356.0444444444444
3180444.0,,,,,,,,-0.51953125,-2.40234375,-0.921875,-0.111328125,-0.349609375,-0.740234375,356.0111111111111,356.0,356.0444444444444
3180445.0,,,,,,,,-0.51953125,-2.40234375,-0.921875,-0.15234375,-0.4453125,-0.640625,356.0111111111111,356.0,356.0444444444444
3180446.0,,,,,,,,-0.51953125,-2.40234375,-0.921875,-0.15234375,-0.4453125,-0.640625,356.0111111111111,356.0,356.0444444444444
3180447.0,,,,,,,,-0.51953125,-2.40234375,-0.921875,-0.208984375,-0.41015625,-0.587890625,356.0111111111111,356.0,356.0444444444444
3180448.0,,,,,,,,-0.51953125,-2.40234375,-0.921875,-0.208984375,-0.41015625,-0.587890625,356.0111111111111,356.0,356.0444444444444
3180449.0,,,,,,,,-0.51953125,-2.40234375,-0.921875,-0.2109375,-0.35546875,-0.517578125,356.0111111111111,356.0,356.0444444444444
3180450.0,36.01361433333333,129.31973383333334,102.21302049754738,134.7421006018919,0.30000000000000004,122.0,,0.109375,0.5703125,-1.4453125,-0.2109375,-0.35546875,-0.517578125,356.0111111111111,356.0,356.0444444444444
3180451.0,,,,,,,,0.109375,0.5703125,-1.4453125,-0.2109375,-0.35546875,-0.517578125,356.0111111111111,356.0,356.0444444444444
3180452.0,,,,,,,,0.109375,0.5703125,-1.4453125,-0.103515625,-0.3125,-0.3125,356.0111111111111,356.0,356.0444444444444
3180453.0,,,,,,,,0.109375,0.5703125,-1.4453125,-0.103515625,-0.3125,-0.3125,356.0111111111111,356.0,356.0444444444444
3180454.0,,,,,,,,0.109375,0.5703125,-1.4453125,-0.064453125,-0.291015625,-0.26953125,356.0111111111111,356.0,356.0444444444444
3180455.0,,,,,,,,0.109375,0.5703125,-1.4453125,-0.064453125,-0.291015625,-0.26953125,356.0111111111111,356.0,356.0444444444444
3180456.0,,,,,,,,0.109375,0.5703125,-1.4453125,-0.076171875,-0.26171875,-0.19140625,356.0111111111111,356.0,356.0444444444444
3180457.0,,,,,,,,0.109375,0.5703125,-1.4453125,-0.076171875,-0.26171875,-0.19140625,356.0111111111111,356.0,356.0444444444444
3180458.0,,,,,,,,0.109375,0.5703125,-1.4453125,-0.095703125,-0.17578125,-0.08203125,356.0111111111111,356.0,356.0444444444444
3180459.0,,,,,,,,0.109375,0.5703125,-1.4453125,-0.095703125,-0.17578125,-0.08203125,356.0111111111111,356.0,356.0444444444444
3180460.0,36.01361383333334,129.31973416666668,102.24307053837158,134.6866213261606,0.4,140.0,,0.109375,0.5703125,-1.4453125,-0.140625,0.00390625,0.009765625,356.0111111111111,356.0,356.0444444444444
3180461.0,,,,,,,,0.109375,0.5703125,-1.4453125,-0.140625,0.00390625,0.009765625,356.0111111111111,356.0,356.0444444444444
3180462.0,,,,,,,,0.109375,0.5703125,-1.4453125,-0.15625,0.169921875,0.099609375,356.0111111111111,356.0,356.0444444444444
3180463.0,,,,,,,,0.109375,0.5703125,-1.4453125,-0.15625,0.169921875,0.099609375,356.0111111111111,356.0,356.0444444444444
3180464.0,,,,,,,,0.109375,0.5703125,-1.4453125,-0.173828125,0.216796875,0.12109375,356.0111111111111,356.0,356.0444444444444
3180465.0,,,,,,,,-1.2890625,0.01953125,-1.0078125,-0.173828125,0.216796875,0.12109375,356.0111111111111,356.0,356.0444444444444
3180466.0,,,,,,,,-1.2890625,0.01953125,-1.0078125,-0.173828125,0.216796875,0.12109375,356.0111111111111,356.0,356.0444444444444
3180467.0,,,,,,,,-1.2890625,0.01953125,-1.0078125,-0.173828125,0.216796875,0.12109375,356.0111111111111,356.0,356.0444444444444
3180468.0,,,,,,,,-1.2890625,0.01953125,-1.0078125,-0.169921875,0.1640625,0.17578125,356.0111111111111,356.0,356.0444444444444
3180469.0,,,,,,,,-1.2890625,0.01953125,-1.0078125,-0.169921875,0.1640625,0.17578125,356.0111111111111,356.0,356.0444444444444
3180470.0,36.013613166666666,129.31973449999998,102.27312079316658,134.6126488396111,0.6000000000000001,145.0,,-1.2890625,0.01953125,-1.0078125,-0.177734375,0.326171875,0.208984375,356.0111111111111,356.0,356.0444444444444
3180471.0,,,,,,,,-1.2890625,0.01953125,-1.0078125,-0.177734375,0.326171875,0.208984375,356.0111111111111,356.0,356.0444444444444
3180472.0,,,,,,,,-1.2890625,0.01953125,-1.0078125,-0.1640625,0.345703125,0.189453125,356.0111111111111,356.0,356.0444444444444
3180473.0,,,,,,,,-1.2890625,0.01953125,-1.0078125,-0.1640625,0.345703125,0.189453125,356.0111111111111,356.0,356.0444444444444
3180474.0,,,,,,,,-1.2890625,0.01953125,-1.0078125,-0.158203125,0.296875,0.2109375,356.0111111111111,356.0,356.0444444444444
3180475.0,,,,,,,,-1.2890625,0.01953125,-1.0078125,-0.158203125,0.296875,0.2109375,356.0111111111111,356.0,356.0444444444444
3180476.0,,,,,,,,-1.2890625,0.01953125,-1.0078125,-0.189453125,0.462890625,0.12890625,356.0111111111111,356.0,356.0444444444444
3180477.0,,,,,,,,-1.2890625,0.01953125,-1.0078125,-0.189453125,0.462890625,0.12890625,356.0111111111111,356.0,356.0444444444444
3180478.0,,,,,,,,-1.2890625,0.01953125,-1.0078125,-0.255859375,0.572265625,0.21875,356.0111111111111,356.0,356.0444444444444
3180479.0,,,,,,,,-1.2890625,0.01953125,-1.0078125,-0.255859375,0.572265625,0.21875,356.0111111111111,356.0,356.0444444444444
3180480.0,36.013611833333336,129.319736,102.4083448033452,134.46470474513606,0.9,141.0,,-1.2890625,0.01953125,-1.0078125,-0.150390625,-0.19140625,0.052734375,356.0111111111111,356.0,356.0444444444444
3180481.0,,,,,,,,-2.23046875,-1.2421875,2.85546875,-0.150390625,-0.19140625,0.052734375,356.0111111111111,356.0,356.0444444444444
3180482.0,,,,,,,,-2.23046875,-1.2421875,2.85546875,-0.150390625,-0.19140625,0.052734375,356.0111111111111,356.0,356.0444444444444
3180483.0,,,,,,,,-2.23046875,-1.2421875,2.85546875,-0.150390625,-0.19140625,0.052734375,356.0111111111111,356.0,356.0444444444444
3180484.0,,,,,,,,-2.23046875,-1.2421875,2.85546875,-0.220703125,-0.064453125,0.11328125,356.0111111111111,356.0,356.0444444444444
3180485.0,,,,,,,,-2.23046875,-1.2421875,2.85546875,-0.220703125,-0.064453125,0.11328125,356.0111111111111,356.0,356.0444444444444
3180486.0,,,,,,,,-2.23046875,-1.2421875,2.85546875,-0.03125,-0.076171875,0.2109375,356.0111111111111,356.0,356.0444444444444
3180487.0,,,,,,,,-2.23046875,-1.2421875,2.85546875,-0.03125,-0.076171875,0.2109375,356.0111111111111,356.0,356.0444444444444
3180488.0,,,,,,,,-2.23046875,-1.2421875,2.85546875,0.13671875,-0.1015625,0.193359375,356.0111111111111,356.0,356.0444444444444
3180489.0,,,,,,,,-2.23046875,-1.2421875,2.85546875,0.13671875,-0.1015625,0.193359375,356.0111111111111,356.0,356.0444444444444
3180490.0,36.013611,129.31973683333334,102.48346937483768,134.37223957618352,1.1,137.0,,-2.23046875,-1.2421875,2.85546875,0.17578125,-0.099609375,0.11328125,356.0111111111111,356.0,356.0444444444444
3180491.0,,,,,,,,-2.23046875,-1.2421875,2.85546875,0.17578125,-0.099609375,0.11328125,356.0111111111111,356.0,356.0444444444444
3180492.0,,,,,,,,-2.23046875,-1.2421875,2.85546875,0.12890625,-0.201171875,0.12109375,356.0111111111111,356.0,356.0444444444444
3180493.0,,,,,,,,-2.23046875,-1.2421875,2.85546875,0.12890625,-0.201171875,0.12109375,356.0111111111111,356.0,356.0444444444444
3180494.0,,,,,,,,-2.23046875,-1.2421875,2.85546875,0.07421875,-0.111328125,0.1953125,356.0111111111111,356.0,356.0444444444444
3180495.0,,,,,,,,-2.23046875,-1.2421875,2.85546875,0.07421875,-0.111328125,0.1953125,356.0111111111111,356.0,356.0444444444444
3180496.0,,,,,,,,-2.23046875,-1.2421875,2.85546875,0.1015625,-0.041015625,0.212890625,356.0111111111111,356.0,356.0444444444444
3180497.0,,,,,,,,-0.99609375,1.39453125,1.37109375,0.1015625,-0.041015625,0.212890625,356.0111111111111,356.0,356.0444444444444
3180498.0,,,,,,,,-0.99609375,1.39453125,1.37109375,0.1015625,-0.041015625,0.212890625,356.0111111111111,356.0,356.0444444444444
3180499.0,,,,,,,,-0.99609375,1.39453125,1.37109375,0.1015625,-0.041015625,0.212890625,356.0111111111111,356.0,356.0444444444444
3180500.0,36.01361,129.31973883333333,102.66376705626402,134.26128242858965,1.0,129.0,166.0,-0.99609375,1.39453125,1.37109375,0.1015625,-0.041015625,0.212890625,356.0111111111111,356.0,356.0444444444444
3180501.0,,,,,,,,-0.99609375,1.39453125,1.37109375,0.1015625,-0.041015625,0.212890625,356.0111111111111,356.0,356.0444444444444
3180502.0,,,,,,,,-0.99609375,1.39453125,1.37109375,0.265625,0.064453125,0.279296875,356.0111111111111,356.0,356.0444444444444
3180503.0,,,,,,,,-0.99609375,1.39453125,1.37109375,0.265625,0.064453125,0.279296875,356.0111111111111,356.0,356.0444444444444
3180504.0,,,,,,,,-0.99609375,1.39453125,1.37109375,0.17578125,0.07421875,-0.03125,356.0111111111111,356.0,356.0444444444444
3180505.0,,,,,,,,-1.05859375,-0.5390625,-1.3671875,0.17578125,0.07421875,-0.03125,356.0111111111111,356.0,356.0444444444444
3180506.0,,,,,,,,-1.05859375,-0.5390625,-1.3671875,0.17578125,0.07421875,-0.03125,356.0111111111111,356.0,356.0444444444444
3180507.0,,,,,,,,-1.05859375,-0.5390625,-1.3671875,0.18359375,0.19921875,-0.029296875,356.0111111111111,356.0,356.0444444444444
3180508.0,,,,,,,,-1.05859375,-0.5390625,-1.3671875,0.18359375,0.19921875,-0.029296875,356.0111111111111,356.0,356.0444444444444
3180509.0,,,,,,,,-1.05859375,-0.5390625,-1.3671875,0.205078125,0.11328125,0.0,356.0111111111111,356.0,356.0444444444444
3180510.0,36.013608500000004,129.31974016666666,102.78396659358154,134.09484495562032,1.1,134.0,,-1.05859375,-0.5390625,-1.3671875,0.205078125,0.11328125,0.0,356.0111111111111,356.0,356.0444444444444
3180511.0,,,,,,,,-1.05859375,-0.5390625,-1.3671875,0.205078125,0.037109375,0.072265625,356.0111111111111,356.0,356.0444444444444
3180512.0,,,,,,,,-1.05859375,-0.5390625,-1.3671875,0.205078125,0.037109375,0.072265625,356.0111111111111,356.0,356.0444444444444
3180513.0,,,,,,,,-1.05859375,-0.5390625,-1.3671875,0.224609375,0.16796875,0.0703125,356.0111111111111,356.0,356.0444444444444
3180514.0,,,,,,,,-1.05859375,-0.5390625,-1.3671875,0.224609375,0.16796875,0.0703125,356.0111111111111,356.0,356.0444444444444
3180515.0,,,,,,,,-1.05859375,-0.5390625,-1.3671875,0.23828125,0.275390625,0.076171875,356.0111111111111,356.0,356.0444444444444
3180516.0,,,,,,,,-1.05859375,-0.5390625,-1.3671875,0.23828125,0.275390625,0.076171875,356.0111111111111,356.0,356.0444444444444
3180517.0,,,,,,,,-1.05859375,-0.5390625,-1.3671875,0.302734375,0.21484375,0.142578125,356.0111111111111,356.0,356.0444444444444
3180518.0,,,,,,,,-1.05859375,-0.5390625,-1.3671875,0.302734375,0.21484375,0.142578125,356.0111111111111,356.0,356.0444444444444
3180519.0,,,,,,,,-1.05859375,-0.5390625,-1.3671875,0.4296875,-0.087890625,0.27734375,356.0111111111111,356.0,356.0444444444444
3180520.0,36.01360733333333,129.3197406666667,102.82904220751183,133.9653930208357,1.2000000000000002,142.0,,0.25390625,-1.16796875,1.53125,0.4296875,-0.087890625,0.27734375,356.0111111111111,356.0,356.0444444444444
3180521.0,,,,,,,,0.25390625,-1.16796875,1.53125,0.4296875,-0.087890625,0.27734375,356.0111111111111,356.0,356.0444444444444
3180522.0,,,,,,,,0.25390625,-1.16796875,1.53125,0.32421875,0.119140625,0.05078125,356.0111111111111,356.0,356.0444444444444
3180523.0,,,,,,,,0.25390625,-1.16796875,1.53125,0.32421875,0.119140625,0.05078125,356.0111111111111,356.0,356.0444444444444
3180524.0,,,,,,,,0.25390625,-1.16796875,1.53125,0.21484375,0.095703125,-0.099609375,356.0111111111111,356.0,356.0444444444444
3180525.0,,,,,,,,0.25390625,-1.16796875,1.53125,0.21484375,0.095703125,-0.099609375,356.0111111111111,356.0,356.0444444444444
3180526.0,,,,,,,,0.25390625,-1.16796875,1.53125,0.037109375,0.037109375,-0.333984375,356.0111111111111,356.0,356.0444444444444
3180527.0,,,,,,,,0.25390625,-1.16796875,1.53125,0.037109375,0.037109375,-0.333984375,356.0111111111111,356.0,356.0444444444444
3180528.0,,,,,,,,0.25390625,-1.16796875,1.53125,-0.1328125,-0.005859375,-0.447265625,356.0111111111111,356.0,356.0444444444444
3180529.0,,,,,,,,0.25390625,-1.16796875,1.53125,-0.1328125,-0.005859375,-0.447265625,356.0111111111111,356.0,356.0444444444444
3180530.0,36.01360616666667,129.31974166666666,102.91919191843567,133.83594161548035,1.4000000000000001,142.0,,0.25390625,-1.16796875,1.53125,-0.19921875,-0.076171875,-0.548828125,356.0111111111111,356.0,356.0444444444444
3180531.0,,,,,,,,0.25390625,-1.16796875,1.53125,-0.19921875,-0.076171875,-0.548828125,356.0111111111111,356.0,356.0444444444444
3180532.0,,,,,,,,0.25390625,-1.16796875,1.53125,-0.26171875,-0.103515625,-0.625,356.0111111111111,356.0,356.0444444444444
3180533.0,,,,,,,,0.25390625,-1.16796875,1.53125,-0.26171875,-0.103515625,-0.625,356.0111111111111,356.0,356.0444444444444
3180534.0,,,,,,,,0.25390625,-1.16796875,1.53125,-0.306640625,-0.0546875,-0.6875,356.0111111111111,356.0,356.0444444444444
3180535.0,,,,,,,,-0.2265625,0.953125,-0.4375,-0.306640625,-0.0546875,-0.6875,356.0111111111111,356.0,356.0444444444444
3180536.0,,,,,,,,-0.2265625,0.953125,-0.4375,-0.306640625,-0.0546875,-0.6875,356.0111111111111,356.0,356.0444444444444
3180537.0,,,,,,,,-0.2265625,0.953125,-0.4375,-0.306640625,-0.0546875,-0.6875,356.0111111111111,356.0,356.0444444444444
3180538.0,,,,,,,,-0.2265625,0.953125,-0.4375,-0.41015625,-0.080078125,-0.681640625,356.0111111111111,356.0,356.0444444444444
3180539.0,,,,,,,,-0.2265625,0.953125,-0.4375,-0.41015625,-0.080078125,-0.681640625,356.0111111111111,356.0,356.0444444444444
3180540.0,36.013605500000004,129.31974200000002,102.9492421858839,133.76196913138912,1.1,142.0,,-0.2265625,0.953125,-0.4375,-0.404296875,-0.130859375,-0.6640625,356.0111111111111,356.0,356.0444444444444
3180541.0,,,,,,,,-0.2265625,0.953125,-0.4375,-0.404296875,-0.130859375,-0.6640625,356.0111111111111,356.0,356.0444444444444
3180542.0,,,,,,,,-0.2265625,0.953125,-0.4375,-0.373046875,-0.146484375,-0.62890625,356.0111111111111,356.0,356.0444444444444
3180543.0,,,,,,,,-0.2265625,0.953125,-0.4375,-0.373046875,-0.146484375,-0.62890625,356.0111111111111,356.0,356.0444444444444
3180544.0,,,,,,,,-0.2265625,0.953125,-0.4375,-0.328125,-0.189453125,-0.5703125,356.0111111111111,356.0,356.0444444444444
3180545.0,,,,,,,,-0.2265625,0.953125,-0.4375,-0.328125,-0.189453125,-0.5703125,356.0111111111111,356.0,356.0444444444444
3180546.0,,,,,,,,-0.2265625,0.953125,-0.4375,-0.263671875,-0.201171875,-0.470703125,356.0111111111111,356.0,356.0444444444444
3180547.0,,,,,,,,-0.2265625,0.953125,-0.4375,-0.263671875,-0.201171875,-0.470703125,356.0111111111111,356.0,356.0444444444444
3180548.0,,,,,,,,-0.2265625,0.953125,-0.4375,-0.25,-0.259765625,-0.41796875,356.0111111111111,356.0,356.0444444444444
3180549.0,,,,,,,,-0.2265625,0.953125,-0.4375,-0.25,-0.259765625,-0.41796875,356.0111111111111,356.0,356.0444444444444
3180550.0,36.01360483333334,129.3197425,102.99431714951314,133.68799682553023,1.1,140.0,,-0.2265625,0.953125,-0.4375,-0.216796875,-0.296875,-0.2890625,356.0111111111111,356.0,356.0444444444444
3180551.0,,,,,,,,-0.51171875,1.7890625,-0.98828125,-0.216796875,-0.296875,-0.2890625,356.0111111111111,356.0,356.0444444444444
3180552.0,,,,,,,,-0.51171875,1.7890625,-0.98828125,-0.216796875,-0.296875,-0.2890625,356.0111111111111,356.0,356.0444444444444
3180553.0,,,,,,,,-0.51171875,1.7890625,-0.98828125,-0.216796875,-0.296875,-0.2890625,356.0111111111111,356.0,356.0444444444444
3180554.0,,,,,,,,-0.51171875,1.7890625,-0.98828125,-0.2265625,-0.201171875,-0.169921875,356.0111111111111,356.0,356.0444444444444
3180555.0,,,,,,,,-0.51171875,1.7890625,-0.98828125,-0.2265625,-0.201171875,-0.169921875,356.0111111111111,356.0,356.0444444444444
3180556.0,,,,,,,,-0.51171875,1.7890625,-0.98828125,-0.234375,-0.14453125,-0.06640625,356.0111111111111,356.0,356.0444444444444
3180557.0,,,,,,,,-0.51171875,1.7890625,-0.98828125,-0.234375,-0.14453125,-0.06640625,356.0111111111111,356.0,356.0444444444444
3180558.0,,,,,,,,-0.51171875,1.7890625,-0.98828125,-0.2578125,-0.162109375,0.0546875,356.0111111111111,356.0,356.0444444444444
3180559.0,,,,,,,,-0.51171875,1.7890625,-0.98828125,-0.2578125,-0.162109375,0.0546875,356.0111111111111,356.0,356.0444444444444
3180560.0,36.013603833333335,129.31974350000002,103.08446665239825,133.5770386293244,1.2000000000000002,138.0,,-0.51171875,1.7890625,-0.98828125,-0.26953125,-0.107421875,0.091796875,356.0111111111111,356.0,356.0444444444444
3180561.0,,,,,,,,-0.51171875,1.7890625,-0.98828125,-0.26953125,-0.107421875,0.091796875,356.0111111111111,356.0,356.0444444444444
3180562.0,,,,,,,,-0.51171875,1.7890625,-0.98828125,-0.30078125,-0.05078125,0.134765625,356.0111111111111,356.0,356.0444444444444
3180563.0,,,,,,,,-0.51171875,1.7890625,-0.98828125,-0.30078125,-0.05078125,0.134765625,356.0111111111111,356.0,356.0444444444444
3180564.0,,,,,,,,-0.51171875,1.7890625,-0.98828125,-0.345703125,-0.02734375,0.068359375,356.0111111111111,356.0,356.0444444444444
3180565.0,,,,,,,,-0.51171875,1.7890625,-0.98828125,-0.345703125,-0.02734375,0.068359375,356.0111111111111,356.0,356.0444444444444
3180566.0,,,,,,,,-0.51171875,1.7890625,-0.98828125,-0.39453125,-0.078125,0.09765625,356.0111111111111,356.0,356.0444444444444
3180567.0,,,,,,,,0.58984375,-1.36328125,1.234375,-0.39453125,-0.078125,0.09765625,356.0111111111111,356.0,356.0444444444444
3180568.0,,,,,,,,0.58984375,-1.36328125,1.234375,-0.39453125,-0.078125,0.09765625,356.0111111111111,356.0,356.0444444444444
3180569.0,,,,,,,,0.58984375,-1.36328125,1.234375,-0.39453125,-0.078125,0.09765625,356.0111111111111,356.0,356.0444444444444
3180570.0,36.013602999999996,129.31974433333335,103.15959123903816,133.48457346651534,1.1,139.0,,0.58984375,-1.36328125,1.234375,-0.4140625,0.625,0.228515625,356.0111111111111,356.0,356.0444444444444
3180571.0,,,,,,,,0.58984375,-1.36328125,1.234375,-0.4140625,0.625,0.228515625,356.0111111111111,356.0,356.0444444444444
3180572.0,,,,,,,,0.58984375,-1.36328125,1.234375,-0.3203125,0.32421875,0.314453125,356.0111111111111,356.0,356.0444444444444
3180573.0,,,,,,,,0.58984375,-1.36328125,1.234375,-0.3203125,0.32421875,0.314453125,356.0111111111111,356.0,356.0444444444444
3180574.0,,,,,,,,0.58984375,-1.36328125,1.234375,-0.36328125,-0.09375,0.330078125,356.0111111111111,356.0,356.0444444444444
3180575.0,,,,,,,,0.58984375,-1.36328125,1.234375,-0.36328125,-0.09375,0.330078125,356.0111111111111,356.0,356.0444444444444
3180576.0,,,,,,,,0.58984375,-1.36328125,1.234375,-0.17578125,-0.361328125,0.583984375,356.0111111111111,356.0,356.0444444444444
3180577.0,,,,,,,,0.58984375,-1.36328125,1.234375,-0.17578125,-0.361328125,0.583984375,356.0111111111111,356.0,356.0444444444444
3180578.0,,,,,,,,0.58984375,-1.36328125,1.234375,0.072265625,-0.158203125,0.49609375,356.0111111111111,356.0,356.0444444444444
3180579.0,,,,,,,,0.58984375,-1.36328125,1.234375,0.072265625,-0.158203125,0.49609375,356.0111111111111,356.0,356.0444444444444
3180580.0,36.01360216666667,129.31974499999998,103.21969112278263,133.3921081298829,1.2000000000000002,138.0,,0.58984375,-1.36328125,1.234375,0.26171875,0.029296875,0.375,356.0111111111111,356.0,356.0444444444444
3180581.0,,,,,,,,0.58984375,-1.36328125,1.234375,0.26171875,0.029296875,0.375,356.0111111111111,356.0,356.0444444444444
3180582.0,,,,,,,,0.58984375,-1.36328125,1.234375,0.271484375,0.15625,0.28515625,356.0111111111111,356.0,356.0444444444444
3180583.0,,,,,,,,-2.26953125,-0.12890625,2.42578125,0.271484375,0.15625,0.28515625,356.0111111111111,356.0,356.0444444444444
3180584.0,,,,,,,,-2.26953125,-0.12890625,2.42578125,0.271484375,0.15625,0.28515625,356.0111111111111,356.0,356.0444444444444
3180585.0,,,,,,,,-2.26953125,-0.12890625,2.42578125,0.271484375,0.15625,0.28515625,356.0111111111111,356.0,356.0444444444444
3180586.0,,,,,,,,-2.26953125,-0.12890625,2.42578125,0.216796875,0.02734375,0.32421875,356.0111111111111,356.0,356.0444444444444
3180587.0,,,,,,,,-2.26953125,-0.12890625,2.42578125,0.216796875,0.02734375,0.32421875,356.0111111111111,356.0,356.0444444444444
3180588.0,,,,,,,,-2.26953125,-0.12890625,2.42578125,0.271484375,0.0234375,0.291015625,356.0111111111111,356.0,356.0444444444444
3180589.0,,,,,,,,-2.26953125,-0.12890625,2.42578125,0.271484375,0.0234375,0.291015625,356.0111111111111,356.0,356.0444444444444
3180590.0,36.0136015,129.31974649999998,103.3549142945893,133.31813688363002,1.3,131.0,,-2.26953125,-0.12890625,2.42578125,0.3125,0.064453125,0.30078125,356.0111111111111,356.0,356.0444444444444
3180591.0,,,,,,,,-2.26953125,-0.12890625,2.42578125,0.3125,0.064453125,0.30078125,356.0111111111111,356.0,356.0444444444444
3180592.0,,,,,,,,-2.26953125,-0.12890625,2.42578125,0.330078125,0.099609375,0.3046875,356.0111111111111,356.0,356.0444444444444
3180593.0,,,,,,,,-2.26953125,-0.12890625,2.42578125,0.330078125,0.099609375,0.3046875,356.0111111111111,356.0,356.0444444444444
3180594.0,,,,,,,,-2.26953125,-0.12890625,2.42578125,0.31640625,0.107421875,0.283203125,356.0111111111111,356.0,356.0444444444444
3180595.0,,,,,,,,-2.26953125,-0.12890625,2.42578125,0.31640625,0.107421875,0.283203125,356.0111111111111,356.0,356.0444444444444
3180596.0,,,,,,,,-2.26953125,-0.12890625,2.42578125,0.28125,0.091796875,0.216796875,356.0111111111111,356.0,356.0444444444444
3180597.0,,,,,,,,-2.26953125,-0.12890625,2.42578125,0.28125,0.091796875,0.216796875,356.0111111111111,356.0,356.0444444444444
3180598.0,,,,,,,,-2.26953125,-0.12890625,2.42578125,0.232421875,0.095703125,0.18359375,356.0111111111111,356.0,356.0444444444444
3180599.0,,,,,,,,-1.91796875,1.94140625,-0.515625,0.232421875,0.095703125,0.18359375,356.0111111111111,356.0,356.0444444444444
3180600.0,36.013599666666664,129.31974833333334,103.52018840057237,133.11471353158865,1.3,134.0,166.0,-1.91796875,1.94140625,-0.515625,0.232421875,0.095703125,0.18359375,356.0111111111111,356.0,356.0444444444444
3180601.0,,,,,,,,-1.91796875,1.94140625,-0.515625,0.232421875,0.095703125,0.18359375,356.0111111111111,356.0,356.0444444444444
3180602.0,,,,,,,,-1.91796875,1.94140625,-0.515625,0.18359375,0.01953125,0.10546875,356.0111111111111,356.0,356.0444444444444
3180603.0,,,,,,,,-1.91796875,1.94140625,-0.515625,0.18359375,0.01953125,0.10546875,356.0111111111111,356.0,356.0444444444444
3180604.0,,,,,,,,-1.91796875,1.94140625,-0.515625,0.25390625,0.078125,0.052734375,356.0111111111111,356.0,356.0444444444444
3180605.0,,,,,,,,-0.90234375,-1.03515625,-0.8671875,0.25390625,0.078125,0.052734375,356.0111111111111,356.0,356.0444444444444
3180606.0,,,,,,,,-0.90234375,-1.03515625,-0.8671875,0.25390625,0.078125,0.052734375,356.0111111111111,356.0,356.0444444444444
3180607.0,,,,,,,,-0.90234375,-1.03515625,-0.8671875,0.248046875,0.177734375,0.115234375,356.0111111111111,356.0,356.0444444444444
3180608.0,,,,,,,,-0.90234375,-1.03515625,-0.8671875,0.248046875,0.177734375,0.115234375,356.0111111111111,356.0,356.0444444444444
3180609.0,,,,,,,,-0.90234375,-1.03515625,-0.8671875,0.251953125,0.404296875,-0.1015625,356.0111111111111,356.0,356.0444444444444
3180610.0,36.01359783333333,129.31974966666667,103.64038840609312,132.91128965233682,1.2000000000000002,137.0,,-0.90234375,-1.03515625,-0.8671875,0.251953125,0.404296875,-0.1015625,356.0111111111111,356.0,356.0444444444444
3180611.0,,,,,,,,-0.90234375,-1.03515625,-0.8671875,0.392578125,0.26171875,-0.03515625,356.0111111111111,356.0,356.0444444444444
3180612.0,,,,,,,,-0.90234375,-1.03515625,-0.8671875,0.392578125,0.26171875,-0.03515625,356.0111111111111,356.0,356.0444444444444
3180613.0,,,,,,,,-0.90234375,-1.03515625,-0.8671875,0.46484375,-0.123046875,0.044921875,356.0111111111111,356.0,356.0444444444444
3180614.0,,,,,,,,-0.90234375,-1.03515625,-0.8671875,0.46484375,-0.123046875,0.044921875,356.0111111111111,356.0,356.0444444444444
3180615.0,,,,,,,,-0.90234375,-1.03515625,-0.8671875,0.365234375,-0.06640625,-0.08203125,356.0111111111111,356.0,356.0444444444444
3180616.0,,,,,,,,-0.90234375,-1.03515625,-0.8671875,0.365234375,-0.06640625,-0.08203125,356.0111111111111,356.0,356.0444444444444
3180617.0,,,,,,,,-0.90234375,-1.03515625,-0.8671875,0.14453125,0.00390625,-0.279296875,356.0111111111111,356.0,356.0444444444444
3180618.0,,,,,,,,-0.90234375,-1.03515625,-0.8671875,0.14453125,0.00390625,-0.279296875,356.0111111111111,356.0,356.0444444444444
3180619.0,,,,,,,,-0.90234375,-1.03515625,-0.8671875,-0.1328125,0.048828125,-0.3515625,356.0111111111111,356.0,356.0444444444444
3180620.0,36.013596666666665,129.3197505,103.71551343880694,132.78183807828265,1.4000000000000001,140.0,,-0.53515625,-0.5625,1.359375,-0.1328125,0.048828125,-0.3515625,356.0111111111111,356.0,356.0444444444444
3180621.0,,,,,,,,-0.53515625,-0.5625,1.359375,-0.1328125,0.048828125,-0.3515625,356.0111111111111,356.0,356.0444444444444
3180622.0,,,,,,,,-0.53515625,-0.5625,1.359375,-0.35546875,0.162109375,-0.421875,356.0111111111111,356.0,356.0444444444444
3180623.0,,,,,,,,-0.53515625,-0.5625,1.359375,-0.35546875,0.162109375,-0.421875,356.0111111111111,356.0,356.0444444444444
3180624.0,,,,,,,,-0.53515625,-0.5625,1.359375,-0.359375,0.109375,-0.552734375,356.0111111111111,356.0,356.0444444444444
3180625.0,,,,,,,,-0.53515625,-0.5625,1.359375,-0.359375,0.109375,-0.552734375,356.0111111111111,356.0,356.0444444444444
3180626.0,,,,,,,,-0.53515625,-0.5625,1.359375,-0.357421875,0.08984375,-0.541015625,356.0111111111111,356.0,356.0444444444444
3180627.0,,,,,,,,-0.53515625,-0.5625,1.359375,-0.357421875,0.08984375,-0.541015625,356.0111111111111,356.0,356.0444444444444
3180628.0,,,,,,,,-0.53515625,-0.5625,1.359375,-0.337890625,0.130859375,-0.537109375,356.0111111111111,356.0,356.0444444444444
3180629.0,,,,,,,,-0.53515625,-0.5625,1.359375,-0.337890625,0.130859375,-0.537109375,356.0111111111111,356.0,356.0444444444444
3180630.0,36.01359566666667,129.319751,103.76058885489851,132.67087935756618,1.3,140.0,,-0.53515625,-0.5625,1.359375,-0.318359375,0.125,-0.486328125,356.0111111111111,356.0,356.0444444444444
3180631.0,,,,,,,,-0.53515625,-0.5625,1.359375,-0.318359375,0.125,-0.486328125,356.0111111111111,356.0,356.0444444444444
3180632.0,,,,,,,,-0.53515625,-0.5625,1.359375,-0.29296875,0.1328125,-0.3984375,356.0111111111111,356.0,356.0444444444444
3180633.0,,,,,,,,-0.53515625,-0.5625,1.359375,-0.29296875,0.1328125,-0.3984375,356.0111111111111,356.0,356.0444444444444
3180634.0,,,,,,,,-0.53515625,-0.5625,1.359375,-0.263671875,0.0859375,-0.369140625,356.0111111111111,356.0,356.0444444444444
3180635.0,,,,,,,,0.17578125,1.9453125,-0.8984375,-0.263671875,0.0859375,-0.369140625,356.0111111111111,356.0,356.0444444444444
3180636.0,,,,,,,,0.17578125,1.9453125,-0.8984375,-0.263671875,0.0859375,-0.369140625,356.0111111111111,356.0,356.0444444444444
3180637.0,,,,,,,,0.17578125,1.9453125,-0.8984375,-0.208984375,0.001953125,-0.259765625,356.0111111111111,356.0,356.0444444444444
3180638.0,,,,,,,,0.17578125,1.9453125,-0.8984375,-0.208984375,0.001953125,-0.259765625,356.0111111111111,356.0,356.0444444444444
3180639.0,,,,,,,,0.17578125,1.9453125,-0.8984375,-0.1875,-0.05078125,-0.24609375,356.0111111111111,356.0,356.0444444444444
3180640.0,36.01359466666667,129.31975183333333,103.8357136723961,132.55992099349157,1.3,141.0,,0.17578125,1.9453125,-0.8984375,-0.1875,-0.05078125,-0.24609375,356.0111111111111,356.0,356.0444444444444
3180641.0,,,,,,,,0.17578125,1.9453125,-0.8984375,-0.1640625,-0.05078125,-0.130859375,356.0111111111111,356.0,356.0444444444444
3180642.0,,,,,,,,0.17578125,1.9453125,-0.8984375,-0.1640625,-0.05078125,-0.130859375,356.0111111111111,356.0,356.0444444444444
3180643.0,,,,,,,,0.17578125,1.9453125,-0.8984375,-0.171875,-0.083984375,-0.099609375,356.0111111111111,356.0,356.0444444444444
3180644.0,,,,,,,,0.17578125,1.9453125,-0.8984375,-0.171875,-0.083984375,-0.099609375,356.0111111111111,356.0,356.0444444444444
3180645.0,,,,,,,,0.17578125,1.9453125,-0.8984375,-0.1796875,-0.080078125,-0.04296875,356.0111111111111,356.0,356.0444444444444
3180646.0,,,,,,,,0.17578125,1.9453125,-0.8984375,-0.1796875,-0.080078125,-0.04296875,356.0111111111111,356.0,356.0444444444444
3180647.0,,,,,,,,0.17578125,1.9453125,-0.8984375,-0.216796875,-0.03125,0.03125,356.0111111111111,356.0,356.0444444444444
3180648.0,,,,,,,,0.17578125,1.9453125,-0.8984375,-0.216796875,-0.03125,0.03125,356.0111111111111,356.0,356.0444444444444
3180649.0,,,,,,,,0.17578125,1.9453125,-0.8984375,-0.1875,0.08203125,0.0234375,356.0111111111111,356.0,356.0444444444444
3180650.0,36.013594,129.3197525,103.89581335511804,132.48594886808746,1.1,141.0,,-0.11328125,-0.15234375,-1.33984375,-0.1875,0.08203125,0.0234375,356.0111111111111,356.0,356.0444444444444
3180651.0,,,,,,,,-0.11328125,-0.15234375,-1.33984375,-0.1875,0.08203125,0.0234375,356.0111111111111,356.0,356.0444444444444
3180652.0,,,,,,,,-0.11328125,-0.15234375,-1.33984375,-0.166015625,0.08203125,0.1484375,356.0111111111111,356.0,356.0444444444444
3180653.0,,,,,,,,-0.11328125,-0.15234375,-1.33984375,-0.166015625,0.08203125,0.1484375,356.0111111111111,356.0,356.0444444444444
3180654.0,,,,,,,,-0.11328125,-0.15234375,-1.33984375,-0.173828125,-0.01171875,0.134765625,356.0111111111111,356.0,356.0444444444444
3180655.0,,,,,,,,-0.11328125,-0.15234375,-1.33984375,-0.173828125,-0.01171875,0.134765625,356.0111111111111,356.0,356.0444444444444
3180656.0,,,,,,,,-0.11328125,-0.15234375,-1.33984375,-0.205078125,-0.087890625,0.15234375,356.0111111111111,356.0,356.0444444444444
3180657.0,,,,,,,,-0.11328125,-0.15234375,-1.33984375,-0.205078125,-0.087890625,0.15234375,356.0111111111111,356.0,356.0444444444444
3180658.0,,,,,,,,-0.11328125,-0.15234375,-1.33984375,-0.220703125,-0.158203125,0.119140625,356.0111111111111,356.0,356.0444444444444
3180659.0,,,,,,,,-0.11328125,-0.15234375,-1.33984375,-0.220703125,-0.158203125,0.119140625,356.0111111111111,356.0,356.0444444444444
3180660.0,36.013593166666666,129.31975300000002,103.9408885559282,132.39348335698253,1.1,141.0,,-0.11328125,-0.15234375,-1.33984375,-0.25390625,0.2421875,0.2578125,356.0111111111111,356.0,356.0444444444444
3180661.0,,,,,,,,-0.11328125,-0.15234375,-1.33984375,-0.25390625,0.2421875,0.2578125,356.0111111111111,356.0,356.0444444444444
3180662.0,,,,,,,,-0.11328125,-0.15234375,-1.33984375,-0.1484375,0.66015625,0.39453125,356.0111111111111,356.0,356.0444444444444
3180663.0,,,,,,,,-0.11328125,-0.15234375,-1.33984375,-0.1484375,0.66015625,0.39453125,356.0111111111111,356.0,356.0444444444444
3180664.0,,,,,,,,-0.11328125,-0.15234375,-1.33984375,-0.1640625,0.03515625,0.26171875,356.0111111111111,356.0,356.0444444444444
3180665.0,,,,,,,,-1.4375,-1.96875,2.91796875,-0.1640625,0.03515625,0.26171875,356.0111111111111,356.0,356.0444444444444
3180666.0,,,,,,,,-1.4375,-1.96875,2.91796875,-0.1640625,0.03515625,0.26171875,356.0111111111111,356.0,356.0444444444444
3180667.0,,,,,,,,-1.4375,-1.96875,2.91796875,-0.1640625,0.03515625,0.26171875,356.0111111111111,356.0,356.0444444444444
3180668.0,,,,,,,,-1.4375,-1.96875,2.91796875,-0.078125,0.0234375,0.599609375,356.0111111111111,356.0,356.0444444444444
3180669.0,,,,,,,,-1.4375,-1.96875,2.91796875,-0.078125,0.0234375,0.599609375,356.0111111111111,356.0,356.0444444444444
3180670.0,36.013592499999994,129.31975383333332,104.01601294059856,132.31951141054964,1.1,138.0,,-1.4375,-1.96875,2.91796875,0.263671875,-0.173828125,0.47265625,356.0111111111111,356.0,356.0444444444444
3180671.0,,,,,,,,-1.4375,-1.96875,2.91796875,0.263671875,-0.173828125,0.47265625,356.0111111111111,356.0,356.0444444444444
3180672.0,,,,,,,,-1.4375,-1.96875,2.91796875,0.333984375,0.009765625,0.380859375,356.0111111111111,356.0,356.0444444444444
3180673.0,,,,,,,,-1.4375,-1.96875,2.91796875,0.333984375,0.009765625,0.380859375,356.0111111111111,356.0,356.0444444444444
3180674.0,,,,,,,,-1.4375,-1.96875,2.91796875,0.36328125,-0.001953125,0.421875,356.0111111111111,356.0,356.0444444444444
3180675.0,,,,,,,,-1.4375,-1.96875,2.91796875,0.36328125,-0.001953125,0.421875,356.0111111111111,356.0,356.0444444444444
3180676.0,,,,,,,,-1.4375,-1.96875,2.91796875,0.384765625,-0.021484375,0.416015625,356.0111111111111,356.0,356.0444444444444
3180677.0,,,,,,,,-1.4375,-1.96875,2.91796875,0.384765625,-0.021484375,0.416015625,356.0111111111111,356.0,356.0444444444444
3180678.0,,,,,,,,-1.4375,-1.96875,2.91796875,0.439453125,0.091796875,0.4765625,356.0111111111111,356.0,356.0444444444444
3180679.0,,,,,,,,-1.4375,-1.96875,2.91796875,0.439453125,0.091796875,0.4765625,356.0111111111111,356.0,356.0444444444444
3180680.0,36.01359166666667,129.31975483333332,104.10616224981004,132.2270464361437,1.3,137.0,,-1.4375,-1.96875,2.91796875,0.490234375,0.169921875,0.484375,356.0111111111111,356.0,356.0444444444444
3180681.0,,,,,,,,-0.02734375,2.60546875,-0.8671875,0.490234375,0.169921875,0.484375,356.0111111111111,356.0,356.0444444444444
3180682.0,,,,,,,,-0.02734375,2.60546875,-0.8671875,0.490234375,0.169921875,0.484375,356.0111111111111,356.0,356.0444444444444
3180683.0,,,,,,,,-0.02734375,2.60546875,-0.8671875,0.490234375,0.169921875,0.484375,356.0111111111111,356.0,356.0444444444444
3180684.0,,,,,,,,-0.02734375,2.60546875,-0.8671875,0.4453125,0.08203125,0.517578125,356.0111111111111,356.0,356.0444444444444
3180685.0,,,,,,,,-0.02734375,2.60546875,-0.8671875,0.4453125,0.08203125,0.517578125,356.0111111111111,356.0,356.0444444444444
3180686.0,,,,,,,,-0.02734375,2.60546875,-0.8671875,0.341796875,0.046875,0.494140625,356.0111111111111,356.0,356.0444444444444
3180687.0,,,,,,,,-0.02734375,2.60546875,-0.8671875,0.341796875,0.046875,0.494140625,356.0,356.0,356.0444444444444
3180688.0,,,,,,,,-0.02734375,2.60546875,-0.8671875,0.25390625,0.03125,0.40234375,356.0,356.0,356.0444444444444
3180689.0,,,,,,,,-0.02734375,2.60546875,-0.8671875,0.25390625,0.03125,0.40234375,356.0,356.0,356.0444444444444
3180690.0,36.01359016666667,129.31975633333334,104.24138654710629,132.06060916002968,1.2000000000000002,135.0,,-0.02734375,2.60546875,-0.8671875,0.1953125,-0.009765625,0.3125,356.0,356.0,356.0444444444444
3180691.0,,,,,,,,-0.02734375,2.60546875,-0.8671875,0.1953125,-0.009765625,0.3125,356.0,356.0,356.0444444444444
3180692.0,,,,,,,,-0.02734375,2.60546875,-0.8671875,0.13671875,-0.09375,0.228515625,356.0,356.0,356.0444444444444
3180693.0,,,,,,,,-0.02734375,2.60546875,-0.8671875,0.13671875,-0.09375,0.228515625,356.0,356.0,356.0444444444444
3180694.0,,,,,,,,-0.02734375,2.60546875,-0.8671875,0.138671875,-0.130859375,0.205078125,356.0,356.0,356.0444444444444
3180695.0,,,,,,,,-0.02734375,2.60546875,-0.8671875,0.138671875,-0.130859375,0.205078125,356.0,356.0,356.0444444444444
3180696.0,,,,,,,,-0.02734375,2.60546875,-0.8671875,0.16796875,-0.12890625,0.107421875,356.0,356.0,356.0444444444444
3180697.0,,,,,,,,-0.015625,1.0703125,-2.19921875,0.16796875,-0.12890625,0.107421875,356.0,356.0,356.0444444444444
3180698.0,,,,,,,,-0.015625,1.0703125,-2.19921875,0.16796875,-0.12890625,0.107421875,356.0,356.0,356.0444444444444
3180699.0,,,,,,,,-0.015625,1.0703125,-2.19921875,0.16796875,-0.12890625,0.107421875,356.0,356.0,356.0444444444444
3180700.0,36.01358883333333,129.31975783333334,104.37661062781048,131.91266509533392,1.1,136.0,166.0,-0.015625,1.0703125,-2.19921875,0.16796875,-0.12890625,0.107421875,356.0,356.0,356.0444444444444
3180701.0,,,,,,,,-0.015625,1.0703125,-2.19921875,0.16796875,-0.12890625,0.107421875,356.0,356.0,356.0444444444444
3180702.0,,,,,,,,-0.015625,1.0703125,-2.19921875,0.15625,-0.033203125,-0.021484375,356.0,356.0,356.0444444444444
3180703.0,,,,,,,,-0.015625,1.0703125,-2.19921875,0.15625,-0.033203125,-0.021484375,356.0,356.0,356.0444444444444
3180704.0,,,,,,,,-0.015625,1.0703125,-2.19921875,0.11328125,-0.328125,-0.46484375,356.0,356.0,356.0444444444444
3180705.0,,,,,,,,0.51171875,-2.02734375,1.36328125,0.11328125,-0.328125,-0.46484375,356.0,356.0,356.0444444444444
3180706.0,,,,,,,,0.51171875,-2.02734375,1.36328125,0.11328125,-0.328125,-0.46484375,356.0,356.0,356.0444444444444
3180707.0,,,,,,,,0.51171875,-2.02734375,1.36328125,-0.140625,-0.2421875,-0.623046875,356.0,356.0,356.0444444444444
3180708.0,,,,,,,,0.51171875,-2.02734375,1.36328125,-0.140625,-0.2421875,-0.623046875,356.0,356.0,356.0444444444444
3180709.0,,,,,,,,0.51171875,-2.02734375,1.36328125,-0.2578125,-0.16015625,-0.693359375,356.0,356.0,356.0444444444444
3180710.0,36.01358716666667,129.31975883333334,104.46676104438264,131.7277340789168,1.1,145.0,,0.51171875,-2.02734375,1.36328125,-0.2578125,-0.16015625,-0.693359375,356.0,356.0,356.0444444444444
3180711.0,,,,,,,,0.51171875,-2.02734375,1.36328125,-0.296875,-0.115234375,-0.677734375,356.0,356.0,356.0444444444444
3180712.0,,,,,,,,0.51171875,-2.02734375,1.36328125,-0.296875,-0.115234375,-0.677734375,356.0111111111111,356.0,356.0444444444444
3180713.0,,,,,,,,0.51171875,-2.02734375,1.36328125,-0.294921875,-0.05078125,-0.67578125,356.0111111111111,356.0,356.0444444444444
3180714.0,,,,,,,,0.51171875,-2.02734375,1.36328125,-0.294921875,-0.05078125,-0.67578125,356.0111111111111,356.0,356.0444444444444
3180715.0,,,,,,,,0.51171875,-2.02734375,1.36328125,-0.318359375,-0.05859375,-0.6640625,356.0111111111111,356.0,356.0444444444444
3180716.0,,,,,,,,0.51171875,-2.02734375,1.36328125,-0.318359375,-0.05859375,-0.6640625,356.0111111111111,356.0,356.0444444444444
3180717.0,,,,,,,,0.51171875,-2.02734375,1.36328125,-0.345703125,-0.064453125,-0.640625,356.0111111111111,356.0,356.0444444444444
3180718.0,,,,,,,,0.51171875,-2.02734375,1.36328125,-0.345703125,-0.064453125,-0.640625,356.0111111111111,356.0,356.0444444444444
3180719.0,,,,,,,,0.51171875,-2.02734375,1.36328125,-0.3515625,-0.09765625,-0.552734375,356.0111111111111,356.0,356.0444444444444
3180720.0,36.01358616666666,129.31975966666667,104.54188587896266,131.61677572060233,1.3,143.0,,1.21484375,2.37109375,-1.56640625,-0.3515625,-0.09765625,-0.552734375,356.0111111111111,356.0,356.0444444444444
3180721.0,,,,,,,,1.21484375,2.37109375,-1.56640625,-0.3515625,-0.09765625,-0.552734375,356.0111111111111,356.0,356.0444444444444
3180722.0,,,,,,,,1.21484375,2.37109375,-1.56640625,-0.33984375,-0.166015625,-0.4140625,356.0111111111111,356.0,356.0444444444444
3180723.0,,,,,,,,1.21484375,2.37109375,-1.56640625,-0.33984375,-0.166015625,-0.4140625,356.0111111111111,356.0,356.0444444444444
3180724.0,,,,,,,,1.21484375,2.37109375,-1.56640625,-0.3203125,-0.23046875,-0.3203125,356.0111111111111,356.0,356.0444444444444
3180725.0,,,,,,,,1.21484375,2.37109375,-1.56640625,-0.3203125,-0.23046875,-0.3203125,356.0111111111111,356.0,356.0444444444444
3180726.0,,,,,,,,1.21484375,2.37109375,-1.56640625,-0.291015625,-0.271484375,-0.28125,356.0111111111111,356.0,356.0444444444444
3180727.0,,,,,,,,1.21484375,2.37109375,-1.56640625,-0.291015625,-0.271484375,-0.28125,356.0111111111111,356.0,356.0444444444444
3180728.0,,,,,,,,1.21484375,2.37109375,-1.56640625,-0.2578125,-0.263671875,-0.197265625,356.0111111111111,356.0,356.0444444444444
3180729.0,,,,,,,,1.21484375,2.37109375,-1.56640625,-0.2578125,-0.263671875,-0.197265625,356.0111111111111,356.0,356.0444444444444
3180730.0,36.013585166666665,129.31976033333333,104.60198601474042,131.50581718314885,1.2000000000000002,144.0,,1.21484375,2.37109375,-1.56640625,-0.27734375,-0.232421875,-0.162109375,356.0111111111111,356.0,356.0444444444444
3180731.0,,,,,,,,1.21484375,2.37109375,-1.56640625,-0.27734375,-0.232421875,-0.162109375,356.0111111111111,356.0,356.0444444444444
3180732.0,,,,,,,,1.21484375,2.37109375,-1.56640625,-0.287109375,-0.203125,-0.1484375,356.0111111111111,356.0,356.0444444444444
3180733.0,,,,,,,,1.21484375,2.37109375,-1.56640625,-0.287109375,-0.203125,-0.1484375,356.0111111111111,356.0,356.0444444444444
3180734.0,,,,,,,,1.21484375,2.37109375,-1.56640625,-0.294921875,-0.1171875,0.009765625,356.0111111111111,356.0,356.0444444444444
3180735.0,,,,,,,,0.4921875,0.21484375,-1.44140625,-0.294921875,-0.1171875,0.009765625,356.0111111111111,356.0,356.0444444444444
3180736.0,,,,,,,,0.4921875,0.21484375,-1.44140625,-0.294921875,-0.1171875,0.009765625,356.0111111111111,356.0,356.0444444444444
3180737.0,,,,,,,,0.4921875,0.21484375,-1.44140625,-0.28515625,-0.013671875,0.076171875,356.0111111111111,356.0,356.0444444444444
3180738.0,,,,,,,,0.4921875,0.21484375,-1.44140625,-0.28515625,-0.013671875,0.076171875,356.0111111111111,356.0,356.0444444444444
3180739.0,,,,,,,,0.4921875,0.21484375,-1.44140625,-0.267578125,-0.0625,0.125,356.0111111111111,356.0,356.0444444444444
3180740.0,36.0135845,129.31976133333333,104.6921351175222,131.43184542282555,1.1,143.0,,0.4921875,0.21484375,-1.44140625,-0.267578125,-0.0625,0.125,356.0111111111111,356.0,356.0444444444444
3180741.0,,,,,,,,0.4921875,0.21484375,-1.44140625,-0.287109375,-0.091796875,0.162109375,356.0111111111111,356.0,356.0444444444444
3180742.0,,,,,,,,0.4921875,0.21484375,-1.44140625,-0.287109375,-0.091796875,0.162109375,356.0111111111111,356.0,356.0444444444444
3180743.0,,,,,,,,0.4921875,0.21484375,-1.44140625,-0.3046875,-0.201171875,0.169921875,356.0111111111111,356.0,356.0444444444444
3180744.0,,,,,,,,0.4921875,0.21484375,-1.44140625,-0.3046875,-0.201171875,0.169921875,356.0111111111111,356.0,356.0444444444444
3180745.0,,,,,,,,0.4921875,0.21484375,-1.44140625,-0.361328125,-0.00390625,0.216796875,356.0111111111111,356.0,356.0444444444444
3180746.0,,,,,,,,0.4921875,0.21484375,-1.44140625,-0.361328125,-0.00390625,0.216796875,356.0111111111111,356.0,356.0444444444444
3180747.0,,,,,,,,0.4921875,0.21484375,-1.44140625,-0.373046875,0.51171875,0.35546875,356.0111111111111,356.0,356.0444444444444
3180748.0,,,,,,,,0.4921875,0.21484375,-1.44140625,-0.373046875,0.51171875,0.35546875,356.0111111111111,356.0,356.0444444444444
3180749.0,,,,,,,,0.4921875,0.21484375,-1.44140625,-0.2265625,0.404296875,0.51171875,356.0111111111111,356.0,356.0444444444444
3180750.0,36.013583499999996,129.319762,104.75223525392437,131.3208868864187,1.2000000000000002,144.0,,-2.55078125,-0.984375,2.97265625,-0.2265625,0.404296875,0.51171875,356.0111111111111,356.0,356.0444444444444
3180751.0,,,,,,,,-2.55078125,-0.984375,2.97265625,-0.2265625,0.404296875,0.51171875,356.0111111111111,356.0,356.0444444444444
3180752.0,,,,,,,,-2.55078125,-0.984375,2.97265625,-0.197265625,0.099609375,0.521484375,356.0111111111111,356.0,356.0444444444444
3180753.0,,,,,,,,-2.55078125,-0.984375,2.97265625,-0.197265625,0.099609375,0.521484375,356.0111111111111,356.0,356.0444444444444
3180754.0,,,,,,,,-2.55078125,-0.984375,2.97265625,0.0,-0.177734375,0.728515625,356.0111111111111,356.0,356.0444444444444
3180755.0,,,,,,,,-2.55078125,-0.984375,2.97265625,0.0,-0.177734375,0.728515625,356.0111111111111,356.0,356.0444444444444
3180756.0,,,,,,,,-2.55078125,-0.984375,2.97265625,0.22265625,-0.2578125,0.671875,356.0111111111111,356.0,356.0444444444444
3180757.0,,,,,,,,-2.55078125,-0.984375,2.97265625,0.22265625,-0.2578125,0.671875,356.0111111111111,356.0,356.0444444444444
3180758.0,,,,,,,,-2.55078125,-0.984375,2.97265625,0.314453125,-0.033203125,0.525390625,356.0111111111111,356.0,356.0444444444444
3180759.0,,,,,,,,-2.55078125,-0.984375,2.97265625,0.314453125,-0.033203125,0.525390625,356.0111111111111,356.0,356.0444444444444
3180760.0,36.01358283333333,129.31976283333333,104.82735965724858,131.24691494729473,1.2000000000000002,141.0,,-2.55078125,-0.984375,2.97265625,0.32421875,0.1796875,0.4296875,356.0111111111111,356.0,356.0444444444444
3180761.0,,,,,,,,-2.55078125,-0.984375,2.97265625,0.32421875,0.1796875,0.4296875,356.0111111111111,356.0,356.0444444444444
3180762.0,,,,,,,,-2.55078125,-0.984375,2.97265625,0.310546875,0.07421875,0.396484375,356.0111111111111,356.0,356.0444444444444
3180763.0,,,,,,,,-2.55078125,-0.984375,2.97265625,0.310546875,0.07421875,0.396484375,356.0111111111111,356.0,356.0444444444444
3180764.0,,,,,,,,-2.55078125,-0.984375,2.97265625,0.310546875,0.1015625,0.36328125,356.0111111111111,356.0,356.0444444444444
3180765.0,,,,,,,,0.54296875,2.078125,-0.41015625,0.310546875,0.1015625,0.36328125,356.0111111111111,356.0,356.0444444444444
3180766.0,,,,,,,,0.54296875,2.078125,-0.41015625,0.310546875,0.1015625,0.36328125,356.0111111111111,356.0,356.0444444444444
3180767.0,,,,,,,,0.54296875,2.078125,-0.41015625,0.310546875,0.1015625,0.36328125,356.0111111111111,356.0,356.0444444444444
3180768.0,,,,,,,,0.54296875,2.078125,-0.41015625,0.41796875,0.140625,0.412109375,356.0111111111111,356.0,356.0444444444444
3180769.0,,,,,,,,0.54296875,2.078125,-0.41015625,0.41796875,0.140625,0.412109375,356.0,356.0,356.0444444444444
3180770.0,36.013582,129.3197636666667,104.90248428152888,131.1544498008163,1.2000000000000002,138.0,,0.54296875,2.078125,-0.41015625,0.427734375,0.115234375,0.40625,356.0,356.0,356.0444444444444
3180771.0,,,,,,,,0.54296875,2.078125,-0.41015625,0.427734375,0.115234375,0.40625,356.0,356.0,356.0444444444444
3180772.0,,,,,,,,0.54296875,2.078125,-0.41015625,0.416015625,0.09375,0.365234375,356.0,356.0,356.0444444444444
3180773.0,,,,,,,,0.54296875,2.078125,-0.41015625,0.416015625,0.09375,0.365234375,356.0,356.0,356.0444444444444
3180774.0,,,,,,,,0.54296875,2.078125,-0.41015625,0.369140625,0.0390625,0.3203125,356.0,356.0,356.0444444444444
3180775.0,,,,,,,,0.54296875,2.078125,-0.41015625,0.369140625,0.0390625,0.3203125,356.0,356.0,356.0444444444444
3180776.0,,,,,,,,0.54296875,2.078125,-0.41015625,0.291015625,0.009765625,0.291015625,356.0,356.0,356.0444444444444
3180777.0,,,,,,,,0.54296875,2.078125,-0.41015625,0.291015625,0.009765625,0.291015625,356.0,356.0,356.0444444444444
3180778.0,,,,,,,,0.54296875,2.078125,-0.41015625,0.244140625,-0.099609375,0.23828125,356.0,356.0,356.0444444444444
3180779.0,,,,,,,,0.54296875,2.078125,-0.41015625,0.244140625,-0.099609375,0.23828125,356.0,356.0,356.0444444444444
3180780.0,36.0135815,129.31976433333332,104.96258375992082,131.0989708923538,1.1,135.0,,0.54296875,2.078125,-0.41015625,0.201171875,-0.201171875,0.177734375,356.0,356.0,356.0444444444444
3180781.0,,,,,,,,-0.08984375,0.796875,-1.72265625,0.201171875,-0.201171875,0.177734375,356.0,356.0,356.0444444444444
3180782.0,,,,,,,,-0.08984375,0.796875,-1.72265625,0.201171875,-0.201171875,0.177734375,356.0,356.0,356.0444444444444
3180783.0,,,,,,,,-0.08984375,0.796875,-1.72265625,0.201171875,-0.201171875,0.177734375,356.0,356.0,356.0444444444444
3180784.0,,,,,,,,-0.08984375,0.796875,-1.72265625,0.228515625,-0.265625,0.068359375,356.0,356.0,356.0444444444444
3180785.0,,,,,,,,-0.08984375,0.796875,-1.72265625,0.228515625,-0.265625,0.068359375,356.0,356.0,356.0444444444444
3180786.0,,,,,,,,-0.08984375,0.796875,-1.72265625,0.228515625,-0.265625,0.068359375,356.0,356.0,356.0444444444444
3180787.0,,,,,,,,-0.08984375,0.796875,-1.72265625,0.228515625,0.115234375,-0.0625,356.0,356.0,356.0444444444444
3180788.0,,,,,,,,-0.08984375,0.796875,-1.72265625,0.228515625,0.115234375,-0.0625,356.0,356.0,356.0444444444444
3180789.0,,,,,,,,-0.08984375,0.796875,-1.72265625,0.25,0.146484375,-0.05078125,356.0,356.0,356.0444444444444
3180790.0,36.01358066666667,129.31976533333332,105.05273309100087,131.0065059270884,1.2000000000000002,135.0,,-0.08984375,0.796875,-1.72265625,0.25,0.146484375,-0.05078125,356.0,356.0,356.0444444444444
3180791.0,,,,,,,,-0.08984375,0.796875,-1.72265625,0.291015625,0.005859375,0.02734375,356.0,356.0,356.0444444444444
3180792.0,,,,,,,,-0.08984375,0.796875,-1.72265625,0.291015625,0.005859375,0.02734375,356.0,356.0,356.0444444444444
3180793.0,,,,,,,,-0.08984375,0.796875,-1.72265625,0.33984375,0.017578125,0.04296875,356.0,356.0,356.0444444444444
3180794.0,,,,,,,,-0.08984375,0.796875,-1.72265625,0.33984375,0.017578125,0.04296875,356.0,356.0,356.0444444444444
3180795.0,,,,,,,,-0.08984375,0.796875,-1.72265625,0.337890625,0.1015625,0.017578125,356.0,356.0,356.0444444444444
3180796.0,,,,,,,,-0.08984375,0.796875,-1.72265625,0.337890625,0.1015625,0.017578125,356.0,356.0,356.0444444444444
3180797.0,,,,,,,,-0.08984375,0.796875,-1.72265625,0.3125,0.37890625,-0.140625,356.0,356.0,356.0444444444444
3180798.0,,,,,,,,0.5859375,-5.89453125,0.0078125,0.3125,0.37890625,-0.140625,356.0,356.0,356.0444444444444
3180799.0,,,,,,,,0.5859375,-5.89453125,0.0078125,0.3125,0.37890625,-0.140625,356.0,356.0,356.0444444444444
3180800.0,36.01357866666667,129.31976699999998,105.20298279166693,130.78458922070206,1.2000000000000002,145.0,166.0,0.5859375,-5.89453125,0.0078125,0.318359375,0.328125,-0.2265625,356.0,356.0,356.0444444444444
3180801.0,,,,,,,,0.5859375,-5.89453125,0.0078125,0.318359375,0.328125,-0.2265625,356.0,356.0,356.0444444444444
3180802.0,,,,,,,,0.5859375,-5.89453125,0.0078125,0.318359375,0.328125,-0.2265625,356.0,356.0,356.0444444444444
3180803.0,,,,,,,,0.5859375,-5.89453125,0.0078125,0.318359375,0.328125,-0.2265625,356.0,356.0,356.0444444444444
3180804.0,,,,,,,,0.5859375,-5.89453125,0.0078125,-0.380859375,-0.142578125,-0.443359375,356.0,356.0,356.0444444444444
3180805.0,,,,,,,,0.5859375,-5.89453125,0.0078125,-0.380859375,-0.142578125,-0.443359375,356.0111111111111,356.0,356.0444444444444
3180806.0,,,,,,,,0.5859375,-5.89453125,0.0078125,-0.3671875,-0.15234375,-0.4375,356.0111111111111,356.0,356.0444444444444
3180807.0,,,,,,,,1.19921875,2.47265625,-1.6171875,-0.3671875,-0.15234375,-0.4375,356.0111111111111,356.0,356.0444444444444
3180808.0,,,,,,,,1.19921875,2.47265625,-1.6171875,-0.3671875,-0.15234375,-0.4375,356.0111111111111,356.0,356.0444444444444
3180809.0,,,,,,,,1.19921875,2.47265625,-1.6171875,-0.2890625,-0.138671875,-0.33203125,356.0111111111111,356.0,356.0444444444444
3180810.0,36.01357666666667,129.31976883333334,105.3682572070993,130.56267269710435,1.3,145.0,,1.19921875,2.47265625,-1.6171875,-0.2890625,-0.138671875,-0.33203125,356.0111111111111,356.0,356.0444444444444
3180811.0,,,,,,,,1.19921875,2.47265625,-1.6171875,-0.26953125,-0.220703125,-0.263671875,356.0111111111111,356.0,356.0444444444444
3180812.0,,,,,,,,1.19921875,2.47265625,-1.6171875,-0.26953125,-0.220703125,-0.263671875,356.0111111111111,356.0,356.0444444444444
3180813.0,,,,,,,,1.19921875,2.47265625,-1.6171875,-0.26171875,-0.26171875,-0.23046875,356.0111111111111,356.0,356.0444444444444
3180814.0,,,,,,,,1.19921875,2.47265625,-1.6171875,-0.26171875,-0.26171875,-0.23046875,356.0111111111111,356.0,356.0444444444444
3180815.0,,,,,,,,1.19921875,2.47265625,-1.6171875,-0.27734375,-0.20703125,-0.197265625,356.0111111111111,356.0,356.0444444444444
3180816.0,,,,,,,,1.19921875,2.47265625,-1.6171875,-0.27734375,-0.20703125,-0.197265625,356.0111111111111,356.0,356.0444444444444
3180817.0,,,,,,,,1.19921875,2.47265625,-1.6171875,-0.298828125,-0.076171875,-0.103515625,356.0111111111111,356.0,356.0444444444444
3180818.0,,,,,,,,1.19921875,2.47265625,-1.6171875,-0.298828125,-0.076171875,-0.103515625,356.0111111111111,356.0,356.0444444444444
3180819.0,,,,,,,,1.19921875,2.47265625,-1.6171875,-0.28125,-0.021484375,-0.00390625,356.0111111111111,356.0,356.0444444444444
3180820.0,36.01357533333333,129.31977016666667,105.48845662457623,130.4147284669875,1.5,145.0,,1.19921875,2.47265625,-1.6171875,-0.28125,-0.021484375,-0.00390625,356.0111111111111,356.0,356.0444444444444
3180821.0,,,,,,,,1.19921875,2.47265625,-1.6171875,-0.265625,-0.046875,-0.00390625,356.0111111111111,356.0,356.0444444444444
3180822.0,,,,,,,,0.52734375,-0.64453125,-0.95703125,-0.265625,-0.046875,-0.00390625,356.0111111111111,356.0,356.0444444444444
3180823.0,,,,,,,,0.52734375,-0.64453125,-0.95703125,-0.265625,-0.046875,-0.00390625,356.0111111111111,356.0,356.0444444444444
3180824.0,,,,,,,,0.52734375,-0.64453125,-0.95703125,-0.25,0.07421875,0.060546875,356.0111111111111,356.0,356.0444444444444
3180825.0,,,,,,,,0.52734375,-0.64453125,-0.95703125,-0.25,0.07421875,0.060546875,356.0111111111111,356.0,356.0444444444444
3180826.0,,,,,,,,0.52734375,-0.64453125,-0.95703125,-0.236328125,0.0546875,0.1328125,356.0111111111111,356.0,356.0444444444444
3180827.0,,,,,,,,0.52734375,-0.64453125,-0.95703125,-0.236328125,0.0546875,0.1328125,356.0111111111111,356.0,356.0444444444444
3180828.0,,,,,,,,0.52734375,-0.64453125,-0.95703125,-0.25,-0.07421875,0.103515625,356.0111111111111,356.0,356.0444444444444
3180829.0,,,,,,,,0.52734375,-0.64453125,-0.95703125,-0.25,-0.07421875,0.103515625,356.0111111111111,356.0,356.0444444444444
3180830.0,36.01357466666666,129.31977116666667,105.57860574670146,130.3407567165178,1.3,145.0,,0.52734375,-0.64453125,-0.95703125,-0.294921875,0.228515625,0.125,356.0111111111111,356.0,356.0444444444444
3180831.0,,,,,,,,0.52734375,-0.64453125,-0.95703125,-0.294921875,0.228515625,0.125,356.0111111111111,356.0,356.0444444444444
3180832.0,,,,,,,,0.52734375,-0.64453125,-0.95703125,-0.2421875,0.736328125,0.365234375,356.0111111111111,356.0,356.0444444444444
3180833.0,,,,,,,,0.52734375,-0.64453125,-0.95703125,-0.2421875,0.736328125,0.365234375,356.0111111111111,356.0,356.0444444444444
3180834.0,,,,,,,,0.52734375,-0.64453125,-0.95703125,-0.064453125,0.521484375,0.697265625,356.0111111111111,356.0,356.0444444444444
3180835.0,,,,,,,,0.52734375,-0.64453125,-0.95703125,-0.064453125,0.521484375,0.697265625,356.0111111111111,356.0,356.0444444444444
3180836.0,,,,,,,,0.52734375,-0.64453125,-0.95703125,-0.13671875,0.2734375,0.478515625,356.0111111111111,356.0,356.0444444444444
3180837.0,,,,,,,,-0.76171875,-3.61328125,4.48828125,-0.13671875,0.2734375,0.478515625,356.0111111111111,356.0,356.0444444444444
3180838.0,,,,,,,,-0.76171875,-3.61328125,4.48828125,-0.13671875,0.2734375,0.478515625,356.0111111111111,356.0,356.0444444444444
3180839.0,,,,,,,,-0.76171875,-3.61328125,4.48828125,-0.05859375,-0.119140625,0.6953125,356.0111111111111,356.0,356.0444444444444
3180840.0,36.013572999999994,129.31977283333333,105.72885502667197,130.15582643482048,1.3,142.0,,-0.76171875,-3.61328125,4.48828125,-0.05859375,-0.119140625,0.6953125,356.0111111111111,356.0,356.0444444444444
3180841.0,,,,,,,,-0.76171875,-3.61328125,4.48828125,0.1640625,-0.201171875,0.5390625,356.0111111111111,356.0,356.0444444444444
3180842.0,,,,,,,,-0.76171875,-3.61328125,4.48828125,0.1640625,-0.201171875,0.5390625,356.0111111111111,356.0,356.0444444444444
3180843.0,,,,,,,,-0.76171875,-3.61328125,4.48828125,0.25,0.072265625,0.416015625,356.0111111111111,356.0,356.0444444444444
3180844.0,,,,,,,,-0.76171875,-3.61328125,4.48828125,0.25,0.072265625,0.416015625,356.0,356.0,356.0444444444444
3180845.0,,,,,,,,-0.76171875,-3.61328125,4.48828125,0.236328125,0.162109375,0.326171875,356.0,356.0,356.0444444444444
3180846.0,,,,,,,,-0.76171875,-3.61328125,4.48828125,0.236328125,0.162109375,0.326171875,356.0,356.0,356.0444444444444
3180847.0,,,,,,,,-0.76171875,-3.61328125,4.48828125,0.224609375,0.130859375,0.32421875,356.0,356.0,356.0444444444444
3180848.0,,,,,,,,-0.76171875,-3.61328125,4.48828125,0.224609375,0.130859375,0.32421875,356.0,356.0,356.0444444444444
3180849.0,,,,,,,,-0.76171875,-3.61328125,4.48828125,0.27734375,0.173828125,0.35546875,356.0,356.0,356.0444444444444
3180850.0,36.01357216666667,129.31977383333333,105.81900437571963,130.0633614785873,1.4000000000000001,140.0,,-0.76171875,-3.61328125,4.48828125,0.27734375,0.173828125,0.35546875,356.0,356.0,356.0444444444444
3180851.0,,,,,,,,-0.76171875,-3.61328125,4.48828125,0.365234375,0.26171875,0.341796875,356.0,356.0,356.0444444444444
3180852.0,,,,,,,,0.640625,2.56640625,-1.36328125,0.365234375,0.26171875,0.341796875,356.0,356.0,356.0444444444444
3180853.0,,,,,,,,0.640625,2.56640625,-1.36328125,0.365234375,0.26171875,0.341796875,356.0,356.0,356.0444444444444
3180854.0,,,,,,,,0.640625,2.56640625,-1.36328125,0.423828125,0.177734375,0.36328125,356.0,356.0,356.0444444444444
3180855.0,,,,,,,,0.640625,2.56640625,-1.36328125,0.423828125,0.177734375,0.36328125,356.0,356.0,356.0444444444444
3180856.0,,,,,,,,0.640625,2.56640625,-1.36328125,0.361328125,0.083984375,0.35546875,356.0,356.0,356.0444444444444
3180857.0,,,,,,,,0.640625,2.56640625,-1.36328125,0.361328125,0.083984375,0.35546875,356.0,356.0,356.0444444444444
3180858.0,,,,,,,,0.640625,2.56640625,-1.36328125,0.28515625,0.044921875,0.337890625,356.0,356.0,356.0444444444444
3180859.0,,,,,,,,0.640625,2.56640625,-1.36328125,0.28515625,0.044921875,0.337890625,356.0,356.0,356.0444444444444
3180860.0,36.01357133333333,129.31977466666666,105.89412902111373,129.97089633909002,1.2000000000000002,139.0,,0.640625,2.56640625,-1.36328125,0.224609375,0.0,0.24609375,356.0,356.0,356.0444444444444
3180861.0,,,,,,,,0.640625,2.56640625,-1.36328125,0.224609375,0.0,0.24609375,356.0,356.0,356.0444444444444
3180862.0,,,,,,,,0.640625,2.56640625,-1.36328125,0.1640625,-0.02734375,0.189453125,356.0,356.0,356.0444444444444
3180863.0,,,,,,,,0.640625,2.56640625,-1.36328125,0.1640625,-0.02734375,0.189453125,356.0,356.0,356.0444444444444
3180864.0,,,,,,,,0.640625,2.56640625,-1.36328125,0.13671875,-0.0390625,0.12890625,356.0,356.0,356.0444444444444
3180865.0,,,,,,,,0.640625,2.56640625,-1.36328125,0.13671875,-0.0390625,0.12890625,356.0,356.0,356.0444444444444
3180866.0,,,,,,,,0.640625,2.56640625,-1.36328125,0.12109375,-0.03125,0.041015625,356.0,356.0,356.0444444444444
3180867.0,,,,,,,,0.53125,0.96484375,-2.07421875,0.12109375,-0.03125,0.041015625,356.0,356.0,356.0444444444444
3180868.0,,,,,,,,0.53125,0.96484375,-2.07421875,0.12109375,-0.03125,0.041015625,356.0,356.0,356.0444444444444
3180869.0,,,,,,,,0.53125,0.96484375,-2.07421875,0.12109375,-0.03125,0.041015625,356.0,356.0,356.0444444444444
3180870.0,36.0135705,129.319776,106.0143277862208,129.87843174608497,1.2000000000000002,137.0,,0.53125,0.96484375,-2.07421875,0.130859375,-0.04296875,-0.01171875,356.0,356.0,356.0444444444444
3180871.0,,,,,,,,0.53125,0.96484375,-2.07421875,0.130859375,-0.04296875,-0.01171875,356.0,356.0,356.0444444444444
3180872.0,,,,,,,,0.53125,0.96484375,-2.07421875,0.1640625,0.173828125,-0.041015625,356.0,356.0,356.0444444444444
3180873.0,,,,,,,,0.53125,0.96484375,-2.07421875,0.1640625,0.173828125,-0.041015625,356.0,356.0,356.0444444444444
3180874.0,,,,,,,,0.53125,0.96484375,-2.07421875,0.1875,0.189453125,-0.037109375,356.0,356.0,356.0444444444444
3180875.0,,,,,,,,0.53125,0.96484375,-2.07421875,0.1875,0.189453125,-0.037109375,356.0,356.0,356.0444444444444
3180876.0,,,,,,,,0.53125,0.96484375,-2.07421875,0.224609375,0.1328125,0.0703125,356.0,356.0,356.0444444444444
3180877.0,,,,,,,,0.53125,0.96484375,-2.07421875,0.224609375,0.1328125,0.0703125,356.0,356.0,356.0444444444444
3180878.0,,,,,,,,0.53125,0.96484375,-2.07421875,0.234375,0.01171875,0.1015625,356.0,356.0,356.0444444444444
3180879.0,,,,,,,,0.53125,0.96484375,-2.07421875,0.234375,0.01171875,0.1015625,356.0,356.0,356.0444444444444
3180880.0,36.0135695,129.31977700000002,106.10447736713834,129.76747358229977,1.3,139.0,,0.53125,0.96484375,-2.07421875,0.263671875,0.087890625,0.087890625,356.0,356.0,356.0444444444444
3180881.0,,,,,,,,0.53125,0.96484375,-2.07421875,0.263671875,0.087890625,0.087890625,356.0,356.0,356.0444444444444
3180882.0,,,,,,,,0.53125,0.96484375,-2.07421875,0.21484375,0.41015625,-0.029296875,356.0,356.0,356.0444444444444
3180883.0,,,,,,,,-0.015625,-6.1953125,-0.28515625,0.21484375,0.41015625,-0.029296875,356.0,356.0,356.0444444444444
3180884.0,,,,,,,,-0.015625,-6.1953125,-0.28515625,0.21484375,0.41015625,-0.029296875,356.0,356.0,356.0444444444444
3180885.0,,,,,,,,-0.015625,-6.1953125,-0.28515625,0.21484375,0.41015625,-0.029296875,356.0,356.0,356.0444444444444
3180886.0,,,,,,,,-0.015625,-6.1953125,-0.28515625,0.287109375,0.208984375,-0.173828125,356.0,356.0,356.0444444444444
3180887.0,,,,,,,,-0.015625,-6.1953125,-0.28515625,0.287109375,0.208984375,-0.173828125,356.0,356.0,356.0444444444444
3180888.0,,,,,,,,-0.015625,-6.1953125,-0.28515625,0.40234375,-0.0390625,-0.392578125,356.0,356.0,356.0444444444444
3180889.0,,,,,,,,-0.015625,-6.1953125,-0.28515625,0.40234375,-0.0390625,-0.392578125,356.0,356.0,356.0444444444444
3180890.0,36.01356833333333,129.31977783333332,106.17960245992033,129.63802202912194,1.3,144.0,,-0.015625,-6.1953125,-0.28515625,0.2109375,-0.439453125,-0.396484375,356.0,356.0,356.0444444444444
3180891.0,,,,,,,,-0.015625,-6.1953125,-0.28515625,0.2109375,-0.439453125,-0.396484375,356.0,356.0,356.0444444444444
3180892.0,,,,,,,,-0.015625,-6.1953125,-0.28515625,0.021484375,-0.56640625,-0.392578125,356.0,356.0,356.0444444444444
3180893.0,,,,,,,,-0.015625,-6.1953125,-0.28515625,0.021484375,-0.56640625,-0.392578125,356.0,356.0,356.0444444444444
3180894.0,,,,,,,,-0.015625,-6.1953125,-0.28515625,-0.169921875,-0.390625,-0.51171875,356.0,356.0,356.0444444444444
3180895.0,,,,,,,,-0.015625,-6.1953125,-0.28515625,-0.169921875,-0.390625,-0.51171875,356.0,356.0,356.0444444444444
3180896.0,,,,,,,,-0.015625,-6.1953125,-0.28515625,-0.23828125,-0.3046875,-0.607421875,356.0,356.0,356.0444444444444
3180897.0,,,,,,,,-0.015625,-6.1953125,-0.28515625,-0.23828125,-0.3046875,-0.607421875,356.0,356.0,356.0444444444444
3180898.0,,,,,,,,-0.015625,-6.1953125,-0.28515625,-0.29296875,-0.244140625,-0.611328125,356.0,356.0,356.0444444444444
3180899.0,,,,,,,,0.7734375,1.64453125,-1.19140625,-0.29296875,-0.244140625,-0.611328125,356.0,356.0,356.0444444444444
3180900.0,36.01356633333333,129.31977999999998,106.37492633550951,129.41610588685992,1.4000000000000001,143.0,166.0,0.7734375,1.64453125,-1.19140625,-0.29296875,-0.244140625,-0.611328125,356.0,356.0,356.0444444444444
3180901.0,,,,,,,,0.7734375,1.64453125,-1.19140625,-0.29296875,-0.244140625,-0.611328125,356.0,356.0,356.0444444444444
3180902.0,,,,,,,,0.7734375,1.64453125,-1.19140625,-0.29296875,-0.244140625,-0.611328125,356.0,356.0,356.0444444444444
3180903.0,,,,,,,,0.7734375,1.64453125,-1.19140625,-0.384765625,-0.142578125,-0.59375,356.0,356.0,356.0444444444444
3180904.0,,,,,,,,0.7734375,1.64453125,-1.19140625,-0.384765625,-0.142578125,-0.59375,356.0,356.0,356.0444444444444
3180905.0,,,,,,,,0.7734375,1.64453125,-1.19140625,-0.25,-0.103515625,-0.05859375,356.0,356.0,356.0444444444444
3180906.0,,,,,,,,0.65234375,0.20703125,-1.15625,-0.25,-0.103515625,-0.05859375,356.0,356.0,356.0444444444444
3180907.0,,,,,,,,0.65234375,0.20703125,-1.15625,-0.25,-0.103515625,-0.05859375,356.0111111111111,356.0,356.0444444444444
3180908.0,,,,,,,,0.65234375,0.20703125,-1.15625,-0.212890625,-0.1171875,0.1484375,356.0111111111111,356.0,356.0444444444444
3180909.0,,,,,,,,0.65234375,0.20703125,-1.15625,-0.212890625,-0.1171875,0.1484375,356.0111111111111,356.0,356.0444444444444
3180910.0,36.01356416666667,129.31978183333334,106.54020103045319,129.1756961776141,1.4000000000000001,144.0,,0.65234375,0.20703125,-1.15625,-0.205078125,-0.134765625,0.25,356.0111111111111,356.0,356.0444444444444
3180911.0,,,,,,,,0.65234375,0.20703125,-1.15625,-0.205078125,-0.134765625,0.25,356.0111111111111,356.0,356.0444444444444
3180912.0,,,,,,,,0.65234375,0.20703125,-1.15625,-0.2109375,-0.1171875,0.17578125,356.0111111111111,356.0,356.0444444444444
3180913.0,,,,,,,,0.65234375,0.20703125,-1.15625,-0.2109375,-0.1171875,0.17578125,356.0111111111111,356.0,356.0444444444444
3180914.0,,,,,,,,0.65234375,0.20703125,-1.15625,-0.220703125,-0.060546875,0.244140625,356.0111111111111,356.0,356.0444444444444
3180915.0,,,,,,,,0.65234375,0.20703125,-1.15625,-0.220703125,-0.060546875,0.244140625,356.0111111111111,356.0,356.0444444444444
3180916.0,,,,,,,,0.65234375,0.20703125,-1.15625,-0.1796875,0.3125,0.35546875,356.0111111111111,356.0,356.0444444444444
3180917.0,,,,,,,,0.65234375,0.20703125,-1.15625,-0.1796875,0.3125,0.35546875,356.0111111111111,356.0,356.0444444444444
3180918.0,,,,,,,,0.65234375,0.20703125,-1.15625,-0.166015625,0.79296875,0.3828125,356.0111111111111,356.0,356.0444444444444
3180919.0,,,,,,,,0.65234375,0.20703125,-1.15625,-0.166015625,0.79296875,0.3828125,356.0111111111111,356.0,356.0444444444444
3180920.0,36.013563500000004,129.319783,106.64537488085556,129.10172461943299,1.3,142.0,,0.65234375,0.20703125,-1.15625,-0.1328125,0.03515625,0.427734375,356.0111111111111,356.0,356.0444444444444
3180921.0,,,,,,,,-2.6171875,-1.37109375,3.41015625,-0.1328125,0.03515625,0.427734375,356.0111111111111,356.0,356.0444444444444
3180922.0,,,,,,,,-2.6171875,-1.37109375,3.41015625,-0.1328125,0.03515625,0.427734375,356.0111111111111,356.0,356.0444444444444
3180923.0,,,,,,,,-2.6171875,-1.37109375,3.41015625,-0.125,-0.119140625,0.470703125,356.0111111111111,356.0,356.0444444444444
3180924.0,,,,,,,,-2.6171875,-1.37109375,3.41015625,-0.125,-0.119140625,0.470703125,356.0111111111111,356.0,356.0444444444444
3180925.0,,,,,,,,-2.6171875,-1.37109375,3.41015625,0.1015625,-0.24609375,0.513671875,356.0111111111111,356.0,356.0444444444444
3180926.0,,,,,,,,-2.6171875,-1.37109375,3.41015625,0.1015625,-0.24609375,0.513671875,356.0111111111111,356.0,356.0444444444444
3180927.0,,,,,,,,-2.6171875,-1.37109375,3.41015625,0.25390625,-0.18359375,0.41796875,356.0111111111111,356.0,356.0444444444444
3180928.0,,,,,,,,-2.6171875,-1.37109375,3.41015625,0.25390625,-0.18359375,0.41796875,356.0111111111111,356.0,356.0444444444444
3180929.0,,,,,,,,-2.6171875,-1.37109375,3.41015625,0.341796875,-0.021484375,0.3046875,356.0111111111111,356.0,356.0444444444444
3180930.0,36.0135625,129.31978416666666,106.75054918303404,128.99076664397424,1.4000000000000001,142.0,,-2.6171875,-1.37109375,3.41015625,0.341796875,-0.021484375,0.3046875,356.0111111111111,356.0,356.0444444444444
3180931.0,,,,,,,,-2.6171875,-1.37109375,3.41015625,0.330078125,0.09765625,0.29296875,356.0111111111111,356.0,356.0444444444444
3180932.0,,,,,,,,-2.6171875,-1.37109375,3.41015625,0.330078125,0.09765625,0.29296875,356.0111111111111,356.0,356.0444444444444
3180933.0,,,,,,,,-2.6171875,-1.37109375,3.41015625,0.359375,0.119140625,0.37109375,356.0111111111111,356.0,356.0444444444444
3180934.0,,,,,,,,-2.6171875,-1.37109375,3.41015625,0.359375,0.119140625,0.37109375,356.0111111111111,356.0,356.0444444444444
3180935.0,,,,,,,,-2.6171875,-1.37109375,3.41015625,0.384765625,0.173828125,0.3671875,356.0111111111111,356.0,356.0444444444444
3180936.0,,,,,,,,0.234375,2.53125,-1.09765625,0.384765625,0.173828125,0.3671875,356.0111111111111,356.0,356.0444444444444
3180937.0,,,,,,,,0.234375,2.53125,-1.09765625,0.384765625,0.173828125,0.3671875,356.0,356.0,356.0444444444444
3180938.0,,,,,,,,0.234375,2.53125,-1.09765625,0.40234375,0.09375,0.28515625,356.0,356.0,356.0444444444444
3180939.0,,,,,,,,0.234375,2.53125,-1.09765625,0.40234375,0.09375,0.28515625,356.0,356.0,356.0444444444444
3180940.0,36.013560999999996,129.31978633333335,106.94587241353037,128.8243301404917,1.3,135.0,,0.234375,2.53125,-1.09765625,0.341796875,0.025390625,0.23828125,356.0,356.0,356.0444444444444
3180941.0,,,,,,,,0.234375,2.53125,-1.09765625,0.341796875,0.025390625,0.23828125,356.0,356.0,356.0444444444444
3180942.0,,,,,,,,0.234375,2.53125,-1.09765625,0.267578125,-0.046875,0.189453125,356.0,356.0,356.0444444444444
3180943.0,,,,,,,,0.234375,2.53125,-1.09765625,0.267578125,-0.046875,0.189453125,356.0,356.0,356.0444444444444
3180944.0,,,,,,,,0.234375,2.53125,-1.09765625,0.1953125,-0.12109375,0.1171875,356.0,356.0,356.0444444444444
3180945.0,,,,,,,,0.234375,2.53125,-1.09765625,0.1953125,-0.12109375,0.1171875,356.0,356.0,356.0444444444444
3180946.0,,,,,,,,0.234375,2.53125,-1.09765625,0.142578125,-0.1484375,0.03125,356.0,356.0,356.0444444444444
3180947.0,,,,,,,,0.234375,2.53125,-1.09765625,0.142578125,-0.1484375,0.03125,356.0,356.0,356.0444444444444
3180948.0,,,,,,,,0.234375,2.53125,-1.09765625,0.095703125,-0.19921875,-0.0390625,356.0,356.0,356.0444444444444
3180949.0,,,,,,,,0.234375,2.53125,-1.09765625,0.095703125,-0.19921875,-0.0390625,356.0,356.0,356.0444444444444
3180950.0,36.01356016666667,129.31978683333332,106.99094766083601,128.7318646484297,1.2000000000000002,138.0,,0.234375,2.53125,-1.09765625,0.076171875,-0.19140625,-0.087890625,356.0,356.0,356.0444444444444
3180951.0,,,,,,,,-0.16796875,1.1171875,-1.57421875,0.076171875,-0.19140625,-0.087890625,356.0,356.0,356.0444444444444
3180952.0,,,,,,,,-0.16796875,1.1171875,-1.57421875,0.076171875,-0.19140625,-0.087890625,356.0,356.0,356.0444444444444
3180953.0,,,,,,,,-0.16796875,1.1171875,-1.57421875,0.076171875,-0.19140625,-0.087890625,356.0,356.0,356.0444444444444
3180954.0,,,,,,,,-0.16796875,1.1171875,-1.57421875,0.078125,-0.169921875,-0.130859375,356.0,356.0,356.0444444444444
3180955.0,,,,,,,,-0.16796875,1.1171875,-1.57421875,0.078125,-0.169921875,-0.130859375,356.0,356.0,356.0444444444444
3180956.0,,,,,,,,-0.16796875,1.1171875,-1.57421875,0.11328125,0.021484375,-0.09765625,356.0,356.0,356.0444444444444
3180957.0,,,,,,,,-0.16796875,1.1171875,-1.57421875,0.11328125,0.021484375,-0.09765625,356.0,356.0,356.0444444444444
3180958.0,,,,,,,,-0.16796875,1.1171875,-1.57421875,0.169921875,0.078125,-0.04296875,356.0,356.0,356.0444444444444
3180959.0,,,,,,,,-0.16796875,1.1171875,-1.57421875,0.169921875,0.078125,-0.04296875,356.0,356.0,356.0444444444444
3180960.0,36.0135595,129.31978783333335,107.08109681522203,128.657892911492,1.2000000000000002,139.0,,-0.16796875,1.1171875,-1.57421875,0.248046875,0.099609375,0.017578125,356.0,356.0,356.0444444444444
3180961.0,,,,,,,,-0.16796875,1.1171875,-1.57421875,0.248046875,0.099609375,0.017578125,356.0,356.0,356.0444444444444
3180962.0,,,,,,,,-0.16796875,1.1171875,-1.57421875,0.31640625,-0.013671875,0.0546875,356.0,356.0,356.0444444444444
3180963.0,,,,,,,,-0.16796875,1.1171875,-1.57421875,0.31640625,-0.013671875,0.0546875,356.0,356.0,356.0444444444444
3180964.0,,,,,,,,-0.16796875,1.1171875,-1.57421875,0.330078125,-0.02734375,0.078125,356.0,356.0,356.0444444444444
3180965.0,,,,,,,,-0.16796875,1.1171875,-1.57421875,0.330078125,-0.02734375,0.078125,356.0,356.0,356.0444444444444
3180966.0,,,,,,,,-0.16796875,1.1171875,-1.57421875,0.255859375,0.396484375,-0.197265625,356.0,356.0,356.0444444444444
3180967.0,,,,,,,,0.05859375,-5.38671875,0.20703125,0.255859375,0.396484375,-0.197265625,356.0,356.0,356.0444444444444
3180968.0,,,,,,,,0.05859375,-5.38671875,0.20703125,0.255859375,0.396484375,-0.197265625,356.0,356.0,356.0444444444444
3180969.0,,,,,,,,0.05859375,-5.38671875,0.20703125,0.255859375,0.396484375,-0.197265625,356.0,356.0,356.0444444444444
3180970.0,36.013558333333336,129.31978866666668,107.15622193485429,128.5284413670425,1.3,143.0,,0.05859375,-5.38671875,0.20703125,0.3671875,0.189453125,-0.115234375,356.0,356.0,356.0444444444444
3180971.0,,,,,,,,0.05859375,-5.38671875,0.20703125,0.3671875,0.189453125,-0.115234375,356.0,356.0,356.0444444444444
3180972.0,,,,,,,,0.05859375,-5.38671875,0.20703125,0.337890625,-0.134765625,-0.208984375,356.0,356.0,356.0444444444444
3180973.0,,,,,,,,0.05859375,-5.38671875,0.20703125,0.337890625,-0.134765625,-0.208984375,356.0,356.0,356.0444444444444
3180974.0,,,,,,,,0.05859375,-5.38671875,0.20703125,0.119140625,-0.376953125,-0.267578125,356.0,356.0,356.0444444444444
3180975.0,,,,,,,,0.05859375,-5.38671875,0.20703125,0.119140625,-0.376953125,-0.267578125,356.0,356.0,356.0444444444444
3180976.0,,,,,,,,0.05859375,-5.38671875,0.20703125,-0.0546875,-0.4140625,-0.359375,356.0,356.0,356.0444444444444
3180977.0,,,,,,,,0.05859375,-5.38671875,0.20703125,-0.0546875,-0.4140625,-0.359375,356.0111111111111,356.0,356.0444444444444
3180978.0,,,,,,,,0.05859375,-5.38671875,0.20703125,-0.154296875,-0.216796875,-0.4375,356.0111111111111,356.0,356.0444444444444
3180979.0,,,,,,,,0.05859375,-5.38671875,0.20703125,-0.154296875,-0.216796875,-0.4375,356.0111111111111,356.0,356.0444444444444
3180980.0,36.01355733333333,129.31978966666665,107.24637153905385,128.41748321434343,1.4000000000000001,144.0,,0.05859375,-5.38671875,0.20703125,-0.25390625,-0.1640625,-0.501953125,356.0111111111111,356.0,356.0444444444444
3180981.0,,,,,,,,0.05859375,-5.38671875,0.20703125,-0.25390625,-0.1640625,-0.501953125,356.0111111111111,356.0,356.0444444444444
3180982.0,,,,,,,,0.05859375,-5.38671875,0.20703125,-0.296875,-0.24609375,-0.46484375,356.0111111111111,356.0,356.0444444444444
3180983.0,,,,,,,,1.046875,1.0703125,-0.27734375,-0.296875,-0.24609375,-0.46484375,356.0111111111111,356.0,356.0444444444444
3180984.0,,,,,,,,1.046875,1.0703125,-0.27734375,-0.296875,-0.24609375,-0.46484375,356.0111111111111,356.0,356.0444444444444
3180985.0,,,,,,,,1.046875,1.0703125,-0.27734375,-0.296875,-0.24609375,-0.46484375,356.0111111111111,356.0,356.0444444444444
3180986.0,,,,,,,,1.046875,1.0703125,-0.27734375,-0.322265625,-0.24609375,-0.38671875,356.0111111111111,356.0,356.0444444444444
3180987.0,,,,,,,,1.046875,1.0703125,-0.27734375,-0.322265625,-0.24609375,-0.38671875,356.0111111111111,356.0,356.0444444444444
3180988.0,,,,,,,,1.046875,1.0703125,-0.27734375,-0.3203125,-0.177734375,-0.36328125,356.0111111111111,356.0,356.0444444444444
3180989.0,,,,,,,,1.046875,1.0703125,-0.27734375,-0.3203125,-0.177734375,-0.36328125,356.0111111111111,356.0,356.0444444444444
3180990.0,36.013556333333334,129.31979016666668,107.29144702232591,128.3065245133052,1.4000000000000001,143.0,,1.046875,1.0703125,-0.27734375,-0.310546875,-0.16015625,-0.291015625,356.0111111111111,356.0,356.0444444444444
3180991.0,,,,,,,,1.046875,1.0703125,-0.27734375,-0.310546875,-0.16015625,-0.291015625,356.0111111111111,356.0,356.0444444444444
3180992.0,,,,,,,,1.046875,1.0703125,-0.27734375,-0.314453125,-0.150390625,-0.232421875,356.0111111111111,356.0,356.0444444444444
3180993.0,,,,,,,,1.046875,1.0703125,-0.27734375,-0.314453125,-0.150390625,-0.232421875,356.0111111111111,356.0,356.0444444444444
3180994.0,,,,,,,,1.046875,1.0703125,-0.27734375,-0.28515625,-0.166015625,-0.142578125,356.0111111111111,356.0,356.0444444444444
3180995.0,,,,,,,,1.046875,1.0703125,-0.27734375,-0.28515625,-0.166015625,-0.142578125,356.0111111111111,356.0,356.0444444444444
3180996.0,,,,,,,,1.046875,1.0703125,-0.27734375,-0.2890625,-0.244140625,-0.04296875,356.0111111111111,356.0,356.0444444444444
3180997.0,,,,,,,,1.046875,1.0703125,-0.27734375,-0.2890625,-0.244140625,-0.04296875,356.0111111111111,356.0,356.0444444444444
3180998.0,,,,,,,,1.046875,1.0703125,-0.27734375,-0.279296875,-0.380859375,0.0078125,356.0111111111111,356.0,356.0444444444444
3180999.0,,,,,,,,-0.265625,2.3046875,-0.859375,-0.279296875,-0.380859375,0.0078125,356.0111111111111,356.0,356.0444444444444
3181000.0,36.013554500000005,129.31979233333334,107.48677072840529,128.10310160594673,1.4000000000000001,142.0,166.0,-0.265625,2.3046875,-0.859375,-0.279296875,-0.380859375,0.0078125,356.0111111111111,356.0,356.0444444444444
3181001.0,,,,,,,,-0.265625,2.3046875,-0.859375,-0.279296875,-0.380859375,0.0078125,356.0111111111111,356.0,356.0444444444444
3181002.0,,,,,,,,-0.265625,2.3046875,-0.859375,-0.322265625,-0.3359375,0.119140625,356.0111111111111,356.0,356.0444444444444
3181003.0,,,,,,,,-0.265625,2.3046875,-0.859375,-0.322265625,-0.3359375,0.119140625,356.0111111111111,356.0,356.0444444444444
3181004.0,,,,,,,,-0.265625,2.3046875,-0.859375,-0.294921875,-0.126953125,0.275390625,356.0111111111111,356.0,356.0444444444444
3181005.0,,,,,,,,-0.265625,2.3046875,-0.859375,-0.294921875,-0.126953125,0.275390625,356.0111111111111,356.0,356.0444444444444
3181006.0,,,,,,,,-0.265625,2.3046875,-0.859375,-0.333984375,0.45703125,0.326171875,356.0111111111111,356.0,356.0444444444444
3181007.0,,,,,,,,-0.265625,2.3046875,-0.859375,-0.333984375,0.45703125,0.326171875,356.0111111111111,356.0,356.0444444444444
3181008.0,,,,,,,,-0.265625,2.3046875,-0.859375,-0.28125,0.580078125,0.33203125,356.0111111111111,356.0,356.0444444444444
3181009.0,,,,,,,,-0.265625,2.3046875,-0.859375,-0.28125,0.580078125,0.33203125,356.0111111111111,356.0,356.0444444444444
3181010.0,36.01355383333334,129.31979316666667,107.56189518156675,128.02912969169876,1.3,142.0,,-0.265625,2.3046875,-0.859375,-0.201171875,-0.28125,0.09765625,356.0111111111111,356.0,356.0444444444444
3181011.0,,,,,,,,-0.265625,2.3046875,-0.859375,-0.201171875,-0.28125,0.09765625,356.0111111111111,356.0,356.0444444444444
3181012.0,,,,,,,,-0.265625,2.3046875,-0.859375,-0.19140625,-0.005859375,0.3984375,356.0111111111111,356.0,356.0444444444444
3181013.0,,,,,,,,-0.265625,2.3046875,-0.859375,-0.19140625,-0.005859375,0.3984375,356.0111111111111,356.0,356.0444444444444
3181014.0,,,,,,,,-0.265625,2.3046875,-0.859375,0.037109375,0.017578125,0.396484375,356.0111111111111,356.0,356.0444444444444
3181015.0,,,,,,,,-0.93359375,-1.4375,3.9375,0.037109375,0.017578125,0.396484375,356.0111111111111,356.0,356.0444444444444
3181016.0,,,,,,,,-0.93359375,-1.4375,3.9375,0.037109375,0.017578125,0.396484375,356.0111111111111,356.0,356.0444444444444
3181017.0,,,,,,,,-0.93359375,-1.4375,3.9375,0.416015625,-0.025390625,0.2109375,356.0111111111111,356.0,356.0444444444444
3181018.0,,,,,,,,-0.93359375,-1.4375,3.9375,0.416015625,-0.025390625,0.2109375,356.0111111111111,356.0,356.0444444444444
3181019.0,,,,,,,,-0.93359375,-1.4375,3.9375,0.462890625,0.234375,0.111328125,356.0111111111111,356.0,356.0444444444444
3181020.0,36.01355283333333,129.3197945,107.68209421693889,127.91817190925508,1.4000000000000001,139.0,,-0.93359375,-1.4375,3.9375,0.462890625,0.234375,0.111328125,356.0111111111111,356.0,356.0444444444444
3181021.0,,,,,,,,-0.93359375,-1.4375,3.9375,0.4375,0.134765625,0.134765625,356.0111111111111,356.0,356.0444444444444
3181022.0,,,,,,,,-0.93359375,-1.4375,3.9375,0.4375,0.134765625,0.134765625,356.0111111111111,356.0,356.0444444444444
3181023.0,,,,,,,,-0.93359375,-1.4375,3.9375,0.359375,0.06640625,0.201171875,356.0111111111111,356.0,356.0444444444444
3181024.0,,,,,,,,-0.93359375,-1.4375,3.9375,0.359375,0.06640625,0.201171875,356.0111111111111,356.0,356.0444444444444
3181025.0,,,,,,,,-0.93359375,-1.4375,3.9375,0.40234375,0.166015625,0.28125,356.0111111111111,356.0,356.0444444444444
3181026.0,,,,,,,,-0.93359375,-1.4375,3.9375,0.40234375,0.166015625,0.28125,356.0111111111111,356.0,356.0444444444444
3181027.0,,,,,,,,-0.93359375,-1.4375,3.9375,0.486328125,0.11328125,0.31640625,356.0111111111111,356.0,356.0444444444444
3181028.0,,,,,,,,-0.93359375,-1.4375,3.9375,0.486328125,0.11328125,0.31640625,356.0111111111111,356.0,356.0444444444444
3181029.0,,,,,,,,-0.93359375,-1.4375,3.9375,0.5,0.091796875,0.349609375,356.0111111111111,356.0,356.0444444444444
3181030.0,36.013551,129.31979633333333,107.84736851991049,127.7147486433465,1.4000000000000001,138.0,,-0.44140625,3.3125,-0.65625,0.5,0.091796875,0.349609375,356.0111111111111,356.0,356.0444444444444
3181031.0,,,,,,,,-0.44140625,3.3125,-0.65625,0.5,0.091796875,0.349609375,356.0111111111111,356.0,356.0444444444444
3181032.0,,,,,,,,-0.44140625,3.3125,-0.65625,0.5,0.091796875,0.349609375,356.0111111111111,356.0,356.0444444444444
3181033.0,,,,,,,,-0.44140625,3.3125,-0.65625,0.37890625,0.171875,0.33984375,356.0111111111111,356.0,356.0444444444444
3181034.0,,,,,,,,-0.44140625,3.3125,-0.65625,0.37890625,0.171875,0.33984375,356.0111111111111,356.0,356.0444444444444
3181035.0,,,,,,,,-0.44140625,3.3125,-0.65625,0.236328125,0.095703125,0.26953125,356.0111111111111,356.0,356.0444444444444
3181036.0,,,,,,,,-0.44140625,3.3125,-0.65625,0.236328125,0.095703125,0.26953125,356.0,356.0,356.0444444444444
3181037.0,,,,,,,,-0.44140625,3.3125,-0.65625,0.181640625,0.064453125,0.21484375,356.0,356.0,356.0444444444444
3181038.0,,,,,,,,-0.44140625,3.3125,-0.65625,0.181640625,0.064453125,0.21484375,356.0,356.0,356.0444444444444
3181039.0,,,,,,,,-0.44140625,3.3125,-0.65625,0.134765625,-0.083984375,0.09765625,356.0,356.0,356.0444444444444
3181040.0,36.01355,129.3197975,107.95254285408899,127.6037906833376,1.4000000000000001,138.0,,-0.44140625,3.3125,-0.65625,0.134765625,-0.083984375,0.09765625,356.0,356.0,356.0444444444444
3181041.0,,,,,,,,-0.44140625,3.3125,-0.65625,0.109375,-0.091796875,0.037109375,356.0,356.0,356.0444444444444
3181042.0,,,,,,,,-0.44140625,3.3125,-0.65625,0.109375,-0.091796875,0.037109375,356.0,356.0,356.0444444444444
3181043.0,,,,,,,,-0.44140625,3.3125,-0.65625,0.130859375,-0.095703125,-0.01171875,356.0,356.0,356.0444444444444
3181044.0,,,,,,,,-0.44140625,3.3125,-0.65625,0.130859375,-0.095703125,-0.01171875,356.0,356.0,356.0444444444444
3181045.0,,,,,,,,-0.44140625,3.3125,-0.65625,0.1484375,-0.021484375,-0.03125,356.0,356.0,356.0444444444444
3181046.0,,,,,,,,0.09765625,-0.72265625,-0.6171875,0.1484375,-0.021484375,-0.03125,356.0,356.0,356.0444444444444
3181047.0,,,,,,,,0.09765625,-0.72265625,-0.6171875,0.1484375,-0.021484375,-0.03125,356.0,356.0,356.0444444444444
3181048.0,,,,,,,,0.09765625,-0.72265625,-0.6171875,0.1484375,-0.021484375,-0.03125,356.0,356.0,356.0444444444444
3181049.0,,,,,,,,0.09765625,-0.72265625,-0.6171875,0.177734375,-0.015625,0.009765625,356.0,356.0,356.0444444444444
3181050.0,36.013549166666664,129.31979816666666,108.01264283025854,127.51132537821323,1.2000000000000002,139.0,,0.09765625,-0.72265625,-0.6171875,0.177734375,-0.015625,0.009765625,356.0,356.0,356.0444444444444
3181051.0,,,,,,,,0.09765625,-0.72265625,-0.6171875,0.25,-0.02734375,0.15234375,356.0,356.0,356.0444444444444
3181052.0,,,,,,,,0.09765625,-0.72265625,-0.6171875,0.25,-0.02734375,0.15234375,356.0,356.0,356.0444444444444
3181053.0,,,,,,,,0.09765625,-0.72265625,-0.6171875,0.2890625,0.123046875,0.154296875,356.0,356.0,356.0444444444444
3181054.0,,,,,,,,0.09765625,-0.72265625,-0.6171875,0.2890625,0.123046875,0.154296875,356.0,356.0,356.0444444444444
3181055.0,,,,,,,,0.09765625,-0.72265625,-0.6171875,0.283203125,0.400390625,-0.01171875,356.0,356.0,356.0444444444444
3181056.0,,,,,,,,0.09765625,-0.72265625,-0.6171875,0.283203125,0.400390625,-0.01171875,356.0,356.0,356.0444444444444
3181057.0,,,,,,,,0.09765625,-0.72265625,-0.6171875,0.205078125,0.814453125,-0.341796875,356.0,356.0,356.0444444444444
3181058.0,,,,,,,,0.09765625,-0.72265625,-0.6171875,0.205078125,0.814453125,-0.341796875,356.0,356.0,356.0444444444444
3181059.0,,,,,,,,0.09765625,-0.72265625,-0.6171875,0.37109375,-0.28515625,0.0625,356.0,356.0,356.0444444444444
3181060.0,36.01354833333333,129.31979916666666,108.10279223051928,127.41886044391075,1.3,140.0,,0.09765625,-0.72265625,-0.6171875,0.37109375,-0.28515625,0.0625,356.0,356.0,356.0444444444444
3181061.0,,,,,,,,0.09765625,-0.72265625,-0.6171875,0.431640625,-0.08984375,0.01171875,356.0,356.0,356.0444444444444
3181062.0,,,,,,,,0.40625,-2.71484375,3.35546875,0.431640625,-0.08984375,0.01171875,356.0,356.0,356.0444444444444
3181063.0,,,,,,,,0.40625,-2.71484375,3.35546875,0.431640625,-0.08984375,0.01171875,356.0,356.0,356.0444444444444
3181064.0,,,,,,,,0.40625,-2.71484375,3.35546875,0.431640625,-0.08984375,0.01171875,356.0,356.0,356.0444444444444
3181065.0,,,,,,,,0.40625,-2.71484375,3.35546875,0.111328125,-0.177734375,-0.392578125,356.0,356.0,356.0444444444444
3181066.0,,,,,,,,0.40625,-2.71484375,3.35546875,0.111328125,-0.177734375,-0.392578125,356.0,356.0,356.0444444444444
3181067.0,,,,,,,,0.40625,-2.71484375,3.35546875,-0.212890625,0.0703125,-0.451171875,356.0,356.0,356.0444444444444
3181068.0,,,,,,,,0.40625,-2.71484375,3.35546875,-0.212890625,0.0703125,-0.451171875,356.0111111111111,356.0,356.0444444444444
3181069.0,,,,,,,,0.40625,-2.71484375,3.35546875,-0.375,-0.01953125,-0.490234375,356.0111111111111,356.0,356.0444444444444
3181070.0,36.01354683333333,129.31980033333332,108.20796725418309,127.25242286042837,1.5,144.0,,0.40625,-2.71484375,3.35546875,-0.375,-0.01953125,-0.490234375,356.0111111111111,356.0,356.0444444444444
3181071.0,,,,,,,,0.40625,-2.71484375,3.35546875,-0.431640625,-0.078125,-0.541015625,356.0111111111111,356.0,356.0444444444444
3181072.0,,,,,,,,0.40625,-2.71484375,3.35546875,-0.431640625,-0.078125,-0.541015625,356.0111111111111,356.0,356.0444444444444
3181073.0,,,,,,,,0.40625,-2.71484375,3.35546875,-0.400390625,0.013671875,-0.556640625,356.0111111111111,356.0,356.0444444444444
3181074.0,,,,,,,,0.40625,-2.71484375,3.35546875,-0.400390625,0.013671875,-0.556640625,356.0111111111111,356.0,356.0444444444444
3181075.0,,,,,,,,0.40625,-2.71484375,3.35546875,-0.376953125,0.0234375,-0.544921875,356.0111111111111,356.0,356.0444444444444
3181076.0,,,,,,,,0.40625,-2.71484375,3.35546875,-0.376953125,0.0234375,-0.544921875,356.0111111111111,356.0,356.0444444444444
3181077.0,,,,,,,,0.40625,-2.71484375,3.35546875,-0.388671875,0.033203125,-0.427734375,356.0111111111111,356.0,356.0444444444444
3181078.0,,,,,,,,0.80859375,2.265625,-0.4140625,-0.388671875,0.033203125,-0.427734375,356.0111111111111,356.0,356.0444444444444
3181079.0,,,,,,,,0.80859375,2.265625,-0.4140625,-0.388671875,0.033203125,-0.427734375,356.0111111111111,356.0,356.0444444444444
3181080.0,36.01354583333333,129.31980116666668,108.28309217898902,127.1414645346686,1.5,144.0,,0.80859375,2.265625,-0.4140625,-0.337890625,-0.095703125,-0.232421875,356.0111111111111,356.0,356.0444444444444
3181081.0,,,,,,,,0.80859375,2.265625,-0.4140625,-0.337890625,-0.095703125,-0.232421875,356.0111111111111,356.0,356.0444444444444
3181082.0,,,,,,,,0.80859375,2.265625,-0.4140625,-0.302734375,-0.15234375,-0.173828125,356.0111111111111,356.0,356.0444444444444
3181083.0,,,,,,,,0.80859375,2.265625,-0.4140625,-0.302734375,-0.15234375,-0.173828125,356.0111111111111,356.0,356.0444444444444
3181084.0,,,,,,,,0.80859375,2.265625,-0.4140625,-0.25,-0.2109375,-0.09765625,356.0111111111111,356.0,356.0444444444444
3181085.0,,,,,,,,0.80859375,2.265625,-0.4140625,-0.25,-0.2109375,-0.09765625,356.0111111111111,356.0,356.0444444444444
3181086.0,,,,,,,,0.80859375,2.265625,-0.4140625,-0.20703125,-0.205078125,-0.078125,356.0111111111111,356.0,356.0444444444444
3181087.0,,,,,,,,0.80859375,2.265625,-0.4140625,-0.20703125,-0.205078125,-0.078125,356.0111111111111,356.0,356.0444444444444
3181088.0,,,,,,,,0.80859375,2.265625,-0.4140625,-0.197265625,-0.208984375,-0.072265625,356.0111111111111,356.0,356.0444444444444
3181089.0,,,,,,,,0.80859375,2.265625,-0.4140625,-0.197265625,-0.208984375,-0.072265625,356.0111111111111,356.0,356.0444444444444
3181090.0,36.013544833333334,129.319802,108.35821710150304,127.03050620921366,1.3,144.0,,0.80859375,2.265625,-0.4140625,-0.19140625,-0.244140625,-0.0234375,356.0111111111111,356.0,356.0444444444444
3181091.0,,,,,,,,0.80859375,2.265625,-0.4140625,-0.19140625,-0.244140625,-0.0234375,356.0111111111111,356.0,356.0444444444444
3181092.0,,,,,,,,0.80859375,2.265625,-0.4140625,-0.2109375,-0.3046875,0.041015625,356.0111111111111,356.0,356.0444444444444
3181093.0,,,,,,,,-0.06640625,1.6640625,-1.3203125,-0.2109375,-0.3046875,0.041015625,356.0111111111111,356.0,356.0444444444444
3181094.0,,,,,,,,-0.06640625,1.6640625,-1.3203125,-0.2109375,-0.3046875,0.041015625,356.0111111111111,356.0,356.0444444444444
3181095.0,,,,,,,,-0.06640625,1.6640625,-1.3203125,-0.234375,-0.11328125,0.05078125,356.0111111111111,356.0,356.0444444444444
3181096.0,,,,,,,,-0.06640625,1.6640625,-1.3203125,-0.234375,-0.11328125,0.05078125,356.0111111111111,356.0,356.0444444444444
3181097.0,,,,,,,,-0.06640625,1.6640625,-1.3203125,-0.22265625,-0.0234375,0.015625,356.0111111111111,356.0,356.0444444444444
3181098.0,,,,,,,,-0.06640625,1.6640625,-1.3203125,-0.22265625,-0.0234375,0.015625,356.0111111111111,356.0,356.0444444444444
3181099.0,,,,,,,,-0.06640625,1.6640625,-1.3203125,-0.234375,-0.0078125,0.076171875,356.0111111111111,356.0,356.0444444444444
3181100.0,36.013542666666666,129.31980383333334,108.5234918956924,126.79009653734728,1.4000000000000001,143.0,166.0,-0.06640625,1.6640625,-1.3203125,-0.234375,-0.0078125,0.076171875,356.0111111111111,356.0,356.0444444444444
3181101.0,,,,,,,,-0.06640625,1.6640625,-1.3203125,-0.234375,-0.0078125,0.076171875,356.0111111111111,356.0,356.0444444444444
3181102.0,,,,,,,,-0.06640625,1.6640625,-1.3203125,-0.234375,-0.0078125,0.076171875,356.0111111111111,356.0,356.0444444444444
3181103.0,,,,,,,,-0.06640625,1.6640625,-1.3203125,-0.236328125,-0.130859375,0.08984375,356.0111111111111,356.0,356.0444444444444
3181104.0,,,,,,,,-0.5078125,3.3046875,-1.02734375,-0.236328125,-0.130859375,0.08984375,356.0111111111111,356.0,356.0444444444444
3181105.0,,,,,,,,-0.5078125,3.3046875,-1.02734375,-0.236328125,-0.130859375,0.08984375,356.0111111111111,356.0,356.0444444444444
3181106.0,,,,,,,,-0.5078125,3.3046875,-1.02734375,0.25,0.142578125,0.15234375,356.0111111111111,356.0,356.0444444444444
3181107.0,,,,,,,,-0.5078125,3.3046875,-1.02734375,0.25,0.142578125,0.15234375,356.0,356.0,356.0444444444444
3181108.0,,,,,,,,-0.5078125,3.3046875,-1.02734375,0.181640625,0.029296875,0.0703125,356.0,356.0,356.0444444444444
3181109.0,,,,,,,,-0.5078125,3.3046875,-1.02734375,0.181640625,0.029296875,0.0703125,356.0,356.0,356.0444444444444
3181110.0,36.01354033333334,129.31980683333333,108.79393990952211,126.53119496338003,1.4000000000000001,136.0,,-0.5078125,3.3046875,-1.02734375,0.15625,-0.0625,0.033203125,356.0,356.0,356.0444444444444
3181111.0,,,,,,,,-0.5078125,3.3046875,-1.02734375,0.15625,-0.0625,0.033203125,356.0,356.0,356.0444444444444
3181112.0,,,,,,,,-0.5078125,3.3046875,-1.02734375,0.125,-0.1484375,-0.03125,356.0,356.0,356.0444444444444
3181113.0,,,,,,,,-0.5078125,3.3046875,-1.02734375,0.125,-0.1484375,-0.03125,356.0,356.0,356.0444444444444
3181114.0,,,,,,,,-0.5078125,3.3046875,-1.02734375,0.109375,-0.13671875,-0.091796875,356.0,356.0,356.0444444444444
3181115.0,,,,,,,,-0.5078125,3.3046875,-1.02734375,0.109375,-0.13671875,-0.091796875,356.0,356.0,356.0444444444444
3181116.0,,,,,,,,-0.5078125,3.3046875,-1.02734375,0.1328125,-0.107421875,-0.150390625,356.0,356.0,356.0444444444444
3181117.0,,,,,,,,-0.5078125,3.3046875,-1.02734375,0.1328125,-0.107421875,-0.150390625,356.0,356.0,356.0444444444444
3181118.0,,,,,,,,-0.5078125,3.3046875,-1.02734375,0.11328125,-0.12109375,-0.197265625,356.0,356.0,356.0444444444444
3181119.0,,,,,,,,-0.30859375,0.86328125,-1.28515625,0.11328125,-0.12109375,-0.197265625,356.0,356.0,356.0444444444444
3181120.0,36.013539333333334,129.3198075,108.8540401316282,126.42023645510761,1.2000000000000002,139.0,,-0.30859375,0.86328125,-1.28515625,0.11328125,-0.12109375,-0.197265625,356.0,356.0,356.0444444444444
3181121.0,,,,,,,,-0.30859375,0.86328125,-1.28515625,0.11328125,-0.12109375,-0.197265625,356.0,356.0,356.0444444444444
3181122.0,,,,,,,,-0.30859375,0.86328125,-1.28515625,0.140625,-0.0390625,-0.1484375,356.0,356.0,356.0444444444444
3181123.0,,,,,,,,-0.30859375,0.86328125,-1.28515625,0.140625,-0.0390625,-0.1484375,356.0111111111111,356.0,356.0444444444444
3181124.0,,,,,,,,-0.30859375,0.86328125,-1.28515625,0.193359375,-0.076171875,-0.091796875,356.0111111111111,356.0,356.0444444444444
3181125.0,,,,,,,,-0.30859375,0.86328125,-1.28515625,0.193359375,-0.076171875,-0.091796875,356.0111111111111,356.0,356.0444444444444
3181126.0,,,,,,,,-0.30859375,0.86328125,-1.28515625,0.23046875,-0.041015625,-0.01953125,356.0111111111111,356.0,356.0444444444444
3181127.0,,,,,,,,-0.30859375,0.86328125,-1.28515625,0.23046875,-0.041015625,-0.01953125,356.0111111111111,356.0,356.0444444444444
3181128.0,,,,,,,,-0.30859375,0.86328125,-1.28515625,0.2578125,0.103515625,0.041015625,356.0111111111111,356.0,356.0444444444444
3181129.0,,,,,,,,-0.30859375,0.86328125,-1.28515625,0.2578125,0.103515625,0.041015625,356.0111111111111,356.0,356.0444444444444
3181130.0,36.013538499999996,129.31980816666666,108.9141401277965,126.32777115686181,1.2000000000000002,141.0,,-0.30859375,0.86328125,-1.28515625,0.21484375,0.55078125,-0.0546875,356.0111111111111,356.0,356.0444444444444
3181131.0,,,,,,,,-0.30859375,0.86328125,-1.28515625,0.21484375,0.55078125,-0.0546875,356.0111111111111,356.0,356.0444444444444
3181132.0,,,,,,,,-0.30859375,0.86328125,-1.28515625,0.251953125,0.759765625,-0.09375,356.0111111111111,356.0,356.0444444444444
3181133.0,,,,,,,,-0.30859375,0.86328125,-1.28515625,0.251953125,0.759765625,-0.09375,356.0111111111111,356.0,356.0444444444444
3181134.0,,,,,,,,-0.30859375,0.86328125,-1.28515625,0.419921875,0.193359375,-0.02734375,356.0111111111111,356.0,356.0444444444444
3181135.0,,,,,,,,1.18359375,-3.44921875,3.65625,0.419921875,0.193359375,-0.02734375,356.0111111111111,356.0,356.0444444444444
3181136.0,,,,,,,,1.18359375,-3.44921875,3.65625,0.419921875,0.193359375,-0.02734375,356.0111111111111,356.0,356.0444444444444
3181137.0,,,,,,,,1.18359375,-3.44921875,3.65625,0.419921875,0.193359375,-0.02734375,356.0111111111111,356.0,356.0444444444444
3181138.0,,,,,,,,1.18359375,-3.44921875,3.65625,0.279296875,-0.25390625,-0.193359375,356.0111111111111,356.0,356.0444444444444
3181139.0,,,,,,,,1.18359375,-3.44921875,3.65625,0.279296875,-0.25390625,-0.193359375,356.0111111111111,356.0,356.0444444444444
3181140.0,36.01353666666667,129.31981,109.0794144887023,126.12434791324425,1.3,144.0,,1.18359375,-3.44921875,3.65625,0.005859375,-0.35546875,-0.443359375,356.0111111111111,356.0,356.0444444444444
3181141.0,,,,,,,,1.18359375,-3.44921875,3.65625,0.005859375,-0.35546875,-0.443359375,356.0111111111111,356.0,356.0444444444444
3181142.0,,,,,,,,1.18359375,-3.44921875,3.65625,-0.166015625,-0.091796875,-0.5859375,356.0111111111111,356.0,356.0444444444444
3181143.0,,,,,,,,1.18359375,-3.44921875,3.65625,-0.166015625,-0.091796875,-0.5859375,356.0111111111111,356.0,356.0444444444444
3181144.0,,,,,,,,1.18359375,-3.44921875,3.65625,-0.22265625,0.0234375,-0.615234375,356.0111111111111,356.0,356.0444444444444
3181145.0,,,,,,,,1.18359375,-3.44921875,3.65625,-0.22265625,0.0234375,-0.615234375,356.0111111111111,356.0,356.0444444444444
3181146.0,,,,,,,,1.18359375,-3.44921875,3.65625,-0.19921875,0.068359375,-0.603515625,356.0111111111111,356.0,356.0444444444444
3181147.0,,,,,,,,1.18359375,-3.44921875,3.65625,-0.19921875,0.068359375,-0.603515625,356.0111111111111,356.0,356.0444444444444
3181148.0,,,,,,,,1.18359375,-3.44921875,3.65625,-0.177734375,0.103515625,-0.54296875,356.0111111111111,356.0,356.0444444444444
3181149.0,,,,,,,,1.18359375,-3.44921875,3.65625,-0.177734375,0.103515625,-0.54296875,356.0111111111111,356.0,356.0444444444444
3181150.0,36.013535833333336,129.31981050000002,109.12448977918251,126.0318824303734,1.2000000000000002,142.0,,1.18359375,-3.44921875,3.65625,-0.19140625,0.12109375,-0.46484375,356.0111111111111,356.0,356.0444444444444
3181151.0,,,,,,,,0.45703125,2.2578125,-1.29296875,-0.19140625,0.12109375,-0.46484375,356.0111111111111,356.0,356.0444444444444
3181152.0,,,,,,,,0.45703125,2.2578125,-1.29296875,-0.19140625,0.12109375,-0.46484375,356.0111111111111,356.0,356.0444444444444
3181153.0,,,,,,,,0.45703125,2.2578125,-1.29296875,-0.19140625,0.12109375,-0.46484375,356.0111111111111,356.0,356.0444444444444
3181154.0,,,,,,,,0.45703125,2.2578125,-1.29296875,-0.22265625,0.09375,-0.26953125,356.0111111111111,356.0,356.0444444444444
3181155.0,,,,,,,,0.45703125,2.2578125,-1.29296875,-0.22265625,0.09375,-0.26953125,356.0111111111111,356.0,356.0444444444444
3181156.0,,,,,,,,0.45703125,2.2578125,-1.29296875,-0.236328125,0.01953125,-0.201171875,356.0111111111111,356.0,356.0444444444444
3181157.0,,,,,,,,0.45703125,2.2578125,-1.29296875,-0.236328125,0.01953125,-0.201171875,356.0111111111111,356.0,356.0444444444444
3181158.0,,,,,,,,0.45703125,2.2578125,-1.29296875,-0.1953125,-0.08984375,-0.109375,356.0111111111111,356.0,356.0444444444444
3181159.0,,,,,,,,0.45703125,2.2578125,-1.29296875,-0.1953125,-0.08984375,-0.109375,356.0111111111111,356.0,356.0444444444444
3181160.0,36.01353483333333,129.31981150000001,109.21463943620081,125.92092429876351,1.3,143.0,,0.45703125,2.2578125,-1.29296875,-0.1953125,-0.13671875,-0.0390625,356.0111111111111,356.0,356.0444444444444
3181161.0,,,,,,,,0.45703125,2.2578125,-1.29296875,-0.1953125,-0.13671875,-0.0390625,356.0111111111111,356.0,356.0444444444444
3181162.0,,,,,,,,0.45703125,2.2578125,-1.29296875,-0.158203125,-0.240234375,0.0234375,356.0111111111111,356.0,356.0444444444444
3181163.0,,,,,,,,0.45703125,2.2578125,-1.29296875,-0.158203125,-0.240234375,0.0234375,356.0111111111111,356.0,356.0444444444444
3181164.0,,,,,,,,0.45703125,2.2578125,-1.29296875,-0.18359375,-0.275390625,0.03515625,356.0111111111111,356.0,356.0444444444444
3181165.0,,,,,,,,0.45703125,2.2578125,-1.29296875,-0.18359375,-0.275390625,0.03515625,356.0111111111111,356.0,356.0444444444444
3181166.0,,,,,,,,0.45703125,2.2578125,-1.29296875,-0.1953125,-0.263671875,0.048828125,356.0111111111111,356.0,356.0444444444444
3181167.0,,,,,,,,0.61328125,0.94921875,-1.9296875,-0.1953125,-0.263671875,0.048828125,356.0111111111111,356.0,356.0444444444444
3181168.0,,,,,,,,0.61328125,0.94921875,-1.9296875,-0.1953125,-0.263671875,0.048828125,356.0111111111111,356.0,356.0444444444444
3181169.0,,,,,,,,0.61328125,0.94921875,-1.9296875,-0.21484375,-0.14453125,0.19921875,356.0111111111111,356.0,356.0444444444444
3181170.0,36.013534,129.31981233333332,109.28976414812344,125.82845919033076,1.3,141.0,,0.61328125,0.94921875,-1.9296875,-0.21484375,-0.14453125,0.19921875,356.0111111111111,356.0,356.0444444444444
3181171.0,,,,,,,,0.61328125,0.94921875,-1.9296875,-0.23046875,-0.083984375,0.25390625,356.0111111111111,356.0,356.0444444444444
3181172.0,,,,,,,,0.61328125,0.94921875,-1.9296875,-0.23046875,-0.083984375,0.25390625,356.0111111111111,356.0,356.0444444444444
3181173.0,,,,,,,,0.61328125,0.94921875,-1.9296875,-0.236328125,-0.05859375,0.228515625,356.0111111111111,356.0,356.0444444444444
3181174.0,,,,,,,,0.61328125,0.94921875,-1.9296875,-0.236328125,-0.05859375,0.228515625,356.0111111111111,356.0,356.0444444444444
3181175.0,,,,,,,,0.61328125,0.94921875,-1.9296875,-0.283203125,-0.076171875,0.26171875,356.0111111111111,356.0,356.0444444444444
3181176.0,,,,,,,,0.61328125,0.94921875,-1.9296875,-0.283203125,-0.076171875,0.26171875,356.0111111111111,356.0,356.0444444444444
3181177.0,,,,,,,,0.61328125,0.94921875,-1.9296875,-0.345703125,-0.189453125,0.177734375,356.0111111111111,356.0,356.0444444444444
3181178.0,,,,,,,,0.61328125,0.94921875,-1.9296875,-0.345703125,-0.189453125,0.177734375,356.0111111111111,356.0,356.0444444444444
3181179.0,,,,,,,,0.61328125,0.94921875,-1.9296875,-0.421875,-0.013671875,0.26953125,356.0111111111111,356.0,356.0444444444444
3181180.0,36.01353316666667,129.31981316666668,109.36488886856507,125.73599408239633,1.2000000000000002,142.0,,0.61328125,0.94921875,-1.9296875,-0.421875,-0.013671875,0.26953125,356.0111111111111,356.0,356.0444444444444
3181181.0,,,,,,,,0.61328125,0.94921875,-1.9296875,-0.4140625,0.529296875,0.40234375,356.0111111111111,356.0,356.0444444444444
3181182.0,,,,,,,,-0.0625,-4.6875,0.80078125,-0.4140625,0.529296875,0.40234375,356.0111111111111,356.0,356.0444444444444
3181183.0,,,,,,,,-0.0625,-4.6875,0.80078125,-0.4140625,0.529296875,0.40234375,356.0111111111111,356.0,356.0444444444444
3181184.0,,,,,,,,-0.0625,-4.6875,0.80078125,-0.248046875,0.337890625,0.548828125,356.0111111111111,356.0,356.0444444444444
3181185.0,,,,,,,,-0.0625,-4.6875,0.80078125,-0.248046875,0.337890625,0.548828125,356.0111111111111,356.0,356.0444444444444
3181186.0,,,,,,,,-0.0625,-4.6875,0.80078125,-0.271484375,0.02734375,0.447265625,356.0111111111111,356.0,356.0444444444444
3181187.0,,,,,,,,-0.0625,-4.6875,0.80078125,-0.271484375,0.02734375,0.447265625,356.0111111111111,356.0,356.0444444444444
3181188.0,,,,,,,,-0.0625,-4.6875,0.80078125,-0.08203125,-0.37109375,0.375,356.0111111111111,356.0,356.0444444444444
3181189.0,,,,,,,,-0.0625,-4.6875,0.80078125,-0.08203125,-0.37109375,0.375,356.0111111111111,356.0,356.0444444444444
3181190.0,36.013532166666664,129.3198145,109.48508795885566,125.62503632729084,1.3,140.0,,-0.0625,-4.6875,0.80078125,0.1328125,-0.521484375,0.326171875,356.0111111111111,356.0,356.0444444444444
3181191.0,,,,,,,,-0.0625,-4.6875,0.80078125,0.1328125,-0.521484375,0.326171875,356.0111111111111,356.0,356.0444444444444
3181192.0,,,,,,,,-0.0625,-4.6875,0.80078125,0.279296875,-0.234375,0.279296875,356.0111111111111,356.0,356.0444444444444
3181193.0,,,,,,,,-0.0625,-4.6875,0.80078125,0.279296875,-0.234375,0.279296875,356.0111111111111,356.0,356.0444444444444
3181194.0,,,,,,,,-0.0625,-4.6875,0.80078125,0.3671875,-0.064453125,0.205078125,356.0111111111111,356.0,356.0444444444444
3181195.0,,,,,,,,-0.0625,-4.6875,0.80078125,0.3671875,-0.064453125,0.205078125,356.0111111111111,356.0,356.0444444444444
3181196.0,,,,,,,,-0.0625,-4.6875,0.80078125,0.349609375,-0.06640625,0.189453125,356.0111111111111,356.0,356.0444444444444
3181197.0,,,,,,,,0.29296875,1.48046875,0.42578125,0.349609375,-0.06640625,0.189453125,356.0111111111111,356.0,356.0444444444444
3181198.0,,,,,,,,0.29296875,1.48046875,0.42578125,0.349609375,-0.06640625,0.189453125,356.0111111111111,356.0,356.0444444444444
3181199.0,,,,,,,,0.29296875,1.48046875,0.42578125,0.291015625,0.02734375,0.2734375,356.0111111111111,356.0,356.0444444444444
3181200.0,36.0135305,129.3198165,109.66538682901752,125.44010649046629,1.3,137.0,166.0,0.29296875,1.48046875,0.42578125,0.291015625,0.02734375,0.2734375,356.0111111111111,356.0,356.0444444444444
3181201.0,,,,,,,,0.29296875,1.48046875,0.42578125,0.291015625,0.02734375,0.2734375,356.0111111111111,356.0,356.0444444444444
3181202.0,,,,,,,,0.29296875,1.48046875,0.42578125,0.291015625,0.02734375,0.2734375,356.0111111111111,356.0,356.0444444444444
3181203.0,,,,,,,,0.29296875,1.48046875,0.42578125,0.345703125,0.06640625,0.24609375,356.0111111111111,356.0,356.0444444444444
3181204.0,,,,,,,,0.29296875,1.48046875,0.42578125,0.08203125,-0.09375,-0.083984375,356.0111111111111,356.0,356.0444444444444
3181205.0,,,,,,,,0.29296875,1.48046875,0.42578125,0.08203125,-0.09375,-0.083984375,356.0,356.0,356.0444444444444
3181206.0,,,,,,,,0.29296875,1.48046875,0.42578125,0.08203125,-0.09375,-0.083984375,356.0,356.0,356.0444444444444
3181207.0,,,,,,,,0.29296875,1.48046875,0.42578125,0.1953125,0.046875,-0.107421875,356.0,356.0,356.0444444444444
3181208.0,,,,,,,,0.29296875,1.48046875,0.42578125,0.1953125,0.046875,-0.107421875,356.0,356.0,356.0444444444444
3181209.0,,,,,,,,0.29296875,1.48046875,0.42578125,0.1953125,-0.05078125,0.0078125,356.0,356.0,356.0444444444444
3181210.0,36.01352883333333,129.3198185,109.84568570868645,125.25517665777451,1.3,138.0,,0.29296875,1.48046875,0.42578125,0.1953125,-0.05078125,0.0078125,356.0,356.0,356.0444444444444
3181211.0,,,,,,,,0.29296875,1.48046875,0.42578125,0.28515625,-0.15234375,0.138671875,356.0,356.0,356.0444444444444
3181212.0,,,,,,,,0.29296875,1.48046875,0.42578125,0.28515625,-0.15234375,0.138671875,356.0,356.0,356.0444444444444
3181213.0,,,,,,,,0.29296875,1.48046875,0.42578125,0.373046875,-0.1015625,0.19921875,356.0,356.0,356.0444444444444
3181214.0,,,,,,,,0.29296875,1.48046875,0.42578125,0.373046875,-0.1015625,0.19921875,356.0,356.0,356.0444444444444
3181215.0,,,,,,,,0.29296875,1.48046875,0.42578125,0.421875,0.263671875,-0.04296875,356.0,356.0,356.0444444444444
3181216.0,,,,,,,,-0.19921875,-5.2890625,0.4375,0.421875,0.263671875,-0.04296875,356.0,356.0,356.0444444444444
3181217.0,,,,,,,,-0.19921875,-5.2890625,0.4375,0.421875,0.263671875,-0.04296875,356.0,356.0,356.0444444444444
3181218.0,,,,,,,,-0.19921875,-5.2890625,0.4375,0.42578125,0.115234375,-0.03515625,356.0,356.0,356.0444444444444
3181219.0,,,,,,,,-0.19921875,-5.2890625,0.4375,0.42578125,0.115234375,-0.03515625,356.0,356.0,356.0444444444444
3181220.0,36.013527833333335,129.319819,109.89076123848491,125.1442179698742,1.1,143.0,,-0.19921875,-5.2890625,0.4375,0.39453125,-0.07421875,0.009765625,356.0,356.0,356.0444444444444
3181221.0,,,,,,,,-0.19921875,-5.2890625,0.4375,0.39453125,-0.07421875,0.009765625,356.0,356.0,356.0444444444444
3181222.0,,,,,,,,-0.19921875,-5.2890625,0.4375,0.3046875,-0.224609375,-0.12109375,356.0,356.0,356.0444444444444
3181223.0,,,,,,,,-0.19921875,-5.2890625,0.4375,0.3046875,-0.224609375,-0.12109375,356.0,356.0,356.0444444444444
3181224.0,,,,,,,,-0.19921875,-5.2890625,0.4375,0.037109375,-0.19140625,-0.1953125,356.0,356.0,356.0444444444444
3181225.0,,,,,,,,-0.19921875,-5.2890625,0.4375,0.037109375,-0.19140625,-0.1953125,356.0,356.0,356.0444444444444
3181226.0,,,,,,,,-0.19921875,-5.2890625,0.4375,-0.103515625,-0.115234375,-0.21484375,356.0,356.0,356.0444444444444
3181227.0,,,,,,,,-0.19921875,-5.2890625,0.4375,-0.103515625,-0.115234375,-0.21484375,356.0111111111111,356.0,356.0444444444444
3181228.0,,,,,,,,-0.19921875,-5.2890625,0.4375,-0.22265625,0.00390625,-0.29296875,356.0111111111111,356.0,356.0444444444444
3181229.0,,,,,,,,-0.19921875,-5.2890625,0.4375,-0.22265625,0.00390625,-0.29296875,356.0111111111111,356.0,356.0444444444444
3181230.0,36.0135265,129.31982000000002,109.98091137976999,124.99627342908911,1.4000000000000001,146.0,,-0.19921875,-5.2890625,0.4375,-0.291015625,-0.025390625,-0.396484375,356.0111111111111,356.0,356.0444444444444
3181231.0,,,,,,,,0.9765625,-0.09765625,0.38671875,-0.291015625,-0.025390625,-0.396484375,356.0111111111111,356.0,356.0444444444444
3181232.0,,,,,,,,0.9765625,-0.09765625,0.38671875,-0.291015625,-0.025390625,-0.396484375,356.0111111111111,356.0,356.0444444444444
3181233.0,,,,,,,,0.9765625,-0.09765625,0.38671875,-0.3046875,-0.158203125,-0.458984375,356.0111111111111,356.0,356.0444444444444
3181234.0,,,,,,,,0.9765625,-0.09765625,0.38671875,-0.3046875,-0.158203125,-0.458984375,356.0111111111111,356.0,356.0444444444444
3181235.0,,,,,,,,0.9765625,-0.09765625,0.38671875,-0.330078125,-0.15625,-0.46484375,356.0111111111111,356.0,356.0444444444444
3181236.0,,,,,,,,0.9765625,-0.09765625,0.38671875,-0.330078125,-0.15625,-0.46484375,356.0111111111111,356.0,356.0444444444444
3181237.0,,,,,,,,0.9765625,-0.09765625,0.38671875,-0.3515625,-0.166015625,-0.4453125,356.0111111111111,356.0,356.0444444444444
3181238.0,,,,,,,,0.9765625,-0.09765625,0.38671875,-0.3515625,-0.166015625,-0.4453125,356.0111111111111,356.0,356.0444444444444
3181239.0,,,,,,,,0.9765625,-0.09765625,0.38671875,-0.37109375,-0.123046875,-0.427734375,356.0111111111111,356.0,356.0444444444444
3181240.0,36.013525333333334,129.31982116666669,110.08608600500133,124.86682228628914,1.5,144.0,,0.9765625,-0.09765625,0.38671875,-0.37109375,-0.123046875,-0.427734375,356.0111111111111,356.0,356.0444444444444
3181241.0,,,,,,,,0.9765625,-0.09765625,0.38671875,-0.39453125,-0.07421875,-0.435546875,356.0111111111111,356.0,356.0444444444444
3181242.0,,,,,,,,0.9765625,-0.09765625,0.38671875,-0.39453125,-0.07421875,-0.435546875,356.0111111111111,356.0,356.0444444444444
3181243.0,,,,,,,,0.9765625,-0.09765625,0.38671875,-0.400390625,-0.1015625,-0.38671875,356.0111111111111,356.0,356.0444444444444
3181244.0,,,,,,,,0.9765625,-0.09765625,0.38671875,-0.400390625,-0.1015625,-0.38671875,356.0111111111111,356.0,356.0444444444444
3181245.0,,,,,,,,0.9765625,-0.09765625,0.38671875,-0.4140625,-0.220703125,-0.3359375,356.0111111111111,356.0,356.0444444444444
3181246.0,,,,,,,,0.5234375,2.2890625,-1.02734375,-0.4140625,-0.220703125,-0.3359375,356.0111111111111,356.0,356.0444444444444
3181247.0,,,,,,,,0.5234375,2.2890625,-1.02734375,-0.4140625,-0.220703125,-0.3359375,356.0111111111111,356.0,356.0444444444444
3181248.0,,,,,,,,0.5234375,2.2890625,-1.02734375,-0.3984375,-0.259765625,-0.25390625,356.0111111111111,356.0,356.0444444444444
3181249.0,,,,,,,,0.5234375,2.2890625,-1.02734375,-0.3984375,-0.259765625,-0.25390625,356.0111111111111,356.0,356.0444444444444
3181250.0,36.0135245,129.31982166666666,110.13116130522522,124.77435680915066,1.3,145.0,,0.5234375,2.2890625,-1.02734375,-0.36328125,-0.220703125,-0.177734375,356.0111111111111,356.0,356.0444444444444
3181251.0,,,,,,,,0.5234375,2.2890625,-1.02734375,-0.36328125,-0.220703125,-0.177734375,356.0111111111111,356.0,356.0444444444444
3181252.0,,,,,,,,0.5234375,2.2890625,-1.02734375,-0.33203125,-0.2265625,-0.15625,356.0111111111111,356.0,356.0444444444444
3181253.0,,,,,,,,0.5234375,2.2890625,-1.02734375,-0.33203125,-0.2265625,-0.15625,356.0111111111111,356.0,356.0444444444444
3181254.0,,,,,,,,0.5234375,2.2890625,-1.02734375,-0.306640625,-0.140625,-0.03125,356.0111111111111,356.0,356.0444444444444
3181255.0,,,,,,,,0.5234375,2.2890625,-1.02734375,-0.306640625,-0.140625,-0.03125,356.0111111111111,356.0,356.0444444444444
3181256.0,,,,,,,,0.5234375,2.2890625,-1.02734375,-0.28125,-0.041015625,-0.03125,356.0111111111111,356.0,356.0444444444444
3181257.0,,,,,,,,0.5234375,2.2890625,-1.02734375,-0.28125,-0.041015625,-0.03125,356.0111111111111,356.0,356.0444444444444
3181258.0,,,,,,,,0.5234375,2.2890625,-1.02734375,-0.248046875,0.05078125,0.017578125,356.0111111111111,356.0,356.0444444444444
3181259.0,,,,,,,,0.5234375,2.2890625,-1.02734375,-0.248046875,0.05078125,0.017578125,356.0111111111111,356.0,356.0444444444444
3181260.0,36.013522333333334,129.3198235,110.29643619315027,124.53394717037571,1.4000000000000001,144.0,,0.5234375,2.2890625,-1.02734375,-0.236328125,0.103515625,0.0078125,356.0111111111111,356.0,356.0444444444444
3181261.0,,,,,,,,0.44921875,-1.48828125,-0.05078125,-0.236328125,0.103515625,0.0078125,356.0111111111111,356.0,356.0444444444444
3181262.0,,,,,,,,0.44921875,-1.48828125,-0.05078125,-0.236328125,0.103515625,0.0078125,356.0111111111111,356.0,356.0444444444444
3181263.0,,,,,,,,0.44921875,-1.48828125,-0.05078125,-0.24609375,-0.10546875,0.146484375,356.0111111111111,356.0,356.0444444444444
3181264.0,,,,,,,,0.44921875,-1.48828125,-0.05078125,-0.24609375,-0.10546875,0.146484375,356.0111111111111,356.0,356.0444444444444
3181265.0,,,,,,,,0.44921875,-1.48828125,-0.05078125,-0.220703125,-0.068359375,0.267578125,356.0111111111111,356.0,356.0444444444444
3181266.0,,,,,,,,0.44921875,-1.48828125,-0.05078125,-0.220703125,-0.068359375,0.267578125,356.0111111111111,356.0,356.0444444444444
3181267.0,,,,,,,,0.44921875,-1.48828125,-0.05078125,-0.208984375,0.71875,0.4375,356.0111111111111,356.0,356.0444444444444
3181268.0,,,,,,,,0.44921875,-1.48828125,-0.05078125,-0.208984375,0.71875,0.4375,356.0111111111111,356.0,356.0444444444444
3181269.0,,,,,,,,0.44921875,-1.48828125,-0.05078125,-0.1328125,0.861328125,0.35546875,356.0111111111111,356.0,356.0444444444444
3181270.0,36.01352133333333,129.31982433333332,110.37156116012531,124.42298886260274,1.3,143.0,,0.44921875,-1.48828125,-0.05078125,-0.1328125,0.861328125,0.35546875,356.0111111111111,356.0,356.0444444444444
3181271.0,,,,,,,,0.44921875,-1.48828125,-0.05078125,-0.138671875,0.013671875,0.1640625,356.0111111111111,356.0,356.0444444444444
3181272.0,,,,,,,,0.44921875,-1.48828125,-0.05078125,-0.138671875,0.013671875,0.1640625,356.0111111111111,356.0,356.0444444444444
3181273.0,,,,,,,,0.44921875,-1.48828125,-0.05078125,-0.1796875,0.03515625,0.36328125,356.0111111111111,356.0,356.0444444444444
3181274.0,,,,,,,,0.44921875,-1.48828125,-0.05078125,-0.1796875,0.03515625,0.36328125,356.0111111111111,356.0,356.0444444444444
3181275.0,,,,,,,,0.44921875,-1.48828125,-0.05078125,-0.03125,-0.177734375,0.470703125,356.0111111111111,356.0,356.0444444444444
3181276.0,,,,,,,,-0.59765625,-1.22265625,3.4765625,-0.03125,-0.177734375,0.470703125,356.0111111111111,356.0,356.0444444444444
3181277.0,,,,,,,,-0.59765625,-1.22265625,3.4765625,-0.03125,-0.177734375,0.470703125,356.0111111111111,356.0,356.0444444444444
3181278.0,,,,,,,,-0.59765625,-1.22265625,3.4765625,0.23046875,0.052734375,0.3515625,356.0111111111111,356.0,356.0444444444444
3181279.0,,,,,,,,-0.59765625,-1.22265625,3.4765625,0.23046875,0.052734375,0.3515625,356.0111111111111,356.0,356.0444444444444
3181280.0,36.01352033333333,129.3198255,110.47673556781089,124.31203093348293,1.4000000000000001,140.0,,-0.59765625,-1.22265625,3.4765625,0.279296875,0.150390625,0.236328125,356.0111111111111,356.0,356.0444444444444
3181281.0,,,,,,,,-0.59765625,-1.22265625,3.4765625,0.279296875,0.150390625,0.236328125,356.0111111111111,356.0,356.0444444444444
3181282.0,,,,,,,,-0.59765625,-1.22265625,3.4765625,0.240234375,0.095703125,0.248046875,356.0111111111111,356.0,356.0444444444444
3181283.0,,,,,,,,-0.59765625,-1.22265625,3.4765625,0.240234375,0.095703125,0.248046875,356.0111111111111,356.0,356.0444444444444
3181284.0,,,,,,,,-0.59765625,-1.22265625,3.4765625,0.267578125,0.123046875,0.2890625,356.0111111111111,356.0,356.0444444444444
3181285.0,,,,,,,,-0.59765625,-1.22265625,3.4765625,0.267578125,0.123046875,0.2890625,356.0111111111111,356.0,356.0444444444444
3181286.0,,,,,,,,-0.59765625,-1.22265625,3.4765625,0.341796875,0.171875,0.28515625,356.0111111111111,356.0,356.0444444444444
3181287.0,,,,,,,,-0.59765625,-1.22265625,3.4765625,0.341796875,0.171875,0.28515625,356.0111111111111,356.0,356.0444444444444
3181288.0,,,,,,,,-0.59765625,-1.22265625,3.4765625,0.37109375,0.1953125,0.263671875,356.0111111111111,356.0,356.0444444444444
3181289.0,,,,,,,,-0.59765625,-1.22265625,3.4765625,0.37109375,0.1953125,0.263671875,356.0111111111111,356.0,356.0444444444444
3181290.0,36.01351966666667,129.31982633333334,110.5518600786115,124.23805904470419,1.3,138.0,,-0.59765625,-1.22265625,3.4765625,0.337890625,0.2265625,0.26171875,356.0111111111111,356.0,356.0444444444444
3181291.0,,,,,,,,-0.48828125,3.41796875,-1.2890625,0.337890625,0.2265625,0.26171875,356.0111111111111,356.0,356.0444444444444
3181292.0,,,,,,,,-0.48828125,3.41796875,-1.2890625,0.337890625,0.2265625,0.26171875,356.0111111111111,356.0,356.0444444444444
3181293.0,,,,,,,,-0.48828125,3.41796875,-1.2890625,0.232421875,0.259765625,0.22265625,356.0111111111111,356.0,356.0444444444444
3181294.0,,,,,,,,-0.48828125,3.41796875,-1.2890625,0.232421875,0.259765625,0.22265625,356.0111111111111,356.0,356.0444444444444
3181295.0,,,,,,,,-0.48828125,3.41796875,-1.2890625,0.140625,0.208984375,0.18359375,356.0111111111111,356.0,356.0444444444444
3181296.0,,,,,,,,-0.48828125,3.41796875,-1.2890625,0.140625,0.208984375,0.18359375,356.0111111111111,356.0,356.0444444444444
3181297.0,,,,,,,,-0.48828125,3.41796875,-1.2890625,0.111328125,0.08203125,0.138671875,356.0111111111111,356.0,356.0444444444444
3181298.0,,,,,,,,-0.48828125,3.41796875,-1.2890625,0.111328125,0.08203125,0.138671875,356.0,356.0,356.0444444444444
3181299.0,,,,,,,,-0.48828125,3.41796875,-1.2890625,0.064453125,-0.03515625,0.04296875,356.0,356.0,356.0444444444444
3181300.0,36.01351783333334,129.31982833333333,110.73215923258017,124.03463602165932,1.3,139.0,166.0,-0.48828125,3.41796875,-1.2890625,0.064453125,-0.03515625,0.04296875,356.0,356.0,356.0444444444444
3181301.0,,,,,,,,-0.48828125,3.41796875,-1.2890625,0.064453125,-0.03515625,0.04296875,356.0,356.0,356.0444444444444
3181302.0,,,,,,,,-0.48828125,3.41796875,-1.2890625,0.064453125,-0.03515625,0.04296875,356.0,356.0,356.0444444444444
3181303.0,,,,,,,,-0.48828125,3.41796875,-1.2890625,0.0625,-0.03125,-0.03515625,356.0,356.0,356.0444444444444
3181304.0,,,,,,,,-0.48828125,3.41796875,-1.2890625,0.345703125,-0.041015625,0.05078125,356.0,356.0,356.0444444444444
3181305.0,,,,,,,,-0.48828125,3.41796875,-1.2890625,0.345703125,-0.041015625,0.05078125,356.0111111111111,356.0,356.0444444444444
3181306.0,,,,,,,,-0.48828125,3.41796875,-1.2890625,0.32421875,0.205078125,0.013671875,356.0111111111111,356.0,356.0444444444444
3181307.0,,,,,,,,-0.48828125,3.41796875,-1.2890625,0.32421875,0.205078125,0.013671875,356.0111111111111,356.0,356.0444444444444
3181308.0,,,,,,,,-0.48828125,3.41796875,-1.2890625,0.283203125,0.7109375,-0.1875,356.0111111111111,356.0,356.0444444444444
3181309.0,,,,,,,,-0.48828125,3.41796875,-1.2890625,0.283203125,0.7109375,-0.1875,356.0111111111111,356.0,356.0444444444444
3181310.0,36.013516833333334,129.319829,110.79225949806315,123.92367752882802,1.2000000000000002,142.0,,-0.48828125,3.41796875,-1.2890625,0.435546875,0.16015625,-0.013671875,356.0111111111111,356.0,356.0444444444444
3181311.0,,,,,,,,-0.48828125,3.41796875,-1.2890625,0.435546875,0.16015625,-0.013671875,356.0,356.0,356.0444444444444
3181312.0,,,,,,,,-0.48828125,3.41796875,-1.2890625,0.509765625,-0.052734375,-0.099609375,356.0,356.0,356.0444444444444
3181313.0,,,,,,,,-0.48828125,3.41796875,-1.2890625,0.509765625,-0.052734375,-0.099609375,356.0111111111111,356.0,356.0444444444444
3181314.0,,,,,,,,-0.48828125,3.41796875,-1.2890625,0.34375,-0.248046875,-0.314453125,356.0111111111111,356.0,356.0444444444444
