time,latitude,longitude,enu_x,enu_y,speed,course,Hrage,accX,accY,accZ,gyrX,gyrY,gyrZ,eulR,eulP,eulY
3796200,36.01306183333334,129.32014166666667,138.97942638272048,73.43762083452873,1.1,223.0,123.0,-1.07421875,2.7578125,-0.6171875,0.2109375,-0.1328125,0.146484375,0.0,180.0,360.0
3796201,,,,,,,,-1.07421875,2.7578125,-0.6171875,0.2109375,-0.1328125,0.146484375,0.0,180.0,360.0
3796202,,,,,,,,-1.07421875,2.7578125,-0.6171875,0.169921875,-0.1015625,0.15625,0.0,180.0,360.0
3796203,,,,,,,,0.3203125,-1.328125,-0.41796875,0.169921875,-0.1015625,0.15625,0.0,180.0,360.0
3796204,,,,,,,,0.3203125,-1.328125,-0.41796875,-0.3125,0.021484375,0.0,0.0,180.0,360.0
3796205,,,,,,,,0.3203125,-1.328125,-0.41796875,-0.28515625,0.173828125,-0.109375,0.0,180.0,360.0
3796206,,,,,,,,0.3203125,-0.8125,-0.62890625,-0.28515625,0.173828125,-0.109375,0.0,180.0,360.0
3796207,,,,,,,,0.3203125,-0.8125,-0.62890625,-0.306640625,0.2109375,-0.193359375,0.0,180.0,360.0
3796208,,,,,,,,-0.828125,-0.046875,-0.78125,-0.306640625,0.2109375,-0.193359375,0.0,180.0,360.0
3796209,,,,,,,,-0.828125,-0.046875,-0.78125,-0.564453125,0.03125,-0.14453125,0.0,180.0,360.0
3796210,36.01306133333333,129.32014116666667,138.93435285293629,73.38214049976817,1.1,221.0,,-1.81640625,-0.03125,-0.75,-0.564453125,0.03125,-0.14453125,0.0,180.0,360.0
3796211,,,,,,,,-1.81640625,-0.03125,-0.75,-0.962890625,-0.3046875,0.0,0.0,180.0,360.0
3796212,,,,,,,,-0.0625,-3.48828125,0.13671875,-0.962890625,-0.3046875,0.0,0.0,180.0,360.0
3796213,,,,,,,,-0.0625,-3.48828125,0.13671875,-1.06640625,-0.412109375,0.056640625,0.0,180.0,360.0
3796214,,,,,,,,1.5859375,-5.30078125,2.046875,-1.06640625,-0.412109375,0.056640625,0.0,180.0,360.0
3796215,,,,,,,,1.5859375,-5.30078125,2.046875,-0.53515625,-0.375,-0.056640625,0.0,180.0,360.0
3796216,,,,,,,,3.20703125,-3.33203125,2.87890625,-0.53515625,-0.375,-0.056640625,0.0,180.0,360.0
3796217,,,,,,,,3.20703125,-3.33203125,2.87890625,0.2734375,0.216796875,-0.306640625,0.0,180.0,360.0
3796218,,,,,,,,3.20703125,-3.33203125,2.87890625,0.6328125,0.267578125,-0.287109375,0.0,180.0,360.0
3796219,,,,,,,,-0.984375,-2.34375,3.3671875,0.6328125,0.267578125,-0.287109375,0.0,180.0,360.0
3796220,36.013060833333334,129.32013999999998,138.82918010675377,73.3266592156368,1.1,223.0,,-0.984375,-2.34375,3.3671875,0.6328125,0.267578125,-0.287109375,0.0,180.0,360.0
3796221,,,,,,,,-0.984375,-2.34375,3.3671875,0.60546875,0.029296875,-0.01171875,0.0,180.0,360.0
3796222,,,,,,,,-1.14453125,-0.4296875,0.85546875,0.60546875,0.029296875,-0.01171875,0.0,180.0,360.0
3796223,,,,,,,,-1.14453125,-0.4296875,0.85546875,0.07421875,-0.36328125,0.333984375,0.0,180.0,360.0
3796224,,,,,,,,-1.14453125,-0.4296875,0.85546875,0.099609375,-0.42578125,0.4140625,0.0,180.0,360.0
3796225,,,,,,,,-0.0703125,-1.1875,1.734375,0.099609375,-0.42578125,0.4140625,0.0,180.0,360.0
3796226,,,,,,,,-0.0703125,-1.1875,1.734375,0.328125,-0.376953125,0.353515625,0.0,180.0,360.0
3796227,,,,,,,,-0.046875,-0.5234375,1.24609375,0.328125,-0.376953125,0.353515625,0.0,180.0,360.0
3796228,,,,,,,,-0.046875,-0.5234375,1.24609375,0.439453125,-0.380859375,0.3125,0.0,180.0,360.0
3796229,,,,,,,,0.0859375,0.62109375,0.32421875,0.439453125,-0.380859375,0.3125,0.0,180.0,360.0
3796230,36.0130605,129.32013899999998,138.73903187270653,73.28967137721979,1.3,226.0,,0.0859375,0.62109375,0.32421875,0.443359375,-0.240234375,0.298828125,0.0,180.0,360.0
3796231,,,,,,,,0.0859375,0.62109375,0.32421875,0.443359375,-0.240234375,0.298828125,0.0,180.0,360.0
3796232,,,,,,,,0.0859375,0.62109375,0.32421875,0.373046875,-0.158203125,0.291015625,0.0,180.0,360.0
3796233,,,,,,,,0.41015625,2.80859375,-1.0078125,0.373046875,-0.158203125,0.291015625,0.0,180.0,360.0
3796234,,,,,,,,0.41015625,2.80859375,-1.0078125,0.33984375,-0.095703125,0.240234375,0.0,180.0,360.0
3796235,,,,,,,,0.41015625,2.80859375,-1.0078125,0.3203125,-0.046875,0.166015625,0.0,180.0,360.0
3796236,,,,,,,,0.9140625,3.375,-0.87890625,0.3203125,-0.046875,0.166015625,0.0,180.0,360.0
3796237,,,,,,,,0.9140625,3.375,-0.87890625,0.30859375,-0.0234375,0.08984375,0.0,180.0,360.0
3796238,,,,,,,,0.9765625,3.4375,-0.89453125,0.30859375,-0.0234375,0.08984375,0.0,180.0,360.0
3796239,,,,,,,,0.9765625,3.4375,-0.89453125,0.267578125,0.05859375,0.02734375,0.0,180.0,360.0
3796240,36.01305983333334,129.32013816666668,138.66390902617536,73.21569736276555,1.3,229.0,,0.9765625,3.4375,-0.89453125,0.267578125,0.05859375,0.02734375,0.0,180.0,360.0
3796241,,,,,,,,0.9765625,3.4375,-0.89453125,0.162109375,0.05078125,0.015625,0.0,180.0,360.0
3796242,,,,,,,,0.73046875,2.44921875,-1.03515625,0.162109375,0.05078125,0.015625,0.0,180.0,360.0
3796243,,,,,,,,0.73046875,2.44921875,-1.03515625,0.130859375,0.087890625,-0.009765625,0.0,180.0,360.0
3796244,,,,,,,,0.73046875,2.44921875,-1.03515625,0.080078125,0.1171875,-0.0234375,0.0,180.0,360.0
3796245,,,,,,,,0.76953125,2.08984375,-1.02734375,0.080078125,0.1171875,-0.0234375,0.0,180.0,360.0
3796246,,,,,,,,0.76953125,2.08984375,-1.02734375,0.0078125,0.09765625,-0.017578125,0.0,180.0,360.0
3796247,,,,,,,,0.46484375,1.515625,-0.62109375,0.0078125,0.09765625,-0.017578125,0.0,180.0,360.0
3796248,,,,,,,,0.46484375,1.515625,-0.62109375,-0.12890625,0.123046875,0.01171875,0.0,180.0,360.0
3796249,,,,,,,,0.65625,1.046875,-0.66015625,-0.12890625,0.123046875,0.01171875,0.0,180.0,360.0
3796250,36.01305916666667,129.32013733333332,138.58878617623728,73.14172334889028,1.2000000000000002,231.0,,0.65625,1.046875,-0.66015625,-0.201171875,0.158203125,0.001953125,0.0,180.0,360.0
3796251,,,,,,,,1.27734375,-0.68359375,-0.30859375,-0.201171875,0.158203125,0.001953125,0.0,180.0,360.0
3796252,,,,,,,,1.27734375,-0.68359375,-0.30859375,-0.283203125,0.173828125,-0.021484375,0.0,180.0,360.0
3796253,,,,,,,,1.27734375,-0.68359375,-0.30859375,-0.232421875,0.13671875,-0.076171875,0.0,180.0,360.0
3796254,,,,,,,,0.84765625,-2.0546875,0.26171875,-0.232421875,0.13671875,-0.076171875,0.0,180.0,360.0
3796255,,,,,,,,0.84765625,-2.0546875,0.26171875,-0.232421875,0.126953125,-0.0859375,0.0,180.0,360.0
3796256,,,,,,,,0.41015625,-1.3671875,0.30078125,-0.232421875,0.126953125,-0.0859375,0.0,180.0,360.0
3796257,,,,,,,,0.41015625,-1.3671875,0.30078125,-0.6015625,0.162109375,-0.064453125,0.0,180.0,360.0
3796258,,,,,,,,0.6328125,-0.203125,-0.171875,-0.6015625,0.162109375,-0.064453125,0.0,180.0,360.0
3796259,,,,,,,,0.6328125,-0.203125,-0.171875,-0.9765625,0.01953125,-0.029296875,0.0,180.0,360.0
3796260,36.01305766666667,129.32013533333333,138.4084911577167,72.975281642577,1.3,222.0,,0.6328125,-0.203125,-0.171875,-0.9765625,0.01953125,-0.029296875,0.0,180.0,360.0
3796261,,,,,,,,0.6328125,-0.203125,-0.171875,-0.71484375,0.10546875,-0.048828125,0.0,180.0,360.0
3796262,,,,,,,,-2.72265625,-4.97265625,4.015625,-0.71484375,0.10546875,-0.048828125,0.0,180.0,360.0
3796263,,,,,,,,-2.72265625,-4.97265625,4.015625,-0.109375,-0.154296875,0.001953125,0.0,180.0,360.0
3796264,,,,,,,,-2.72265625,-4.97265625,4.015625,0.064453125,-0.0234375,-0.00390625,0.0,180.0,360.0
3796265,,,,,,,,-2.625,-3.50390625,3.50390625,0.064453125,-0.0234375,-0.00390625,0.0,180.0,360.0
3796266,,,,,,,,-2.625,-3.50390625,3.50390625,-0.015625,0.033203125,-0.09375,0.0,180.0,360.0
3796267,,,,,,,,0.81640625,-2.16015625,2.8046875,-0.015625,0.033203125,-0.09375,0.0,180.0,360.0
3796268,,,,,,,,0.81640625,-2.16015625,2.8046875,0.228515625,0.2421875,-0.23828125,0.0,180.0,360.0
3796269,,,,,,,,1.3359375,-2.0,3.05859375,0.228515625,0.2421875,-0.23828125,0.0,180.0,360.0
3796270,36.0130565,129.32013483333333,138.3634187866289,72.84582848182487,1.4000000000000001,217.0,,1.3359375,-2.0,3.05859375,0.115234375,0.15234375,-0.259765625,0.0,180.0,360.0
3796271,,,,,,,,-0.11328125,-1.05859375,2.18359375,0.115234375,0.15234375,-0.259765625,0.0,180.0,360.0
3796272,,,,,,,,-0.11328125,-1.05859375,2.18359375,0.171875,0.271484375,-0.23046875,0.0,180.0,360.0
3796273,,,,,,,,-0.11328125,-1.05859375,2.18359375,0.2578125,0.291015625,-0.201171875,0.0,180.0,360.0
3796274,,,,,,,,-0.51171875,-0.75390625,1.4609375,0.2578125,0.291015625,-0.201171875,0.0,180.0,360.0
3796275,,,,,,,,-0.51171875,-0.75390625,1.4609375,0.294921875,0.318359375,-0.193359375,0.0,180.0,360.0
3796276,,,,,,,,-0.3125,0.19921875,0.82421875,0.294921875,0.318359375,-0.193359375,0.0,180.0,360.0
3796277,,,,,,,,-0.3125,0.19921875,0.82421875,0.265625,0.3125,-0.201171875,0.0,180.0,360.0
3796278,,,,,,,,-0.22265625,1.33203125,0.140625,0.265625,0.3125,-0.201171875,0.0,180.0,360.0
3796279,,,,,,,,-0.22265625,1.33203125,0.140625,0.26953125,0.283203125,-0.224609375,0.0,180.0,360.0
3796280,36.01305583333333,129.32013366666666,138.25824632386147,72.77185399821121,1.4000000000000001,218.0,,-0.33203125,2.5859375,-0.44921875,0.26953125,0.283203125,-0.224609375,0.0,180.0,360.0
3796281,,,,,,,,-0.33203125,2.5859375,-0.44921875,0.30078125,0.26953125,-0.24609375,0.0,180.0,360.0
3796282,,,,,,,,-0.33203125,2.5859375,-0.44921875,0.30078125,0.26953125,-0.24609375,0.0,180.0,360.0
3796283,,,,,,,,-0.33203125,2.5859375,-0.44921875,0.25,0.2109375,-0.234375,0.0,180.0,360.0
3796284,,,,,,,,-1.45703125,3.58984375,-1.00390625,0.25,0.2109375,-0.234375,0.0,180.0,360.0
3796285,,,,,,,,-1.45703125,3.58984375,-1.00390625,0.17578125,0.177734375,-0.189453125,0.0,180.0,360.0
3796286,,,,,,,,-1.45703125,3.58984375,-1.00390625,0.123046875,0.109375,-0.123046875,0.0,180.0,360.0
3796287,,,,,,,,-1.7578125,3.15234375,-0.7890625,0.123046875,0.109375,-0.123046875,0.0,180.0,360.0
3796288,,,,,,,,-1.7578125,3.15234375,-0.7890625,0.0859375,0.021484375,-0.0703125,0.0,180.0,360.0
3796289,,,,,,,,-1.55078125,2.83984375,-0.69921875,0.0859375,0.021484375,-0.0703125,0.0,180.0,360.0
3796290,36.013055333333334,129.320133,138.19814797940944,72.71637343030727,1.2000000000000002,221.0,,-1.55078125,2.83984375,-0.69921875,0.09375,-0.029296875,-0.041015625,0.0,180.0,360.0
3796291,,,,,,,,-1.29296875,2.25,-0.65234375,0.09375,-0.029296875,-0.041015625,0.0,180.0,360.0
3796292,,,,,,,,-1.29296875,2.25,-0.65234375,0.12890625,-0.03515625,-0.029296875,0.0,180.0,360.0
3796293,,,,,,,,-1.29296875,2.25,-0.65234375,0.08203125,-0.021484375,-0.02734375,0.0,180.0,360.0
3796294,,,,,,,,-1.109375,2.1171875,-1.0390625,0.08203125,-0.021484375,-0.02734375,0.0,180.0,360.0
3796295,,,,,,,,-1.109375,2.1171875,-1.0390625,-0.0546875,-0.01171875,-0.033203125,0.0,180.0,360.0
3796296,,,,,,,,-0.87890625,1.56640625,-1.12109375,-0.0546875,-0.01171875,-0.033203125,0.0,180.0,360.0
3796297,,,,,,,,-0.87890625,1.56640625,-1.12109375,-0.169921875,-0.02734375,-0.056640625,0.0,180.0,360.0
3796298,,,,,,,,-0.80859375,0.72265625,-0.953125,-0.169921875,-0.02734375,-0.056640625,0.0,180.0,360.0
3796299,,,,,,,,-0.80859375,0.72265625,-0.953125,-0.169921875,-0.02734375,-0.056640625,0.0,180.0,360.0
3796300,36.01305416666666,129.32013116666667,138.03287717003184,72.58691838183852,1.2000000000000002,224.0,123.0,-0.80859375,0.72265625,-0.953125,-0.181640625,-0.048828125,-0.107421875,0.0,180.0,360.0
3796301,,,,,,,,-0.80859375,0.72265625,-0.953125,-0.181640625,-0.048828125,-0.107421875,0.0,180.0,360.0
3796302,,,,,,,,-0.78515625,-1.4609375,-0.21484375,-0.181640625,-0.048828125,-0.107421875,0.0,180.0,360.0
3796303,,,,,,,,-0.78515625,-1.4609375,-0.21484375,-0.125,-0.234375,-0.134765625,0.0,180.0,360.0
3796304,,,,,,,,4.015625,-4.84375,3.40625,-0.125,-0.234375,-0.134765625,0.0,180.0,360.0
3796305,,,,,,,,4.015625,-4.84375,3.40625,0.36328125,0.099609375,-0.263671875,0.0,180.0,360.0
3796306,,,,,,,,4.015625,-4.84375,3.40625,0.36328125,0.099609375,-0.263671875,0.0,180.0,360.0
3796307,,,,,,,,4.015625,-4.84375,3.40625,0.650390625,0.04296875,-0.1953125,0.0,180.0,360.0
3796308,,,,,,,,-0.94140625,-2.921875,2.94921875,0.650390625,0.04296875,-0.1953125,0.0,180.0,360.0
3796309,,,,,,,,-0.94140625,-2.921875,2.94921875,0.48046875,-0.154296875,0.005859375,0.0,180.0,360.0
3796310,36.0130535,129.32013,137.92770470140428,72.51294390164082,1.2000000000000002,225.0,,-0.94140625,-2.921875,2.94921875,-0.080078125,-0.4453125,0.337890625,0.0,180.0,360.0
3796311,,,,,,,,-0.515625,-0.4765625,0.90234375,-0.080078125,-0.4453125,0.337890625,0.0,180.0,360.0
3796312,,,,,,,,-0.515625,-0.4765625,0.90234375,-0.046875,-0.458984375,0.435546875,0.0,180.0,360.0
3796313,,,,,,,,-0.0390625,-1.4140625,1.1171875,-0.046875,-0.458984375,0.435546875,0.0,180.0,360.0
3796314,,,,,,,,-0.0390625,-1.4140625,1.1171875,0.130859375,-0.38671875,0.3828125,0.0,180.0,360.0
3796315,,,,,,,,0.37890625,-1.2578125,0.99609375,0.130859375,-0.38671875,0.3828125,0.0,180.0,360.0
3796316,,,,,,,,0.37890625,-1.2578125,0.99609375,0.302734375,-0.28125,0.296875,0.0,180.0,360.0
3796317,,,,,,,,0.37890625,-1.2578125,0.99609375,0.302734375,-0.28125,0.296875,0.0,180.0,360.0
3796318,,,,,,,,0.37890625,-1.2578125,0.99609375,0.3203125,-0.177734375,0.2734375,0.0,180.0,360.0
3796319,,,,,,,,0.43359375,2.265625,-1.16796875,0.3203125,-0.177734375,0.2734375,0.0,180.0,360.0
3796320,36.01305283333333,129.32012866666668,137.80750742668968,72.43896918715816,1.3,229.0,,0.43359375,2.265625,-1.16796875,0.32421875,-0.048828125,0.263671875,0.0,180.0,360.0
3796321,,,,,,,,0.43359375,2.265625,-1.16796875,0.33203125,0.021484375,0.248046875,0.0,180.0,360.0
3796322,,,,,,,,0.58203125,3.03125,-1.1875,0.33203125,0.021484375,0.248046875,0.0,180.0,360.0
3796323,,,,,,,,0.58203125,3.03125,-1.1875,0.2890625,0.044921875,0.22265625,0.0,180.0,360.0
3796324,,,,,,,,0.97265625,3.67578125,-1.125,0.2890625,0.044921875,0.22265625,0.0,180.0,360.0
3796325,,,,,,,,0.97265625,3.67578125,-1.125,0.23046875,0.0859375,0.166015625,0.0,180.0,360.0
3796326,,,,,,,,1.1796875,3.390625,-1.2109375,0.23046875,0.0859375,0.166015625,0.0,180.0,360.0
3796327,,,,,,,,1.1796875,3.390625,-1.2109375,0.20703125,0.1640625,0.099609375,0.0,180.0,360.0
3796328,,,,,,,,1.1796875,3.390625,-1.2109375,0.20703125,0.1640625,0.099609375,0.0,180.0,360.0
3796329,,,,,,,,1.1796875,3.390625,-1.2109375,0.146484375,0.173828125,0.0625,0.0,180.0,360.0
3796330,36.01305216666666,129.32012733333335,137.68731014997826,72.36499447394544,1.4000000000000001,234.0,,0.84375,2.640625,-1.06640625,0.146484375,0.173828125,0.0625,0.0,180.0,360.0
3796331,,,,,,,,0.84375,2.640625,-1.06640625,0.1328125,0.18359375,0.03125,0.0,180.0,360.0
3796332,,,,,,,,0.84375,2.640625,-1.06640625,0.197265625,0.232421875,0.005859375,0.0,180.0,360.0
3796333,,,,,,,,0.70703125,1.4765625,-0.76171875,0.197265625,0.232421875,0.005859375,0.0,180.0,360.0
3796334,,,,,,,,0.70703125,1.4765625,-0.76171875,0.169921875,0.25390625,0.01171875,0.0,180.0,360.0
3796335,,,,,,,,0.55859375,1.16015625,-0.5703125,0.169921875,0.25390625,0.01171875,0.0,180.0,360.0
3796336,,,,,,,,0.55859375,1.16015625,-0.5703125,0.169921875,0.25390625,0.01171875,0.0,180.0,360.0
3796337,,,,,,,,0.55859375,1.16015625,-0.5703125,-0.064453125,0.26171875,0.052734375,0.0,180.0,360.0
3796338,,,,,,,,0.96875,0.06640625,-0.7265625,-0.064453125,0.26171875,0.052734375,0.0,180.0,360.0
3796339,,,,,,,,0.96875,0.06640625,-0.7265625,-0.197265625,0.193359375,0.052734375,0.0,180.0,360.0
3796340,36.013050666666665,129.32012533333332,137.50701509832467,72.19855278622637,1.3,231.0,,0.73046875,-0.5859375,-0.578125,-0.197265625,0.193359375,0.052734375,0.0,180.0,360.0
3796341,,,,,,,,0.73046875,-0.5859375,-0.578125,-0.21875,0.08203125,0.037109375,0.0,180.0,360.0
3796342,,,,,,,,0.27734375,-1.3828125,-0.2734375,-0.21875,0.08203125,0.037109375,0.0,180.0,360.0
3796343,,,,,,,,0.27734375,-1.3828125,-0.2734375,-0.1015625,0.01953125,0.01171875,0.0,180.0,360.0
3796344,,,,,,,,-0.2890625,-1.26171875,0.21875,-0.1015625,0.01953125,0.01171875,0.0,180.0,360.0
3796345,,,,,,,,-0.2890625,-1.26171875,0.21875,-0.326171875,0.052734375,0.046875,0.0,180.0,360.0
3796346,,,,,,,,0.171875,0.203125,-0.5234375,-0.326171875,0.052734375,0.046875,0.0,180.0,360.0
3796347,,,,,,,,0.171875,0.203125,-0.5234375,-0.87890625,0.017578125,0.08203125,0.0,180.0,360.0
3796348,,,,,,,,0.171875,0.203125,-0.5234375,-0.87890625,0.017578125,0.08203125,0.0,180.0,360.0
3796349,,,,,,,,0.171875,0.203125,-0.5234375,-0.828125,0.03515625,-0.029296875,0.0,180.0,360.0
3796350,36.01304983333333,129.32012433333333,137.4168677143512,72.10608533984431,1.3,225.0,,-0.2421875,-3.7109375,1.20703125,-0.828125,0.03515625,-0.029296875,0.0,180.0,360.0
3796351,,,,,,,,-0.2421875,-3.7109375,1.20703125,-0.599609375,-0.068359375,-0.025390625,0.0,180.0,360.0
3796352,,,,,,,,-0.2421875,-3.7109375,1.20703125,0.36328125,0.08984375,-0.115234375,0.0,180.0,360.0
3796353,,,,,,,,-1.484375,-4.4921875,4.09765625,0.36328125,0.08984375,-0.115234375,0.0,180.0,360.0
3796354,,,,,,,,-1.484375,-4.4921875,4.09765625,0.140625,0.224609375,-0.0625,0.0,180.0,360.0
3796355,,,,,,,,-1.26171875,-1.796875,2.5703125,0.140625,0.224609375,-0.0625,0.0,180.0,360.0
3796356,,,,,,,,-1.26171875,-1.796875,2.5703125,0.140625,0.224609375,-0.0625,0.0,180.0,360.0
3796357,,,,,,,,-1.26171875,-1.796875,2.5703125,0.302734375,0.419921875,-0.201171875,0.0,180.0,360.0
3796358,,,,,,,,0.4921875,-0.5703125,1.84375,0.302734375,0.419921875,-0.201171875,0.0,180.0,360.0
3796359,,,,,,,,0.4921875,-0.5703125,1.84375,-0.07421875,0.126953125,-0.296875,0.0,180.0,360.0
3796360,36.01304916666666,129.32012333333333,137.3267200393699,72.03211110186388,1.2000000000000002,226.0,,-0.3359375,-0.953125,1.48046875,-0.07421875,0.126953125,-0.296875,0.0,180.0,360.0
3796361,,,,,,,,-0.3359375,-0.953125,1.48046875,0.162109375,0.173828125,-0.3125,0.0,180.0,360.0
3796362,,,,,,,,-0.4296875,-1.53515625,2.44140625,0.162109375,0.173828125,-0.3125,0.0,180.0,360.0
3796363,,,,,,,,-0.4296875,-1.53515625,2.44140625,0.314453125,0.255859375,-0.294921875,0.0,180.0,360.0
3796364,,,,,,,,-0.4765625,-0.9609375,1.84765625,0.314453125,0.255859375,-0.294921875,0.0,180.0,360.0
3796365,,,,,,,,-0.4765625,-0.9609375,1.84765625,0.24609375,0.205078125,-0.2734375,0.0,180.0,360.0
3796366,,,,,,,,-0.4296875,1.23828125,-0.16796875,0.24609375,0.205078125,-0.2734375,0.0,180.0,360.0
3796367,,,,,,,,-0.4296875,1.23828125,-0.16796875,0.138671875,0.1953125,-0.28125,0.0,180.0,360.0
3796368,,,,,,,,-0.4296875,1.23828125,-0.16796875,0.138671875,0.1953125,-0.28125,0.0,180.0,360.0
3796369,,,,,,,,-0.4296875,1.23828125,-0.16796875,0.193359375,0.185546875,-0.3203125,0.0,180.0,360.0
3796370,36.01304866666667,129.32012183333333,137.19149765944266,71.97662936772494,1.4000000000000001,228.0,,-0.46484375,2.70703125,-0.484375,0.193359375,0.185546875,-0.3203125,0.0,180.0,360.0
3796371,,,,,,,,-0.46484375,2.70703125,-0.484375,0.26953125,0.169921875,-0.341796875,0.0,180.0,360.0
3796372,,,,,,,,-0.46484375,2.70703125,-0.484375,0.234375,0.154296875,-0.310546875,0.0,180.0,360.0
3796373,,,,,,,,-1.38671875,3.296875,-1.0234375,0.234375,0.154296875,-0.310546875,0.0,180.0,360.0
3796374,,,,,,,,-1.38671875,3.296875,-1.0234375,0.125,0.09765625,-0.23046875,0.0,180.0,360.0
3796375,,,,,,,,-1.77734375,3.16796875,-1.22265625,0.125,0.09765625,-0.23046875,0.0,180.0,360.0
3796376,,,,,,,,-1.77734375,3.16796875,-1.22265625,0.03125,0.01953125,-0.142578125,0.0,180.0,360.0
3796377,,,,,,,,-1.671875,2.5,-1.20703125,0.03125,0.01953125,-0.142578125,0.0,180.0,360.0
3796378,,,,,,,,-1.671875,2.5,-1.20703125,-0.015625,-0.048828125,-0.091796875,0.0,180.0,360.0
3796379,,,,,,,,-1.671875,2.5,-1.20703125,0.0390625,-0.091796875,-0.0703125,0.0,180.0,360.0
3796380,36.01304833333334,129.320121,137.11637420954813,71.9396417806976,1.2000000000000002,229.0,,-1.42578125,1.83984375,-0.75390625,0.0390625,-0.091796875,-0.0703125,0.0,180.0,360.0
3796381,,,,,,,,-1.42578125,1.83984375,-0.75390625,0.08984375,-0.076171875,-0.076171875,0.0,180.0,360.0
3796382,,,,,,,,-1.28125,1.796875,-0.87109375,0.08984375,-0.076171875,-0.076171875,0.0,180.0,360.0
3796383,,,,,,,,-1.28125,1.796875,-0.87109375,0.048828125,-0.08203125,-0.08203125,0.0,180.0,360.0
3796384,,,,,,,,-1.10546875,1.671875,-1.125,0.048828125,-0.08203125,-0.08203125,0.0,180.0,360.0
3796385,,,,,,,,-1.10546875,1.671875,-1.125,-0.025390625,-0.0859375,-0.095703125,0.0,180.0,360.0
3796386,,,,,,,,-0.9453125,0.8515625,-0.93359375,-0.025390625,-0.0859375,-0.095703125,0.0,180.0,360.0
3796387,,,,,,,,-0.9453125,0.8515625,-0.93359375,-0.125,-0.1328125,-0.0859375,0.0,180.0,360.0
3796388,,,,,,,,-0.9453125,0.8515625,-0.93359375,-0.125,-0.1328125,-0.0859375,0.0,180.0,360.0
3796389,,,,,,,,-0.9453125,0.8515625,-0.93359375,-0.21875,-0.197265625,-0.068359375,0.0,180.0,360.0
3796390,36.013048000000005,129.32011966666667,136.99617634329326,71.90265349131552,1.3,230.0,,-0.859375,-1.40625,-0.35546875,-0.21875,-0.197265625,-0.068359375,0.0,180.0,360.0
3796391,,,,,,,,-0.859375,-1.40625,-0.35546875,-0.23046875,-0.19140625,-0.08203125,0.0,180.0,360.0
3796392,,,,,,,,-0.859375,-1.40625,-0.35546875,-0.265625,-0.060546875,-0.115234375,0.0,180.0,360.0
3796393,,,,,,,,0.2578125,-1.20703125,-0.5234375,-0.265625,-0.060546875,-0.115234375,0.0,180.0,360.0
3796394,,,,,,,,0.2578125,-1.20703125,-0.5234375,-0.265625,0.095703125,-0.16796875,0.0,180.0,360.0
3796395,,,,,,,,0.34765625,-0.671875,-0.7734375,-0.265625,0.095703125,-0.16796875,0.0,180.0,360.0
3796396,,,,,,,,0.34765625,-0.671875,-0.7734375,-0.369140625,0.087890625,-0.138671875,0.0,180.0,360.0
3796397,,,,,,,,-1.3671875,0.67578125,-0.92578125,-0.369140625,0.087890625,-0.138671875,0.0,180.0,360.0
3796398,,,,,,,,-1.3671875,0.67578125,-0.92578125,-0.7890625,-0.240234375,0.009765625,0.0,180.0,360.0
3796399,,,,,,,,-1.3671875,0.67578125,-0.92578125,-0.98828125,-0.59375,0.1328125,0.0,180.0,360.0
3796400,36.01304716666667,129.32011766666668,136.8158801193633,71.81018464658528,1.2000000000000002,233.0,123.0,-0.90625,-3.453125,0.05078125,-0.98828125,-0.59375,0.1328125,0.0,180.0,360.0
3796401,,,,,,,,-0.90625,-3.453125,0.05078125,-0.98828125,-0.59375,0.1328125,0.0,180.0,360.0
3796402,,,,,,,,-0.90625,-3.453125,0.05078125,-0.833984375,-0.646484375,0.111328125,0.0,180.0,360.0
3796403,,,,,,,,-0.90625,-3.453125,0.05078125,0.201171875,0.0234375,0.060546875,0.0,180.0,360.0
3796404,,,,,,,,-0.90625,-3.453125,0.05078125,0.2109375,0.04296875,0.033203125,0.0,180.0,360.0
3796405,,,,,,,,0.73828125,2.0078125,-0.9609375,0.2109375,0.04296875,0.033203125,0.0,180.0,360.0
3796406,,,,,,,,0.73828125,2.0078125,-0.9609375,0.20703125,0.060546875,0.00390625,0.0,180.0,360.0
3796407,,,,,,,,0.5546875,1.265625,-0.92578125,0.20703125,0.060546875,0.00390625,0.0,180.0,360.0
3796408,,,,,,,,0.5546875,1.265625,-0.92578125,0.15234375,0.08203125,0.001953125,0.0,180.0,360.0
3796409,,,,,,,,0.36328125,0.76171875,-0.6328125,0.15234375,0.08203125,0.001953125,0.0,180.0,360.0
3796410,36.013046,129.32011383333332,136.4703115989364,71.68072682175776,1.2000000000000002,240.0,,0.36328125,0.76171875,-0.6328125,0.0234375,0.046875,0.03515625,0.0,180.0,360.0
3796411,,,,,,,,0.36328125,0.76171875,-0.6328125,-0.142578125,-0.0078125,0.060546875,0.0,180.0,360.0
3796412,,,,,,,,0.45703125,0.5546875,-0.703125,-0.142578125,-0.0078125,0.060546875,0.0,180.0,360.0
3796413,,,,,,,,0.45703125,0.5546875,-0.703125,-0.208984375,-0.064453125,0.04296875,0.0,180.0,360.0
3796414,,,,,,,,0.609375,-1.125,-0.55078125,-0.208984375,-0.064453125,0.04296875,0.0,180.0,360.0
3796415,,,,,,,,0.609375,-1.125,-0.55078125,-0.16796875,-0.181640625,0.001953125,0.0,180.0,360.0
3796416,,,,,,,,0.3046875,-1.8359375,0.171875,-0.16796875,-0.181640625,0.001953125,0.0,180.0,360.0
3796417,,,,,,,,0.3046875,-1.8359375,0.171875,-0.04296875,-0.1953125,0.0,0.0,180.0,360.0
3796418,,,,,,,,0.79296875,-0.390625,0.05078125,-0.04296875,-0.1953125,0.0,0.0,180.0,360.0
3796419,,,,,,,,0.79296875,-0.390625,0.05078125,-0.369140625,-0.052734375,0.0625,0.0,180.0,360.0
3796420,36.013045000000005,129.32011266666666,136.36513968007677,71.56976594624649,1.3,233.0,,0.79296875,-0.390625,0.05078125,-0.369140625,-0.052734375,0.0625,0.0,180.0,360.0
3796421,,,,,,,,0.79296875,-0.390625,0.05078125,-0.912109375,-0.048828125,0.119140625,0.0,180.0,360.0
3796422,,,,,,,,1.19921875,-3.23828125,-0.7109375,-0.912109375,-0.048828125,0.119140625,0.0,180.0,360.0
3796423,,,,,,,,1.19921875,-3.23828125,-0.7109375,-0.888671875,0.072265625,-0.005859375,0.0,180.0,360.0
3796424,,,,,,,,1.19921875,-3.23828125,-0.7109375,-0.69140625,0.02734375,0.015625,0.0,180.0,360.0
3796425,,,,,,,,0.47265625,-4.078125,1.890625,-0.69140625,0.02734375,0.015625,0.0,180.0,360.0
3796426,,,,,,,,0.47265625,-4.078125,1.890625,0.4140625,0.138671875,-0.064453125,0.0,180.0,360.0
3796427,,,,,,,,-1.44921875,-2.5703125,3.125,0.4140625,0.138671875,-0.064453125,0.0,180.0,360.0
3796428,,,,,,,,-1.44921875,-2.5703125,3.125,0.03125,0.240234375,0.04296875,0.0,180.0,360.0
3796429,,,,,,,,-0.67578125,-0.6640625,1.8984375,0.03125,0.240234375,0.04296875,0.0,180.0,360.0
3796430,36.0130445,129.32011150000002,136.25996690080225,71.5142846925049,1.3,229.0,,-0.67578125,-0.6640625,1.8984375,0.1328125,0.359375,-0.064453125,0.0,180.0,360.0
3796431,,,,,,,,-0.67578125,-0.6640625,1.8984375,0.24609375,0.341796875,-0.240234375,0.0,180.0,360.0
3796432,,,,,,,,1.8359375,-1.4765625,2.6015625,0.24609375,0.341796875,-0.240234375,0.0,180.0,360.0
3796433,,,,,,,,1.8359375,-1.4765625,2.6015625,-0.005859375,0.171875,-0.314453125,0.0,180.0,360.0
3796434,,,,,,,,-0.05078125,-0.71484375,1.45703125,-0.005859375,0.171875,-0.314453125,0.0,180.0,360.0
3796435,,,,,,,,-0.05078125,-0.71484375,1.45703125,0.123046875,0.169921875,-0.30078125,0.0,180.0,360.0
3796436,,,,,,,,-0.296875,-1.0625,1.94140625,0.123046875,0.169921875,-0.30078125,0.0,180.0,360.0
3796437,,,,,,,,-0.296875,-1.0625,1.94140625,0.330078125,0.25390625,-0.26953125,0.0,180.0,360.0
3796438,,,,,,,,-0.34375,0.41796875,0.59765625,0.330078125,0.25390625,-0.26953125,0.0,180.0,360.0
3796439,,,,,,,,-0.34375,0.41796875,0.59765625,0.330078125,0.25390625,-0.26953125,0.0,180.0,360.0
3796440,36.013043833333334,129.3201105,136.16981920788027,71.4403104664525,1.3,229.0,,-0.34375,0.41796875,0.59765625,0.27734375,0.24609375,-0.23828125,0.0,180.0,360.0
3796441,,,,,,,,-0.13671875,1.8203125,-0.7734375,0.27734375,0.24609375,-0.23828125,0.0,180.0,360.0
3796442,,,,,,,,-0.13671875,1.8203125,-0.7734375,0.2421875,0.23828125,-0.267578125,0.0,180.0,360.0
3796443,,,,,,,,-0.34375,2.2265625,-0.8984375,0.2421875,0.23828125,-0.267578125,0.0,180.0,360.0
3796444,,,,,,,,-0.34375,2.2265625,-0.8984375,0.248046875,0.2421875,-0.283203125,0.0,180.0,360.0
3796445,,,,,,,,-0.5390625,2.5859375,-0.875,0.248046875,0.2421875,-0.283203125,0.0,180.0,360.0
3796446,,,,,,,,-0.5390625,2.5859375,-0.875,0.232421875,0.201171875,-0.248046875,0.0,180.0,360.0
3796447,,,,,,,,-0.890625,2.68359375,-0.921875,0.232421875,0.201171875,-0.248046875,0.0,180.0,360.0
3796448,,,,,,,,-0.890625,2.68359375,-0.921875,0.212890625,0.208984375,-0.19921875,0.0,180.0,360.0
3796449,,,,,,,,-0.890625,2.68359375,-0.921875,0.212890625,0.208984375,-0.19921875,0.0,180.0,360.0
3796450,36.01304316666666,129.3201085,135.98952267939336,71.36633484535949,1.2000000000000002,230.0,,-0.890625,2.68359375,-0.921875,0.166015625,0.1484375,-0.103515625,0.0,180.0,360.0
3796451,,,,,,,,-1.95703125,2.1484375,-1.0859375,0.166015625,0.1484375,-0.103515625,0.0,180.0,360.0
3796452,,,,,,,,-1.95703125,2.1484375,-1.0859375,0.115234375,0.048828125,-0.029296875,0.0,180.0,360.0
3796453,,,,,,,,-1.95703125,2.1484375,-1.0859375,0.134765625,0.0234375,0.0078125,0.0,180.0,360.0
3796454,,,,,,,,-1.26953125,1.90234375,-0.95703125,0.134765625,0.0234375,0.0078125,0.0,180.0,360.0
3796455,,,,,,,,-1.26953125,1.90234375,-0.95703125,0.138671875,-0.01171875,0.02734375,0.0,180.0,360.0
3796456,,,,,,,,-1.10546875,1.81640625,-0.98828125,0.138671875,-0.01171875,0.02734375,0.0,180.0,360.0
3796457,,,,,,,,-1.10546875,1.81640625,-0.98828125,0.111328125,-0.013671875,0.021484375,0.0,180.0,360.0
3796458,,,,,,,,-0.90625,1.38671875,-1.05078125,0.111328125,-0.013671875,0.021484375,0.0,180.0,360.0
3796459,,,,,,,,-0.90625,1.38671875,-1.05078125,0.111328125,-0.013671875,0.021484375,0.0,180.0,360.0
3796460,36.0130425,129.32010733333334,135.88435017894673,71.29236038960732,1.3,230.0,,-0.90625,1.38671875,-1.05078125,-0.013671875,-0.052734375,0.001953125,0.0,180.0,360.0
3796461,,,,,,,,-0.8984375,-0.08203125,-0.60546875,-0.013671875,-0.052734375,0.001953125,0.0,180.0,360.0
3796462,,,,,,,,-0.8984375,-0.08203125,-0.60546875,-0.109375,-0.119140625,-0.01953125,0.0,180.0,360.0
3796463,,,,,,,,-0.71484375,-0.734375,-0.23828125,-0.109375,-0.119140625,-0.01953125,0.0,180.0,360.0
3796464,,,,,,,,-0.71484375,-0.734375,-0.23828125,-0.13671875,-0.07421875,-0.0625,0.0,180.0,360.0
3796465,,,,,,,,-0.4921875,-0.87890625,-0.13671875,-0.13671875,-0.07421875,-0.0625,0.0,180.0,360.0
3796466,,,,,,,,-0.4921875,-0.87890625,-0.13671875,-0.28125,-0.05078125,-0.0859375,0.0,180.0,360.0
3796467,,,,,,,,-0.2421875,-0.734375,-0.44140625,-0.28125,-0.05078125,-0.0859375,0.0,180.0,360.0
3796468,,,,,,,,-0.2421875,-0.734375,-0.44140625,-0.35546875,0.0234375,-0.115234375,0.0,180.0,360.0
3796469,,,,,,,,-0.2421875,-0.734375,-0.44140625,-0.35546875,0.0234375,-0.115234375,0.0,180.0,360.0
3796470,36.013042000000006,129.3201063333333,135.79420219482128,71.23687937461912,1.2000000000000002,230.0,,-0.2421875,-0.734375,-0.44140625,-0.474609375,0.03125,-0.072265625,0.0,180.0,360.0
3796471,,,,,,,,-1.30859375,-0.62109375,-0.5546875,-0.474609375,0.03125,-0.072265625,0.0,180.0,360.0
3796472,,,,,,,,-1.30859375,-0.62109375,-0.5546875,-0.908203125,-0.15625,0.052734375,0.0,180.0,360.0
3796473,,,,,,,,-1.30859375,-0.62109375,-0.5546875,-0.87890625,-0.341796875,0.064453125,0.0,180.0,360.0
3796474,,,,,,,,1.26171875,-5.66796875,1.90234375,-0.87890625,-0.341796875,0.064453125,0.0,180.0,360.0
3796475,,,,,,,,1.26171875,-5.66796875,1.90234375,-0.345703125,-0.146484375,-0.107421875,0.0,180.0,360.0
3796476,,,,,,,,3.40625,-5.21484375,3.0,-0.345703125,-0.146484375,-0.107421875,0.0,180.0,360.0
3796477,,,,,,,,3.40625,-5.21484375,3.0,0.111328125,0.0625,-0.220703125,0.0,180.0,360.0
3796478,,,,,,,,3.44921875,-2.49609375,1.99609375,0.111328125,0.0625,-0.220703125,0.0,180.0,360.0
3796479,,,,,,,,3.44921875,-2.49609375,1.99609375,0.326171875,0.09375,-0.14453125,0.0,180.0,360.0
3796480,36.013041666666666,129.32010533333332,135.7040539281075,71.1998915664098,1.2000000000000002,233.0,,-0.08203125,-3.390625,3.28515625,0.326171875,0.09375,-0.14453125,0.0,180.0,360.0
3796481,,,,,,,,-0.08203125,-3.390625,3.28515625,0.63671875,-0.060546875,-0.078125,0.0,180.0,360.0
3796482,,,,,,,,-0.08203125,-3.390625,3.28515625,0.431640625,-0.279296875,0.125,0.0,180.0,360.0
3796483,,,,,,,,-0.3671875,-1.34765625,2.0859375,0.431640625,-0.279296875,0.125,0.0,180.0,360.0
3796484,,,,,,,,-0.3671875,-1.34765625,2.0859375,0.17578125,-0.455078125,0.353515625,0.0,180.0,360.0
3796485,,,,,,,,-0.57421875,-0.234375,1.33984375,0.17578125,-0.455078125,0.353515625,0.0,180.0,360.0
3796486,,,,,,,,-0.57421875,-0.234375,1.33984375,0.138671875,-0.48828125,0.4296875,0.0,180.0,360.0
3796487,,,,,,,,-0.37109375,-0.3828125,1.125,0.138671875,-0.48828125,0.4296875,0.0,180.0,360.0
3796488,,,,,,,,-0.37109375,-0.3828125,1.125,0.205078125,-0.44140625,0.412109375,0.0,180.0,360.0
3796489,,,,,,,,-0.37109375,-0.3828125,1.125,0.205078125,-0.44140625,0.412109375,0.0,180.0,360.0
3796490,36.013041333333334,129.320104,135.58385604627583,71.16290329717827,1.3,234.0,,-0.37109375,-0.3828125,1.125,0.265625,-0.369140625,0.37109375,0.0,180.0,360.0
3796491,,,,,,,,0.42578125,1.85546875,-0.60546875,0.265625,-0.369140625,0.37109375,0.0,180.0,360.0
3796492,,,,,,,,0.42578125,1.85546875,-0.60546875,0.248046875,-0.279296875,0.361328125,0.0,180.0,360.0
3796493,,,,,,,,0.42578125,1.85546875,-0.60546875,0.259765625,-0.19140625,0.333984375,0.0,180.0,360.0
3796494,,,,,,,,0.58203125,2.27734375,-0.9765625,0.259765625,-0.19140625,0.333984375,0.0,180.0,360.0
3796495,,,,,,,,0.58203125,2.27734375,-0.9765625,0.26953125,-0.142578125,0.2890625,0.0,180.0,360.0
3796496,,,,,,,,0.94921875,3.11328125,-1.1015625,0.26953125,-0.142578125,0.2890625,0.0,180.0,360.0
3796497,,,,,,,,0.94921875,3.11328125,-1.1015625,0.2109375,-0.0859375,0.25390625,0.0,180.0,360.0
3796498,,,,,,,,1.14453125,3.296875,-1.26171875,0.2109375,-0.0859375,0.25390625,0.0,180.0,360.0
3796499,,,,,,,,1.14453125,3.296875,-1.26171875,0.11328125,-0.017578125,0.205078125,0.0,180.0,360.0
3796500,36.01304066666667,129.32010200000002,135.40355950721795,71.08892768816274,1.1,237.0,123.0,1.14453125,3.296875,-1.26171875,0.11328125,-0.017578125,0.205078125,0.0,180.0,360.0
3796501,,,,,,,,1.14453125,3.296875,-1.26171875,0.11328125,-0.017578125,0.205078125,0.0,180.0,360.0
3796502,,,,,,,,1.08984375,2.62890625,-1.1953125,0.11328125,-0.017578125,0.205078125,0.0,180.0,360.0
3796503,,,,,,,,1.08984375,2.62890625,-1.1953125,0.119140625,0.01171875,0.15625,0.0,180.0,360.0
3796504,,,,,,,,0.56640625,-0.16015625,-0.58203125,0.119140625,0.01171875,0.15625,0.0,180.0,360.0
3796505,,,,,,,,0.56640625,-0.16015625,-0.58203125,-0.515625,-0.060546875,0.158203125,0.0,180.0,360.0
3796506,,,,,,,,0.56640625,-0.16015625,-0.58203125,-0.806640625,-0.05859375,0.1484375,0.0,180.0,360.0
3796507,,,,,,,,0.14453125,-2.953125,0.00390625,-0.806640625,-0.05859375,0.1484375,0.0,180.0,360.0
3796508,,,,,,,,0.14453125,-2.953125,0.00390625,-0.77734375,-0.037109375,0.115234375,0.0,180.0,360.0
3796509,,,,,,,,-0.52734375,-3.3359375,1.85546875,-0.77734375,-0.037109375,0.115234375,0.0,180.0,360.0
3796510,36.0130395,129.320101,135.31341265706192,70.95947384896593,1.1,226.0,,-0.52734375,-3.3359375,1.85546875,-0.375,-0.22265625,0.125,0.0,180.0,360.0
3796511,,,,,,,,-1.34765625,-2.1328125,2.62109375,-0.375,-0.22265625,0.125,0.0,180.0,360.0
3796512,,,,,,,,-1.34765625,-2.1328125,2.62109375,0.130859375,-0.072265625,0.064453125,0.0,180.0,360.0
3796513,,,,,,,,-0.54296875,-0.74609375,2.1796875,0.130859375,-0.072265625,0.064453125,0.0,180.0,360.0
3796514,,,,,,,,-0.54296875,-0.74609375,2.1796875,0.021484375,-0.041015625,0.021484375,0.0,180.0,360.0
3796515,,,,,,,,0.98046875,-1.16796875,2.1796875,0.021484375,-0.041015625,0.021484375,0.0,180.0,360.0
3796516,,,,,,,,0.98046875,-1.16796875,2.1796875,0.12890625,0.263671875,-0.166015625,0.0,180.0,360.0
3796517,,,,,,,,0.98046875,-1.16796875,2.1796875,0.12890625,0.263671875,-0.166015625,0.0,180.0,360.0
3796518,,,,,,,,0.98046875,-1.16796875,2.1796875,-0.033203125,0.16796875,-0.2265625,0.0,180.0,360.0
3796519,,,,,,,,-0.0390625,-0.640625,1.79296875,-0.033203125,0.16796875,-0.2265625,0.0,180.0,360.0
3796520,36.01303883333333,129.32010033333333,135.25331456881725,70.88550009599601,1.2000000000000002,223.0,,-0.0390625,-0.640625,1.79296875,0.0546875,0.2109375,-0.259765625,0.0,180.0,360.0
3796521,,,,,,,,-0.0390625,-0.640625,1.79296875,0.15234375,0.24609375,-0.259765625,0.0,180.0,360.0
3796522,,,,,,,,-0.40625,-0.48828125,1.3125,0.15234375,0.24609375,-0.259765625,0.0,180.0,360.0
3796523,,,,,,,,-0.40625,-0.48828125,1.3125,0.1796875,0.23046875,-0.236328125,0.0,180.0,360.0
3796524,,,,,,,,-0.59765625,0.04296875,0.69140625,0.1796875,0.23046875,-0.236328125,0.0,180.0,360.0
3796525,,,,,,,,-0.59765625,0.04296875,0.69140625,0.166015625,0.185546875,-0.2265625,0.0,180.0,360.0
3796526,,,,,,,,-0.42578125,1.22265625,-0.17578125,0.166015625,0.185546875,-0.2265625,0.0,180.0,360.0
3796527,,,,,,,,-0.42578125,1.22265625,-0.17578125,0.1953125,0.150390625,-0.248046875,0.0,180.0,360.0
3796528,,,,,,,,-0.42578125,1.22265625,-0.17578125,0.1953125,0.150390625,-0.248046875,0.0,180.0,360.0
3796529,,,,,,,,-0.42578125,1.22265625,-0.17578125,0.21875,0.130859375,-0.26953125,0.0,180.0,360.0
3796530,36.013038333333334,129.320099,135.1331169651582,70.83001862509221,1.2000000000000002,226.0,,-0.90234375,2.30078125,-0.80859375,0.21875,0.130859375,-0.26953125,0.0,180.0,360.0
3796531,,,,,,,,-0.90234375,2.30078125,-0.80859375,0.1953125,0.1171875,-0.255859375,0.0,180.0,360.0
3796532,,,,,,,,-0.90234375,2.30078125,-0.80859375,0.16015625,0.13671875,-0.212890625,0.0,180.0,360.0
3796533,,,,,,,,-1.1484375,2.40234375,-1.046875,0.16015625,0.13671875,-0.212890625,0.0,180.0,360.0
3796534,,,,,,,,-1.1484375,2.40234375,-1.046875,0.087890625,0.115234375,-0.15234375,0.0,180.0,360.0
3796535,,,,,,,,-1.5234375,2.23828125,-1.24609375,0.087890625,0.115234375,-0.15234375,0.0,180.0,360.0
3796536,,,,,,,,-1.5234375,2.23828125,-1.24609375,0.05859375,0.076171875,-0.103515625,0.0,180.0,360.0
3796537,,,,,,,,-1.40234375,1.80859375,-1.0703125,0.05859375,0.076171875,-0.103515625,0.0,180.0,360.0
3796538,,,,,,,,-1.40234375,1.80859375,-1.0703125,0.07421875,0.037109375,-0.07421875,0.0,180.0,360.0
3796539,,,,,,,,-1.40234375,1.80859375,-1.0703125,0.1328125,0.0546875,-0.0625,0.0,180.0,360.0
3796540,36.013037833333335,129.32009816666667,135.05799378093366,70.77453784860145,1.1,226.0,,-1.1796875,1.87109375,-1.1015625,0.1328125,0.0546875,-0.0625,0.0,180.0,360.0
3796541,,,,,,,,-1.1796875,1.87109375,-1.1015625,0.125,0.044921875,-0.05859375,0.0,180.0,360.0
3796542,,,,,,,,-1.1953125,1.85546875,-1.23828125,0.125,0.044921875,-0.05859375,0.0,180.0,360.0
3796543,,,,,,,,-1.1953125,1.85546875,-1.23828125,0.0546875,-0.025390625,-0.05859375,0.0,180.0,360.0
3796544,,,,,,,,-1.125,1.42578125,-1.30078125,0.0546875,-0.025390625,-0.05859375,0.0,180.0,360.0
3796545,,,,,,,,-1.125,1.42578125,-1.30078125,0.01953125,-0.076171875,-0.083984375,0.0,180.0,360.0
3796546,,,,,,,,-0.90234375,-0.265625,-0.61328125,0.01953125,-0.076171875,-0.083984375,0.0,180.0,360.0
3796547,,,,,,,,-0.90234375,-0.265625,-0.61328125,-0.00390625,-0.14453125,-0.1015625,0.0,180.0,360.0
3796548,,,,,,,,-0.90234375,-0.265625,-0.61328125,-0.00390625,-0.14453125,-0.1015625,0.0,180.0,360.0
3796549,,,,,,,,-0.90234375,-0.265625,-0.61328125,-0.005859375,-0.130859375,-0.12890625,0.0,180.0,360.0
3796550,36.0130375,129.32009699999998,134.95282069513624,70.73754981838209,1.2000000000000002,227.0,,-0.4296875,-1.1640625,-0.3359375,-0.005859375,-0.130859375,-0.12890625,0.0,180.0,360.0
3796551,,,,,,,,-0.4296875,-1.1640625,-0.3359375,-0.107421875,-0.064453125,-0.162109375,0.0,180.0,360.0
3796552,,,,,,,,-0.1953125,-1.1640625,-0.609375,-0.107421875,-0.064453125,-0.162109375,0.0,180.0,360.0
3796553,,,,,,,,-0.1953125,-1.1640625,-0.609375,-0.244140625,0.029296875,-0.173828125,0.0,180.0,360.0
3796554,,,,,,,,-0.1953125,-1.1640625,-0.609375,-0.322265625,0.12890625,-0.177734375,0.0,180.0,360.0
3796555,,,,,,,,-0.34765625,-0.7421875,-1.0546875,-0.322265625,0.12890625,-0.177734375,0.0,180.0,360.0
3796556,,,,,,,,-0.34765625,-0.7421875,-1.0546875,-0.4140625,0.064453125,-0.115234375,0.0,180.0,360.0
3796557,,,,,,,,-2.24609375,-0.34375,-0.984375,-0.4140625,0.064453125,-0.115234375,0.0,180.0,360.0
3796558,,,,,,,,-2.24609375,-0.34375,-0.984375,-0.681640625,-0.19921875,0.01171875,0.0,180.0,360.0
3796559,,,,,,,,-2.24609375,-0.34375,-0.984375,-0.681640625,-0.19921875,0.01171875,0.0,180.0,360.0
3796560,36.01303733333334,129.32009616666667,134.87769694560123,70.71905545722511,1.1,227.0,,-2.24609375,-0.34375,-0.984375,-0.7421875,-0.4375,0.1015625,0.0,180.0,360.0
3796561,,,,,,,,-0.5234375,-2.6484375,-0.09765625,-0.7421875,-0.4375,0.1015625,0.0,180.0,360.0
3796562,,,,,,,,-0.5234375,-2.6484375,-0.09765625,-0.783203125,-0.548828125,0.080078125,0.0,180.0,360.0
3796563,,,,,,,,-0.5234375,-2.6484375,-0.09765625,-0.166015625,-0.25,-0.181640625,0.0,180.0,360.0
3796564,,,,,,,,3.10546875,-3.49609375,1.76171875,-0.166015625,-0.25,-0.181640625,0.0,180.0,360.0
3796565,,,,,,,,3.10546875,-3.49609375,1.76171875,0.009765625,-0.109375,-0.255859375,0.0,180.0,360.0
3796566,,,,,,,,3.75,-1.8125,1.78515625,0.009765625,-0.109375,-0.255859375,0.0,180.0,360.0
3796567,,,,,,,,3.75,-1.8125,1.78515625,0.5078125,0.0,-0.283203125,0.0,180.0,360.0
3796568,,,,,,,,3.75,-1.8125,1.78515625,0.5078125,0.0,-0.283203125,0.0,180.0,360.0
3796569,,,,,,,,3.75,-1.8125,1.78515625,0.482421875,0.0234375,-0.083984375,0.0,180.0,360.0
3796570,36.013037000000004,129.32009516666668,134.78754866739703,70.68206765983487,1.1,227.0,,-0.3671875,-0.50390625,1.51171875,0.482421875,0.0234375,-0.083984375,0.0,180.0,360.0
3796571,,,,,,,,-0.3671875,-0.50390625,1.51171875,0.109375,-0.14453125,0.236328125,0.0,180.0,360.0
3796572,,,,,,,,-0.3671875,-0.50390625,1.51171875,-0.06640625,-0.228515625,0.396484375,0.0,180.0,360.0
3796573,,,,,,,,0.01171875,-0.6484375,0.9140625,-0.06640625,-0.228515625,0.396484375,0.0,180.0,360.0
3796574,,,,,,,,0.01171875,-0.6484375,0.9140625,0.181640625,-0.154296875,0.33984375,0.0,180.0,360.0
3796575,,,,,,,,0.41015625,-0.9765625,0.83984375,0.181640625,-0.154296875,0.33984375,0.0,180.0,360.0
3796576,,,,,,,,0.41015625,-0.9765625,0.83984375,0.337890625,-0.125,0.296875,0.0,180.0,360.0
3796577,,,,,,,,-0.0625,1.671875,-0.55078125,0.337890625,-0.125,0.296875,0.0,180.0,360.0
3796578,,,,,,,,-0.0625,1.671875,-0.55078125,0.31640625,-0.099609375,0.30078125,0.0,180.0,360.0
3796579,,,,,,,,0.05078125,2.2421875,-1.02734375,0.31640625,-0.099609375,0.30078125,0.0,180.0,360.0
3796580,36.0130365,129.32009266666668,134.56217740467702,70.62658458313835,1.3,234.0,,0.05078125,2.2421875,-1.02734375,0.2734375,-0.04296875,0.294921875,0.0,180.0,360.0
3796581,,,,,,,,0.05078125,2.2421875,-1.02734375,0.24609375,0.04296875,0.26171875,0.0,180.0,360.0
3796582,,,,,,,,0.75,2.81640625,-1.5625,0.24609375,0.04296875,0.26171875,0.0,180.0,360.0
3796583,,,,,,,,0.75,2.81640625,-1.5625,0.201171875,0.134765625,0.193359375,0.0,180.0,360.0
3796584,,,,,,,,1.14453125,2.9296875,-1.640625,0.201171875,0.134765625,0.193359375,0.0,180.0,360.0
3796585,,,,,,,,1.14453125,2.9296875,-1.640625,0.154296875,0.21875,0.111328125,0.0,180.0,360.0
3796586,,,,,,,,1.2890625,2.84375,-1.56640625,0.154296875,0.21875,0.111328125,0.0,180.0,360.0
3796587,,,,,,,,1.2890625,2.84375,-1.56640625,0.154296875,0.21875,0.111328125,0.0,180.0,360.0
3796588,,,,,,,,1.2890625,2.84375,-1.56640625,0.16015625,0.203125,0.03125,0.0,180.0,360.0
3796589,,,,,,,,0.59375,2.29296875,-1.12109375,0.16015625,0.203125,0.03125,0.0,180.0,360.0
3796590,36.013036166666666,129.32009166666666,134.47202912165918,70.5895967883973,1.2000000000000002,235.0,,0.59375,2.29296875,-1.12109375,0.12890625,0.23046875,0.013671875,0.0,180.0,360.0
3796591,,,,,,,,0.625,2.0859375,-1.24609375,0.12890625,0.23046875,0.013671875,0.0,180.0,360.0
3796592,,,,,,,,0.625,2.0859375,-1.24609375,0.103515625,0.2265625,-0.001953125,0.0,180.0,360.0
3796593,,,,,,,,0.59375,1.84765625,-1.30859375,0.103515625,0.2265625,-0.001953125,0.0,180.0,360.0
3796594,,,,,,,,0.59375,1.84765625,-1.30859375,0.033203125,0.18359375,0.00390625,0.0,180.0,360.0
3796595,,,,,,,,0.48828125,0.8828125,-1.1328125,0.033203125,0.18359375,0.00390625,0.0,180.0,360.0
3796596,,,,,,,,0.48828125,0.8828125,-1.1328125,-0.0546875,0.14453125,0.029296875,0.0,180.0,360.0
3796597,,,,,,,,0.5234375,0.22265625,-0.82421875,-0.0546875,0.14453125,0.029296875,0.0,180.0,360.0
3796598,,,,,,,,0.5234375,0.22265625,-0.82421875,-0.0859375,0.091796875,0.0546875,0.0,180.0,360.0
3796599,,,,,,,,0.5234375,0.22265625,-0.82421875,-0.0859375,0.091796875,0.0546875,0.0,180.0,360.0
3796600,36.01303466666666,129.32008966666666,134.29173397487102,70.42315516706697,1.3,226.0,123.0,0.5234375,0.22265625,-0.82421875,-0.07421875,0.046875,0.064453125,0.0,180.0,360.0
3796601,,,,,,,,0.5234375,0.22265625,-0.82421875,-0.07421875,0.046875,0.064453125,0.0,180.0,360.0
3796602,,,,,,,,0.44921875,-1.30859375,-0.2421875,-0.07421875,0.046875,0.064453125,0.0,180.0,360.0
3796603,,,,,,,,-0.55859375,-3.3671875,2.71875,-0.07421875,0.046875,0.064453125,0.0,180.0,360.0
3796604,,,,,,,,-0.55859375,-3.3671875,2.71875,0.162109375,0.244140625,0.037109375,0.0,180.0,360.0
3796605,,,,,,,,-0.55859375,-3.3671875,2.71875,-0.037109375,0.220703125,0.0703125,0.0,180.0,360.0
3796606,,,,,,,,-0.26953125,-1.18359375,1.8671875,-0.037109375,0.220703125,0.0703125,0.0,180.0,360.0
3796607,,,,,,,,-0.26953125,-1.18359375,1.8671875,0.21875,0.39453125,-0.025390625,0.0,180.0,360.0
3796608,,,,,,,,0.97265625,-1.375,2.49609375,0.21875,0.39453125,-0.025390625,0.0,180.0,360.0
3796609,,,,,,,,0.97265625,-1.375,2.49609375,0.09765625,0.2734375,-0.12109375,0.0,180.0,360.0
3796610,36.013034,129.32008866666666,134.20158625648077,70.34918096072339,1.2000000000000002,224.0,,0.51171875,-1.06640625,2.03515625,0.09765625,0.2734375,-0.12109375,0.0,180.0,360.0
3796611,,,,,,,,0.51171875,-1.06640625,2.03515625,0.181640625,0.16015625,-0.189453125,0.0,180.0,360.0
3796612,,,,,,,,-0.3515625,-1.296875,2.234375,0.181640625,0.16015625,-0.189453125,0.0,180.0,360.0
3796613,,,,,,,,-0.3515625,-1.296875,2.234375,0.330078125,0.158203125,-0.208984375,0.0,180.0,360.0
3796614,,,,,,,,-0.37109375,-0.125,1.23828125,0.330078125,0.158203125,-0.208984375,0.0,180.0,360.0
3796615,,,,,,,,-0.37109375,-0.125,1.23828125,0.396484375,0.1796875,-0.189453125,0.0,180.0,360.0
3796616,,,,,,,,-0.37109375,-0.125,1.23828125,0.330078125,0.1171875,-0.185546875,0.0,180.0,360.0
3796617,,,,,,,,-0.30078125,0.6171875,0.35546875,0.330078125,0.1171875,-0.185546875,0.0,180.0,360.0
3796618,,,,,,,,-0.30078125,0.6171875,0.35546875,0.248046875,0.0625,-0.21484375,0.0,180.0,360.0
3796619,,,,,,,,-0.1015625,2.0546875,-0.703125,0.248046875,0.0625,-0.21484375,0.0,180.0,360.0
3796620,36.0130335,129.32008750000003,134.0964134489588,70.29369973333743,1.3,226.0,,-0.1015625,2.0546875,-0.703125,0.26171875,0.05859375,-0.251953125,0.0,180.0,360.0
3796621,,,,,,,,-0.265625,2.35546875,-0.7890625,0.26171875,0.05859375,-0.251953125,0.0,180.0,360.0
3796622,,,,,,,,-0.265625,2.35546875,-0.7890625,0.296875,0.05078125,-0.251953125,0.0,180.0,360.0
3796623,,,,,,,,-0.98046875,2.75390625,-0.9140625,0.296875,0.05078125,-0.251953125,0.0,180.0,360.0
3796624,,,,,,,,-0.98046875,2.75390625,-0.9140625,0.26953125,0.060546875,-0.19140625,0.0,180.0,360.0
3796625,,,,,,,,-0.98046875,2.75390625,-0.9140625,0.19140625,0.068359375,-0.11328125,0.0,180.0,360.0
3796626,,,,,,,,-1.4453125,2.61328125,-1.21484375,0.19140625,0.068359375,-0.11328125,0.0,180.0,360.0
3796627,,,,,,,,-1.4453125,2.61328125,-1.21484375,0.115234375,0.005859375,-0.03515625,0.0,180.0,360.0
3796628,,,,,,,,-1.6171875,2.33203125,-1.12890625,0.115234375,0.005859375,-0.03515625,0.0,180.0,360.0
3796629,,,,,,,,-1.6171875,2.33203125,-1.12890625,0.09375,-0.04296875,-0.00390625,0.0,180.0,360.0
3796630,36.01303266666666,129.32008683333333,134.03631562591767,70.20123278117393,1.2000000000000002,226.0,,-1.5078125,2.171875,-1.078125,0.09375,-0.04296875,-0.00390625,0.0,180.0,360.0
3796631,,,,,,,,-1.5078125,2.171875,-1.078125,0.107421875,-0.080078125,0.00390625,0.0,180.0,360.0
3796632,,,,,,,,-1.26953125,1.96875,-1.0625,0.107421875,-0.080078125,0.00390625,0.0,180.0,360.0
3796633,,,,,,,,-1.26953125,1.96875,-1.0625,0.0625,-0.080078125,0.015625,0.0,180.0,360.0
3796634,,,,,,,,-0.97265625,1.92578125,-1.15625,0.0625,-0.080078125,0.015625,0.0,180.0,360.0
3796635,,,,,,,,-0.97265625,1.92578125,-1.15625,-0.013671875,-0.072265625,0.005859375,0.0,180.0,360.0
3796636,,,,,,,,-0.97265625,1.92578125,-1.15625,-0.056640625,-0.0625,-0.021484375,0.0,180.0,360.0
3796637,,,,,,,,-0.58984375,0.61328125,-1.109375,-0.056640625,-0.0625,-0.021484375,0.0,180.0,360.0
3796638,,,,,,,,-0.58984375,0.61328125,-1.109375,-0.068359375,-0.056640625,-0.056640625,0.0,180.0,360.0
3796639,,,,,,,,-0.671875,-0.6484375,-0.51953125,-0.068359375,-0.056640625,-0.056640625,0.0,180.0,360.0
3796640,36.01303233333333,129.32008566666667,133.93114253158046,70.16424476276175,1.1,229.0,,-0.671875,-0.6484375,-0.51953125,-0.076171875,-0.09765625,-0.068359375,0.0,180.0,360.0
3796641,,,,,,,,-0.6796875,-1.1171875,-0.203125,-0.076171875,-0.09765625,-0.068359375,0.0,180.0,360.0
3796642,,,,,,,,-0.6796875,-1.1171875,-0.203125,-0.115234375,-0.099609375,-0.08984375,0.0,180.0,360.0
3796643,,,,,,,,-0.24609375,-1.23046875,-0.43359375,-0.115234375,-0.099609375,-0.08984375,0.0,180.0,360.0
3796644,,,,,,,,-0.24609375,-1.23046875,-0.43359375,-0.216796875,-0.041015625,-0.103515625,0.0,180.0,360.0
3796645,,,,,,,,-0.24609375,-1.23046875,-0.43359375,-0.216796875,-0.041015625,-0.103515625,0.0,180.0,360.0
3796646,,,,,,,,-0.24609375,-1.23046875,-0.43359375,-0.275390625,0.0625,-0.1171875,0.0,180.0,360.0
3796647,,,,,,,,-0.93359375,0.0,-0.90625,-0.275390625,0.0625,-0.1171875,0.0,180.0,360.0
3796648,,,,,,,,-0.93359375,0.0,-0.90625,-0.45703125,0.029296875,-0.08203125,0.0,180.0,360.0
3796649,,,,,,,,-0.93359375,0.0,-0.90625,-0.8671875,-0.318359375,0.009765625,0.0,180.0,360.0
3796650,36.013031500000004,129.3200845,133.82597028072627,70.07177712546022,1.3,228.0,,-1.71875,-1.27734375,-0.421875,-0.8671875,-0.318359375,0.009765625,0.0,180.0,360.0
3796651,,,,,,,,-1.71875,-1.27734375,-0.421875,-0.71875,-0.515625,0.021484375,0.0,180.0,360.0
3796652,,,,,,,,-0.65234375,-4.45703125,0.203125,-0.71875,-0.515625,0.021484375,0.0,180.0,360.0
3796653,,,,,,,,-0.65234375,-4.45703125,0.203125,-0.234375,-0.33203125,-0.16015625,0.0,180.0,360.0
3796654,,,,,,,,-0.65234375,-4.45703125,0.203125,-0.234375,-0.33203125,-0.16015625,0.0,180.0,360.0
3796655,,,,,,,,-0.65234375,-4.45703125,0.203125,0.162109375,-0.0546875,-0.267578125,0.0,180.0,360.0
3796656,,,,,,,,1.21484375,-1.59765625,2.60546875,0.162109375,-0.0546875,-0.267578125,0.0,180.0,360.0
3796657,,,,,,,,1.21484375,-1.59765625,2.60546875,0.359375,-0.078125,-0.203125,0.0,180.0,360.0
3796658,,,,,,,,1.21484375,-1.59765625,2.60546875,0.578125,-0.169921875,-0.111328125,0.0,180.0,360.0
3796659,,,,,,,,-0.6796875,-2.38671875,2.3125,0.578125,-0.169921875,-0.111328125,0.0,180.0,360.0
3796660,36.01303083333333,129.32008349999998,133.73582255251313,69.99780292406422,1.2000000000000002,228.0,,-0.6796875,-2.38671875,2.3125,0.203125,-0.353515625,0.16796875,0.0,180.0,360.0
3796661,,,,,,,,-0.00390625,-0.44921875,1.2734375,0.203125,-0.353515625,0.16796875,0.0,180.0,360.0
3796662,,,,,,,,-0.00390625,-0.44921875,1.2734375,-0.001953125,-0.470703125,0.3671875,0.0,180.0,360.0
3796663,,,,,,,,0.2578125,-1.0859375,0.83984375,-0.001953125,-0.470703125,0.3671875,0.0,180.0,360.0
3796664,,,,,,,,0.2578125,-1.0859375,0.83984375,0.09375,-0.39453125,0.404296875,0.0,180.0,360.0
3796665,,,,,,,,0.54296875,-1.078125,0.6015625,0.09375,-0.39453125,0.404296875,0.0,180.0,360.0
3796666,,,,,,,,0.54296875,-1.078125,0.6015625,0.291015625,-0.265625,0.337890625,0.0,180.0,360.0
3796667,,,,,,,,0.54296875,-1.078125,0.6015625,0.392578125,-0.19921875,0.31640625,0.0,180.0,360.0
3796668,,,,,,,,0.390625,1.18359375,-0.328125,0.392578125,-0.19921875,0.31640625,0.0,180.0,360.0
3796669,,,,,,,,0.390625,1.18359375,-0.328125,0.3828125,-0.146484375,0.3203125,0.0,180.0,360.0
3796670,36.013029833333334,129.320081,133.51045210817153,69.88684025416497,1.2000000000000002,234.0,,0.25390625,1.83203125,-1.01953125,0.3828125,-0.146484375,0.3203125,0.0,180.0,360.0
3796671,,,,,,,,0.25390625,1.83203125,-1.01953125,0.375,-0.056640625,0.2890625,0.0,180.0,360.0
3796672,,,,,,,,0.453125,2.35546875,-1.2734375,0.375,-0.056640625,0.2890625,0.0,180.0,360.0
3796673,,,,,,,,0.453125,2.35546875,-1.2734375,0.3203125,-0.021484375,0.263671875,0.0,180.0,360.0
3796674,,,,,,,,0.453125,2.35546875,-1.2734375,0.3203125,-0.021484375,0.263671875,0.0,180.0,360.0
3796675,,,,,,,,0.453125,2.35546875,-1.2734375,0.2421875,0.00390625,0.216796875,0.0,180.0,360.0
3796676,,,,,,,,1.23046875,2.7890625,-1.16015625,0.2421875,0.00390625,0.216796875,0.0,180.0,360.0
3796677,,,,,,,,1.23046875,2.7890625,-1.16015625,0.201171875,0.0546875,0.138671875,0.0,180.0,360.0
3796678,,,,,,,,1.30078125,2.66015625,-1.125,0.201171875,0.0546875,0.138671875,0.0,180.0,360.0
3796679,,,,,,,,1.30078125,2.66015625,-1.125,0.181640625,0.1015625,0.08984375,0.0,180.0,360.0
3796680,36.0130295,129.32008,133.42030381608893,69.8498524700455,1.2000000000000002,236.0,,1.30078125,2.66015625,-1.125,0.13671875,0.15234375,0.046875,0.0,180.0,360.0
3796681,,,,,,,,1.20703125,2.23046875,-1.2109375,0.13671875,0.15234375,0.046875,0.0,180.0,360.0
3796682,,,,,,,,1.20703125,2.23046875,-1.2109375,0.162109375,0.248046875,0.001953125,0.0,180.0,360.0
3796683,,,,,,,,0.95703125,1.41796875,-1.01171875,0.162109375,0.248046875,0.001953125,0.0,180.0,360.0
3796684,,,,,,,,0.95703125,1.41796875,-1.01171875,0.1328125,0.24609375,-0.009765625,0.0,180.0,360.0
3796685,,,,,,,,0.95703125,1.41796875,-1.01171875,0.1328125,0.24609375,-0.009765625,0.0,180.0,360.0
3796686,,,,,,,,0.95703125,1.41796875,-1.01171875,0.03125,0.240234375,0.005859375,0.0,180.0,360.0
3796687,,,,,,,,0.58984375,0.58984375,-1.09765625,0.03125,0.240234375,0.005859375,0.0,180.0,360.0
3796688,,,,,,,,0.58984375,0.58984375,-1.09765625,-0.103515625,0.224609375,0.0546875,0.0,180.0,360.0
3796689,,,,,,,,0.58984375,0.58984375,-1.09765625,-0.19921875,0.193359375,0.091796875,0.0,180.0,360.0
3796690,36.01302883333334,129.3200785,133.2850816581345,69.77587758979409,1.3,233.0,,0.8046875,-0.359375,-0.64453125,-0.19921875,0.193359375,0.091796875,0.0,180.0,360.0
3796691,,,,,,,,0.8046875,-0.359375,-0.64453125,-0.189453125,0.130859375,0.099609375,0.0,180.0,360.0
3796692,,,,,,,,0.6796875,-1.23046875,-0.56640625,-0.189453125,0.130859375,0.099609375,0.0,180.0,360.0
3796693,,,,,,,,0.6796875,-1.23046875,-0.56640625,-0.115234375,0.025390625,0.068359375,0.0,180.0,360.0
3796694,,,,,,,,0.6796875,-1.23046875,-0.56640625,-0.115234375,0.025390625,0.068359375,0.0,180.0,360.0
3796695,,,,,,,,0.6796875,-1.23046875,-0.56640625,-0.037109375,-0.0625,0.046875,0.0,180.0,360.0
3796696,,,,,,,,0.28125,-0.3046875,-0.01171875,-0.037109375,-0.0625,0.046875,0.0,180.0,360.0
3796697,,,,,,,,0.28125,-0.3046875,-0.01171875,-0.494140625,-0.08984375,0.12109375,0.0,180.0,360.0
3796698,,,,,,,,0.28125,-0.3046875,-0.01171875,-0.734375,-0.16015625,0.099609375,0.0,180.0,360.0
3796699,,,,,,,,0.8046875,-1.34765625,-0.59375,-0.734375,-0.16015625,0.099609375,0.0,180.0,360.0
3796700,36.01302733333333,129.32007666666667,133.11981128095857,69.60943622040661,1.3,226.0,123.0,0.8046875,-1.34765625,-0.59375,-0.6875,-0.1015625,0.05078125,0.0,180.0,360.0
3796701,,,,,,,,0.8046875,-1.34765625,-0.59375,-0.6875,-0.1015625,0.05078125,0.0,180.0,360.0
3796702,,,,,,,,-1.03515625,-4.81640625,2.78125,-0.6875,-0.1015625,0.05078125,0.0,180.0,360.0
3796703,,,,,,,,-1.03515625,-4.81640625,2.78125,0.091796875,0.259765625,-0.279296875,0.0,180.0,360.0
3796704,,,,,,,,-1.03515625,-4.81640625,2.78125,0.173828125,0.173828125,-0.333984375,0.0,180.0,360.0
3796705,,,,,,,,-0.53515625,2.5703125,-0.5859375,0.173828125,0.173828125,-0.333984375,0.0,180.0,360.0
3796706,,,,,,,,-0.53515625,2.5703125,-0.5859375,0.193359375,0.185546875,-0.333984375,0.0,180.0,360.0
3796707,,,,,,,,-0.7421875,3.05078125,-0.89453125,0.193359375,0.185546875,-0.333984375,0.0,180.0,360.0
3796708,,,,,,,,-0.7421875,3.05078125,-0.89453125,0.169921875,0.181640625,-0.263671875,0.0,180.0,360.0
3796709,,,,,,,,-1.70703125,2.921875,-1.19921875,0.169921875,0.181640625,-0.263671875,0.0,180.0,360.0
3796710,36.013025999999996,129.3200745,132.92449099713872,69.46148760574886,1.3,228.0,,-1.70703125,2.921875,-1.19921875,0.169921875,0.181640625,-0.263671875,0.0,180.0,360.0
3796711,,,,,,,,-1.70703125,2.921875,-1.19921875,0.119140625,0.142578125,-0.1171875,0.0,180.0,360.0
3796712,,,,,,,,-1.79296875,2.78125,-1.37890625,0.119140625,0.142578125,-0.1171875,0.0,180.0,360.0
3796713,,,,,,,,-1.79296875,2.78125,-1.37890625,0.009765625,0.087890625,-0.0234375,0.0,180.0,360.0
3796714,,,,,,,,-1.79296875,2.78125,-1.37890625,-0.037109375,-0.005859375,0.02734375,0.0,180.0,360.0
3796715,,,,,,,,-1.6484375,2.125,-1.1953125,-0.037109375,-0.005859375,0.02734375,0.0,180.0,360.0
3796716,,,,,,,,-1.6484375,2.125,-1.1953125,-0.046875,-0.03515625,0.04296875,0.0,180.0,360.0
3796717,,,,,,,,-1.2578125,1.6953125,-1.0625,-0.046875,-0.03515625,0.04296875,0.0,180.0,360.0
3796718,,,,,,,,-1.2578125,1.6953125,-1.0625,-0.044921875,-0.107421875,0.048828125,0.0,180.0,360.0
3796719,,,,,,,,-1.09765625,0.97265625,-0.94140625,-0.044921875,-0.107421875,0.048828125,0.0,180.0,360.0
3796720,36.01302533333333,129.3200735,132.8343432601559,69.38751341480959,1.1,227.0,,-1.09765625,0.97265625,-0.94140625,-0.044921875,-0.107421875,0.048828125,0.0,180.0,360.0
3796721,,,,,,,,-1.09765625,0.97265625,-0.94140625,0.03515625,-0.142578125,0.001953125,0.0,180.0,360.0
3796722,,,,,,,,-1.12890625,-0.7578125,-0.05078125,0.03515625,-0.142578125,0.001953125,0.0,180.0,360.0
3796723,,,,,,,,-1.12890625,-0.7578125,-0.05078125,0.03515625,-0.142578125,0.001953125,0.0,180.0,360.0
3796724,,,,,,,,-1.12890625,-0.7578125,-0.05078125,0.005859375,-0.189453125,-0.037109375,0.0,180.0,360.0
3796725,,,,,,,,-0.61328125,-0.8125,-0.7421875,0.005859375,-0.189453125,-0.037109375,0.0,180.0,360.0
3796726,,,,,,,,-0.61328125,-0.8125,-0.7421875,-0.1484375,-0.169921875,-0.087890625,0.0,180.0,360.0
3796727,,,,,,,,-0.61328125,-0.8125,-0.7421875,-0.328125,-0.125,-0.1171875,0.0,180.0,360.0
3796728,,,,,,,,-0.33203125,-0.84375,-0.9921875,-0.328125,-0.125,-0.1171875,0.0,180.0,360.0
3796729,,,,,,,,-0.33203125,-0.84375,-0.9921875,-0.36328125,-0.00390625,-0.171875,0.0,180.0,360.0
3796730,36.01302466666667,129.3200725,132.74419551875056,69.31353922420776,1.2000000000000002,227.0,,0.296875,-0.94921875,-1.23046875,-0.36328125,-0.00390625,-0.171875,0.0,180.0,360.0
3796731,,,,,,,,0.296875,-0.94921875,-1.23046875,-0.392578125,0.046875,-0.197265625,0.0,180.0,360.0
3796732,,,,,,,,-1.51953125,-0.58203125,-0.62890625,-0.392578125,0.046875,-0.197265625,0.0,180.0,360.0
3796733,,,,,,,,-1.51953125,-0.58203125,-0.62890625,-0.759765625,-0.255859375,-0.091796875,0.0,180.0,360.0
3796734,,,,,,,,-1.51953125,-0.58203125,-0.62890625,-0.71875,-0.4609375,-0.044921875,0.0,180.0,360.0
3796735,,,,,,,,0.70703125,-5.0703125,0.80859375,-0.71875,-0.4609375,-0.044921875,0.0,180.0,360.0
3796736,,,,,,,,0.70703125,-5.0703125,0.80859375,-0.51953125,-0.392578125,-0.09765625,0.0,180.0,360.0
3796737,,,,,,,,2.6015625,-4.73828125,2.05859375,-0.51953125,-0.392578125,-0.09765625,0.0,180.0,360.0
3796738,,,,,,,,2.6015625,-4.73828125,2.05859375,0.04296875,0.08203125,-0.259765625,0.0,180.0,360.0
3796739,,,,,,,,3.6796875,-2.9609375,1.5859375,0.04296875,0.08203125,-0.259765625,0.0,180.0,360.0
3796740,36.013024,129.32007133333335,132.63902296605679,69.23956480817317,1.2000000000000002,228.0,,3.6796875,-2.9609375,1.5859375,0.33984375,0.029296875,-0.236328125,0.0,180.0,360.0
3796741,,,,,,,,0.26171875,-2.94140625,3.32421875,0.33984375,0.029296875,-0.236328125,0.0,180.0,360.0
3796742,,,,,,,,0.26171875,-2.94140625,3.32421875,0.728515625,0.0078125,-0.177734375,0.0,180.0,360.0
3796743,,,,,,,,0.26171875,-2.94140625,3.32421875,0.728515625,0.0078125,-0.177734375,0.0,180.0,360.0
3796744,,,,,,,,0.26171875,-2.94140625,3.32421875,0.484375,-0.25390625,0.1015625,0.0,180.0,360.0
3796745,,,,,,,,-0.6953125,-0.49609375,0.875,0.484375,-0.25390625,0.1015625,0.0,180.0,360.0
3796746,,,,,,,,-0.6953125,-0.49609375,0.875,0.119140625,-0.509765625,0.380859375,0.0,180.0,360.0
3796747,,,,,,,,-0.6953125,-0.49609375,0.875,0.26171875,-0.439453125,0.412109375,0.0,180.0,360.0
3796748,,,,,,,,0.21875,-1.5546875,1.3046875,0.26171875,-0.439453125,0.412109375,0.0,180.0,360.0
3796749,,,,,,,,0.21875,-1.5546875,1.3046875,0.4453125,-0.33984375,0.337890625,0.0,180.0,360.0
3796750,36.01302366666666,129.32006983333335,132.5038002339536,69.20257635246631,1.3,233.0,,0.80859375,-0.51953125,0.60546875,0.4453125,-0.33984375,0.337890625,0.0,180.0,360.0
3796751,,,,,,,,0.80859375,-0.51953125,0.60546875,0.49609375,-0.30859375,0.287109375,0.0,180.0,360.0
3796752,,,,,,,,0.5703125,1.7265625,-0.859375,0.49609375,-0.30859375,0.287109375,0.0,180.0,360.0
3796753,,,,,,,,0.5703125,1.7265625,-0.859375,0.47265625,-0.224609375,0.267578125,0.0,180.0,360.0
3796754,,,,,,,,0.5703125,1.7265625,-0.859375,0.427734375,-0.150390625,0.263671875,0.0,180.0,360.0
3796755,,,,,,,,0.3203125,2.8203125,-1.30078125,0.427734375,-0.150390625,0.263671875,0.0,180.0,360.0
3796756,,,,,,,,0.3203125,2.8203125,-1.30078125,0.388671875,-0.11328125,0.263671875,0.0,180.0,360.0
3796757,,,,,,,,0.59765625,3.1953125,-1.33203125,0.388671875,-0.11328125,0.263671875,0.0,180.0,360.0
3796758,,,,,,,,0.59765625,3.1953125,-1.33203125,0.328125,-0.076171875,0.2421875,0.0,180.0,360.0
3796759,,,,,,,,0.90234375,3.2578125,-1.44140625,0.328125,-0.076171875,0.2421875,0.0,180.0,360.0
3796760,36.01302316666667,129.32006883333332,132.41365220720832,69.14709537302733,1.2000000000000002,234.0,,0.90234375,3.2578125,-1.44140625,0.248046875,-0.025390625,0.205078125,0.0,180.0,360.0
3796761,,,,,,,,1.02734375,3.171875,-1.49609375,0.248046875,-0.025390625,0.205078125,0.0,180.0,360.0
3796762,,,,,,,,1.02734375,3.171875,-1.49609375,0.2109375,0.0390625,0.154296875,0.0,180.0,360.0
3796763,,,,,,,,1.02734375,3.171875,-1.49609375,0.2109375,0.0390625,0.154296875,0.0,180.0,360.0
3796764,,,,,,,,1.02734375,3.171875,-1.49609375,0.162109375,0.078125,0.12890625,0.0,180.0,360.0
3796765,,,,,,,,0.875,2.22265625,-1.21484375,0.162109375,0.078125,0.12890625,0.0,180.0,360.0
3796766,,,,,,,,0.875,2.22265625,-1.21484375,0.134765625,0.107421875,0.1015625,0.0,180.0,360.0
3796767,,,,,,,,0.875,2.22265625,-1.21484375,0.150390625,0.1484375,0.076171875,0.0,180.0,360.0
3796768,,,,,,,,1.05859375,1.859375,-1.20703125,0.150390625,0.1484375,0.076171875,0.0,180.0,360.0
3796769,,,,,,,,1.05859375,1.859375,-1.20703125,0.107421875,0.16015625,0.0703125,0.0,180.0,360.0
3796770,36.013023,129.32006766666666,132.3084788143423,69.12860058121677,1.2000000000000002,236.0,,0.80859375,1.05078125,-1.19921875,0.107421875,0.16015625,0.0703125,0.0,180.0,360.0
3796771,,,,,,,,0.80859375,1.05078125,-1.19921875,0.01171875,0.173828125,0.095703125,0.0,180.0,360.0
3796772,,,,,,,,0.87890625,-0.30078125,-0.91015625,0.01171875,0.173828125,0.095703125,0.0,180.0,360.0
3796773,,,,,,,,0.87890625,-0.30078125,-0.91015625,-0.072265625,0.189453125,0.12890625,0.0,180.0,360.0
3796774,,,,,,,,0.87890625,-0.30078125,-0.91015625,-0.103515625,0.154296875,0.134765625,0.0,180.0,360.0
3796775,,,,,,,,0.9609375,-0.90625,-0.6171875,-0.103515625,0.154296875,0.134765625,0.0,180.0,360.0
3796776,,,,,,,,0.9609375,-0.90625,-0.6171875,-0.08984375,0.1328125,0.12109375,0.0,180.0,360.0
3796777,,,,,,,,0.9921875,-2.16015625,-0.33203125,-0.08984375,0.1328125,0.12109375,0.0,180.0,360.0
3796778,,,,,,,,0.9921875,-2.16015625,-0.33203125,-0.060546875,0.07421875,0.095703125,0.0,180.0,360.0
3796779,,,,,,,,0.3671875,-2.7421875,-0.08984375,-0.060546875,0.07421875,0.095703125,0.0,180.0,360.0
3796780,36.01302233333333,129.3200665,132.2033062561486,69.05462616955468,1.2000000000000002,234.0,,0.3671875,-2.7421875,-0.08984375,-0.18359375,0.029296875,0.10546875,0.0,180.0,360.0
3796781,,,,,,,,0.15234375,-1.88671875,0.12890625,-0.18359375,0.029296875,0.10546875,0.0,180.0,360.0
3796782,,,,,,,,0.15234375,-1.88671875,0.12890625,-0.55859375,-0.009765625,0.12890625,0.0,180.0,360.0
3796783,,,,,,,,1.01953125,-1.9765625,-0.58203125,-0.55859375,-0.009765625,0.12890625,0.0,180.0,360.0
3796784,,,,,,,,1.01953125,-1.9765625,-0.58203125,-0.61328125,0.044921875,0.072265625,0.0,180.0,360.0
3796785,,,,,,,,1.01953125,-1.9765625,-0.58203125,-0.62109375,0.0078125,0.087890625,0.0,180.0,360.0
3796786,,,,,,,,-0.26171875,-2.96484375,1.39453125,-0.62109375,0.0078125,0.087890625,0.0,180.0,360.0
3796787,,,,,,,,-0.26171875,-2.96484375,1.39453125,0.0859375,-0.037109375,0.0234375,0.0,180.0,360.0
3796788,,,,,,,,-1.2109375,-4.13671875,2.5703125,0.0859375,-0.037109375,0.0234375,0.0,180.0,360.0
3796789,,,,,,,,-1.2109375,-4.13671875,2.5703125,0.05859375,-0.01171875,0.02734375,0.0,180.0,360.0
3796790,36.013020833333336,129.320064,131.9779366017323,68.88818391777032,1.3,228.0,,-1.01953125,-0.4140625,2.171875,0.05859375,-0.01171875,0.02734375,0.0,180.0,360.0
3796791,,,,,,,,-1.01953125,-0.4140625,2.171875,-0.01171875,0.130859375,-0.0703125,0.0,180.0,360.0
3796792,,,,,,,,0.3125,-0.95703125,1.89453125,-0.01171875,0.130859375,-0.0703125,0.0,180.0,360.0
3796793,,,,,,,,0.3125,-0.95703125,1.89453125,0.013671875,0.29296875,-0.18359375,0.0,180.0,360.0
3796794,,,,,,,,0.3125,-0.95703125,1.89453125,0.013671875,0.29296875,-0.18359375,0.0,180.0,360.0
3796795,,,,,,,,0.3125,-0.95703125,1.89453125,0.029296875,0.162109375,-0.25,0.0,180.0,360.0
3796796,,,,,,,,0.16796875,-1.1015625,2.21484375,0.029296875,0.162109375,-0.25,0.0,180.0,360.0
3796797,,,,,,,,0.16796875,-1.1015625,2.21484375,0.12109375,0.224609375,-0.2734375,0.0,180.0,360.0
3796798,,,,,,,,0.16796875,-1.1015625,2.21484375,0.142578125,0.25,-0.251953125,0.0,180.0,360.0
3796799,,,,,,,,-0.42578125,-0.421875,0.98828125,0.142578125,0.25,-0.251953125,0.0,180.0,360.0
3796800,36.013019500000006,129.32006233333334,131.82769071655522,68.74023600606652,1.2000000000000002,227.0,123.0,-0.42578125,-0.421875,0.98828125,0.142578125,0.25,-0.251953125,0.0,180.0,360.0
3796801,,,,,,,,-0.42578125,-0.421875,0.98828125,0.142578125,0.25,-0.251953125,0.0,180.0,360.0
3796802,,,,,,,,-0.5390625,-0.93359375,-0.73046875,-0.228515625,-0.091796875,-0.125,0.0,180.0,360.0
3796803,,,,,,,,-0.33203125,-0.8515625,-0.9453125,-0.228515625,-0.091796875,-0.125,0.0,180.0,360.0
3796804,,,,,,,,-0.33203125,-0.8515625,-0.9453125,-0.36328125,-0.03125,-0.138671875,0.0,180.0,360.0
3796805,,,,,,,,-0.2421875,-0.484375,-1.296875,-0.36328125,-0.03125,-0.138671875,0.0,180.0,360.0
3796806,,,,,,,,-0.2421875,-0.484375,-1.296875,-0.4296875,0.078125,-0.154296875,0.0,180.0,360.0
3796807,,,,,,,,-0.76953125,-0.046875,-0.98046875,-0.4296875,0.078125,-0.154296875,0.0,180.0,360.0
3796808,,,,,,,,-0.76953125,-0.046875,-0.98046875,-0.677734375,-0.005859375,-0.078125,0.0,180.0,360.0
3796809,,,,,,,,-0.76953125,-0.046875,-0.98046875,-0.8203125,-0.380859375,-0.013671875,0.0,180.0,360.0
3796810,36.0130185,129.32005983333332,131.60232021358476,68.62927338388987,1.2000000000000002,227.0,,-0.671875,-5.30078125,0.71875,-0.8203125,-0.380859375,-0.013671875,0.0,180.0,360.0
3796811,,,,,,,,-0.671875,-5.30078125,0.71875,-0.54296875,-0.41015625,-0.052734375,0.0,180.0,360.0
3796812,,,,,,,,-0.671875,-5.30078125,0.71875,-0.54296875,-0.41015625,-0.052734375,0.0,180.0,360.0
3796813,,,,,,,,-0.671875,-5.30078125,0.71875,0.078125,0.05078125,-0.228515625,0.0,180.0,360.0
3796814,,,,,,,,2.65234375,-1.77734375,2.7421875,0.078125,0.05078125,-0.228515625,0.0,180.0,360.0
3796815,,,,,,,,2.65234375,-1.77734375,2.7421875,0.486328125,-0.03515625,-0.15234375,0.0,180.0,360.0
3796816,,,,,,,,-0.04296875,-2.55078125,3.515625,0.486328125,-0.03515625,-0.15234375,0.0,180.0,360.0
3796817,,,,,,,,-0.04296875,-2.55078125,3.515625,0.548828125,-0.181640625,-0.029296875,0.0,180.0,360.0
3796818,,,,,,,,-0.87109375,-3.30078125,3.4453125,0.548828125,-0.181640625,-0.029296875,0.0,180.0,360.0
3796819,,,,,,,,-0.87109375,-3.30078125,3.4453125,0.044921875,-0.455078125,0.26953125,0.0,180.0,360.0
3796820,36.013017500000004,129.32005733333332,131.37694970704945,68.51831076946901,1.3,233.0,,-0.52734375,0.20703125,0.73046875,0.044921875,-0.455078125,0.26953125,0.0,180.0,360.0
3796821,,,,,,,,-0.52734375,0.20703125,0.73046875,-0.10546875,-0.5,0.4453125,0.0,180.0,360.0
3796822,,,,,,,,0.34765625,-1.29296875,0.71484375,-0.10546875,-0.5,0.4453125,0.0,180.0,360.0
3796823,,,,,,,,0.34765625,-1.29296875,0.71484375,0.017578125,-0.380859375,0.462890625,0.0,180.0,360.0
3796824,,,,,,,,0.34765625,-1.29296875,0.71484375,0.25390625,-0.23046875,0.375,0.0,180.0,360.0
3796825,,,,,,,,0.51953125,-0.9921875,0.37109375,0.25390625,-0.23046875,0.375,0.0,180.0,360.0
3796826,,,,,,,,0.51953125,-0.9921875,0.37109375,0.330078125,-0.1640625,0.32421875,0.0,180.0,360.0
3796827,,,,,,,,0.19921875,1.07421875,-0.80078125,0.330078125,-0.1640625,0.32421875,0.0,180.0,360.0
3796828,,,,,,,,0.19921875,1.07421875,-0.80078125,0.330078125,-0.076171875,0.298828125,0.0,180.0,360.0
3796829,,,,,,,,0.20703125,1.6796875,-1.1640625,0.330078125,-0.076171875,0.298828125,0.0,180.0,360.0
3796830,36.013017,129.32005633333335,131.28680167300976,68.46282980079248,1.3,234.0,,0.20703125,1.6796875,-1.1640625,0.3203125,-0.0078125,0.275390625,0.0,180.0,360.0
3796831,,,,,,,,0.5234375,2.859375,-1.10546875,0.3203125,-0.0078125,0.275390625,0.0,180.0,360.0
3796832,,,,,,,,0.5234375,2.859375,-1.10546875,0.318359375,0.005859375,0.240234375,0.0,180.0,360.0
3796833,,,,,,,,0.5234375,2.859375,-1.10546875,0.275390625,0.009765625,0.17578125,0.0,180.0,360.0
3796834,,,,,,,,0.8828125,3.2734375,-1.3125,0.275390625,0.009765625,0.17578125,0.0,180.0,360.0
3796835,,,,,,,,0.8828125,3.2734375,-1.3125,0.19140625,0.046875,0.099609375,0.0,180.0,360.0
3796836,,,,,,,,0.9921875,3.11328125,-1.55078125,0.19140625,0.046875,0.099609375,0.0,180.0,360.0
3796837,,,,,,,,0.9921875,3.11328125,-1.55078125,0.146484375,0.123046875,0.021484375,0.0,180.0,360.0
3796838,,,,,,,,1.0078125,2.875,-1.62109375,0.146484375,0.123046875,0.021484375,0.0,180.0,360.0
3796839,,,,,,,,1.0078125,2.875,-1.62109375,0.140625,0.166015625,-0.033203125,0.0,180.0,360.0
3796840,36.013016500000006,129.32005533333333,131.19665363042014,68.40734883300262,1.2000000000000002,235.0,,0.74609375,2.33203125,-1.3828125,0.140625,0.166015625,-0.033203125,0.0,180.0,360.0
3796841,,,,,,,,0.74609375,2.33203125,-1.3828125,0.162109375,0.208984375,-0.0703125,0.0,180.0,360.0
3796842,,,,,,,,0.4765625,1.46484375,-1.390625,0.162109375,0.208984375,-0.0703125,0.0,180.0,360.0
3796843,,,,,,,,0.4765625,1.46484375,-1.390625,0.142578125,0.228515625,-0.0859375,0.0,180.0,360.0
3796844,,,,,,,,0.4765625,1.46484375,-1.390625,0.052734375,0.251953125,-0.06640625,0.0,180.0,360.0
3796845,,,,,,,,0.43359375,0.94921875,-1.421875,0.052734375,0.251953125,-0.06640625,0.0,180.0,360.0
3796846,,,,,,,,0.43359375,0.94921875,-1.421875,-0.041015625,0.255859375,-0.02734375,0.0,180.0,360.0
3796847,,,,,,,,0.5859375,-0.0546875,-0.85546875,-0.041015625,0.255859375,-0.02734375,0.0,180.0,360.0
3796848,,,,,,,,0.5859375,-0.0546875,-0.85546875,-0.052734375,0.2265625,-0.005859375,0.0,180.0,360.0
3796849,,,,,,,,0.79296875,-0.4765625,-0.6171875,-0.052734375,0.2265625,-0.005859375,0.0,180.0,360.0
3796850,36.01301566666667,129.320054,131.07645651861392,68.31488100411829,1.3,233.0,,0.79296875,-0.4765625,-0.6171875,-0.072265625,0.1796875,0.01171875,0.0,180.0,360.0
3796851,,,,,,,,0.72265625,-1.1953125,-0.56640625,-0.072265625,0.1796875,0.01171875,0.0,180.0,360.0
3796852,,,,,,,,0.72265625,-1.1953125,-0.56640625,-0.111328125,0.123046875,0.029296875,0.0,180.0,360.0
3796853,,,,,,,,0.72265625,-1.1953125,-0.56640625,-0.16015625,0.126953125,0.064453125,0.0,180.0,360.0
3796854,,,,,,,,0.171875,-0.65234375,-0.2265625,-0.16015625,0.126953125,0.064453125,0.0,180.0,360.0
3796855,,,,,,,,0.171875,-0.65234375,-0.2265625,-0.61328125,0.123046875,0.181640625,0.0,180.0,360.0
3796856,,,,,,,,0.45703125,0.16796875,-0.5859375,-0.61328125,0.123046875,0.181640625,0.0,180.0,360.0
3796857,,,,,,,,0.45703125,0.16796875,-0.5859375,-0.90234375,0.154296875,0.1796875,0.0,180.0,360.0
3796858,,,,,,,,0.88671875,-1.78515625,-0.70703125,-0.90234375,0.154296875,0.1796875,0.0,180.0,360.0
3796859,,,,,,,,0.88671875,-1.78515625,-0.70703125,-0.740234375,0.193359375,0.142578125,0.0,180.0,360.0
3796860,36.01301466666666,129.320053,130.9863093036563,68.20392041603223,1.4000000000000001,230.0,,0.3515625,-3.8046875,0.1328125,-0.740234375,0.193359375,0.142578125,0.0,180.0,360.0
3796861,,,,,,,,0.3515625,-3.8046875,0.1328125,-0.048828125,0.046875,0.083984375,0.0,180.0,360.0
3796862,,,,,,,,0.3515625,-3.8046875,0.1328125,-0.048828125,0.046875,0.083984375,0.0,180.0,360.0
3796863,,,,,,,,0.3515625,-3.8046875,0.1328125,0.41015625,0.162109375,0.044921875,0.0,180.0,360.0
3796864,,,,,,,,-1.28125,-0.6328125,2.40234375,0.41015625,0.162109375,0.044921875,0.0,180.0,360.0
3796865,,,,,,,,-1.28125,-0.6328125,2.40234375,-0.03125,0.13671875,0.015625,0.0,180.0,360.0
3796866,,,,,,,,-1.28125,-0.6328125,2.40234375,0.234375,0.38671875,-0.18359375,0.0,180.0,360.0
3796867,,,,,,,,1.71484375,-1.46875,2.41796875,0.234375,0.38671875,-0.18359375,0.0,180.0,360.0
3796868,,,,,,,,1.71484375,-1.46875,2.41796875,-0.001953125,0.10546875,-0.314453125,0.0,180.0,360.0
3796869,,,,,,,,0.02734375,-0.6328125,1.6875,-0.001953125,0.10546875,-0.314453125,0.0,180.0,360.0
3796870,36.01301383333334,129.32005183333334,130.88113699819448,68.1114528152471,1.4000000000000001,227.0,,0.02734375,-0.6328125,1.6875,-0.01953125,0.0234375,-0.361328125,0.0,180.0,360.0
3796871,,,,,,,,-0.0625,-1.16796875,1.46484375,-0.01953125,0.0234375,-0.361328125,0.0,180.0,360.0
3796872,,,,,,,,-0.0625,-1.16796875,1.46484375,0.1640625,0.142578125,-0.369140625,0.0,180.0,360.0
3796873,,,,,,,,-0.171875,-0.52734375,0.76171875,0.1640625,0.142578125,-0.369140625,0.0,180.0,360.0
3796874,,,,,,,,-0.171875,-0.52734375,0.76171875,0.248046875,0.201171875,-0.345703125,0.0,180.0,360.0
3796875,,,,,,,,-0.171875,-0.52734375,0.76171875,0.21875,0.193359375,-0.33203125,0.0,180.0,360.0
3796876,,,,,,,,-0.13671875,1.22265625,-0.53515625,0.21875,0.193359375,-0.33203125,0.0,180.0,360.0
3796877,,,,,,,,-0.13671875,1.22265625,-0.53515625,0.224609375,0.171875,-0.341796875,0.0,180.0,360.0
3796878,,,,,,,,-0.078125,1.82421875,-0.8515625,0.224609375,0.171875,-0.341796875,0.0,180.0,360.0
3796879,,,,,,,,-0.078125,1.82421875,-0.8515625,0.279296875,0.154296875,-0.34765625,0.0,180.0,360.0
3796880,36.01301316666666,129.32005083333334,130.79098922765317,68.03747864346083,1.2000000000000002,228.0,,-0.359375,2.30078125,-0.74609375,0.279296875,0.154296875,-0.34765625,0.0,180.0,360.0
3796881,,,,,,,,-0.359375,2.30078125,-0.74609375,0.26953125,0.115234375,-0.318359375,0.0,180.0,360.0
3796882,,,,,,,,-0.359375,2.30078125,-0.74609375,0.26953125,0.115234375,-0.318359375,0.0,180.0,360.0
3796883,,,,,,,,-0.359375,2.30078125,-0.74609375,0.216796875,0.1015625,-0.2578125,0.0,180.0,360.0
3796884,,,,,,,,-1.6796875,3.140625,-1.30078125,0.216796875,0.1015625,-0.2578125,0.0,180.0,360.0
3796885,,,,,,,,-1.6796875,3.140625,-1.30078125,0.126953125,0.07421875,-0.166015625,0.0,180.0,360.0
3796886,,,,,,,,-1.6796875,3.140625,-1.30078125,0.044921875,0.005859375,-0.080078125,0.0,180.0,360.0
3796887,,,,,,,,-1.8671875,2.62109375,-1.56640625,0.044921875,0.005859375,-0.080078125,0.0,180.0,360.0
3796888,,,,,,,,-1.8671875,2.62109375,-1.56640625,-0.037109375,-0.060546875,-0.0390625,0.0,180.0,360.0
3796889,,,,,,,,-1.61328125,2.19921875,-1.56640625,-0.037109375,-0.060546875,-0.0390625,0.0,180.0,360.0
3796890,36.01301283333333,129.3200495,130.67079128153824,68.00049044040587,1.2000000000000002,232.0,,-1.61328125,2.19921875,-1.56640625,-0.013671875,-0.087890625,-0.029296875,0.0,180.0,360.0
3796891,,,,,,,,-1.12109375,1.6171875,-1.17578125,-0.013671875,-0.087890625,-0.029296875,0.0,180.0,360.0
3796892,,,,,,,,-1.12109375,1.6171875,-1.17578125,0.029296875,-0.05859375,-0.046875,0.0,180.0,360.0
3796893,,,,,,,,-0.984375,1.41796875,-1.33984375,0.029296875,-0.05859375,-0.046875,0.0,180.0,360.0
3796894,,,,,,,,-0.984375,1.41796875,-1.33984375,0.00390625,-0.052734375,-0.05859375,0.0,180.0,360.0
3796895,,,,,,,,-0.984375,1.41796875,-1.33984375,-0.0078125,-0.0859375,-0.087890625,0.0,180.0,360.0
3796896,,,,,,,,-0.84765625,0.0390625,-0.9453125,-0.0078125,-0.0859375,-0.087890625,0.0,180.0,360.0
3796897,,,,,,,,-0.84765625,0.0390625,-0.9453125,0.0,-0.123046875,-0.11328125,0.0,180.0,360.0
3796898,,,,,,,,-0.78515625,-0.7421875,-0.6328125,0.0,-0.123046875,-0.11328125,0.0,180.0,360.0
3796899,,,,,,,,-0.78515625,-0.7421875,-0.6328125,-0.02734375,-0.115234375,-0.123046875,0.0,180.0,360.0
3796900,36.0130115,129.32004733333332,130.4754709202294,67.85254188150365,1.2000000000000002,231.0,123.0,-0.78515625,-0.7421875,-0.6328125,-0.02734375,-0.115234375,-0.123046875,0.0,180.0,360.0
3796901,,,,,,,,-0.78515625,-0.7421875,-0.6328125,-0.02734375,-0.115234375,-0.123046875,0.0,180.0,360.0
3796902,,,,,,,,-0.7421875,-1.27734375,-0.51171875,-0.02734375,-0.115234375,-0.123046875,0.0,180.0,360.0
3796903,,,,,,,,-0.7421875,-1.27734375,-0.51171875,-0.13671875,-0.0703125,-0.154296875,0.0,180.0,360.0
3796904,,,,,,,,-0.7421875,-1.27734375,-0.51171875,0.734375,-0.140625,0.068359375,0.0,180.0,360.0
3796905,,,,,,,,-0.578125,0.8515625,0.6875,0.734375,-0.140625,0.068359375,0.0,180.0,360.0
3796906,,,,,,,,-0.578125,0.8515625,0.6875,0.03515625,-0.56640625,0.49609375,0.0,180.0,360.0
3796907,,,,,,,,-0.578125,0.8515625,0.6875,0.169921875,-0.390625,0.5,0.0,180.0,360.0
3796908,,,,,,,,0.80859375,-1.46875,1.296875,0.169921875,-0.390625,0.5,0.0,180.0,360.0
3796909,,,,,,,,0.80859375,-1.46875,1.296875,0.251953125,-0.310546875,0.453125,0.0,180.0,360.0
3796910,36.0130105,129.32004466666666,130.23507556721734,67.7415790730721,1.3,234.0,,0.11328125,0.76953125,0.01953125,0.251953125,-0.310546875,0.453125,0.0,180.0,360.0
3796911,,,,,,,,0.11328125,0.76953125,0.01953125,0.212890625,-0.302734375,0.41796875,0.0,180.0,360.0
3796912,,,,,,,,0.11328125,0.76953125,0.01953125,0.17578125,-0.220703125,0.390625,0.0,180.0,360.0
3796913,,,,,,,,0.40625,1.65625,-0.91015625,0.17578125,-0.220703125,0.390625,0.0,180.0,360.0
3796914,,,,,,,,0.40625,1.65625,-0.91015625,0.17578125,-0.1484375,0.36328125,0.0,180.0,360.0
3796915,,,,,,,,0.46875,2.078125,-1.09375,0.17578125,-0.1484375,0.36328125,0.0,180.0,360.0
3796916,,,,,,,,0.46875,2.078125,-1.09375,0.20703125,-0.103515625,0.310546875,0.0,180.0,360.0
3796917,,,,,,,,0.6796875,2.546875,-1.203125,0.20703125,-0.103515625,0.310546875,0.0,180.0,360.0
3796918,,,,,,,,0.6796875,2.546875,-1.203125,0.20703125,-0.103515625,0.310546875,0.0,180.0,360.0
3796919,,,,,,,,0.6796875,2.546875,-1.203125,0.189453125,-0.03515625,0.197265625,0.0,180.0,360.0
3796920,36.01301016666666,129.3200435,130.12990242699044,67.70459109968341,1.3,237.0,,1.171875,2.8046875,-1.71484375,0.189453125,-0.03515625,0.197265625,0.0,180.0,360.0
3796921,,,,,,,,1.171875,2.8046875,-1.71484375,0.17578125,0.173828125,0.076171875,0.0,180.0,360.0
3796922,,,,,,,,1.25390625,2.5703125,-1.76171875,0.17578125,0.173828125,0.076171875,0.0,180.0,360.0
3796923,,,,,,,,1.25390625,2.5703125,-1.76171875,0.201171875,0.251953125,0.017578125,0.0,180.0,360.0
3796924,,,,,,,,1.109375,2.4375,-1.609375,0.201171875,0.251953125,0.017578125,0.0,180.0,360.0
3796925,,,,,,,,1.109375,2.4375,-1.609375,0.318359375,0.30859375,-0.03515625,0.0,180.0,360.0
3796926,,,,,,,,0.89453125,1.9609375,-1.20703125,0.318359375,0.30859375,-0.03515625,0.0,180.0,360.0
3796927,,,,,,,,0.89453125,1.9609375,-1.20703125,0.3984375,0.375,-0.08203125,0.0,180.0,360.0
3796928,,,,,,,,0.59765625,1.78515625,-1.15234375,0.3984375,0.375,-0.08203125,0.0,180.0,360.0
3796929,,,,,,,,0.59765625,1.78515625,-1.15234375,0.337890625,0.298828125,-0.056640625,0.0,180.0,360.0
3796930,36.01300983333333,129.32004233333333,130.02472928614253,67.6676031287627,1.3,240.0,,0.05859375,1.01953125,-0.734375,0.337890625,0.298828125,-0.056640625,0.0,180.0,360.0
3796931,,,,,,,,0.05859375,1.01953125,-0.734375,0.18359375,0.197265625,0.0,0.0,180.0,360.0
3796932,,,,,,,,0.05859375,1.01953125,-0.734375,-0.037109375,0.060546875,0.056640625,0.0,180.0,360.0
3796933,,,,,,,,0.4609375,-0.19140625,-0.8203125,-0.037109375,0.060546875,0.056640625,0.0,180.0,360.0
3796934,,,,,,,,0.4609375,-0.19140625,-0.8203125,-0.138671875,-0.0390625,0.08203125,0.0,180.0,360.0
3796935,,,,,,,,0.8203125,-1.1484375,-0.4140625,-0.138671875,-0.0390625,0.08203125,0.0,180.0,360.0
3796936,,,,,,,,0.8203125,-1.1484375,-0.4140625,-0.064453125,-0.15234375,0.103515625,0.0,180.0,360.0
3796937,,,,,,,,0.59765625,-2.13671875,0.22265625,-0.064453125,-0.15234375,0.103515625,0.0,180.0,360.0
3796938,,,,,,,,0.59765625,-2.13671875,0.22265625,-0.064453125,-0.15234375,0.103515625,0.0,180.0,360.0
3796939,,,,,,,,0.59765625,-2.13671875,0.22265625,-0.20703125,-0.02734375,0.203125,0.0,180.0,360.0
3796940,36.01300916666666,129.32004083333334,129.88950706602526,67.59362830072139,1.4000000000000001,239.0,,0.8125,-0.08984375,-0.93359375,-0.20703125,-0.02734375,0.203125,0.0,180.0,360.0
3796941,,,,,,,,0.8125,-0.08984375,-0.93359375,-0.20703125,-0.02734375,0.203125,0.0,180.0,360.0
3796942,,,,,,,,0.8125,-0.08984375,-0.93359375,-0.833984375,0.021484375,0.267578125,0.0,180.0,360.0
3796943,,,,,,,,0.609375,-3.35546875,0.28125,-0.833984375,0.021484375,0.267578125,0.0,180.0,360.0
3796944,,,,,,,,0.609375,-3.35546875,0.28125,-0.685546875,0.1171875,0.154296875,0.0,180.0,360.0
3796945,,,,,,,,0.609375,-3.35546875,0.28125,-0.435546875,-0.09375,0.1484375,0.0,180.0,360.0
3796946,,,,,,,,-0.1953125,-2.578125,2.33984375,-0.435546875,-0.09375,0.1484375,0.0,180.0,360.0
3796947,,,,,,,,-0.1953125,-2.578125,2.33984375,0.263671875,0.1953125,-0.013671875,0.0,180.0,360.0
3796948,,,,,,,,-0.91015625,-2.11328125,3.12890625,0.263671875,0.1953125,-0.013671875,0.0,180.0,360.0
3796949,,,,,,,,-0.91015625,-2.11328125,3.12890625,-0.041015625,0.11328125,0.025390625,0.0,180.0,360.0
3796950,36.01300783333333,129.3200393333333,129.75428593402262,67.44568064678795,1.2000000000000002,228.0,,0.9375,-1.73046875,2.1640625,-0.041015625,0.11328125,0.025390625,0.0,180.0,360.0
3796951,,,,,,,,0.9375,-1.73046875,2.1640625,0.111328125,0.478515625,-0.125,0.0,180.0,360.0
3796952,,,,,,,,0.9375,-1.73046875,2.1640625,0.140625,0.521484375,-0.36328125,0.0,180.0,360.0
3796953,,,,,,,,0.76953125,-0.75,1.76953125,0.140625,0.521484375,-0.36328125,0.0,180.0,360.0
3796954,,,,,,,,0.76953125,-0.75,1.76953125,0.052734375,0.3046875,-0.494140625,0.0,180.0,360.0
3796955,,,,,,,,0.0546875,-0.94921875,2.16796875,0.052734375,0.3046875,-0.494140625,0.0,180.0,360.0
3796956,,,,,,,,0.0546875,-0.94921875,2.16796875,0.2109375,0.3125,-0.544921875,0.0,180.0,360.0
3796957,,,,,,,,-0.23046875,-1.1484375,2.17578125,0.2109375,0.3125,-0.544921875,0.0,180.0,360.0
3796958,,,,,,,,-0.23046875,-1.1484375,2.17578125,0.2578125,0.341796875,-0.486328125,0.0,180.0,360.0
3796959,,,,,,,,-0.8046875,0.5625,0.7890625,0.2578125,0.341796875,-0.486328125,0.0,180.0,360.0
3796960,36.01300716666666,129.32003799999998,129.63408852123104,67.37170604382767,1.3,228.0,,-0.8046875,0.5625,0.7890625,0.20703125,0.26171875,-0.40234375,0.0,180.0,360.0
3796961,,,,,,,,-0.8046875,0.5625,0.7890625,0.20703125,0.26171875,-0.40234375,0.0,180.0,360.0
3796962,,,,,,,,-0.8046875,0.5625,0.7890625,0.16015625,0.140625,-0.3671875,0.0,180.0,360.0
3796963,,,,,,,,-0.6328125,2.125,-0.5625,0.16015625,0.140625,-0.3671875,0.0,180.0,360.0
3796964,,,,,,,,-0.6328125,2.125,-0.5625,0.18359375,0.046875,-0.353515625,0.0,180.0,360.0
3796965,,,,,,,,-0.6328125,2.125,-0.5625,0.212890625,-0.03125,-0.314453125,0.0,180.0,360.0
3796966,,,,,,,,-0.796875,2.51953125,-0.76953125,0.212890625,-0.03125,-0.314453125,0.0,180.0,360.0
3796967,,,,,,,,-0.796875,2.51953125,-0.76953125,0.19140625,-0.064453125,-0.23828125,0.0,180.0,360.0
3796968,,,,,,,,-1.34765625,2.87890625,-1.26953125,0.19140625,-0.064453125,-0.23828125,0.0,180.0,360.0
3796969,,,,,,,,-1.34765625,2.87890625,-1.26953125,0.15234375,-0.076171875,-0.142578125,0.0,180.0,360.0
3796970,36.013006499999996,129.32003699999999,129.54394073225845,67.29773188679687,1.2000000000000002,230.0,,-1.6484375,2.3515625,-1.40234375,0.15234375,-0.076171875,-0.142578125,0.0,180.0,360.0
3796971,,,,,,,,-1.6484375,2.3515625,-1.40234375,0.111328125,-0.08984375,-0.056640625,0.0,180.0,360.0
3796972,,,,,,,,-1.6484375,2.3515625,-1.40234375,0.103515625,-0.087890625,-0.0234375,0.0,180.0,360.0
3796973,,,,,,,,-1.39453125,1.76953125,-1.30859375,0.103515625,-0.087890625,-0.0234375,0.0,180.0,360.0
3796974,,,,,,,,-1.39453125,1.76953125,-1.30859375,0.14453125,-0.080078125,-0.03515625,0.0,180.0,360.0
3796975,,,,,,,,-1.01953125,1.63671875,-1.28515625,0.14453125,-0.080078125,-0.03515625,0.0,180.0,360.0
3796976,,,,,,,,-1.01953125,1.63671875,-1.28515625,0.125,-0.03515625,-0.052734375,0.0,180.0,360.0
3796977,,,,,,,,-0.875,1.59375,-1.43359375,0.125,-0.03515625,-0.052734375,0.0,180.0,360.0
3796978,,,,,,,,-0.875,1.59375,-1.43359375,0.056640625,-0.05078125,-0.05859375,0.0,180.0,360.0
3796979,,,,,,,,-0.99609375,0.57421875,-1.2578125,0.056640625,-0.05078125,-0.05859375,0.0,180.0,360.0
3796980,36.013005666666665,129.32003616666668,129.46881802969688,67.20526474401402,1.1,228.0,,-0.99609375,0.57421875,-1.2578125,0.05078125,-0.0390625,-0.08203125,0.0,180.0,360.0
3796981,,,,,,,,-0.99609375,0.57421875,-1.2578125,0.05078125,-0.0390625,-0.08203125,0.0,180.0,360.0
3796982,,,,,,,,-0.99609375,0.57421875,-1.2578125,0.068359375,-0.02734375,-0.107421875,0.0,180.0,360.0
3796983,,,,,,,,-0.8828125,-0.63671875,-0.515625,0.068359375,-0.02734375,-0.107421875,0.0,180.0,360.0
3796984,,,,,,,,-0.8828125,-0.63671875,-0.515625,0.0390625,-0.0546875,-0.1171875,0.0,180.0,360.0
3796985,,,,,,,,-0.8828125,-0.63671875,-0.515625,-0.00390625,-0.015625,-0.140625,0.0,180.0,360.0
3796986,,,,,,,,-0.609375,-1.06640625,-0.515625,-0.00390625,-0.015625,-0.140625,0.0,180.0,360.0
3796987,,,,,,,,-0.609375,-1.06640625,-0.515625,-0.1484375,0.021484375,-0.14453125,0.0,180.0,360.0
3796988,,,,,,,,-0.25,-0.96875,-0.58203125,-0.1484375,0.021484375,-0.14453125,0.0,180.0,360.0
3796989,,,,,,,,-0.25,-0.96875,-0.58203125,-0.302734375,0.056640625,-0.150390625,0.0,180.0,360.0
3796990,36.013005166666666,129.32003500000002,129.36364515438183,67.14978357473457,1.2000000000000002,229.0,,-0.47265625,0.3125,-0.48046875,-0.302734375,0.056640625,-0.150390625,0.0,180.0,360.0
3796991,,,,,,,,-0.47265625,0.3125,-0.48046875,-0.490234375,0.01953125,-0.091796875,0.0,180.0,360.0
3796992,,,,,,,,-0.47265625,0.3125,-0.48046875,-0.888671875,-0.275390625,0.060546875,0.0,180.0,360.0
3796993,,,,,,,,-1.26171875,0.46484375,-0.125,-0.888671875,-0.275390625,0.060546875,0.0,180.0,360.0
3796994,,,,,,,,-1.26171875,0.46484375,-0.125,-0.9453125,-0.501953125,0.06640625,0.0,180.0,360.0
3796995,,,,,,,,0.43359375,-5.9609375,1.140625,-0.9453125,-0.501953125,0.06640625,0.0,180.0,360.0
3796996,,,,,,,,0.43359375,-5.9609375,1.140625,-0.5078125,-0.193359375,-0.125,0.0,180.0,360.0
3796997,,,,,,,,3.51953125,-4.7265625,2.875,-0.5078125,-0.193359375,-0.125,0.0,180.0,360.0
3796998,,,,,,,,3.51953125,-4.7265625,2.875,-0.1640625,0.021484375,-0.224609375,0.0,180.0,360.0
3796999,,,,,,,,3.86328125,-2.07421875,1.56640625,-0.1640625,0.021484375,-0.224609375,0.0,180.0,360.0
3797000,36.013004333333335,129.32003283333333,129.16832393428066,67.057314665257,1.1,232.0,123.0,3.86328125,-2.07421875,1.56640625,-0.005859375,-0.15625,-0.09765625,0.0,180.0,360.0
3797001,,,,,,,,3.86328125,-2.07421875,1.56640625,-0.005859375,-0.15625,-0.09765625,0.0,180.0,360.0
3797002,,,,,,,,3.86328125,-2.07421875,1.56640625,0.453125,0.009765625,-0.044921875,0.0,180.0,360.0
3797003,,,,,,,,0.08203125,1.68359375,-0.609375,0.453125,0.009765625,-0.044921875,0.0,180.0,360.0
3797004,,,,,,,,0.08203125,1.68359375,-0.609375,0.248046875,-0.419921875,0.53125,0.0,180.0,360.0
3797005,,,,,,,,0.08203125,1.68359375,-0.609375,0.21875,-0.349609375,0.48046875,0.0,180.0,360.0
3797006,,,,,,,,0.78125,2.62109375,-1.24609375,0.21875,-0.349609375,0.48046875,0.0,180.0,360.0
3797007,,,,,,,,0.78125,2.62109375,-1.24609375,0.16796875,-0.271484375,0.4140625,0.0,180.0,360.0
3797008,,,,,,,,1.12109375,2.88671875,-1.4609375,0.16796875,-0.271484375,0.4140625,0.0,180.0,360.0
3797009,,,,,,,,1.12109375,2.88671875,-1.4609375,0.134765625,-0.171875,0.337890625,0.0,180.0,360.0
3797010,36.01300366666667,129.320032,129.09320095214315,66.98334073349797,1.2000000000000002,230.0,,1.13671875,2.50390625,-1.33203125,0.134765625,-0.171875,0.337890625,0.0,180.0,360.0
3797011,,,,,,,,1.13671875,2.50390625,-1.33203125,0.15234375,-0.083984375,0.259765625,0.0,180.0,360.0
3797012,,,,,,,,1.19140625,2.23046875,-1.29296875,0.15234375,-0.083984375,0.259765625,0.0,180.0,360.0
3797013,,,,,,,,1.19140625,2.23046875,-1.29296875,0.208984375,0.03125,0.181640625,0.0,180.0,360.0
3797014,,,,,,,,1.19140625,2.23046875,-1.29296875,0.25390625,0.125,0.1171875,0.0,180.0,360.0
3797015,,,,,,,,1.1484375,2.25390625,-1.25390625,0.25390625,0.125,0.1171875,0.0,180.0,360.0
3797016,,,,,,,,1.1484375,2.25390625,-1.25390625,0.25390625,0.125,0.1171875,0.0,180.0,360.0
3797017,,,,,,,,1.1484375,2.25390625,-1.25390625,0.265625,0.181640625,0.05859375,0.0,180.0,360.0
3797018,,,,,,,,0.87890625,1.9140625,-1.296875,0.265625,0.181640625,0.05859375,0.0,180.0,360.0
3797019,,,,,,,,0.87890625,1.9140625,-1.296875,0.212890625,0.1640625,0.041015625,0.0,180.0,360.0
3797020,36.01300333333334,129.32003083333333,128.9880277976776,66.94635277468355,1.1,235.0,,0.87890625,1.9140625,-1.296875,0.142578125,0.107421875,0.05859375,0.0,180.0,360.0
3797021,,,,,,,,0.55859375,0.703125,-0.921875,0.142578125,0.107421875,0.05859375,0.0,180.0,360.0
3797022,,,,,,,,0.55859375,0.703125,-0.921875,0.099609375,0.06640625,0.08203125,0.0,180.0,360.0
3797023,,,,,,,,0.65234375,-0.078125,-0.75390625,0.099609375,0.06640625,0.08203125,0.0,180.0,360.0
3797024,,,,,,,,0.65234375,-0.078125,-0.75390625,0.0859375,0.03515625,0.111328125,0.0,180.0,360.0
3797025,,,,,,,,0.97265625,-0.84375,-0.35546875,0.0859375,0.03515625,0.111328125,0.0,180.0,360.0
3797026,,,,,,,,0.97265625,-0.84375,-0.35546875,0.0546875,0.0,0.15625,0.0,180.0,360.0
3797027,,,,,,,,0.97265625,-0.84375,-0.35546875,0.0546875,0.0,0.15625,0.0,180.0,360.0
3797028,,,,,,,,0.97265625,-0.84375,-0.35546875,0.0,-0.009765625,0.181640625,0.0,180.0,360.0
3797029,,,,,,,,0.46875,-1.42578125,-0.27734375,0.0,-0.009765625,0.181640625,0.0,180.0,360.0
3797030,36.01300166666667,129.32002849999998,128.7776831112585,66.76141761881088,1.4000000000000001,228.0,,0.46875,-1.42578125,-0.27734375,-0.10546875,0.00390625,0.171875,0.0,180.0,360.0
3797031,,,,,,,,0.46875,-1.42578125,-0.27734375,-0.4765625,-0.029296875,0.224609375,0.0,180.0,360.0
3797032,,,,,,,,0.8125,-0.22265625,-0.73828125,-0.4765625,-0.029296875,0.224609375,0.0,180.0,360.0
3797033,,,,,,,,0.8125,-0.22265625,-0.73828125,-0.736328125,0.015625,0.216796875,0.0,180.0,360.0
3797034,,,,,,,,0.81640625,-2.4453125,-0.703125,-0.736328125,0.015625,0.216796875,0.0,180.0,360.0
3797035,,,,,,,,0.81640625,-2.4453125,-0.703125,-0.65625,-0.041015625,0.1953125,0.0,180.0,360.0
3797036,,,,,,,,-0.40234375,-3.33984375,2.6328125,-0.65625,-0.041015625,0.1953125,0.0,180.0,360.0
3797037,,,,,,,,-0.40234375,-3.33984375,2.6328125,-0.302734375,-0.052734375,0.15625,0.0,180.0,360.0
3797038,,,,,,,,-0.40234375,-3.33984375,2.6328125,0.04296875,-0.03125,0.072265625,0.0,180.0,360.0
3797039,,,,,,,,-1.3671875,-0.63671875,3.23046875,0.04296875,-0.03125,0.072265625,0.0,180.0,360.0
3797040,36.013001,129.3200275,128.68753531341676,66.68744347049244,1.3,226.0,,-1.3671875,-0.63671875,3.23046875,-0.15234375,0.021484375,-0.01171875,0.0,180.0,360.0
3797041,,,,,,,,-0.41015625,-0.7890625,1.46875,-0.15234375,0.021484375,-0.01171875,0.0,180.0,360.0
3797042,,,,,,,,-0.41015625,-0.7890625,1.46875,-0.05859375,0.27734375,-0.10546875,0.0,180.0,360.0
3797043,,,,,,,,1.046875,-2.08203125,1.69140625,-0.05859375,0.27734375,-0.10546875,0.0,180.0,360.0
3797044,,,,,,,,1.046875,-2.08203125,1.69140625,0.150390625,0.423828125,-0.251953125,0.0,180.0,360.0
3797045,,,,,,,,0.5703125,-1.26953125,2.87109375,0.150390625,0.423828125,-0.251953125,0.0,180.0,360.0
3797046,,,,,,,,0.5703125,-1.26953125,2.87109375,0.103515625,0.453125,-0.33203125,0.0,180.0,360.0
3797047,,,,,,,,-0.13671875,-0.62890625,1.515625,0.103515625,0.453125,-0.33203125,0.0,180.0,360.0
3797048,,,,,,,,-0.13671875,-0.62890625,1.515625,0.103515625,0.470703125,-0.380859375,0.0,180.0,360.0
3797049,,,,,,,,-0.13671875,-0.62890625,1.515625,0.13671875,0.451171875,-0.388671875,0.0,180.0,360.0
3797050,36.013000000000005,129.320027,128.6424624939147,66.57648356921248,1.2000000000000002,222.0,,-0.40625,-0.296875,1.08203125,0.13671875,0.451171875,-0.388671875,0.0,180.0,360.0
3797051,,,,,,,,-0.40625,-0.296875,1.08203125,0.150390625,0.412109375,-0.375,0.0,180.0,360.0
3797052,,,,,,,,-0.453125,0.7578125,0.125,0.150390625,0.412109375,-0.375,0.0,180.0,360.0
3797053,,,,,,,,-0.453125,0.7578125,0.125,0.162109375,0.31640625,-0.353515625,0.0,180.0,360.0
3797054,,,,,,,,-0.54296875,1.36328125,-0.265625,0.162109375,0.31640625,-0.353515625,0.0,180.0,360.0
3797055,,,,,,,,-0.54296875,1.36328125,-0.265625,0.177734375,0.212890625,-0.337890625,0.0,180.0,360.0
3797056,,,,,,,,-0.84375,2.48828125,-0.86328125,0.177734375,0.212890625,-0.337890625,0.0,180.0,360.0
3797057,,,,,,,,-0.84375,2.48828125,-0.86328125,0.1640625,0.123046875,-0.3125,0.0,180.0,360.0
3797058,,,,,,,,-0.84375,2.48828125,-0.86328125,0.12890625,0.0546875,-0.265625,0.0,180.0,360.0
3797059,,,,,,,,-1.27734375,2.58203125,-1.44921875,0.12890625,0.0546875,-0.265625,0.0,180.0,360.0
3797060,36.012999666666666,129.32002583333332,128.5372893307722,66.53949561406326,1.1,227.0,,-1.27734375,2.58203125,-1.44921875,0.130859375,-0.005859375,-0.203125,0.0,180.0,360.0
3797061,,,,,,,,-1.62109375,2.48828125,-1.43359375,0.130859375,-0.005859375,-0.203125,0.0,180.0,360.0
3797062,,,,,,,,-1.62109375,2.48828125,-1.43359375,0.140625,-0.052734375,-0.1328125,0.0,180.0,360.0
3797063,,,,,,,,-1.84375,2.2421875,-1.46484375,0.140625,-0.052734375,-0.1328125,0.0,180.0,360.0
3797064,,,,,,,,-1.84375,2.2421875,-1.46484375,0.140625,-0.111328125,-0.08203125,0.0,180.0,360.0
3797065,,,,,,,,-1.8828125,1.53125,-1.53515625,0.140625,-0.111328125,-0.08203125,0.0,180.0,360.0
3797066,,,,,,,,-1.8828125,1.53125,-1.53515625,0.171875,-0.11328125,-0.05859375,0.0,180.0,360.0
3797067,,,,,,,,-1.8828125,1.53125,-1.53515625,0.171875,-0.11328125,-0.05859375,0.0,180.0,360.0
3797068,,,,,,,,-1.8828125,1.53125,-1.53515625,0.189453125,-0.07421875,-0.064453125,0.0,180.0,360.0
3797069,,,,,,,,-1.0703125,1.73046875,-1.59765625,0.189453125,-0.07421875,-0.064453125,0.0,180.0,360.0
3797070,36.012999,129.320025,128.4621663407125,66.46552168775212,1.1,228.0,,-1.0703125,1.73046875,-1.59765625,0.10546875,-0.052734375,-0.08203125,0.0,180.0,360.0
3797071,,,,,,,,-1.0703125,1.73046875,-1.59765625,0.005859375,-0.046875,-0.1171875,0.0,180.0,360.0
3797072,,,,,,,,-0.703125,0.79296875,-1.55078125,0.005859375,-0.046875,-0.1171875,0.0,180.0,360.0
3797073,,,,,,,,-0.703125,0.79296875,-1.55078125,-0.03125,-0.064453125,-0.16796875,0.0,180.0,360.0
3797074,,,,,,,,-0.65234375,-0.0546875,-1.11328125,-0.03125,-0.064453125,-0.16796875,0.0,180.0,360.0
3797075,,,,,,,,-0.65234375,-0.0546875,-1.11328125,-0.015625,-0.05078125,-0.212890625,0.0,180.0,360.0
3797076,,,,,,,,-0.55078125,-1.09765625,-0.37109375,-0.015625,-0.05078125,-0.212890625,0.0,180.0,360.0
3797077,,,,,,,,-0.55078125,-1.09765625,-0.37109375,-0.01171875,-0.01171875,-0.236328125,0.0,180.0,360.0
3797078,,,,,,,,-0.484375,-1.34375,-0.44921875,-0.01171875,-0.01171875,-0.236328125,0.0,180.0,360.0
3797079,,,,,,,,-0.484375,-1.34375,-0.44921875,-0.109375,0.033203125,-0.224609375,0.0,180.0,360.0
3797080,36.01299816666666,129.32002416666668,128.38704361998043,66.37305455517021,1.1,227.0,,-0.484375,-1.34375,-0.44921875,-0.197265625,0.1015625,-0.232421875,0.0,180.0,360.0
3797081,,,,,,,,0.234375,-1.71875,-0.484375,-0.197265625,0.1015625,-0.232421875,0.0,180.0,360.0
3797082,,,,,,,,0.234375,-1.71875,-0.484375,-0.302734375,0.107421875,-0.234375,0.0,180.0,360.0
3797083,,,,,,,,-0.0625,-0.953125,-0.21484375,-0.302734375,0.107421875,-0.234375,0.0,180.0,360.0
3797084,,,,,,,,-0.0625,-0.953125,-0.21484375,-0.6328125,-0.1796875,-0.09375,0.0,180.0,360.0
3797085,,,,,,,,-1.703125,-1.85546875,-0.10546875,-0.6328125,-0.1796875,-0.09375,0.0,180.0,360.0
3797086,,,,,,,,-1.703125,-1.85546875,-0.10546875,-0.697265625,-0.35546875,-0.01953125,0.0,180.0,360.0
3797087,,,,,,,,-1.703125,-1.85546875,-0.10546875,-0.697265625,-0.35546875,-0.01953125,0.0,180.0,360.0
3797088,,,,,,,,-1.703125,-1.85546875,-0.10546875,-0.6171875,-0.451171875,0.01171875,0.0,180.0,360.0
3797089,,,,,,,,2.37890625,-3.03515625,1.38671875,-0.6171875,-0.451171875,0.01171875,0.0,180.0,360.0
3797090,36.0129975,129.32002266666666,128.25182136427694,66.29907975270348,1.3,228.0,,2.37890625,-3.03515625,1.38671875,-0.28125,-0.12109375,-0.130859375,0.0,180.0,360.0
3797091,,,,,,,,2.37890625,-3.03515625,1.38671875,-0.126953125,-0.10546875,-0.08203125,0.0,180.0,360.0
3797092,,,,,,,,1.54296875,-0.0234375,1.921875,-0.126953125,-0.10546875,-0.08203125,0.0,180.0,360.0
3797093,,,,,,,,1.54296875,-0.0234375,1.921875,0.20703125,-0.052734375,-0.017578125,0.0,180.0,360.0
3797094,,,,,,,,0.5703125,-2.4765625,2.20703125,0.20703125,-0.052734375,-0.017578125,0.0,180.0,360.0
3797095,,,,,,,,0.5703125,-2.4765625,2.20703125,0.482421875,-0.1015625,0.05078125,0.0,180.0,360.0
3797096,,,,,,,,0.15625,-1.41796875,1.8671875,0.482421875,-0.1015625,0.05078125,0.0,180.0,360.0
3797097,,,,,,,,0.15625,-1.41796875,1.8671875,0.3203125,-0.16796875,0.279296875,0.0,180.0,360.0
3797098,,,,,,,,0.15625,-1.41796875,1.8671875,0.078125,-0.2890625,0.46875,0.0,180.0,360.0
3797099,,,,,,,,-0.5703125,-0.15234375,0.65625,0.078125,-0.2890625,0.46875,0.0,180.0,360.0
3797100,36.012996333333334,129.32002066666666,128.0715254721542,66.16962467347672,1.1,230.0,123.0,-0.5703125,-0.15234375,0.65625,0.087890625,-0.28125,0.537109375,0.0,180.0,360.0
3797101,,,,,,,,-0.5703125,-0.15234375,0.65625,0.087890625,-0.28125,0.537109375,0.0,180.0,360.0
3797102,,,,,,,,-0.22265625,-0.23828125,0.48828125,0.087890625,-0.28125,0.537109375,0.0,180.0,360.0
3797103,,,,,,,,0.953125,1.70703125,-1.31640625,0.087890625,-0.28125,0.537109375,0.0,180.0,360.0
3797104,,,,,,,,0.953125,1.70703125,-1.31640625,0.162109375,0.228515625,-0.013671875,0.0,180.0,360.0
3797105,,,,,,,,0.953125,1.70703125,-1.31640625,0.162109375,0.228515625,-0.013671875,0.0,180.0,360.0
3797106,,,,,,,,0.953125,1.70703125,-1.31640625,0.1640625,0.23828125,-0.04296875,0.0,180.0,360.0
3797107,,,,,,,,0.625,0.3828125,-1.1640625,0.1640625,0.23828125,-0.04296875,0.0,180.0,360.0
3797108,,,,,,,,0.625,0.3828125,-1.1640625,0.150390625,0.19921875,-0.029296875,0.0,180.0,360.0
3797109,,,,,,,,0.625,0.3828125,-1.1640625,0.140625,0.138671875,-0.009765625,0.0,180.0,360.0
3797110,36.01299516666666,129.32001833333334,127.86117994223464,66.0401691609769,1.2000000000000002,234.0,,0.48046875,-0.62890625,-0.5078125,0.140625,0.138671875,-0.009765625,0.0,180.0,360.0
3797111,,,,,,,,0.48046875,-0.62890625,-0.5078125,0.1171875,0.056640625,0.01171875,0.0,180.0,360.0
3797112,,,,,,,,0.44140625,-0.828125,-0.421875,0.1171875,0.056640625,0.01171875,0.0,180.0,360.0
3797113,,,,,,,,0.44140625,-0.828125,-0.421875,0.1171875,0.056640625,0.01171875,0.0,180.0,360.0
3797114,,,,,,,,0.44140625,-0.828125,-0.421875,-0.041015625,-0.1328125,0.083984375,0.0,180.0,360.0
3797115,,,,,,,,0.02734375,-1.5234375,-0.35546875,-0.041015625,-0.1328125,0.083984375,0.0,180.0,360.0
3797116,,,,,,,,0.02734375,-1.5234375,-0.35546875,-0.21484375,-0.12109375,0.12109375,0.0,180.0,360.0
3797117,,,,,,,,0.04296875,-1.1640625,-0.32421875,-0.21484375,-0.12109375,0.12109375,0.0,180.0,360.0
3797118,,,,,,,,0.04296875,-1.1640625,-0.32421875,-0.66796875,-0.099609375,0.193359375,0.0,180.0,360.0
3797119,,,,,,,,0.5625,-0.26953125,-0.4453125,-0.66796875,-0.099609375,0.193359375,0.0,180.0,360.0
3797120,36.012994166666665,129.3200175,127.78605747815615,65.9292088263214,1.3,229.0,,0.5625,-0.26953125,-0.4453125,-0.744140625,-0.046875,0.16796875,0.0,180.0,360.0
3797121,,,,,,,,0.81640625,-3.24609375,0.27734375,-0.744140625,-0.046875,0.16796875,0.0,180.0,360.0
3797122,,,,,,,,0.81640625,-3.24609375,0.27734375,-0.66015625,-0.046875,0.12109375,0.0,180.0,360.0
3797123,,,,,,,,0.265625,-3.1328125,2.28125,-0.66015625,-0.046875,0.12109375,0.0,180.0,360.0
3797124,,,,,,,,0.265625,-3.1328125,2.28125,0.02734375,0.15234375,-0.00390625,0.0,180.0,360.0
3797125,,,,,,,,-1.28125,-2.171875,3.28515625,0.02734375,0.15234375,-0.00390625,0.0,180.0,360.0
3797126,,,,,,,,-1.28125,-2.171875,3.28515625,0.09375,0.123046875,-0.03515625,0.0,180.0,360.0
3797127,,,,,,,,-1.28125,-2.171875,3.28515625,-0.052734375,0.291015625,-0.083984375,0.0,180.0,360.0
3797128,,,,,,,,1.09375,-1.67578125,1.73828125,-0.052734375,0.291015625,-0.083984375,0.0,180.0,360.0
3797129,,,,,,,,1.09375,-1.67578125,1.73828125,0.1171875,0.640625,-0.259765625,0.0,180.0,360.0
3797130,36.012993333333334,129.32001649999998,127.69590992527864,65.83674148099966,1.4000000000000001,224.0,,1.96875,-1.484375,2.18359375,0.1171875,0.640625,-0.259765625,0.0,180.0,360.0
3797131,,,,,,,,1.96875,-1.484375,2.18359375,0.1015625,0.447265625,-0.42578125,0.0,180.0,360.0
3797132,,,,,,,,0.44140625,-0.6015625,2.02734375,0.1015625,0.447265625,-0.42578125,0.0,180.0,360.0
3797133,,,,,,,,0.44140625,-0.6015625,2.02734375,0.1015625,0.447265625,-0.42578125,0.0,180.0,360.0
3797134,,,,,,,,0.44140625,-0.6015625,2.02734375,0.140625,0.40234375,-0.515625,0.0,180.0,360.0
3797135,,,,,,,,-0.39453125,-0.2265625,1.421875,0.140625,0.40234375,-0.515625,0.0,180.0,360.0
3797136,,,,,,,,-0.39453125,-0.2265625,1.421875,0.25390625,0.400390625,-0.4453125,0.0,180.0,360.0
3797137,,,,,,,,-0.91796875,0.5546875,0.80859375,0.25390625,0.400390625,-0.4453125,0.0,180.0,360.0
3797138,,,,,,,,-0.91796875,0.5546875,0.80859375,0.181640625,0.28125,-0.375,0.0,180.0,360.0
3797139,,,,,,,,-0.98046875,1.1875,0.06640625,0.181640625,0.28125,-0.375,0.0,180.0,360.0
3797140,36.012992833333335,129.32001566666668,127.62078665594143,65.78126076868546,1.2000000000000002,223.0,,-0.98046875,1.1875,0.06640625,0.138671875,0.154296875,-0.337890625,0.0,180.0,360.0
3797141,,,,,,,,-0.57421875,2.0546875,-0.47265625,0.138671875,0.154296875,-0.337890625,0.0,180.0,360.0
3797142,,,,,,,,-0.57421875,2.0546875,-0.47265625,0.1796875,0.056640625,-0.32421875,0.0,180.0,360.0
3797143,,,,,,,,-0.62890625,2.4296875,-0.54296875,0.1796875,0.056640625,-0.32421875,0.0,180.0,360.0
3797144,,,,,,,,-0.62890625,2.4296875,-0.54296875,0.18359375,0.005859375,-0.283203125,0.0,180.0,360.0
3797145,,,,,,,,-1.24609375,2.8203125,-1.21875,0.18359375,0.005859375,-0.283203125,0.0,180.0,360.0
3797146,,,,,,,,-1.24609375,2.8203125,-1.21875,0.142578125,-0.037109375,-0.20703125,0.0,180.0,360.0
3797147,,,,,,,,-1.24609375,2.8203125,-1.21875,0.1171875,-0.076171875,-0.115234375,0.0,180.0,360.0
3797148,,,,,,,,-1.8359375,2.421875,-1.37109375,0.1171875,-0.076171875,-0.115234375,0.0,180.0,360.0
3797149,,,,,,,,-1.8359375,2.421875,-1.37109375,0.078125,-0.09765625,-0.056640625,0.0,180.0,360.0
3797150,36.01299216666666,129.32001483333335,127.54566365003403,65.70728684900213,1.1,223.0,,-1.66796875,2.10546875,-1.50390625,0.078125,-0.09765625,-0.056640625,0.0,180.0,360.0
3797151,,,,,,,,-1.66796875,2.10546875,-1.50390625,0.056640625,-0.08203125,-0.044921875,0.0,180.0,360.0
3797152,,,,,,,,-1.21484375,1.82421875,-1.43359375,0.056640625,-0.08203125,-0.044921875,0.0,180.0,360.0
3797153,,,,,,,,-1.21484375,1.82421875,-1.43359375,0.083984375,-0.01953125,-0.06640625,0.0,180.0,360.0
3797154,,,,,,,,-0.7734375,1.66015625,-1.41796875,0.083984375,-0.01953125,-0.06640625,0.0,180.0,360.0
3797155,,,,,,,,-0.7734375,1.66015625,-1.41796875,0.05859375,0.041015625,-0.09375,0.0,180.0,360.0
3797156,,,,,,,,-0.7734375,1.66015625,-1.41796875,-0.00390625,0.04296875,-0.115234375,0.0,180.0,360.0
3797157,,,,,,,,-0.83203125,0.91796875,-1.54296875,-0.00390625,0.04296875,-0.115234375,0.0,180.0,360.0
3797158,,,,,,,,-0.83203125,0.91796875,-1.54296875,0.00390625,0.01953125,-0.15234375,0.0,180.0,360.0
3797159,,,,,,,,-0.8125,0.10546875,-1.203125,0.00390625,0.01953125,-0.15234375,0.0,180.0,360.0
3797160,36.01299083333333,129.32001266666666,127.35034318471814,65.5593383601797,1.2000000000000002,228.0,,-0.8125,0.10546875,-1.203125,0.03515625,0.017578125,-0.189453125,0.0,180.0,360.0
3797161,,,,,,,,-0.8046875,-0.5546875,-0.70703125,0.03515625,0.017578125,-0.189453125,0.0,180.0,360.0
3797162,,,,,,,,-0.8046875,-0.5546875,-0.70703125,-0.029296875,-0.015625,-0.1796875,0.0,180.0,360.0
3797163,,,,,,,,-0.875,-0.828125,-0.4375,-0.029296875,-0.015625,-0.1796875,0.0,180.0,360.0
3797164,,,,,,,,-0.875,-0.828125,-0.4375,-0.158203125,0.00390625,-0.169921875,0.0,180.0,360.0
3797165,,,,,,,,-0.375,-0.8359375,-0.60546875,-0.158203125,0.00390625,-0.169921875,0.0,180.0,360.0
3797166,,,,,,,,-0.375,-0.8359375,-0.60546875,-0.322265625,0.046875,-0.16015625,0.0,180.0,360.0
3797167,,,,,,,,-0.375,-0.8359375,-0.60546875,-0.357421875,0.1328125,-0.197265625,0.0,180.0,360.0
3797168,,,,,,,,-0.1484375,-0.125,-0.2890625,-0.357421875,0.1328125,-0.197265625,0.0,180.0,360.0
3797169,,,,,,,,-0.1484375,-0.125,-0.2890625,-0.505859375,-0.03125,-0.142578125,0.0,180.0,360.0
3797170,36.01299016666667,129.32001166666666,127.2601953587183,65.48536422678073,1.2000000000000002,227.0,,-1.39453125,0.58203125,0.01171875,-0.505859375,-0.03125,-0.142578125,0.0,180.0,360.0
3797171,,,,,,,,-1.39453125,0.58203125,0.01171875,-0.876953125,-0.5390625,0.087890625,0.0,180.0,360.0
3797172,,,,,,,,-2.5703125,-1.00390625,0.06640625,-0.876953125,-0.5390625,0.087890625,0.0,180.0,360.0
3797173,,,,,,,,-2.5703125,-1.00390625,0.06640625,-0.79296875,-0.6875,0.1796875,0.0,180.0,360.0
3797174,,,,,,,,1.03125,-4.09765625,1.80859375,-0.79296875,-0.6875,0.1796875,0.0,180.0,360.0
3797175,,,,,,,,1.03125,-4.09765625,1.80859375,-0.533203125,-0.5390625,0.09765625,0.0,180.0,360.0
3797176,,,,,,,,1.03125,-4.09765625,1.80859375,-0.533203125,-0.5390625,0.09765625,0.0,180.0,360.0
3797177,,,,,,,,1.03125,-4.09765625,1.80859375,-0.09375,-0.181640625,-0.083984375,0.0,180.0,360.0
3797178,,,,,,,,2.42578125,-3.125,3.15234375,-0.09375,-0.181640625,-0.083984375,0.0,180.0,360.0
3797179,,,,,,,,2.42578125,-3.125,3.15234375,0.3671875,-0.201171875,-0.140625,0.0,180.0,360.0
3797180,36.01298966666666,129.32001066666666,127.1700472624096,65.42988330041068,1.2000000000000002,229.0,,1.3515625,-4.56640625,3.61328125,0.3671875,-0.201171875,-0.140625,0.0,180.0,360.0
3797181,,,,,,,,1.3515625,-4.56640625,3.61328125,0.8125,0.0234375,-0.13671875,0.0,180.0,360.0
3797182,,,,,,,,1.3515625,-4.56640625,3.61328125,0.451171875,-0.162109375,0.181640625,0.0,180.0,360.0
3797183,,,,,,,,-0.51171875,-0.15234375,0.91015625,0.451171875,-0.162109375,0.181640625,0.0,180.0,360.0
3797184,,,,,,,,-0.51171875,-0.15234375,0.91015625,0.05078125,-0.322265625,0.474609375,0.0,180.0,360.0
3797185,,,,,,,,0.10546875,-1.30078125,1.0390625,0.05078125,-0.322265625,0.474609375,0.0,180.0,360.0
3797186,,,,,,,,0.10546875,-1.30078125,1.0390625,0.169921875,-0.205078125,0.537109375,0.0,180.0,360.0
3797187,,,,,,,,0.10546875,-1.30078125,1.0390625,0.302734375,-0.134765625,0.49609375,0.0,180.0,360.0
3797188,,,,,,,,0.46875,-0.90234375,0.95703125,0.302734375,-0.134765625,0.49609375,0.0,180.0,360.0
3797189,,,,,,,,0.46875,-0.90234375,0.95703125,0.30078125,-0.185546875,0.462890625,0.0,180.0,360.0
3797190,36.012989166666664,129.32000933333333,127.04984953292211,65.3744019400276,1.2000000000000002,234.0,,-0.10546875,1.51953125,-0.33203125,0.30078125,-0.185546875,0.462890625,0.0,180.0,360.0
3797191,,,,,,,,-0.10546875,1.51953125,-0.33203125,0.25,-0.150390625,0.443359375,0.0,180.0,360.0
3797192,,,,,,,,-0.06640625,2.09375,-0.73046875,0.25,-0.150390625,0.443359375,0.0,180.0,360.0
3797193,,,,,,,,-0.06640625,2.09375,-0.73046875,0.228515625,-0.095703125,0.419921875,0.0,180.0,360.0
3797194,,,,,,,,0.1640625,3.01171875,-1.1171875,0.228515625,-0.095703125,0.419921875,0.0,180.0,360.0
3797195,,,,,,,,0.1640625,3.01171875,-1.1171875,0.22265625,-0.044921875,0.37890625,0.0,180.0,360.0
3797196,,,,,,,,0.1640625,3.01171875,-1.1171875,0.22265625,-0.044921875,0.37890625,0.0,180.0,360.0
3797197,,,,,,,,0.1640625,3.01171875,-1.1171875,0.13671875,-0.00390625,0.291015625,0.0,180.0,360.0
3797198,,,,,,,,1.44921875,3.01171875,-1.5078125,0.13671875,-0.00390625,0.291015625,0.0,180.0,360.0
3797199,,,,,,,,1.44921875,3.01171875,-1.5078125,0.08984375,0.111328125,0.181640625,0.0,180.0,360.0
3797200,36.012988166666666,129.32000733333334,126.86955333736083,65.26344009332858,1.2000000000000002,239.0,123.0,1.44921875,3.01171875,-1.5078125,0.091796875,0.2109375,0.068359375,0.0,180.0,360.0
3797201,,,,,,,,1.44921875,3.01171875,-1.5078125,0.091796875,0.2109375,0.068359375,0.0,180.0,360.0
3797202,,,,,,,,1.2421875,2.53515625,-1.36328125,0.091796875,0.2109375,0.068359375,0.0,180.0,360.0
3797203,,,,,,,,1.2421875,2.53515625,-1.36328125,-0.27734375,-0.23046875,0.21875,0.0,180.0,360.0
3797204,,,,,,,,1.2421875,2.53515625,-1.36328125,-0.65234375,-0.125,0.193359375,0.0,180.0,360.0
3797205,,,,,,,,0.6171875,-2.55078125,-0.03515625,-0.65234375,-0.125,0.193359375,0.0,180.0,360.0
3797206,,,,,,,,0.6171875,-2.55078125,-0.03515625,-0.806640625,-0.083984375,0.18359375,0.0,180.0,360.0
3797207,,,,,,,,0.52734375,-3.015625,1.5078125,-0.806640625,-0.083984375,0.18359375,0.0,180.0,360.0
3797208,,,,,,,,0.52734375,-3.015625,1.5078125,-0.29296875,-0.046875,0.10546875,0.0,180.0,360.0
3797209,,,,,,,,-0.3984375,-5.88671875,2.22265625,-0.29296875,-0.046875,0.10546875,0.0,180.0,360.0
3797210,36.01298633333333,129.32000566666665,126.71930809963766,65.06001264919988,1.2000000000000002,228.0,,-0.3984375,-5.88671875,2.22265625,0.220703125,-0.046875,0.0859375,0.0,180.0,360.0
3797211,,,,,,,,-1.00390625,0.32421875,1.984375,0.220703125,-0.046875,0.0859375,0.0,180.0,360.0
3797212,,,,,,,,-1.00390625,0.32421875,1.984375,-0.0234375,-0.0078125,0.06640625,0.0,180.0,360.0
3797213,,,,,,,,0.6953125,-1.0546875,1.41015625,-0.0234375,-0.0078125,0.06640625,0.0,180.0,360.0
3797214,,,,,,,,0.6953125,-1.0546875,1.41015625,0.052734375,0.298828125,-0.087890625,0.0,180.0,360.0
3797215,,,,,,,,0.6953125,-1.0546875,1.41015625,0.111328125,0.283203125,-0.212890625,0.0,180.0,360.0
3797216,,,,,,,,0.87109375,-0.9375,2.375,0.111328125,0.283203125,-0.212890625,0.0,180.0,360.0
3797217,,,,,,,,0.87109375,-0.9375,2.375,0.083984375,0.259765625,-0.267578125,0.0,180.0,360.0
3797218,,,,,,,,0.03515625,-0.328125,1.5390625,0.083984375,0.259765625,-0.267578125,0.0,180.0,360.0
3797219,,,,,,,,0.03515625,-0.328125,1.5390625,0.09375,0.30078125,-0.251953125,0.0,180.0,360.0
3797220,36.012985666666665,129.32000433333332,126.59911062834425,64.98603808779364,1.2000000000000002,226.0,,-0.35546875,-0.2578125,1.15625,0.09375,0.30078125,-0.251953125,0.0,180.0,360.0
3797221,,,,,,,,-0.35546875,-0.2578125,1.15625,0.146484375,0.296875,-0.2265625,0.0,180.0,360.0
3797222,,,,,,,,-0.47265625,0.15625,0.6953125,0.146484375,0.296875,-0.2265625,0.0,180.0,360.0
3797223,,,,,,,,-0.47265625,0.15625,0.6953125,0.13671875,0.296875,-0.21484375,0.0,180.0,360.0
3797224,,,,,,,,-0.41796875,1.55859375,-0.37109375,0.13671875,0.296875,-0.21484375,0.0,180.0,360.0
3797225,,,,,,,,-0.41796875,1.55859375,-0.37109375,0.087890625,0.248046875,-0.20703125,0.0,180.0,360.0
3797226,,,,,,,,-0.44921875,2.015625,-0.78515625,0.087890625,0.248046875,-0.20703125,0.0,180.0,360.0
3797227,,,,,,,,-0.44921875,2.015625,-0.78515625,0.046875,0.18359375,-0.203125,0.0,180.0,360.0
3797228,,,,,,,,-0.94140625,2.5859375,-1.05859375,0.046875,0.18359375,-0.203125,0.0,180.0,360.0
3797229,,,,,,,,-0.94140625,2.5859375,-1.05859375,0.01953125,0.12109375,-0.1953125,0.0,180.0,360.0
3797230,36.012985,129.32000333333332,126.50896278941302,64.91206396176429,1.2000000000000002,227.0,,-0.94140625,2.5859375,-1.05859375,-0.0078125,0.091796875,-0.166015625,0.0,180.0,360.0
3797231,,,,,,,,-1.40234375,2.4296875,-1.3046875,-0.0078125,0.091796875,-0.166015625,0.0,180.0,360.0
3797232,,,,,,,,-1.40234375,2.4296875,-1.3046875,-0.0078125,0.091796875,-0.166015625,0.0,180.0,360.0
3797233,,,,,,,,-1.40234375,2.4296875,-1.3046875,0.0078125,0.072265625,-0.09765625,0.0,180.0,360.0
3797234,,,,,,,,-1.44140625,1.9921875,-1.3515625,0.0078125,0.072265625,-0.09765625,0.0,180.0,360.0
3797235,,,,,,,,-1.44140625,1.9921875,-1.3515625,0.03125,0.064453125,-0.06640625,0.0,180.0,360.0
3797236,,,,,,,,-1.44140625,1.9921875,-1.3515625,0.05078125,0.05078125,-0.064453125,0.0,180.0,360.0
3797237,,,,,,,,-1.33203125,1.87109375,-1.3515625,0.05078125,0.05078125,-0.064453125,0.0,180.0,360.0
3797238,,,,,,,,-1.33203125,1.87109375,-1.3515625,0.05078125,0.044921875,-0.064453125,0.0,180.0,360.0
3797239,,,,,,,,-1.1484375,1.75,-1.375,0.05078125,0.044921875,-0.064453125,0.0,180.0,360.0
3797240,36.01298433333333,129.32000250000002,126.43383977106821,64.83809005239783,1.1,226.0,,-1.1484375,1.75,-1.375,0.013671875,0.046875,-0.0703125,0.0,180.0,360.0
3797241,,,,,,,,-1.00390625,0.8203125,-1.3359375,0.013671875,0.046875,-0.0703125,0.0,180.0,360.0
3797242,,,,,,,,-1.00390625,0.8203125,-1.3359375,-0.02734375,0.048828125,-0.0703125,0.0,180.0,360.0
3797243,,,,,,,,-1.00390625,0.8203125,-1.3359375,-0.02734375,0.048828125,-0.0703125,0.0,180.0,360.0
3797244,,,,,,,,-1.00390625,0.8203125,-1.3359375,-0.0390625,0.0234375,-0.09765625,0.0,180.0,360.0
3797245,,,,,,,,-1.1875,-0.21875,-0.59375,-0.0390625,0.0234375,-0.09765625,0.0,180.0,360.0
3797246,,,,,,,,-1.1875,-0.21875,-0.59375,-0.05859375,-0.033203125,-0.119140625,0.0,180.0,360.0
3797247,,,,,,,,-1.1875,-0.21875,-0.59375,-0.1328125,-0.078125,-0.1640625,0.0,180.0,360.0
3797248,,,,,,,,-0.71484375,-0.8046875,-0.5390625,-0.1328125,-0.078125,-0.1640625,0.0,180.0,360.0
3797249,,,,,,,,-0.71484375,-0.8046875,-0.5390625,-0.24609375,-0.052734375,-0.2109375,0.0,180.0,360.0
3797250,36.01298366666666,129.320001,126.2986174749682,64.76411528016283,1.2000000000000002,228.0,,-0.36328125,-0.8046875,-0.65234375,-0.24609375,-0.052734375,-0.2109375,0.0,180.0,360.0
3797251,,,,,,,,-0.36328125,-0.8046875,-0.65234375,-0.333984375,0.0,-0.236328125,0.0,180.0,360.0
3797252,,,,,,,,-0.36328125,-0.8046875,-0.65234375,-0.333984375,0.0,-0.236328125,0.0,180.0,360.0
3797253,,,,,,,,-0.36328125,-0.8046875,-0.65234375,-0.392578125,0.029296875,-0.2109375,0.0,180.0,360.0
3797254,,,,,,,,-1.15234375,-0.04296875,-0.55859375,-0.392578125,0.029296875,-0.2109375,0.0,180.0,360.0
3797255,,,,,,,,-1.15234375,-0.04296875,-0.55859375,-0.685546875,-0.087890625,-0.08203125,0.0,180.0,360.0
3797256,,,,,,,,-1.15234375,-0.04296875,-0.55859375,-0.8125,-0.291015625,-0.0234375,0.0,180.0,360.0
3797257,,,,,,,,-1.21484375,-2.41796875,-0.1328125,-0.8125,-0.291015625,-0.0234375,0.0,180.0,360.0
3797258,,,,,,,,-1.21484375,-2.41796875,-0.1328125,-0.529296875,-0.25390625,-0.0703125,0.0,180.0,360.0
3797259,,,,,,,,2.37109375,-4.6484375,2.3046875,-0.529296875,-0.25390625,-0.0703125,0.0,180.0,360.0
3797260,36.01298283333333,129.31999983333333,126.19344507970371,64.67164773350687,1.2000000000000002,228.0,,2.37109375,-4.6484375,2.3046875,0.005859375,-0.072265625,-0.22265625,0.0,180.0,360.0
3797261,,,,,,,,2.1953125,-1.18359375,1.88671875,0.005859375,-0.072265625,-0.22265625,0.0,180.0,360.0
3797262,,,,,,,,2.1953125,-1.18359375,1.88671875,0.154296875,-0.015625,-0.171875,0.0,180.0,360.0
3797263,,,,,,,,0.1875,-2.88671875,2.87890625,0.154296875,-0.015625,-0.171875,0.0,180.0,360.0
3797264,,,,,,,,0.1875,-2.88671875,2.87890625,0.5390625,-0.119140625,-0.09375,0.0,180.0,360.0
3797265,,,,,,,,0.1875,-2.88671875,2.87890625,0.498046875,-0.30078125,0.056640625,0.0,180.0,360.0
3797266,,,,,,,,-0.296875,-1.765625,2.05078125,0.498046875,-0.30078125,0.056640625,0.0,180.0,360.0
3797267,,,,,,,,-0.296875,-1.765625,2.05078125,0.228515625,-0.443359375,0.3125,0.0,180.0,360.0
3797268,,,,,,,,-0.21484375,-0.55078125,1.21484375,0.228515625,-0.443359375,0.3125,0.0,180.0,360.0
3797269,,,,,,,,-0.21484375,-0.55078125,1.21484375,0.11328125,-0.505859375,0.46484375,0.0,180.0,360.0
3797270,36.01298216666667,129.3199985,126.07324759800065,64.59767318089257,1.2000000000000002,230.0,,-0.42578125,-0.65625,0.96875,0.11328125,-0.505859375,0.46484375,0.0,180.0,360.0
3797271,,,,,,,,-0.42578125,-0.65625,0.96875,0.16796875,-0.47265625,0.4765625,0.0,180.0,360.0
3797272,,,,,,,,0.51953125,-0.75390625,0.33203125,0.16796875,-0.47265625,0.4765625,0.0,180.0,360.0
3797273,,,,,,,,0.51953125,-0.75390625,0.33203125,0.33203125,-0.341796875,0.419921875,0.0,180.0,360.0
3797274,,,,,,,,0.51953125,-0.75390625,0.33203125,0.36328125,-0.26171875,0.40234375,0.0,180.0,360.0
3797275,,,,,,,,0.49609375,1.421875,-0.56640625,0.36328125,-0.26171875,0.40234375,0.0,180.0,360.0
3797276,,,,,,,,0.49609375,1.421875,-0.56640625,0.37890625,-0.150390625,0.373046875,0.0,180.0,360.0
3797277,,,,,,,,0.52734375,2.0703125,-1.05078125,0.37890625,-0.150390625,0.373046875,0.0,180.0,360.0
3797278,,,,,,,,0.52734375,2.0703125,-1.05078125,0.341796875,-0.09375,0.3359375,0.0,180.0,360.0
3797279,,,,,,,,0.8203125,3.01171875,-1.37890625,0.341796875,-0.09375,0.3359375,0.0,180.0,360.0
3797280,36.012980999999996,129.3199965,125.89295163725815,64.4682181460723,1.1,234.0,,0.8203125,3.01171875,-1.37890625,0.28125,-0.05859375,0.294921875,0.0,180.0,360.0
3797281,,,,,,,,0.9921875,3.1953125,-1.40625,0.28125,-0.05859375,0.294921875,0.0,180.0,360.0
3797282,,,,,,,,0.9921875,3.1953125,-1.40625,0.220703125,-0.015625,0.2265625,0.0,180.0,360.0
3797283,,,,,,,,1.10546875,2.98828125,-1.3203125,0.220703125,-0.015625,0.2265625,0.0,180.0,360.0
3797284,,,,,,,,1.10546875,2.98828125,-1.3203125,0.13671875,0.009765625,0.169921875,0.0,180.0,360.0
3797285,,,,,,,,1.10546875,2.98828125,-1.3203125,0.0703125,0.02734375,0.123046875,0.0,180.0,360.0
3797286,,,,,,,,1.0625,2.40625,-1.20703125,0.0703125,0.02734375,0.123046875,0.0,180.0,360.0
3797287,,,,,,,,1.0625,2.40625,-1.20703125,0.072265625,0.052734375,0.080078125,0.0,180.0,360.0
3797288,,,,,,,,1.046875,2.0234375,-1.1015625,0.072265625,0.052734375,0.080078125,0.0,180.0,360.0
3797289,,,,,,,,1.046875,2.0234375,-1.1015625,0.09375,0.072265625,0.046875,0.0,180.0,360.0
3797290,36.012980500000005,129.31999533333334,125.78777870403138,64.41273701990052,1.2000000000000002,236.0,,0.984375,1.77734375,-1.03125,0.09375,0.072265625,0.046875,0.0,180.0,360.0
3797291,,,,,,,,0.984375,1.77734375,-1.03125,0.09375,0.072265625,0.046875,0.0,180.0,360.0
3797292,,,,,,,,0.984375,1.77734375,-1.03125,0.0234375,0.06640625,0.025390625,0.0,180.0,360.0
3797293,,,,,,,,0.6875,0.61328125,-0.87890625,0.0234375,0.06640625,0.025390625,0.0,180.0,360.0
3797294,,,,,,,,0.6875,0.61328125,-0.87890625,-0.166015625,0.06640625,0.087890625,0.0,180.0,360.0
3797295,,,,,,,,0.82421875,0.26953125,-0.81640625,-0.166015625,0.06640625,0.087890625,0.0,180.0,360.0
3797296,,,,,,,,0.82421875,0.26953125,-0.81640625,-0.203125,0.091796875,0.107421875,0.0,180.0,360.0
3797297,,,,,,,,0.83984375,0.27734375,-0.77734375,-0.203125,0.091796875,0.107421875,0.0,180.0,360.0
3797298,,,,,,,,0.83984375,0.27734375,-0.77734375,-0.181640625,0.021484375,0.103515625,0.0,180.0,360.0
3797299,,,,,,,,0.51953125,-1.74609375,-0.31640625,-0.181640625,0.021484375,0.103515625,0.0,180.0,360.0
3797300,36.012978833333335,129.31999366666665,125.6375331648974,64.22780280112462,1.1,228.0,123.0,0.51953125,-1.74609375,-0.31640625,-0.1171875,-0.041015625,0.08203125,0.0,180.0,360.0
3797301,,,,,,,,0.51953125,-1.74609375,-0.31640625,-0.1171875,-0.041015625,0.08203125,0.0,180.0,360.0
3797302,,,,,,,,0.265625,-1.046875,0.03515625,-0.1171875,-0.041015625,0.08203125,0.0,180.0,360.0
3797303,,,,,,,,0.265625,-1.046875,0.03515625,0.015625,0.25390625,0.08203125,0.0,180.0,360.0
3797304,,,,,,,,0.265625,-1.046875,0.03515625,0.1484375,0.40234375,-0.029296875,0.0,180.0,360.0
3797305,,,,,,,,1.1796875,-1.19140625,2.17578125,0.1484375,0.40234375,-0.029296875,0.0,180.0,360.0
3797306,,,,,,,,1.1796875,-1.19140625,2.17578125,0.099609375,0.42578125,-0.205078125,0.0,180.0,360.0
3797307,,,,,,,,0.25390625,-0.0859375,1.28515625,0.099609375,0.42578125,-0.205078125,0.0,180.0,360.0
3797308,,,,,,,,0.25390625,-0.0859375,1.28515625,-0.09765625,0.232421875,-0.2734375,0.0,180.0,360.0
3797309,,,,,,,,0.25390625,-0.0859375,1.28515625,0.142578125,0.244140625,-0.28515625,0.0,180.0,360.0
3797310,36.012978,129.31999266666665,125.54738557420697,64.13533547753032,1.2000000000000002,224.0,,-0.4296875,-1.3515625,2.12109375,0.142578125,0.244140625,-0.28515625,0.0,180.0,360.0
3797311,,,,,,,,-0.4296875,-1.3515625,2.12109375,0.267578125,0.28515625,-0.2265625,0.0,180.0,360.0
3797312,,,,,,,,-0.8125,-0.48046875,1.15234375,0.267578125,0.28515625,-0.2265625,0.0,180.0,360.0
3797313,,,,,,,,-0.8125,-0.48046875,1.15234375,0.224609375,0.251953125,-0.1640625,0.0,180.0,360.0
3797314,,,,,,,,-0.73046875,0.5390625,0.41015625,0.224609375,0.251953125,-0.1640625,0.0,180.0,360.0
3797315,,,,,,,,-0.73046875,0.5390625,0.41015625,0.17578125,0.22265625,-0.154296875,0.0,180.0,360.0
3797316,,,,,,,,-0.28515625,1.60546875,-0.55859375,0.17578125,0.22265625,-0.154296875,0.0,180.0,360.0
3797317,,,,,,,,-0.28515625,1.60546875,-0.55859375,0.20703125,0.177734375,-0.19140625,0.0,180.0,360.0
3797318,,,,,,,,-0.62890625,2.1640625,-0.7265625,0.20703125,0.177734375,-0.19140625,0.0,180.0,360.0
3797319,,,,,,,,-0.62890625,2.1640625,-0.7265625,0.212890625,0.138671875,-0.212890625,0.0,180.0,360.0
3797320,36.01297733333333,129.31999183333335,125.47226254083445,64.06136157656576,1.1,224.0,,-0.62890625,2.1640625,-0.7265625,0.162109375,0.07421875,-0.181640625,0.0,180.0,360.0
3797321,,,,,,,,-1.0625,2.37890625,-0.98046875,0.162109375,0.07421875,-0.181640625,0.0,180.0,360.0
3797322,,,,,,,,-1.0625,2.37890625,-0.98046875,0.123046875,0.033203125,-0.126953125,0.0,180.0,360.0
3797323,,,,,,,,-1.4765625,2.29296875,-1.05078125,0.123046875,0.033203125,-0.126953125,0.0,180.0,360.0
3797324,,,,,,,,-1.4765625,2.29296875,-1.05078125,0.1171875,0.0078125,-0.07421875,0.0,180.0,360.0
3797325,,,,,,,,-1.421875,2.09375,-0.8828125,0.1171875,0.0078125,-0.07421875,0.0,180.0,360.0
3797326,,,,,,,,-1.421875,2.09375,-0.8828125,0.13671875,0.01953125,-0.048828125,0.0,180.0,360.0
3797327,,,,,,,,-0.96875,1.80859375,-1.10546875,0.13671875,0.01953125,-0.048828125,0.0,180.0,360.0
3797328,,,,,,,,-0.96875,1.80859375,-1.10546875,0.13671875,0.01953125,-0.048828125,0.0,180.0,360.0
3797329,,,,,,,,-0.96875,1.80859375,-1.10546875,0.14453125,0.07421875,-0.06640625,0.0,180.0,360.0
3797330,36.01297666666667,129.31999066666668,125.36708986436079,63.98738724742806,1.2000000000000002,225.0,,-0.671875,1.83203125,-1.2890625,0.14453125,0.07421875,-0.06640625,0.0,180.0,360.0
3797331,,,,,,,,-0.671875,1.83203125,-1.2890625,0.068359375,0.08984375,-0.076171875,0.0,180.0,360.0
3797332,,,,,,,,-0.6015625,1.42578125,-1.3984375,0.068359375,0.08984375,-0.076171875,0.0,180.0,360.0
3797333,,,,,,,,-0.6015625,1.42578125,-1.3984375,0.04296875,0.091796875,-0.076171875,0.0,180.0,360.0
3797334,,,,,,,,-0.76953125,0.765625,-1.18359375,0.04296875,0.091796875,-0.076171875,0.0,180.0,360.0
