time,latitude,longitude,enu_x,enu_y,speed,course,Hrage,accX,accY,accZ,gyrX,gyrY,gyrZ,eulR,eulP,eulY
3802400,36.01251516666667,129.31928483333334,61.73734121238095,12.779021776364484,1.3,54.0,123.0,-1.78125,-2.015625,4.62109375,0.041015625,0.208984375,0.05078125,0.0,180.0,360.0
3802401,,,,,,,,-1.78125,-2.015625,4.62109375,0.041015625,0.208984375,0.05078125,0.0,180.0,360.0
3802402,,,,,,,,0.89453125,-1.671875,3.1484375,0.041015625,0.208984375,0.05078125,0.0,180.0,360.0
3802403,,,,,,,,0.89453125,-1.671875,3.1484375,0.142578125,0.0078125,-0.1328125,0.0,180.0,360.0
3802404,,,,,,,,-0.54296875,2.6484375,-0.4140625,0.142578125,0.0078125,-0.1328125,0.0,180.0,360.0
3802405,,,,,,,,-0.54296875,2.6484375,-0.4140625,0.185546875,-0.0390625,-0.12890625,0.0,180.0,360.0
3802406,,,,,,,,-0.54296875,2.6484375,-0.4140625,0.177734375,-0.064453125,-0.1015625,0.0,180.0,360.0
3802407,,,,,,,,-1.0859375,3.24609375,-0.76171875,0.177734375,-0.064453125,-0.1015625,0.0,180.0,360.0
3802408,,,,,,,,-1.0859375,3.24609375,-0.76171875,0.18359375,-0.07421875,-0.05078125,0.0,180.0,360.0
3802409,,,,,,,,-1.0859375,3.24609375,-0.76171875,0.18359375,-0.07421875,-0.05078125,0.0,180.0,360.0
3802410,36.01251633333333,129.31928666666667,61.90261427170215,12.908475377044166,1.2000000000000002,50.0,,-1.0859375,3.24609375,-0.76171875,0.185546875,-0.09765625,0.013671875,0.0,180.0,360.0
3802411,,,,,,,,-1.45703125,2.87109375,-0.75,0.185546875,-0.09765625,0.013671875,0.0,180.0,360.0
3802412,,,,,,,,-1.45703125,2.87109375,-0.75,0.154296875,-0.126953125,0.08203125,0.0,180.0,360.0
3802413,,,,,,,,-1.45703125,2.87109375,-0.75,0.12109375,-0.142578125,0.111328125,0.0,180.0,360.0
3802414,,,,,,,,-1.171875,2.48046875,-0.796875,0.12109375,-0.142578125,0.111328125,0.0,180.0,360.0
3802415,,,,,,,,-1.171875,2.48046875,-0.796875,0.107421875,-0.099609375,0.111328125,0.0,180.0,360.0
3802416,,,,,,,,-0.84765625,2.28125,-0.7421875,0.107421875,-0.099609375,0.111328125,0.0,180.0,360.0
3802417,,,,,,,,-0.84765625,2.28125,-0.7421875,0.029296875,-0.025390625,0.087890625,0.0,180.0,360.0
3802418,,,,,,,,-0.3203125,1.88671875,-0.8125,0.029296875,-0.025390625,0.087890625,0.0,180.0,360.0
3802419,,,,,,,,-0.3203125,1.88671875,-0.8125,-0.119140625,0.015625,0.04296875,0.0,180.0,360.0
3802420,36.01251666666667,129.3192885,62.06788797912948,12.945462954795676,1.3,56.0,,-0.3203125,1.88671875,-0.8125,-0.26171875,-0.01171875,-0.01171875,0.0,180.0,360.0
3802421,,,,,,,,-0.3046875,0.203125,-0.62109375,-0.26171875,-0.01171875,-0.01171875,0.0,180.0,360.0
3802422,,,,,,,,-0.3046875,0.203125,-0.62109375,-0.326171875,-0.091796875,-0.03515625,0.0,180.0,360.0
3802423,,,,,,,,-0.54296875,-1.3203125,-0.3359375,-0.326171875,-0.091796875,-0.03515625,0.0,180.0,360.0
3802424,,,,,,,,-0.54296875,-1.3203125,-0.3359375,-0.3125,-0.1015625,-0.0234375,0.0,180.0,360.0
3802425,,,,,,,,-0.625,-2.43359375,0.1015625,-0.3125,-0.1015625,-0.0234375,0.0,180.0,360.0
3802426,,,,,,,,-0.625,-2.43359375,0.1015625,-0.279296875,0.064453125,-0.0390625,0.0,180.0,360.0
3802427,,,,,,,,-0.21484375,-2.34765625,0.15625,-0.279296875,0.064453125,-0.0390625,0.0,180.0,360.0
3802428,,,,,,,,-0.21484375,-2.34765625,0.15625,-0.30859375,0.19921875,-0.0703125,0.0,180.0,360.0
3802429,,,,,,,,-0.21484375,-2.34765625,0.15625,-0.30859375,0.19921875,-0.0703125,0.0,180.0,360.0
3802430,36.012517333333335,129.31928933333333,62.14301198785274,13.019436308450388,1.2000000000000002,54.0,,-0.21484375,-2.34765625,0.15625,-0.421875,0.197265625,-0.08203125,0.0,180.0,360.0
3802431,,,,,,,,-1.29296875,-0.109375,-0.8203125,-0.421875,0.197265625,-0.08203125,0.0,180.0,360.0
3802432,,,,,,,,-1.29296875,-0.109375,-0.8203125,-0.787109375,-0.013671875,0.001953125,0.0,180.0,360.0
3802433,,,,,,,,-1.29296875,-0.109375,-0.8203125,-0.900390625,-0.2890625,0.046875,0.0,180.0,360.0
3802434,,,,,,,,-1.1796875,-2.140625,-0.15625,-0.900390625,-0.2890625,0.046875,0.0,180.0,360.0
3802435,,,,,,,,-1.1796875,-2.140625,-0.15625,-0.900390625,-0.2890625,0.046875,0.0,180.0,360.0
3802436,,,,,,,,-1.1796875,-2.140625,-0.15625,-0.6875,-0.3984375,0.01171875,0.0,180.0,360.0
3802437,,,,,,,,3.32421875,-4.0625,3.12890625,-0.6875,-0.3984375,0.01171875,0.0,180.0,360.0
3802438,,,,,,,,3.32421875,-4.0625,3.12890625,0.359375,0.125,-0.2265625,0.0,180.0,360.0
3802439,,,,,,,,1.83984375,-3.11328125,3.46484375,0.359375,0.125,-0.2265625,0.0,180.0,360.0
3802440,36.012518,129.3192905,62.24818580776574,13.093409874828364,1.2000000000000002,54.0,,1.83984375,-3.11328125,3.46484375,0.64453125,-0.04296875,-0.162109375,0.0,180.0,360.0
3802441,,,,,,,,-1.21875,-2.4765625,2.41015625,0.64453125,-0.04296875,-0.162109375,0.0,180.0,360.0
3802442,,,,,,,,-1.21875,-2.4765625,2.41015625,0.544921875,-0.30078125,0.017578125,0.0,180.0,360.0
3802443,,,,,,,,-0.69921875,-0.80078125,1.3828125,0.544921875,-0.30078125,0.017578125,0.0,180.0,360.0
3802444,,,,,,,,-0.69921875,-0.80078125,1.3828125,0.12890625,-0.55078125,0.310546875,0.0,180.0,360.0
3802445,,,,,,,,-0.69921875,-0.80078125,1.3828125,0.1484375,-0.5703125,0.439453125,0.0,180.0,360.0
3802446,,,,,,,,0.0546875,-1.60546875,1.46484375,0.1484375,-0.5703125,0.439453125,0.0,180.0,360.0
3802447,,,,,,,,0.0546875,-1.60546875,1.46484375,0.291015625,-0.5,0.412109375,0.0,180.0,360.0
3802448,,,,,,,,0.61328125,0.2890625,0.35546875,0.291015625,-0.5,0.412109375,0.0,180.0,360.0
3802449,,,,,,,,0.61328125,0.2890625,0.35546875,0.291015625,-0.5,0.412109375,0.0,180.0,360.0
3802450,36.01251833333333,129.31929183333332,62.36838479266326,13.130397137209485,1.2000000000000002,57.0,,0.61328125,0.2890625,0.35546875,0.40234375,-0.3828125,0.349609375,0.0,180.0,360.0
3802451,,,,,,,,0.43359375,2.3515625,-0.7890625,0.40234375,-0.3828125,0.349609375,0.0,180.0,360.0
3802452,,,,,,,,0.43359375,2.3515625,-0.7890625,0.388671875,-0.328125,0.34375,0.0,180.0,360.0
3802453,,,,,,,,0.43359375,2.3515625,-0.7890625,0.3671875,-0.23828125,0.322265625,0.0,180.0,360.0
3802454,,,,,,,,0.6953125,3.0703125,-1.12890625,0.3671875,-0.23828125,0.322265625,0.0,180.0,360.0
3802455,,,,,,,,0.6953125,3.0703125,-1.12890625,0.33203125,-0.19140625,0.283203125,0.0,180.0,360.0
3802456,,,,,,,,0.98046875,3.90625,-1.34375,0.33203125,-0.19140625,0.283203125,0.0,180.0,360.0
3802457,,,,,,,,0.98046875,3.90625,-1.34375,0.2734375,-0.166015625,0.224609375,0.0,180.0,360.0
3802458,,,,,,,,1.33203125,3.27734375,-1.4375,0.2734375,-0.166015625,0.224609375,0.0,180.0,360.0
3802459,,,,,,,,1.33203125,3.27734375,-1.4375,0.26171875,-0.0546875,0.12890625,0.0,180.0,360.0
3802460,36.012518500000006,129.319293,62.47355900350399,13.148891091414093,1.2000000000000002,57.0,,1.33203125,3.27734375,-1.4375,0.26171875,-0.0546875,0.12890625,0.0,180.0,360.0
3802461,,,,,,,,1.33203125,3.27734375,-1.4375,0.2890625,0.134765625,0.03125,0.0,180.0,360.0
3802462,,,,,,,,1.6015625,2.78515625,-1.2109375,0.2890625,0.134765625,0.03125,0.0,180.0,360.0
3802463,,,,,,,,1.6015625,2.78515625,-1.2109375,0.326171875,0.2109375,-0.046875,0.0,180.0,360.0
3802464,,,,,,,,1.6015625,2.78515625,-1.2109375,0.341796875,0.294921875,-0.109375,0.0,180.0,360.0
3802465,,,,,,,,1.2109375,2.03515625,-1.2265625,0.341796875,0.294921875,-0.109375,0.0,180.0,360.0
3802466,,,,,,,,1.2109375,2.03515625,-1.2265625,0.33984375,0.29296875,-0.119140625,0.0,180.0,360.0
3802467,,,,,,,,0.93359375,1.3984375,-1.0234375,0.33984375,0.29296875,-0.119140625,0.0,180.0,360.0
3802468,,,,,,,,0.93359375,1.3984375,-1.0234375,0.318359375,0.3046875,-0.08203125,0.0,180.0,360.0
3802469,,,,,,,,0.93359375,1.3984375,-1.0234375,0.318359375,0.3046875,-0.08203125,0.0,180.0,360.0
3802470,36.012519,129.31929383333332,62.5486831363459,13.204371240537274,1.2000000000000002,55.0,,0.93359375,1.3984375,-1.0234375,0.267578125,0.25390625,-0.021484375,0.0,180.0,360.0
3802471,,,,,,,,0.69140625,-0.79296875,-0.11328125,0.267578125,0.25390625,-0.021484375,0.0,180.0,360.0
3802472,,,,,,,,0.69140625,-0.79296875,-0.11328125,0.21875,0.224609375,0.017578125,0.0,180.0,360.0
3802473,,,,,,,,0.69140625,-0.79296875,-0.11328125,0.087890625,0.171875,0.07421875,0.0,180.0,360.0
3802474,,,,,,,,0.8984375,-0.93359375,-0.3984375,0.087890625,0.171875,0.07421875,0.0,180.0,360.0
3802475,,,,,,,,0.8984375,-0.93359375,-0.3984375,0.029296875,0.2109375,0.08203125,0.0,180.0,360.0
3802476,,,,,,,,0.875,-2.3203125,0.12890625,0.029296875,0.2109375,0.08203125,0.0,180.0,360.0
3802477,,,,,,,,0.875,-2.3203125,0.12890625,-0.025390625,0.25390625,0.087890625,0.0,180.0,360.0
3802478,,,,,,,,0.4375,-1.1328125,0.19140625,-0.025390625,0.25390625,0.087890625,0.0,180.0,360.0
3802479,,,,,,,,0.4375,-1.1328125,0.19140625,-0.564453125,0.1640625,0.16796875,0.0,180.0,360.0
3802480,36.0125195,129.31929516666665,62.66888198740135,13.259851714895223,1.3,56.0,,0.4375,-1.1328125,0.19140625,-0.564453125,0.1640625,0.16796875,0.0,180.0,360.0
3802481,,,,,,,,0.4375,-1.1328125,0.19140625,-0.7890625,0.06640625,0.134765625,0.0,180.0,360.0
3802482,,,,,,,,0.59375,-3.859375,0.47265625,-0.7890625,0.06640625,0.134765625,0.0,180.0,360.0
3802483,,,,,,,,0.59375,-3.859375,0.47265625,-0.509765625,0.025390625,0.064453125,0.0,180.0,360.0
3802484,,,,,,,,0.59375,-3.859375,0.47265625,0.01953125,0.015625,0.0078125,0.0,180.0,360.0
3802485,,,,,,,,-1.125,-3.7578125,3.79296875,0.01953125,0.015625,0.0078125,0.0,180.0,360.0
3802486,,,,,,,,-1.125,-3.7578125,3.79296875,0.255859375,0.048828125,0.01171875,0.0,180.0,360.0
3802487,,,,,,,,-1.69921875,-2.53125,3.37109375,0.255859375,0.048828125,0.01171875,0.0,180.0,360.0
3802488,,,,,,,,-1.69921875,-2.53125,3.37109375,0.255859375,0.048828125,0.01171875,0.0,180.0,360.0
3802489,,,,,,,,-1.69921875,-2.53125,3.37109375,0.125,0.28125,-0.06640625,0.0,180.0,360.0
3802490,36.012520333333335,129.319296,62.744005859105464,13.352318277559455,1.2000000000000002,53.0,,1.44921875,-1.93359375,3.20703125,0.125,0.28125,-0.06640625,0.0,180.0,360.0
3802491,,,,,,,,1.44921875,-1.93359375,3.20703125,0.146484375,0.171875,-0.34375,0.0,180.0,360.0
3802492,,,,,,,,0.1015625,-0.87890625,2.66796875,0.146484375,0.171875,-0.34375,0.0,180.0,360.0
3802493,,,,,,,,0.1015625,-0.87890625,2.66796875,0.04296875,0.0859375,-0.4140625,0.0,180.0,360.0
3802494,,,,,,,,-0.4296875,-0.6875,2.5703125,0.04296875,0.0859375,-0.4140625,0.0,180.0,360.0
3802495,,,,,,,,-0.4296875,-0.6875,2.5703125,0.158203125,0.19921875,-0.4296875,0.0,180.0,360.0
3802496,,,,,,,,-0.66015625,-0.6484375,1.734375,0.158203125,0.19921875,-0.4296875,0.0,180.0,360.0
3802497,,,,,,,,-0.66015625,-0.6484375,1.734375,0.140625,0.1875,-0.3828125,0.0,180.0,360.0
3802498,,,,,,,,-0.8828125,0.484375,0.8984375,0.140625,0.1875,-0.3828125,0.0,180.0,360.0
3802499,,,,,,,,-0.8828125,0.484375,0.8984375,0.10546875,0.107421875,-0.357421875,0.0,180.0,360.0
3802500,36.012521666666665,129.31929833333334,62.95435347765246,13.500265426328394,1.4000000000000001,48.0,123.0,-0.8828125,0.484375,0.8984375,0.10546875,0.107421875,-0.357421875,0.0,180.0,360.0
3802501,,,,,,,,-0.8828125,0.484375,0.8984375,0.10546875,0.107421875,-0.357421875,0.0,180.0,360.0
3802502,,,,,,,,-0.40234375,1.92578125,-0.3046875,0.10546875,0.107421875,-0.357421875,0.0,180.0,360.0
3802503,,,,,,,,-0.40234375,1.92578125,-0.3046875,0.130859375,0.046875,-0.36328125,0.0,180.0,360.0
3802504,,,,,,,,-0.41796875,-1.41015625,0.0703125,0.130859375,0.046875,-0.36328125,0.0,180.0,360.0
3802505,,,,,,,,-0.41796875,-1.41015625,0.0703125,0.28515625,-0.05859375,-0.0390625,0.0,180.0,360.0
3802506,,,,,,,,-0.41796875,-1.41015625,0.0703125,0.197265625,0.0234375,-0.095703125,0.0,180.0,360.0
3802507,,,,,,,,-0.6328125,-0.8203125,-0.375,0.197265625,0.0234375,-0.095703125,0.0,180.0,360.0
3802508,,,,,,,,-0.6328125,-0.8203125,-0.375,-0.0546875,0.0234375,-0.12890625,0.0,180.0,360.0
3802509,,,,,,,,-0.5390625,-0.97265625,-0.62890625,-0.0546875,0.0234375,-0.12890625,0.0,180.0,360.0
3802510,36.012522833333335,129.31930033333336,63.13465141204465,13.629719159337682,1.2000000000000002,50.0,,-0.5390625,-0.97265625,-0.62890625,-0.3671875,0.03125,-0.13671875,0.0,180.0,360.0
3802511,,,,,,,,-0.5390625,-0.97265625,-0.62890625,-0.47265625,0.177734375,-0.19140625,0.0,180.0,360.0
3802512,,,,,,,,0.1640625,-1.1875,-0.42578125,-0.47265625,0.177734375,-0.19140625,0.0,180.0,360.0
3802513,,,,,,,,0.1640625,-1.1875,-0.42578125,-0.53515625,0.23046875,-0.203125,0.0,180.0,360.0
3802514,,,,,,,,-0.703125,0.08984375,-0.00390625,-0.53515625,0.23046875,-0.203125,0.0,180.0,360.0
3802515,,,,,,,,-0.703125,0.08984375,-0.00390625,-0.791015625,-0.02734375,-0.09765625,0.0,180.0,360.0
3802516,,,,,,,,-2.05859375,-0.61328125,0.05859375,-0.791015625,-0.02734375,-0.09765625,0.0,180.0,360.0
3802517,,,,,,,,-2.05859375,-0.61328125,0.05859375,-0.791015625,-0.02734375,-0.09765625,0.0,180.0,360.0
3802518,,,,,,,,-2.05859375,-0.61328125,0.05859375,-0.92578125,-0.43359375,0.029296875,0.0,180.0,360.0
3802519,,,,,,,,1.51171875,-3.4375,2.51171875,-0.92578125,-0.43359375,0.029296875,0.0,180.0,360.0
3802520,36.012523333333334,129.31930133333333,63.22480044169291,13.685199423210435,1.1,53.0,,1.51171875,-3.4375,2.51171875,-0.52734375,-0.287109375,-0.11328125,0.0,180.0,360.0
3802521,,,,,,,,1.51171875,-3.4375,2.51171875,0.01953125,0.04296875,-0.298828125,0.0,180.0,360.0
3802522,,,,,,,,3.72265625,-3.03125,3.5703125,0.01953125,0.04296875,-0.298828125,0.0,180.0,360.0
3802523,,,,,,,,3.72265625,-3.03125,3.5703125,0.408203125,0.005859375,-0.271484375,0.0,180.0,360.0
3802524,,,,,,,,1.44921875,-3.84375,4.07421875,0.408203125,0.005859375,-0.271484375,0.0,180.0,360.0
3802525,,,,,,,,1.44921875,-3.84375,4.07421875,0.53125,0.18359375,-0.1484375,0.0,180.0,360.0
3802526,,,,,,,,0.7890625,-2.11328125,2.09375,0.53125,0.18359375,-0.1484375,0.0,180.0,360.0
3802527,,,,,,,,0.7890625,-2.11328125,2.09375,0.1875,0.171875,0.109375,0.0,180.0,360.0
3802528,,,,,,,,0.7890625,-2.11328125,2.09375,0.103515625,0.130859375,0.232421875,0.0,180.0,360.0
3802529,,,,,,,,0.22265625,-1.30859375,1.52734375,0.103515625,0.130859375,0.232421875,0.0,180.0,360.0
3802530,36.01252383333333,129.31930216666666,63.2999245677277,13.74067958089741,1.2000000000000002,53.0,,0.22265625,-1.30859375,1.52734375,0.146484375,0.099609375,0.271484375,0.0,180.0,360.0
3802531,,,,,,,,-0.26171875,-0.7734375,1.265625,0.146484375,0.099609375,0.271484375,0.0,180.0,360.0
3802532,,,,,,,,-0.26171875,-0.7734375,1.265625,0.109375,0.044921875,0.322265625,0.0,180.0,360.0
3802533,,,,,,,,-0.6640625,0.27734375,0.5,0.109375,0.044921875,0.322265625,0.0,180.0,360.0
3802534,,,,,,,,-0.6640625,0.27734375,0.5,0.060546875,-0.03125,0.390625,0.0,180.0,360.0
3802535,,,,,,,,-0.75390625,2.5078125,-0.671875,0.060546875,-0.03125,0.390625,0.0,180.0,360.0
3802536,,,,,,,,-0.75390625,2.5078125,-0.671875,0.056640625,-0.03125,0.419921875,0.0,180.0,360.0
3802537,,,,,,,,-0.21875,3.48046875,-1.1953125,0.056640625,-0.03125,0.419921875,0.0,180.0,360.0
3802538,,,,,,,,-0.21875,3.48046875,-1.1953125,0.1015625,-0.03125,0.39453125,0.0,180.0,360.0
3802539,,,,,,,,-0.21875,3.48046875,-1.1953125,0.087890625,-0.01171875,0.333984375,0.0,180.0,360.0
3802540,36.012524500000005,129.31930383333332,63.45017308218385,13.81465348783691,1.1,54.0,,0.4296875,3.83203125,-1.41796875,0.087890625,-0.01171875,0.333984375,0.0,180.0,360.0
3802541,,,,,,,,0.4296875,3.83203125,-1.41796875,0.0078125,0.0546875,0.240234375,0.0,180.0,360.0
3802542,,,,,,,,1.09765625,3.640625,-1.84765625,0.0078125,0.0546875,0.240234375,0.0,180.0,360.0
3802543,,,,,,,,1.09765625,3.640625,-1.84765625,0.0,0.15625,0.14453125,0.0,180.0,360.0
3802544,,,,,,,,1.2578125,3.14453125,-1.74609375,0.0,0.15625,0.14453125,0.0,180.0,360.0
3802545,,,,,,,,1.2578125,3.14453125,-1.74609375,0.05859375,0.291015625,0.052734375,0.0,180.0,360.0
3802546,,,,,,,,1.13671875,2.03125,-1.36328125,0.05859375,0.291015625,0.052734375,0.0,180.0,360.0
3802547,,,,,,,,1.13671875,2.03125,-1.36328125,0.05859375,0.291015625,0.052734375,0.0,180.0,360.0
3802548,,,,,,,,1.13671875,2.03125,-1.36328125,0.220703125,0.4296875,-0.0390625,0.0,180.0,360.0
3802549,,,,,,,,0.73046875,1.51953125,-1.03515625,0.220703125,0.4296875,-0.0390625,0.0,180.0,360.0
3802550,36.012525,129.31930483333332,63.54032211065526,13.870133754000367,1.1,55.0,,0.73046875,1.51953125,-1.03515625,0.248046875,0.3671875,-0.06640625,0.0,180.0,360.0
3802551,,,,,,,,0.5546875,0.9609375,-0.96875,0.248046875,0.3671875,-0.06640625,0.0,180.0,360.0
3802552,,,,,,,,0.5546875,0.9609375,-0.96875,0.177734375,0.259765625,-0.041015625,0.0,180.0,360.0
3802553,,,,,,,,0.37109375,0.28515625,-0.78515625,0.177734375,0.259765625,-0.041015625,0.0,180.0,360.0
3802554,,,,,,,,0.37109375,0.28515625,-0.78515625,0.185546875,0.2109375,-0.013671875,0.0,180.0,360.0
3802555,,,,,,,,0.21875,-0.91015625,-0.12890625,0.185546875,0.2109375,-0.013671875,0.0,180.0,360.0
3802556,,,,,,,,0.21875,-0.91015625,-0.12890625,0.09765625,0.03515625,0.068359375,0.0,180.0,360.0
3802557,,,,,,,,-0.265625,-0.97265625,-0.06640625,0.09765625,0.03515625,0.068359375,0.0,180.0,360.0
3802558,,,,,,,,-0.265625,-0.97265625,-0.06640625,-0.0625,-0.10546875,0.12890625,0.0,180.0,360.0
3802559,,,,,,,,-0.265625,-0.97265625,-0.06640625,-0.162109375,-0.185546875,0.1484375,0.0,180.0,360.0
3802560,36.012525833333335,129.31930583333332,63.63047086704757,13.962600435788627,1.2000000000000002,51.0,,-0.234375,-2.16015625,-0.2734375,-0.162109375,-0.185546875,0.1484375,0.0,180.0,360.0
3802561,,,,,,,,-0.234375,-2.16015625,-0.2734375,-0.423828125,-0.1484375,0.171875,0.0,180.0,360.0
3802562,,,,,,,,0.51171875,0.390625,-0.37890625,-0.423828125,-0.1484375,0.171875,0.0,180.0,360.0
3802563,,,,,,,,0.51171875,0.390625,-0.37890625,-0.998046875,-0.21875,0.216796875,0.0,180.0,360.0
3802564,,,,,,,,1.3359375,-0.07421875,-0.8359375,-0.998046875,-0.21875,0.216796875,0.0,180.0,360.0
3802565,,,,,,,,1.3359375,-0.07421875,-0.8359375,-1.021484375,-0.041015625,0.072265625,0.0,180.0,360.0
3802566,,,,,,,,0.09765625,-2.93359375,2.515625,-1.021484375,-0.041015625,0.072265625,0.0,180.0,360.0
3802567,,,,,,,,0.09765625,-2.93359375,2.515625,-1.021484375,-0.041015625,0.072265625,0.0,180.0,360.0
3802568,,,,,,,,0.09765625,-2.93359375,2.515625,-0.447265625,-0.103515625,0.05859375,0.0,180.0,360.0
3802569,,,,,,,,-1.2421875,-3.875,2.46484375,-0.447265625,-0.103515625,0.05859375,0.0,180.0,360.0
3802570,36.012526333333334,129.3193065,63.690570086326076,14.01808048682885,1.1,50.0,,-1.2421875,-3.875,2.46484375,0.09375,0.111328125,0.0703125,0.0,180.0,360.0
3802571,,,,,,,,-1.640625,-2.671875,3.796875,0.09375,0.111328125,0.0703125,0.0,180.0,360.0
3802572,,,,,,,,-1.640625,-2.671875,3.796875,0.169921875,0.302734375,-0.04296875,0.0,180.0,360.0
3802573,,,,,,,,0.13671875,-3.0234375,2.54296875,0.169921875,0.302734375,-0.04296875,0.0,180.0,360.0
3802574,,,,,,,,0.13671875,-3.0234375,2.54296875,0.37890625,0.30078125,-0.232421875,0.0,180.0,360.0
3802575,,,,,,,,0.92578125,-2.72265625,2.37109375,0.37890625,0.30078125,-0.232421875,0.0,180.0,360.0
3802576,,,,,,,,0.92578125,-2.72265625,2.37109375,0.234375,0.169921875,-0.310546875,0.0,180.0,360.0
3802577,,,,,,,,0.92578125,-2.72265625,2.37109375,0.234375,0.169921875,-0.310546875,0.0,180.0,360.0
3802578,,,,,,,,0.92578125,-2.72265625,2.37109375,0.07421875,0.158203125,-0.318359375,0.0,180.0,360.0
3802579,,,,,,,,-0.37890625,-0.1796875,0.8984375,0.07421875,0.158203125,-0.318359375,0.0,180.0,360.0
3802580,36.012527,129.3193075,63.78071897679369,14.09205396150535,1.2000000000000002,49.0,,-0.37890625,-0.1796875,0.8984375,0.111328125,0.1875,-0.3203125,0.0,180.0,360.0
3802581,,,,,,,,-0.37890625,-0.1796875,0.8984375,0.103515625,0.1953125,-0.33984375,0.0,180.0,360.0
3802582,,,,,,,,-0.2265625,1.640625,-0.296875,0.103515625,0.1953125,-0.33984375,0.0,180.0,360.0
3802583,,,,,,,,-0.2265625,1.640625,-0.296875,0.05859375,0.208984375,-0.33984375,0.0,180.0,360.0
3802584,,,,,,,,-0.3203125,2.36328125,-0.8203125,0.05859375,0.208984375,-0.33984375,0.0,180.0,360.0
3802585,,,,,,,,-0.3203125,2.36328125,-0.8203125,0.09765625,0.22265625,-0.34765625,0.0,180.0,360.0
3802586,,,,,,,,-0.55859375,2.890625,-0.8359375,0.09765625,0.22265625,-0.34765625,0.0,180.0,360.0
3802587,,,,,,,,-0.55859375,2.890625,-0.8359375,0.09765625,0.22265625,-0.34765625,0.0,180.0,360.0
3802588,,,,,,,,-0.55859375,2.890625,-0.8359375,0.095703125,0.169921875,-0.3203125,0.0,180.0,360.0
3802589,,,,,,,,-1.41015625,2.99609375,-1.53125,0.095703125,0.169921875,-0.3203125,0.0,180.0,360.0
3802590,36.012527999999996,129.31930816666667,63.84081778651086,14.203013631341037,1.2000000000000002,44.0,,-1.41015625,2.99609375,-1.53125,0.123046875,0.119140625,-0.22265625,0.0,180.0,360.0
3802591,,,,,,,,-1.55859375,2.74609375,-1.48828125,0.123046875,0.119140625,-0.22265625,0.0,180.0,360.0
3802592,,,,,,,,-1.55859375,2.74609375,-1.48828125,0.166015625,0.080078125,-0.150390625,0.0,180.0,360.0
3802593,,,,,,,,-1.734375,2.57421875,-1.44921875,0.166015625,0.080078125,-0.150390625,0.0,180.0,360.0
3802594,,,,,,,,-1.734375,2.57421875,-1.44921875,0.177734375,0.0078125,-0.095703125,0.0,180.0,360.0
3802595,,,,,,,,-1.8359375,2.22265625,-1.51953125,0.177734375,0.0078125,-0.095703125,0.0,180.0,360.0
3802596,,,,,,,,-1.8359375,2.22265625,-1.51953125,0.232421875,-0.02734375,-0.076171875,0.0,180.0,360.0
3802597,,,,,,,,-1.8359375,2.22265625,-1.51953125,0.232421875,-0.02734375,-0.076171875,0.0,180.0,360.0
3802598,,,,,,,,-1.8359375,2.22265625,-1.51953125,0.251953125,-0.0234375,-0.056640625,0.0,180.0,360.0
3802599,,,,,,,,-1.29296875,0.71875,-1.23828125,0.251953125,-0.0234375,-0.056640625,0.0,180.0,360.0
3802600,36.012529,129.31931016666667,64.0211158280348,14.313974176641636,1.2000000000000002,49.0,123.0,-1.29296875,0.71875,-1.23828125,0.251953125,-0.0234375,-0.056640625,0.0,180.0,360.0
3802601,,,,,,,,-1.29296875,0.71875,-1.23828125,0.251953125,-0.0234375,-0.056640625,0.0,180.0,360.0
3802602,,,,,,,,-1.29296875,0.71875,-1.23828125,0.22265625,-0.048828125,-0.0390625,0.0,180.0,360.0
3802603,,,,,,,,-1.29296875,0.71875,-1.23828125,0.216796875,-0.091796875,-0.060546875,0.0,180.0,360.0
3802604,,,,,,,,2.16015625,-2.6796875,3.87890625,0.216796875,-0.091796875,-0.060546875,0.0,180.0,360.0
3802605,,,,,,,,2.16015625,-2.6796875,3.87890625,0.73828125,-0.0390625,-0.16796875,0.0,180.0,360.0
3802606,,,,,,,,2.16015625,-2.6796875,3.87890625,0.78515625,-0.076171875,-0.013671875,0.0,180.0,360.0
3802607,,,,,,,,-0.23046875,-3.37890625,3.00390625,0.78515625,-0.076171875,-0.013671875,0.0,180.0,360.0
3802608,,,,,,,,-0.23046875,-3.37890625,3.00390625,0.28515625,-0.20703125,0.255859375,0.0,180.0,360.0
3802609,,,,,,,,0.359375,-0.22265625,1.97265625,0.28515625,-0.20703125,0.255859375,0.0,180.0,360.0
3802610,36.01253033333333,129.319313,64.27653811270946,14.461921685570701,1.3,55.0,,0.359375,-0.22265625,1.97265625,0.171875,-0.259765625,0.3828125,0.0,180.0,360.0
3802611,,,,,,,,0.3671875,-1.01953125,1.70703125,0.171875,-0.259765625,0.3828125,0.0,180.0,360.0
3802612,,,,,,,,0.3671875,-1.01953125,1.70703125,0.193359375,-0.193359375,0.419921875,0.0,180.0,360.0
3802613,,,,,,,,0.16015625,-0.7890625,1.3671875,0.193359375,-0.193359375,0.419921875,0.0,180.0,360.0
3802614,,,,,,,,0.16015625,-0.7890625,1.3671875,0.1640625,-0.228515625,0.431640625,0.0,180.0,360.0
3802615,,,,,,,,-0.1953125,1.33203125,-0.02734375,0.1640625,-0.228515625,0.431640625,0.0,180.0,360.0
3802616,,,,,,,,-0.1953125,1.33203125,-0.02734375,0.134765625,-0.197265625,0.439453125,0.0,180.0,360.0
3802617,,,,,,,,-0.1953125,1.33203125,-0.02734375,0.14453125,-0.150390625,0.44921875,0.0,180.0,360.0
3802618,,,,,,,,0.02734375,2.4140625,-0.87109375,0.14453125,-0.150390625,0.44921875,0.0,180.0,360.0
3802619,,,,,,,,0.02734375,2.4140625,-0.87109375,0.13671875,-0.109375,0.43359375,0.0,180.0,360.0
3802620,36.01253066666666,129.3193145,64.41176197425273,14.498909086851572,1.4000000000000001,59.0,,0.18359375,3.1015625,-1.27734375,0.13671875,-0.109375,0.43359375,0.0,180.0,360.0
3802621,,,,,,,,0.18359375,3.1015625,-1.27734375,0.150390625,-0.0859375,0.37890625,0.0,180.0,360.0
3802622,,,,,,,,0.3671875,3.6484375,-1.5390625,0.150390625,-0.0859375,0.37890625,0.0,180.0,360.0
3802623,,,,,,,,0.3671875,3.6484375,-1.5390625,0.150390625,-0.0859375,0.37890625,0.0,180.0,360.0
3802624,,,,,,,,0.3671875,3.6484375,-1.5390625,0.125,-0.099609375,0.2421875,0.0,180.0,360.0
3802625,,,,,,,,1.10546875,3.21875,-2.0,0.125,-0.099609375,0.2421875,0.0,180.0,360.0
3802626,,,,,,,,1.10546875,3.21875,-2.0,0.125,-0.099609375,0.2421875,0.0,180.0,360.0
3802627,,,,,,,,1.10546875,3.21875,-2.0,0.115234375,0.044921875,0.10546875,0.0,180.0,360.0
3802628,,,,,,,,0.890625,2.58984375,-1.81640625,0.115234375,0.044921875,0.10546875,0.0,180.0,360.0
3802629,,,,,,,,0.890625,2.58984375,-1.81640625,0.125,0.12109375,0.05078125,0.0,180.0,360.0
3802630,36.01253116666667,129.31931500000002,64.45683627940525,14.554389034862268,1.3,56.0,,0.890625,2.58984375,-1.81640625,0.166015625,0.181640625,0.001953125,0.0,180.0,360.0
3802631,,,,,,,,1.0234375,1.8828125,-1.625,0.166015625,0.181640625,0.001953125,0.0,180.0,360.0
3802632,,,,,,,,1.0234375,1.8828125,-1.625,0.193359375,0.1953125,-0.033203125,0.0,180.0,360.0
3802633,,,,,,,,0.8828125,1.21875,-1.43359375,0.193359375,0.1953125,-0.033203125,0.0,180.0,360.0
3802634,,,,,,,,0.8828125,1.21875,-1.43359375,0.169921875,0.158203125,-0.044921875,0.0,180.0,360.0
3802635,,,,,,,,0.38671875,-0.3359375,-0.640625,0.169921875,0.158203125,-0.044921875,0.0,180.0,360.0
3802636,,,,,,,,0.38671875,-0.3359375,-0.640625,0.185546875,0.056640625,0.0078125,0.0,180.0,360.0
3802637,,,,,,,,0.38671875,-0.3359375,-0.640625,0.146484375,0.078125,0.052734375,0.0,180.0,360.0
3802638,,,,,,,,0.6171875,-0.9375,-0.72265625,0.146484375,0.078125,0.052734375,0.0,180.0,360.0
3802639,,,,,,,,0.6171875,-0.9375,-0.72265625,0.048828125,-0.00390625,0.091796875,0.0,180.0,360.0
3802640,36.0125315,129.31931633333335,64.57703523559897,14.59137632855612,1.2000000000000002,58.0,,0.5546875,-1.40234375,-0.5546875,0.048828125,-0.00390625,0.091796875,0.0,180.0,360.0
3802641,,,,,,,,0.5546875,-1.40234375,-0.5546875,0.005859375,-0.072265625,0.087890625,0.0,180.0,360.0
3802642,,,,,,,,0.6484375,-2.0625,-0.36328125,0.005859375,-0.072265625,0.087890625,0.0,180.0,360.0
3802643,,,,,,,,0.6484375,-2.0625,-0.36328125,0.005859375,-0.072265625,0.087890625,0.0,180.0,360.0
3802644,,,,,,,,0.6484375,-2.0625,-0.36328125,-0.2890625,-0.03515625,0.134765625,0.0,180.0,360.0
3802645,,,,,,,,0.73828125,0.7109375,-0.953125,-0.2890625,-0.03515625,0.134765625,0.0,180.0,360.0
3802646,,,,,,,,0.73828125,0.7109375,-0.953125,-0.2890625,-0.03515625,0.134765625,0.0,180.0,360.0
3802647,,,,,,,,0.73828125,0.7109375,-0.953125,-1.166015625,-0.13671875,0.24609375,0.0,180.0,360.0
3802648,,,,,,,,0.6953125,-4.28125,0.30859375,-1.166015625,-0.13671875,0.24609375,0.0,180.0,360.0
3802649,,,,,,,,0.6953125,-4.28125,0.30859375,-0.787109375,-0.015625,0.068359375,0.0,180.0,360.0
3802650,36.012532666666665,129.3193175,64.68220860689564,14.720829540016332,1.3,52.0,,0.6953125,-4.28125,0.30859375,-0.296875,-0.140625,0.072265625,0.0,180.0,360.0
3802651,,,,,,,,-1.09765625,-3.921875,3.1796875,-0.296875,-0.140625,0.072265625,0.0,180.0,360.0
3802652,,,,,,,,-1.09765625,-3.921875,3.1796875,0.16796875,0.05078125,0.046875,0.0,180.0,360.0
3802653,,,,,,,,-1.39453125,-2.80859375,3.38671875,0.16796875,0.05078125,0.046875,0.0,180.0,360.0
3802654,,,,,,,,-1.39453125,-2.80859375,3.38671875,0.185546875,0.205078125,-0.01171875,0.0,180.0,360.0
3802655,,,,,,,,1.79296875,-2.578125,2.41796875,0.185546875,0.205078125,-0.01171875,0.0,180.0,360.0
3802656,,,,,,,,1.79296875,-2.578125,2.41796875,0.296875,0.421875,-0.193359375,0.0,180.0,360.0
3802657,,,,,,,,1.79296875,-2.578125,2.41796875,0.107421875,0.099609375,-0.322265625,0.0,180.0,360.0
3802658,,,,,,,,-0.31640625,-0.6796875,1.94921875,0.107421875,0.099609375,-0.322265625,0.0,180.0,360.0
3802659,,,,,,,,-0.31640625,-0.6796875,1.94921875,0.01171875,0.07421875,-0.388671875,0.0,180.0,360.0
3802660,36.0125345,129.31932033333334,64.93763045814636,14.924256685854797,1.5,50.0,,-0.2265625,-1.37109375,1.91015625,0.01171875,0.07421875,-0.388671875,0.0,180.0,360.0
3802661,,,,,,,,-0.2265625,-1.37109375,1.91015625,0.1015625,0.158203125,-0.396484375,0.0,180.0,360.0
3802662,,,,,,,,-0.02734375,-1.22265625,1.6953125,0.1015625,0.158203125,-0.396484375,0.0,180.0,360.0
3802663,,,,,,,,-0.02734375,-1.22265625,1.6953125,0.099609375,0.20703125,-0.365234375,0.0,180.0,360.0
3802664,,,,,,,,0.1015625,-0.234375,1.015625,0.099609375,0.20703125,-0.365234375,0.0,180.0,360.0
3802665,,,,,,,,0.1015625,-0.234375,1.015625,0.06640625,0.197265625,-0.341796875,0.0,180.0,360.0
3802666,,,,,,,,0.1015625,-0.234375,1.015625,0.06640625,0.197265625,-0.341796875,0.0,180.0,360.0
3802667,,,,,,,,0.1015625,-0.234375,1.015625,0.115234375,0.16015625,-0.337890625,0.0,180.0,360.0
3802668,,,,,,,,-0.23828125,2.64453125,-0.58984375,0.115234375,0.16015625,-0.337890625,0.0,180.0,360.0
3802669,,,,,,,,-0.23828125,2.64453125,-0.58984375,0.185546875,0.146484375,-0.337890625,0.0,180.0,360.0
3802670,36.012535,129.31932133333333,65.02777946533875,14.979736968031233,1.4000000000000001,51.0,,-0.23828125,2.64453125,-0.58984375,0.19140625,0.123046875,-0.29296875,0.0,180.0,360.0
3802671,,,,,,,,-0.5859375,3.2421875,-0.98046875,0.19140625,0.123046875,-0.29296875,0.0,180.0,360.0
3802672,,,,,,,,-0.5859375,3.2421875,-0.98046875,0.2109375,0.095703125,-0.21484375,0.0,180.0,360.0
3802673,,,,,,,,-1.16796875,3.53125,-1.41015625,0.2109375,0.095703125,-0.21484375,0.0,180.0,360.0
3802674,,,,,,,,-1.16796875,3.53125,-1.41015625,0.232421875,0.0703125,-0.10546875,0.0,180.0,360.0
3802675,,,,,,,,-1.8125,3.66015625,-1.51953125,0.232421875,0.0703125,-0.10546875,0.0,180.0,360.0
3802676,,,,,,,,-1.8125,3.66015625,-1.51953125,0.185546875,-0.015625,0.021484375,0.0,180.0,360.0
3802677,,,,,,,,-1.8125,3.66015625,-1.51953125,0.14453125,-0.123046875,0.109375,0.0,180.0,360.0
3802678,,,,,,,,-1.95703125,2.7578125,-1.6796875,0.14453125,-0.123046875,0.109375,0.0,180.0,360.0
3802679,,,,,,,,-1.95703125,2.7578125,-1.6796875,0.16015625,-0.171875,0.14453125,0.0,180.0,360.0
3802680,36.012535666666665,129.31932216666667,65.10290343222111,15.053710346460296,1.3,50.0,,-1.59765625,2.47265625,-1.55078125,0.16015625,-0.171875,0.14453125,0.0,180.0,360.0
3802681,,,,,,,,-1.59765625,2.47265625,-1.55078125,0.107421875,-0.224609375,0.166015625,0.0,180.0,360.0
3802682,,,,,,,,-1.23046875,2.04296875,-1.4140625,0.107421875,-0.224609375,0.166015625,0.0,180.0,360.0
3802683,,,,,,,,-1.23046875,2.04296875,-1.4140625,0.1015625,-0.25390625,0.150390625,0.0,180.0,360.0
3802684,,,,,,,,-0.984375,1.078125,-1.24609375,0.1015625,-0.25390625,0.150390625,0.0,180.0,360.0
3802685,,,,,,,,-0.984375,1.078125,-1.24609375,0.138671875,-0.267578125,0.08984375,0.0,180.0,360.0
3802686,,,,,,,,-0.984375,1.078125,-1.24609375,0.138671875,-0.267578125,0.08984375,0.0,180.0,360.0
3802687,,,,,,,,-0.984375,1.078125,-1.24609375,0.091796875,-0.23828125,0.037109375,0.0,180.0,360.0
3802688,,,,,,,,-0.25,-1.3203125,-0.6953125,0.091796875,-0.23828125,0.037109375,0.0,180.0,360.0
3802689,,,,,,,,-0.25,-1.3203125,-0.6953125,-0.048828125,-0.13671875,-0.025390625,0.0,180.0,360.0
3802690,36.01253666666666,129.3193231666667,65.1930520271691,15.16467024778878,1.3,47.0,,-0.25,-1.3203125,-0.6953125,-0.291015625,-0.052734375,-0.0625,0.0,180.0,360.0
3802691,,,,,,,,-0.1484375,-1.05078125,-0.82421875,-0.291015625,-0.052734375,-0.0625,0.0,180.0,360.0
3802692,,,,,,,,-0.1484375,-1.05078125,-0.82421875,-0.419921875,0.09375,-0.1328125,0.0,180.0,360.0
3802693,,,,,,,,0.1484375,-0.421875,-0.68359375,-0.419921875,0.09375,-0.1328125,0.0,180.0,360.0
3802694,,,,,,,,0.1484375,-0.421875,-0.68359375,-0.64453125,-0.001953125,-0.1328125,0.0,180.0,360.0
3802695,,,,,,,,-1.68359375,-0.57421875,-0.0234375,-0.64453125,-0.001953125,-0.1328125,0.0,180.0,360.0
3802696,,,,,,,,-1.68359375,-0.57421875,-0.0234375,-1.02734375,-0.51953125,0.0234375,0.0,180.0,360.0
3802697,,,,,,,,-1.68359375,-0.57421875,-0.0234375,-1.02734375,-0.51953125,0.0234375,0.0,180.0,360.0
3802698,,,,,,,,-1.68359375,-0.57421875,-0.0234375,-0.689453125,-0.552734375,-0.048828125,0.0,180.0,360.0
3802699,,,,,,,,1.93359375,-6.2265625,2.51953125,-0.689453125,-0.552734375,-0.048828125,0.0,180.0,360.0
3802700,36.01253783333333,129.31932566666669,65.41842459868337,15.29412436314653,1.4000000000000001,54.0,123.0,1.93359375,-6.2265625,2.51953125,-0.689453125,-0.552734375,-0.048828125,0.0,180.0,360.0
3802701,,,,,,,,1.93359375,-6.2265625,2.51953125,-0.689453125,-0.552734375,-0.048828125,0.0,180.0,360.0
3802702,,,,,,,,1.93359375,-6.2265625,2.51953125,-0.328125,-0.32421875,-0.154296875,0.0,180.0,360.0
3802703,,,,,,,,1.93359375,-6.2265625,2.51953125,0.283203125,0.033203125,-0.271484375,0.0,180.0,360.0
3802704,,,,,,,,1.93359375,-6.2265625,2.51953125,0.12109375,0.041015625,0.359375,0.0,180.0,360.0
3802705,,,,,,,,1.93359375,-6.2265625,2.51953125,0.12109375,0.099609375,0.259765625,0.0,180.0,360.0
3802706,,,,,,,,1.04296875,3.6484375,-2.2265625,0.12109375,0.099609375,0.259765625,0.0,180.0,360.0
3802707,,,,,,,,1.04296875,3.6484375,-2.2265625,0.09765625,0.23046875,0.1484375,0.0,180.0,360.0
3802708,,,,,,,,1.24609375,3.2890625,-2.32421875,0.09765625,0.23046875,0.1484375,0.0,180.0,360.0
3802709,,,,,,,,1.24609375,3.2890625,-2.32421875,0.123046875,0.291015625,0.0625,0.0,180.0,360.0
3802710,36.01253883333333,129.31932716666668,65.55364789285778,15.405084603534597,1.2000000000000002,53.0,,1.046875,2.90625,-2.08203125,0.123046875,0.291015625,0.0625,0.0,180.0,360.0
3802711,,,,,,,,1.046875,2.90625,-2.08203125,0.19921875,0.34375,-0.0078125,0.0,180.0,360.0
3802712,,,,,,,,0.87890625,2.078125,-1.40625,0.19921875,0.34375,-0.0078125,0.0,180.0,360.0
3802713,,,,,,,,0.87890625,2.078125,-1.40625,0.306640625,0.412109375,-0.068359375,0.0,180.0,360.0
3802714,,,,,,,,0.87890625,2.078125,-1.40625,0.306640625,0.412109375,-0.068359375,0.0,180.0,360.0
3802715,,,,,,,,0.87890625,2.078125,-1.40625,0.30078125,0.35546875,-0.091796875,0.0,180.0,360.0
3802716,,,,,,,,0.51171875,0.34375,-0.84375,0.30078125,0.35546875,-0.091796875,0.0,180.0,360.0
3802717,,,,,,,,0.51171875,0.34375,-0.84375,0.22265625,0.28515625,-0.08203125,0.0,180.0,360.0
3802718,,,,,,,,0.51171875,0.34375,-0.84375,0.12890625,0.244140625,-0.04296875,0.0,180.0,360.0
3802719,,,,,,,,0.48046875,-0.453125,-0.46875,0.12890625,0.244140625,-0.04296875,0.0,180.0,360.0
3802720,36.01253933333333,129.319328,65.6287719874956,15.460564780840336,1.2000000000000002,51.0,,0.48046875,-0.453125,-0.46875,-0.03515625,0.169921875,0.033203125,0.0,180.0,360.0
3802721,,,,,,,,0.48828125,-0.64453125,-0.53125,-0.03515625,0.169921875,0.033203125,0.0,180.0,360.0
3802722,,,,,,,,0.48828125,-0.64453125,-0.53125,-0.134765625,0.0703125,0.076171875,0.0,180.0,360.0
3802723,,,,,,,,0.46484375,-2.0625,-0.19921875,-0.134765625,0.0703125,0.076171875,0.0,180.0,360.0
3802724,,,,,,,,0.46484375,-2.0625,-0.19921875,-0.201171875,0.001953125,0.08984375,0.0,180.0,360.0
3802725,,,,,,,,0.46484375,-2.0625,-0.19921875,-0.556640625,-0.046875,0.171875,0.0,180.0,360.0
3802726,,,,,,,,0.3359375,-0.69921875,-0.3828125,-0.556640625,-0.046875,0.171875,0.0,180.0,360.0
3802727,,,,,,,,0.3359375,-0.69921875,-0.3828125,-0.91796875,-0.095703125,0.24609375,0.0,180.0,360.0
3802728,,,,,,,,0.91015625,-1.72265625,-0.51171875,-0.91796875,-0.095703125,0.24609375,0.0,180.0,360.0
3802729,,,,,,,,0.91015625,-1.72265625,-0.51171875,-0.623046875,-0.041015625,0.1171875,0.0,180.0,360.0
3802730,36.01254033333333,129.31932899999998,65.71892056764236,15.571524687653213,1.2000000000000002,48.0,,0.75,-4.44140625,0.52734375,-0.623046875,-0.041015625,0.1171875,0.0,180.0,360.0
3802731,,,,,,,,0.75,-4.44140625,0.52734375,-0.01171875,-0.11328125,0.05859375,0.0,180.0,360.0
3802732,,,,,,,,-1.578125,-4.3359375,3.5078125,-0.01171875,-0.11328125,0.05859375,0.0,180.0,360.0
3802733,,,,,,,,-1.578125,-4.3359375,3.5078125,0.25390625,-0.068359375,0.0859375,0.0,180.0,360.0
3802734,,,,,,,,-1.578125,-4.3359375,3.5078125,0.25390625,-0.068359375,0.0859375,0.0,180.0,360.0
3802735,,,,,,,,-1.578125,-4.3359375,3.5078125,-0.033203125,-0.125,0.107421875,0.0,180.0,360.0
3802736,,,,,,,,1.32421875,-2.234375,1.83203125,-0.033203125,-0.125,0.107421875,0.0,180.0,360.0
3802737,,,,,,,,1.32421875,-2.234375,1.83203125,0.126953125,0.328125,-0.060546875,0.0,180.0,360.0
3802738,,,,,,,,1.32421875,-2.234375,1.83203125,0.177734375,-0.001953125,-0.265625,0.0,180.0,360.0
3802739,,,,,,,,-0.4140625,-1.0859375,2.46484375,0.177734375,-0.001953125,-0.265625,0.0,180.0,360.0
3802740,36.012541166666665,129.31933016666665,65.82409418708697,15.663991503369903,1.3,46.0,,-0.4140625,-1.0859375,2.46484375,0.041015625,-0.08984375,-0.31640625,0.0,180.0,360.0
3802741,,,,,,,,-0.69921875,-0.82421875,1.84375,0.041015625,-0.08984375,-0.31640625,0.0,180.0,360.0
3802742,,,,,,,,-0.69921875,-0.82421875,1.84375,0.208984375,0.080078125,-0.330078125,0.0,180.0,360.0
3802743,,,,,,,,-0.37109375,-0.44921875,1.33984375,0.208984375,0.080078125,-0.330078125,0.0,180.0,360.0
3802744,,,,,,,,-0.37109375,-0.44921875,1.33984375,0.2421875,0.115234375,-0.298828125,0.0,180.0,360.0
3802745,,,,,,,,-0.37109375,-0.44921875,1.33984375,0.173828125,0.099609375,-0.291015625,0.0,180.0,360.0
3802746,,,,,,,,0.05859375,1.52734375,-0.1875,0.173828125,0.099609375,-0.291015625,0.0,180.0,360.0
3802747,,,,,,,,0.05859375,1.52734375,-0.1875,0.134765625,0.072265625,-0.30859375,0.0,180.0,360.0
3802748,,,,,,,,0.00390625,2.32421875,-0.609375,0.134765625,0.072265625,-0.30859375,0.0,180.0,360.0
3802749,,,,,,,,0.00390625,2.32421875,-0.609375,0.166015625,0.04296875,-0.326171875,0.0,180.0,360.0
3802750,36.01254183333333,129.319331,65.89921814146338,15.737964888986486,1.3,46.0,,-0.3203125,2.91796875,-0.765625,0.166015625,0.04296875,-0.326171875,0.0,180.0,360.0
3802751,,,,,,,,-0.3203125,2.91796875,-0.765625,0.18359375,0.0546875,-0.322265625,0.0,180.0,360.0
3802752,,,,,,,,-0.7578125,3.5546875,-1.29296875,0.18359375,0.0546875,-0.322265625,0.0,180.0,360.0
3802753,,,,,,,,-0.7578125,3.5546875,-1.29296875,0.1484375,0.0625,-0.26953125,0.0,180.0,360.0
3802754,,,,,,,,-1.48828125,3.03515625,-1.6171875,0.1484375,0.0625,-0.26953125,0.0,180.0,360.0
3802755,,,,,,,,-1.48828125,3.03515625,-1.6171875,0.134765625,0.052734375,-0.205078125,0.0,180.0,360.0
3802756,,,,,,,,-1.48828125,3.03515625,-1.6171875,0.1640625,0.033203125,-0.140625,0.0,180.0,360.0
3802757,,,,,,,,-1.65625,2.58984375,-1.47265625,0.1640625,0.033203125,-0.140625,0.0,180.0,360.0
3802758,,,,,,,,-1.65625,2.58984375,-1.47265625,0.177734375,0.0390625,-0.119140625,0.0,180.0,360.0
3802759,,,,,,,,-1.3203125,1.921875,-1.46484375,0.177734375,0.0390625,-0.119140625,0.0,180.0,360.0
3802760,36.01254216666667,129.31933183333334,65.97434237188165,15.77495186460333,1.2000000000000002,47.0,,-1.3203125,1.921875,-1.46484375,0.23828125,0.05859375,-0.138671875,0.0,180.0,360.0
3802761,,,,,,,,-1.07421875,1.71484375,-1.38671875,0.23828125,0.05859375,-0.138671875,0.0,180.0,360.0
3802762,,,,,,,,-1.07421875,1.71484375,-1.38671875,0.2109375,0.12890625,-0.154296875,0.0,180.0,360.0
3802763,,,,,,,,-0.83984375,1.37109375,-1.51953125,0.2109375,0.12890625,-0.154296875,0.0,180.0,360.0
3802764,,,,,,,,-0.83984375,1.37109375,-1.51953125,0.1171875,0.115234375,-0.150390625,0.0,180.0,360.0
3802765,,,,,,,,-0.83984375,1.37109375,-1.51953125,0.01171875,0.083984375,-0.15625,0.0,180.0,360.0
3802766,,,,,,,,-0.70703125,0.08984375,-1.0546875,0.01171875,0.083984375,-0.15625,0.0,180.0,360.0
3802767,,,,,,,,-0.70703125,0.08984375,-1.0546875,-0.005859375,0.02734375,-0.171875,0.0,180.0,360.0
3802768,,,,,,,,-0.6953125,-1.06640625,-0.48046875,-0.005859375,0.02734375,-0.171875,0.0,180.0,360.0
3802769,,,,,,,,-0.6953125,-1.06640625,-0.48046875,0.021484375,0.0078125,-0.193359375,0.0,180.0,360.0
3802770,36.012543,129.31933266666667,66.0494661849777,15.867418456281293,1.2000000000000002,46.0,,-0.7265625,-1.99609375,-0.05859375,0.021484375,0.0078125,-0.193359375,0.0,180.0,360.0
3802771,,,,,,,,-0.7265625,-1.99609375,-0.05859375,-0.048828125,0.04296875,-0.21875,0.0,180.0,360.0
3802772,,,,,,,,-0.6875,-1.50390625,-0.2421875,-0.048828125,0.04296875,-0.21875,0.0,180.0,360.0
3802773,,,,,,,,-0.6875,-1.50390625,-0.2421875,-0.30078125,0.0390625,-0.1953125,0.0,180.0,360.0
3802774,,,,,,,,-0.6875,-0.23828125,-0.73828125,-0.30078125,0.0390625,-0.1953125,0.0,180.0,360.0
3802775,,,,,,,,-0.6875,-0.23828125,-0.73828125,-0.55078125,0.041015625,-0.14453125,0.0,180.0,360.0
3802776,,,,,,,,-0.6875,-0.23828125,-0.73828125,-0.84765625,-0.123046875,-0.021484375,0.0,180.0,360.0
3802777,,,,,,,,-1.25390625,0.99609375,-0.56640625,-0.84765625,-0.123046875,-0.021484375,0.0,180.0,360.0
3802778,,,,,,,,-1.25390625,0.99609375,-0.56640625,-1.28125,-0.486328125,0.13671875,0.0,180.0,360.0
3802779,,,,,,,,-1.67578125,-1.515625,-0.484375,-1.28125,-0.486328125,0.13671875,0.0,180.0,360.0
3802780,36.01254366666667,129.31933383333333,66.15463993719037,15.941392070960873,1.2000000000000002,47.0,,-1.67578125,-1.515625,-0.484375,-1.142578125,-0.6171875,0.1328125,0.0,180.0,360.0
3802781,,,,,,,,0.09375,-3.90625,1.48046875,-1.142578125,-0.6171875,0.1328125,0.0,180.0,360.0
3802782,,,,,,,,0.09375,-3.90625,1.48046875,-0.689453125,-0.419921875,-0.029296875,0.0,180.0,360.0
3802783,,,,,,,,2.34375,-5.03125,3.234375,-0.689453125,-0.419921875,-0.029296875,0.0,180.0,360.0
3802784,,,,,,,,2.34375,-5.03125,3.234375,-0.689453125,-0.419921875,-0.029296875,0.0,180.0,360.0
3802785,,,,,,,,2.34375,-5.03125,3.234375,0.076171875,-0.1640625,-0.244140625,0.0,180.0,360.0
3802786,,,,,,,,1.44921875,-4.265625,3.44140625,0.076171875,-0.1640625,-0.244140625,0.0,180.0,360.0
3802787,,,,,,,,1.44921875,-4.265625,3.44140625,0.5859375,-0.001953125,-0.14453125,0.0,180.0,360.0
3802788,,,,,,,,0.2734375,-3.8671875,2.91796875,0.5859375,-0.001953125,-0.14453125,0.0,180.0,360.0
3802789,,,,,,,,0.2734375,-3.8671875,2.91796875,0.244140625,-0.0546875,0.068359375,0.0,180.0,360.0
3802790,36.01254483333333,129.31933650000002,66.39503737922611,16.070846321387524,1.3,55.0,,0.3046875,-1.39453125,1.7890625,0.244140625,-0.0546875,0.068359375,0.0,180.0,360.0
3802791,,,,,,,,0.3046875,-1.39453125,1.7890625,0.15625,-0.125,0.1953125,0.0,180.0,360.0
3802792,,,,,,,,-0.1484375,-0.7421875,1.3671875,0.15625,-0.125,0.1953125,0.0,180.0,360.0
3802793,,,,,,,,-0.1484375,-0.7421875,1.3671875,0.134765625,-0.16015625,0.27734375,0.0,180.0,360.0
3802794,,,,,,,,-0.19921875,-0.19921875,0.9453125,0.134765625,-0.16015625,0.27734375,0.0,180.0,360.0
3802795,,,,,,,,-0.19921875,-0.19921875,0.9453125,0.078125,-0.1953125,0.341796875,0.0,180.0,360.0
3802796,,,,,,,,-0.19921875,-0.19921875,0.9453125,0.0546875,-0.251953125,0.39453125,0.0,180.0,360.0
3802797,,,,,,,,-0.6875,1.734375,-0.375,0.0546875,-0.251953125,0.39453125,0.0,180.0,360.0
3802798,,,,,,,,-0.6875,1.734375,-0.375,0.078125,-0.2265625,0.427734375,0.0,180.0,360.0
3802799,,,,,,,,-0.28125,2.98046875,-1.1171875,0.078125,-0.2265625,0.427734375,0.0,180.0,360.0
3802800,36.012546,129.31933883333335,66.60538500914927,16.200300353187842,1.3,54.0,123.0,-0.28125,2.98046875,-1.1171875,0.126953125,-0.146484375,0.404296875,0.0,180.0,360.0
3802801,,,,,,,,-0.28125,2.98046875,-1.1171875,0.126953125,-0.146484375,0.404296875,0.0,180.0,360.0
3802802,,,,,,,,0.41796875,3.83203125,-1.5390625,0.126953125,-0.146484375,0.404296875,0.0,180.0,360.0
3802803,,,,,,,,0.5,0.99609375,-1.13671875,0.126953125,-0.146484375,0.404296875,0.0,180.0,360.0
3802804,,,,,,,,0.5,0.99609375,-1.13671875,0.1640625,0.31640625,-0.068359375,0.0,180.0,360.0
3802805,,,,,,,,0.5,0.99609375,-1.13671875,0.12890625,0.2578125,-0.041015625,0.0,180.0,360.0
3802806,,,,,,,,0.61328125,-0.671875,-0.69921875,0.12890625,0.2578125,-0.041015625,0.0,180.0,360.0
3802807,,,,,,,,0.61328125,-0.671875,-0.69921875,0.13671875,0.1796875,-0.01171875,0.0,180.0,360.0
3802808,,,,,,,,0.546875,-1.1484375,-0.3125,0.13671875,0.1796875,-0.01171875,0.0,180.0,360.0
3802809,,,,,,,,0.546875,-1.1484375,-0.3125,0.13671875,0.1796875,-0.01171875,0.0,180.0,360.0
3802810,36.012547000000005,129.31934033333334,66.74060827271241,16.311260613215758,1.4000000000000001,54.0,,0.546875,-1.1484375,-0.3125,0.021484375,0.00390625,0.041015625,0.0,180.0,360.0
3802811,,,,,,,,0.16796875,-1.76171875,-0.5625,0.021484375,0.00390625,0.041015625,0.0,180.0,360.0
3802812,,,,,,,,0.16796875,-1.76171875,-0.5625,-0.080078125,-0.052734375,0.05859375,0.0,180.0,360.0
3802813,,,,,,,,0.16796875,-1.76171875,-0.5625,-0.3359375,-0.11328125,0.107421875,0.0,180.0,360.0
3802814,,,,,,,,-0.05078125,-1.21875,-0.2265625,-0.3359375,-0.11328125,0.107421875,0.0,180.0,360.0
3802815,,,,,,,,-0.05078125,-1.21875,-0.2265625,-0.861328125,-0.232421875,0.189453125,0.0,180.0,360.0
3802816,,,,,,,,1.03515625,-2.03515625,-0.421875,-0.861328125,-0.232421875,0.189453125,0.0,180.0,360.0
3802817,,,,,,,,1.03515625,-2.03515625,-0.421875,-0.82421875,-0.15234375,0.107421875,0.0,180.0,360.0
3802818,,,,,,,,0.5625,-4.7109375,1.00390625,-0.82421875,-0.15234375,0.107421875,0.0,180.0,360.0
3802819,,,,,,,,0.5625,-4.7109375,1.00390625,-0.4296875,-0.36328125,0.115234375,0.0,180.0,360.0
3802820,36.01254783333333,129.31934116666667,66.8157320727776,16.403727211272315,1.3,51.0,,-1.5,-3.734375,2.9609375,-0.4296875,-0.36328125,0.115234375,0.0,180.0,360.0
3802821,,,,,,,,-1.5,-3.734375,2.9609375,-0.037109375,-0.193359375,0.08984375,0.0,180.0,360.0
3802822,,,,,,,,-1.5,-3.734375,2.9609375,-0.099609375,-0.119140625,0.037109375,0.0,180.0,360.0
3802823,,,,,,,,0.1640625,-2.33984375,2.41015625,-0.099609375,-0.119140625,0.037109375,0.0,180.0,360.0
3802824,,,,,,,,0.1640625,-2.33984375,2.41015625,-0.015625,0.154296875,-0.109375,0.0,180.0,360.0
3802825,,,,,,,,1.94921875,-2.640625,2.2734375,-0.015625,0.154296875,-0.109375,0.0,180.0,360.0
3802826,,,,,,,,1.94921875,-2.640625,2.2734375,0.123046875,0.109375,-0.279296875,0.0,180.0,360.0
3802827,,,,,,,,1.203125,-1.8359375,2.640625,0.123046875,0.109375,-0.279296875,0.0,180.0,360.0
3802828,,,,,,,,1.203125,-1.8359375,2.640625,0.123046875,0.109375,-0.279296875,0.0,180.0,360.0
3802829,,,,,,,,1.203125,-1.8359375,2.640625,-0.013671875,0.259765625,-0.349609375,0.0,180.0,360.0
3802830,36.012548833333334,129.31934216666664,66.90588062800855,16.514687130689968,1.3,47.0,,0.12109375,-0.1953125,0.80859375,-0.013671875,0.259765625,-0.349609375,0.0,180.0,360.0
3802831,,,,,,,,0.12109375,-0.1953125,0.80859375,0.025390625,0.337890625,-0.365234375,0.0,180.0,360.0
3802832,,,,,,,,0.11328125,0.1953125,0.6015625,0.025390625,0.337890625,-0.365234375,0.0,180.0,360.0
3802833,,,,,,,,0.11328125,0.1953125,0.6015625,0.06640625,0.35546875,-0.375,0.0,180.0,360.0
3802834,,,,,,,,0.10546875,1.0703125,0.1171875,0.06640625,0.35546875,-0.375,0.0,180.0,360.0
3802835,,,,,,,,0.10546875,1.0703125,0.1171875,0.103515625,0.365234375,-0.37890625,0.0,180.0,360.0
3802836,,,,,,,,-0.53125,2.546875,-0.6015625,0.103515625,0.365234375,-0.37890625,0.0,180.0,360.0
3802837,,,,,,,,-0.53125,2.546875,-0.6015625,0.119140625,0.32421875,-0.36328125,0.0,180.0,360.0
3802838,,,,,,,,-0.77734375,3.03515625,-0.81640625,0.119140625,0.32421875,-0.36328125,0.0,180.0,360.0
3802839,,,,,,,,-0.77734375,3.03515625,-0.81640625,0.140625,0.296875,-0.333984375,0.0,180.0,360.0
3802840,36.01254933333333,129.319343,66.9810047069015,16.570167320259195,1.3,46.0,,-1.5546875,3.203125,-1.26171875,0.140625,0.296875,-0.333984375,0.0,180.0,360.0
3802841,,,,,,,,-1.5546875,3.203125,-1.26171875,0.130859375,0.21875,-0.287109375,0.0,180.0,360.0
3802842,,,,,,,,-1.5546875,3.203125,-1.26171875,0.17578125,0.10546875,-0.21875,0.0,180.0,360.0
3802843,,,,,,,,-2.0,2.5390625,-1.1953125,0.17578125,0.10546875,-0.21875,0.0,180.0,360.0
3802844,,,,,,,,-2.0,2.5390625,-1.1953125,0.23828125,0.033203125,-0.154296875,0.0,180.0,360.0
3802845,,,,,,,,-1.90625,2.32421875,-1.2421875,0.23828125,0.033203125,-0.154296875,0.0,180.0,360.0
3802846,,,,,,,,-1.90625,2.32421875,-1.2421875,0.298828125,-0.05078125,-0.107421875,0.0,180.0,360.0
3802847,,,,,,,,-1.89453125,2.23046875,-1.2109375,0.298828125,-0.05078125,-0.107421875,0.0,180.0,360.0
3802848,,,,,,,,-1.89453125,2.23046875,-1.2109375,0.298828125,-0.05078125,-0.107421875,0.0,180.0,360.0
3802849,,,,,,,,-1.89453125,2.23046875,-1.2109375,0.296875,-0.091796875,-0.048828125,0.0,180.0,360.0
3802850,36.01254983333333,129.31934366666667,67.04110388479548,16.625647394506696,1.2000000000000002,46.0,,-1.15625,1.671875,-1.3359375,0.296875,-0.091796875,-0.048828125,0.0,180.0,360.0
3802851,,,,,,,,-1.15625,1.671875,-1.3359375,0.296875,-0.091796875,-0.048828125,0.0,180.0,360.0
3802852,,,,,,,,-1.15625,1.671875,-1.3359375,0.21875,-0.142578125,0.00390625,0.0,180.0,360.0
3802853,,,,,,,,-0.9296875,-0.3203125,-0.6953125,0.21875,-0.142578125,0.00390625,0.0,180.0,360.0
3802854,,,,,,,,-0.9296875,-0.3203125,-0.6953125,0.24609375,-0.16015625,-0.005859375,0.0,180.0,360.0
3802855,,,,,,,,-0.9296875,-0.3203125,-0.6953125,0.248046875,-0.138671875,-0.03125,0.0,180.0,360.0
3802856,,,,,,,,-0.9453125,-0.8125,-0.375,0.248046875,-0.138671875,-0.03125,0.0,180.0,360.0
3802857,,,,,,,,-0.9453125,-0.8125,-0.375,0.08203125,-0.173828125,-0.041015625,0.0,180.0,360.0
3802858,,,,,,,,-0.9140625,-0.7890625,-0.7109375,0.08203125,-0.173828125,-0.041015625,0.0,180.0,360.0
3802859,,,,,,,,-0.9140625,-0.7890625,-0.7109375,-0.126953125,-0.16796875,-0.068359375,0.0,180.0,360.0
3802860,36.01255066666667,129.3193446666667,67.13125258101508,16.718114111542455,1.1,45.0,,0.09765625,-0.875,-0.87890625,-0.126953125,-0.16796875,-0.068359375,0.0,180.0,360.0
3802861,,,,,,,,0.09765625,-0.875,-0.87890625,-0.328125,-0.095703125,-0.08984375,0.0,180.0,360.0
3802862,,,,,,,,0.09765625,-0.875,-0.87890625,-0.455078125,-0.03125,-0.1015625,0.0,180.0,360.0
3802863,,,,,,,,-0.38671875,0.0703125,-0.69921875,-0.455078125,-0.03125,-0.1015625,0.0,180.0,360.0
3802864,,,,,,,,-0.38671875,0.0703125,-0.69921875,-0.634765625,-0.06640625,-0.03515625,0.0,180.0,360.0
3802865,,,,,,,,-1.2890625,1.04296875,-0.30078125,-0.634765625,-0.06640625,-0.03515625,0.0,180.0,360.0
3802866,,,,,,,,-1.2890625,1.04296875,-0.30078125,-0.98046875,-0.296875,0.111328125,0.0,180.0,360.0
3802867,,,,,,,,-1.93359375,-0.03125,-0.265625,-0.98046875,-0.296875,0.111328125,0.0,180.0,360.0
3802868,,,,,,,,-1.93359375,-0.03125,-0.265625,-0.845703125,-0.5390625,0.095703125,0.0,180.0,360.0
3802869,,,,,,,,1.484375,-4.6015625,2.640625,-0.845703125,-0.5390625,0.095703125,0.0,180.0,360.0
3802870,36.012552,129.319347,67.3416000407484,16.866061366055536,1.2000000000000002,51.0,,1.484375,-4.6015625,2.640625,-0.533203125,-0.3125,-0.05078125,0.0,180.0,360.0
3802871,,,,,,,,1.484375,-4.6015625,2.640625,-0.533203125,-0.3125,-0.05078125,0.0,180.0,360.0
3802872,,,,,,,,1.484375,-4.6015625,2.640625,0.080078125,-0.080078125,-0.24609375,0.0,180.0,360.0
3802873,,,,,,,,2.40234375,-3.7734375,3.80859375,0.080078125,-0.080078125,-0.24609375,0.0,180.0,360.0
3802874,,,,,,,,2.40234375,-3.7734375,3.80859375,0.470703125,0.015625,-0.21875,0.0,180.0,360.0
3802875,,,,,,,,2.40234375,-3.7734375,3.80859375,0.73046875,0.091796875,-0.08984375,0.0,180.0,360.0
3802876,,,,,,,,0.6328125,-4.45703125,3.484375,0.73046875,0.091796875,-0.08984375,0.0,180.0,360.0
3802877,,,,,,,,0.6328125,-4.45703125,3.484375,0.37109375,-0.01953125,0.1640625,0.0,180.0,360.0
3802878,,,,,,,,-0.05859375,-0.4296875,1.71875,0.37109375,-0.01953125,0.1640625,0.0,180.0,360.0
3802879,,,,,,,,-0.05859375,-0.4296875,1.71875,0.150390625,-0.158203125,0.33984375,0.0,180.0,360.0
3802880,36.01255266666667,129.31934833333335,67.46179867350104,16.940035110830543,1.3,55.0,,-0.1015625,-0.57421875,1.07421875,0.150390625,-0.158203125,0.33984375,0.0,180.0,360.0
3802881,,,,,,,,-0.1015625,-0.57421875,1.07421875,0.119140625,-0.1875,0.4296875,0.0,180.0,360.0
3802882,,,,,,,,-0.1015625,-0.57421875,1.07421875,0.060546875,-0.228515625,0.490234375,0.0,180.0,360.0
3802883,,,,,,,,-0.8359375,1.328125,-0.11328125,0.060546875,-0.228515625,0.490234375,0.0,180.0,360.0
3802884,,,,,,,,-0.8359375,1.328125,-0.11328125,0.04296875,-0.255859375,0.5234375,0.0,180.0,360.0
3802885,,,,,,,,-0.75,1.9921875,-0.53515625,0.04296875,-0.255859375,0.5234375,0.0,180.0,360.0
3802886,,,,,,,,-0.75,1.9921875,-0.53515625,0.064453125,-0.236328125,0.5234375,0.0,180.0,360.0
3802887,,,,,,,,-0.51171875,2.39453125,-0.84765625,0.064453125,-0.236328125,0.5234375,0.0,180.0,360.0
3802888,,,,,,,,-0.51171875,2.39453125,-0.84765625,0.087890625,-0.201171875,0.4921875,0.0,180.0,360.0
3802889,,,,,,,,0.33984375,3.28125,-1.28515625,0.087890625,-0.201171875,0.4921875,0.0,180.0,360.0
3802890,36.01255316666666,129.31934916666665,67.53692274050569,16.995515303488002,1.2000000000000002,55.0,,0.33984375,3.28125,-1.28515625,0.091796875,-0.15625,0.408203125,0.0,180.0,360.0
3802891,,,,,,,,0.33984375,3.28125,-1.28515625,0.091796875,-0.15625,0.408203125,0.0,180.0,360.0
3802892,,,,,,,,0.33984375,3.28125,-1.28515625,0.044921875,-0.04296875,0.30078125,0.0,180.0,360.0
3802893,,,,,,,,1.5078125,3.3359375,-1.85546875,0.044921875,-0.04296875,0.30078125,0.0,180.0,360.0
3802894,,,,,,,,1.5078125,3.3359375,-1.85546875,0.041015625,0.091796875,0.177734375,0.0,180.0,360.0
3802895,,,,,,,,1.5078125,3.3359375,-1.85546875,0.052734375,0.240234375,0.0625,0.0,180.0,360.0
3802896,,,,,,,,1.48046875,2.9453125,-1.75390625,0.052734375,0.240234375,0.0625,0.0,180.0,360.0
3802897,,,,,,,,1.48046875,2.9453125,-1.75390625,0.078125,0.345703125,-0.0078125,0.0,180.0,360.0
3802898,,,,,,,,0.99609375,2.5234375,-1.5390625,0.078125,0.345703125,-0.0078125,0.0,180.0,360.0
3802899,,,,,,,,0.99609375,2.5234375,-1.5390625,0.13671875,0.392578125,-0.048828125,0.0,180.0,360.0
3802900,36.0125545,129.31935183333331,67.77731998878406,17.143462799473188,1.3,56.0,123.0,0.99609375,2.5234375,-1.5390625,0.13671875,0.392578125,-0.048828125,0.0,180.0,360.0
3802901,,,,,,,,0.99609375,2.5234375,-1.5390625,0.13671875,0.392578125,-0.048828125,0.0,180.0,360.0
3802902,,,,,,,,0.62890625,1.58984375,-1.16015625,0.13671875,0.392578125,-0.048828125,0.0,180.0,360.0
3802903,,,,,,,,0.62890625,1.58984375,-1.16015625,0.177734375,0.3984375,-0.080078125,0.0,180.0,360.0
3802904,,,,,,,,0.62890625,1.58984375,-1.16015625,-0.150390625,-0.001953125,0.0859375,0.0,180.0,360.0
3802905,,,,,,,,-0.97265625,-3.703125,2.36328125,-0.150390625,-0.001953125,0.0859375,0.0,180.0,360.0
3802906,,,,,,,,-0.97265625,-3.703125,2.36328125,-0.009765625,0.017578125,0.15625,0.0,180.0,360.0
3802907,,,,,,,,-0.97265625,-3.703125,2.36328125,-0.009765625,0.017578125,0.15625,0.0,180.0,360.0
3802908,,,,,,,,-0.97265625,-3.703125,2.36328125,0.28125,0.18359375,0.0234375,0.0,180.0,360.0
3802909,,,,,,,,1.2890625,-3.3125,2.3828125,0.28125,0.18359375,0.0234375,0.0,180.0,360.0
3802910,36.012556333333336,129.319354,67.9726421062684,17.346889570964887,1.3,50.0,,1.2890625,-3.3125,2.3828125,0.40234375,0.134765625,-0.25,0.0,180.0,360.0
3802911,,,,,,,,0.00390625,-1.66015625,2.265625,0.40234375,0.134765625,-0.25,0.0,180.0,360.0
3802912,,,,,,,,0.00390625,-1.66015625,2.265625,0.2578125,-0.009765625,-0.23046875,0.0,180.0,360.0
3802913,,,,,,,,-0.55078125,-0.71484375,1.9296875,0.2578125,-0.009765625,-0.23046875,0.0,180.0,360.0
3802914,,,,,,,,-0.55078125,-0.71484375,1.9296875,0.267578125,0.068359375,-0.1953125,0.0,180.0,360.0
3802915,,,,,,,,-0.3515625,-0.953125,1.19140625,0.267578125,0.068359375,-0.1953125,0.0,180.0,360.0
3802916,,,,,,,,-0.3515625,-0.953125,1.19140625,0.275390625,0.0859375,-0.162109375,0.0,180.0,360.0
3802917,,,,,,,,-0.3515625,-0.953125,1.19140625,0.275390625,0.0859375,-0.162109375,0.0,180.0,360.0
3802918,,,,,,,,-0.3515625,-0.953125,1.19140625,0.2265625,0.060546875,-0.150390625,0.0,180.0,360.0
3802919,,,,,,,,-0.19921875,2.73828125,-0.86328125,0.2265625,0.060546875,-0.150390625,0.0,180.0,360.0
3802920,36.01255716666667,129.31935516666667,68.07781568072932,17.43935641250164,1.3,49.0,,-0.19921875,2.73828125,-0.86328125,0.205078125,0.005859375,-0.154296875,0.0,180.0,360.0
3802921,,,,,,,,-0.19921875,2.73828125,-0.86328125,0.197265625,-0.005859375,-0.154296875,0.0,180.0,360.0
3802922,,,,,,,,-0.58203125,3.82421875,-1.41796875,0.197265625,-0.005859375,-0.154296875,0.0,180.0,360.0
3802923,,,,,,,,-0.58203125,3.82421875,-1.41796875,0.1953125,-0.029296875,-0.1328125,0.0,180.0,360.0
3802924,,,,,,,,-0.9609375,3.78125,-1.53125,0.1953125,-0.029296875,-0.1328125,0.0,180.0,360.0
3802925,,,,,,,,-0.9609375,3.78125,-1.53125,0.177734375,-0.0546875,-0.072265625,0.0,180.0,360.0
3802926,,,,,,,,-1.21484375,3.44921875,-1.5703125,0.177734375,-0.0546875,-0.072265625,0.0,180.0,360.0
3802927,,,,,,,,-1.21484375,3.44921875,-1.5703125,0.166015625,-0.099609375,0.0078125,0.0,180.0,360.0
3802928,,,,,,,,-1.45703125,2.8203125,-1.53515625,0.166015625,-0.099609375,0.0078125,0.0,180.0,360.0
3802929,,,,,,,,-1.45703125,2.8203125,-1.53515625,0.185546875,-0.123046875,0.064453125,0.0,180.0,360.0
3802930,36.012557666666666,129.31935583333333,68.137914844021,17.494836495345588,1.3,49.0,,-1.45703125,2.8203125,-1.53515625,0.177734375,-0.16796875,0.087890625,0.0,180.0,360.0
3802931,,,,,,,,-1.3671875,2.078125,-1.47265625,0.177734375,-0.16796875,0.087890625,0.0,180.0,360.0
3802932,,,,,,,,-1.3671875,2.078125,-1.47265625,0.166015625,-0.212890625,0.10546875,0.0,180.0,360.0
3802933,,,,,,,,-1.16796875,1.6796875,-1.46484375,0.166015625,-0.212890625,0.10546875,0.0,180.0,360.0
3802934,,,,,,,,-1.16796875,1.6796875,-1.46484375,0.21484375,-0.16015625,0.09375,0.0,180.0,360.0
3802935,,,,,,,,-0.73046875,0.8203125,-1.48046875,0.21484375,-0.16015625,0.09375,0.0,180.0,360.0
3802936,,,,,,,,-0.73046875,0.8203125,-1.48046875,0.29296875,-0.099609375,0.05859375,0.0,180.0,360.0
3802937,,,,,,,,-0.5703125,-1.1953125,-0.74609375,0.29296875,-0.099609375,0.05859375,0.0,180.0,360.0
3802938,,,,,,,,-0.5703125,-1.1953125,-0.74609375,0.34375,-0.0078125,0.001953125,0.0,180.0,360.0
3802939,,,,,,,,-0.5703125,-1.1953125,-0.74609375,0.34375,-0.0078125,0.001953125,0.0,180.0,360.0
3802940,36.01255833333333,129.31935716666666,68.25811345689797,17.568810250925356,1.3,51.0,,-0.5703125,-1.1953125,-0.74609375,0.21875,0.01953125,-0.03515625,0.0,180.0,360.0
3802941,,,,,,,,-0.30859375,-0.66796875,-0.84765625,0.21875,0.01953125,-0.03515625,0.0,180.0,360.0
3802942,,,,,,,,-0.30859375,-0.66796875,-0.84765625,0.009765625,0.03515625,-0.076171875,0.0,180.0,360.0
3802943,,,,,,,,-0.30859375,-0.66796875,-0.84765625,-0.2578125,0.09765625,-0.095703125,0.0,180.0,360.0
3802944,,,,,,,,0.18359375,-0.58984375,-0.99609375,-0.2578125,0.09765625,-0.095703125,0.0,180.0,360.0
3802945,,,,,,,,0.18359375,-0.58984375,-0.99609375,-0.419921875,0.21484375,-0.123046875,0.0,180.0,360.0
3802946,,,,,,,,0.17578125,-0.15234375,-1.0078125,-0.419921875,0.21484375,-0.123046875,0.0,180.0,360.0
3802947,,,,,,,,0.17578125,-0.15234375,-1.0078125,-0.6015625,0.189453125,-0.10546875,0.0,180.0,360.0
3802948,,,,,,,,-1.22265625,0.22265625,-0.34765625,-0.6015625,0.189453125,-0.10546875,0.0,180.0,360.0
3802949,,,,,,,,-1.22265625,0.22265625,-0.34765625,-0.884765625,-0.244140625,0.021484375,0.0,180.0,360.0
3802950,36.012559,129.31935833333333,68.36328717038162,17.64278389184856,1.3,52.0,,-1.22265625,0.22265625,-0.34765625,-0.634765625,-0.27734375,-0.0234375,0.0,180.0,360.0
3802951,,,,,,,,0.91015625,-5.390625,1.2734375,-0.634765625,-0.27734375,-0.0234375,0.0,180.0,360.0
3802952,,,,,,,,0.91015625,-5.390625,1.2734375,-0.216796875,-0.166015625,-0.18359375,0.0,180.0,360.0
3802953,,,,,,,,2.9140625,-5.140625,3.09765625,-0.216796875,-0.166015625,-0.18359375,0.0,180.0,360.0
3802954,,,,,,,,2.9140625,-5.140625,3.09765625,0.326171875,0.140625,-0.3125,0.0,180.0,360.0
3802955,,,,,,,,4.1328125,-3.69140625,2.66796875,0.326171875,0.140625,-0.3125,0.0,180.0,360.0
3802956,,,,,,,,4.1328125,-3.69140625,2.66796875,0.7421875,-0.017578125,-0.1796875,0.0,180.0,360.0
3802957,,,,,,,,-0.28125,-4.05859375,4.015625,0.7421875,-0.017578125,-0.1796875,0.0,180.0,360.0
3802958,,,,,,,,-0.28125,-4.05859375,4.015625,0.7421875,-0.01953125,-0.005859375,0.0,180.0,360.0
3802959,,,,,,,,0.0703125,-0.0234375,1.25390625,0.7421875,-0.01953125,-0.005859375,0.0,180.0,360.0
3802960,36.01255966666667,129.31935966666666,68.48348577962516,17.716757649794772,1.3,54.0,,0.0703125,-0.0234375,1.25390625,0.189453125,-0.22265625,0.296875,0.0,180.0,360.0
3802961,,,,,,,,0.0703125,-0.0234375,1.25390625,0.05859375,-0.31640625,0.453125,0.0,180.0,360.0
3802962,,,,,,,,0.06640625,-0.23828125,0.82421875,0.05859375,-0.31640625,0.453125,0.0,180.0,360.0
3802963,,,,,,,,0.06640625,-0.23828125,0.82421875,0.111328125,-0.208984375,0.46875,0.0,180.0,360.0
3802964,,,,,,,,0.171875,-0.6875,0.81640625,0.111328125,-0.208984375,0.46875,0.0,180.0,360.0
3802965,,,,,,,,0.171875,-0.6875,0.81640625,0.10546875,-0.232421875,0.466796875,0.0,180.0,360.0
3802966,,,,,,,,-0.20703125,0.57421875,0.140625,0.10546875,-0.232421875,0.466796875,0.0,180.0,360.0
3802967,,,,,,,,-0.20703125,0.57421875,0.140625,0.10546875,-0.21875,0.44921875,0.0,180.0,360.0
3802968,,,,,,,,0.0859375,2.015625,-0.953125,0.10546875,-0.21875,0.44921875,0.0,180.0,360.0
3802969,,,,,,,,0.0859375,2.015625,-0.953125,0.126953125,-0.16796875,0.42578125,0.0,180.0,360.0
3802970,36.01256016666667,129.319361,68.60368453126407,17.772238204795492,1.3,56.0,,0.0859375,2.015625,-0.953125,0.146484375,-0.125,0.390625,0.0,180.0,360.0
3802971,,,,,,,,0.42578125,3.05078125,-1.56640625,0.146484375,-0.125,0.390625,0.0,180.0,360.0
3802972,,,,,,,,0.42578125,3.05078125,-1.56640625,0.146484375,-0.125,0.390625,0.0,180.0,360.0
3802973,,,,,,,,0.42578125,3.05078125,-1.56640625,0.171875,-0.09375,0.310546875,0.0,180.0,360.0
3802974,,,,,,,,1.12890625,3.50390625,-1.96875,0.171875,-0.09375,0.310546875,0.0,180.0,360.0
3802975,,,,,,,,1.12890625,3.50390625,-1.96875,0.146484375,-0.033203125,0.21484375,0.0,180.0,360.0
3802976,,,,,,,,1.12890625,3.50390625,-1.96875,0.12890625,0.080078125,0.107421875,0.0,180.0,360.0
3802977,,,,,,,,1.40625,2.8828125,-1.84375,0.12890625,0.080078125,0.107421875,0.0,180.0,360.0
3802978,,,,,,,,1.40625,2.8828125,-1.84375,0.166015625,0.1796875,0.029296875,0.0,180.0,360.0
3802979,,,,,,,,1.19921875,2.59765625,-1.69140625,0.166015625,0.1796875,0.029296875,0.0,180.0,360.0
3802980,36.012560666666666,129.31936166666668,68.66378369318332,17.82771829070937,1.2000000000000002,54.0,,1.19921875,2.59765625,-1.69140625,0.158203125,0.2578125,0.0,0.0,180.0,360.0
3802981,,,,,,,,1.19921875,2.59765625,-1.69140625,0.142578125,0.337890625,-0.021484375,0.0,180.0,360.0
3802982,,,,,,,,1.26171875,2.078125,-1.73046875,0.142578125,0.337890625,-0.021484375,0.0,180.0,360.0
3802983,,,,,,,,1.26171875,2.078125,-1.73046875,0.107421875,0.318359375,-0.021484375,0.0,180.0,360.0
3802984,,,,,,,,0.97265625,0.3046875,-1.1875,0.107421875,0.318359375,-0.021484375,0.0,180.0,360.0
3802985,,,,,,,,0.97265625,0.3046875,-1.1875,0.146484375,0.35546875,-0.009765625,0.0,180.0,360.0
3802986,,,,,,,,1.1328125,-0.58984375,-0.59765625,0.146484375,0.35546875,-0.009765625,0.0,180.0,360.0
3802987,,,,,,,,1.1328125,-0.58984375,-0.59765625,0.1640625,0.328125,0.017578125,0.0,180.0,360.0
3802988,,,,,,,,1.26953125,-0.53125,-0.67578125,0.1640625,0.328125,0.017578125,0.0,180.0,360.0
3802989,,,,,,,,1.26953125,-0.53125,-0.67578125,0.068359375,0.375,0.025390625,0.0,180.0,360.0
3802990,36.01256133333333,129.31936266666668,68.75393250026418,17.901691817406412,1.2000000000000002,53.0,,1.26953125,-0.53125,-0.67578125,-0.0390625,0.259765625,0.033203125,0.0,180.0,360.0
3802991,,,,,,,,0.91796875,-1.2265625,-0.69140625,-0.0390625,0.259765625,0.033203125,0.0,180.0,360.0
3802992,,,,,,,,0.91796875,-1.2265625,-0.69140625,-0.046875,0.193359375,0.037109375,0.0,180.0,360.0
3802993,,,,,,,,0.62890625,-2.1171875,-0.64453125,-0.046875,0.193359375,0.037109375,0.0,180.0,360.0
3802994,,,,,,,,0.62890625,-2.1171875,-0.64453125,-0.158203125,0.193359375,0.08203125,0.0,180.0,360.0
3802995,,,,,,,,0.26953125,-1.41796875,-0.28515625,-0.158203125,0.193359375,0.08203125,0.0,180.0,360.0
3802996,,,,,,,,0.26953125,-1.41796875,-0.28515625,-0.6953125,0.068359375,0.158203125,0.0,180.0,360.0
3802997,,,,,,,,0.62890625,0.20703125,-0.4609375,-0.6953125,0.068359375,0.158203125,0.0,180.0,360.0
3802998,,,,,,,,0.62890625,0.20703125,-0.4609375,-0.876953125,0.11328125,0.0703125,0.0,180.0,360.0
3802999,,,,,,,,0.62890625,0.20703125,-0.4609375,-0.876953125,0.11328125,0.0703125,0.0,180.0,360.0
3803000,36.01256316666667,129.3193648333333,68.9492545733173,18.105118612134188,1.3,46.0,123.0,0.62890625,0.20703125,-0.4609375,-0.876953125,0.11328125,0.0703125,0.0,180.0,360.0
3803001,,,,,,,,0.62890625,0.20703125,-0.4609375,-0.876953125,0.11328125,0.0703125,0.0,180.0,360.0
3803002,,,,,,,,0.62890625,0.20703125,-0.4609375,-0.50390625,-0.037109375,0.009765625,0.0,180.0,360.0
3803003,,,,,,,,-1.8984375,-3.015625,3.0,-0.50390625,-0.037109375,0.009765625,0.0,180.0,360.0
3803004,,,,,,,,-0.4453125,3.06640625,-0.9765625,-0.50390625,-0.037109375,0.009765625,0.0,180.0,360.0
3803005,,,,,,,,-0.4453125,3.06640625,-0.9765625,0.068359375,0.064453125,-0.21875,0.0,180.0,360.0
3803006,,,,,,,,-0.76171875,3.09765625,-1.22265625,0.068359375,0.064453125,-0.21875,0.0,180.0,360.0
3803007,,,,,,,,-0.76171875,3.09765625,-1.22265625,0.087890625,0.005859375,-0.17578125,0.0,180.0,360.0
3803008,,,,,,,,-1.55859375,2.7421875,-1.3515625,0.087890625,0.005859375,-0.17578125,0.0,180.0,360.0
3803009,,,,,,,,-1.55859375,2.7421875,-1.3515625,0.134765625,-0.0625,-0.1171875,0.0,180.0,360.0
3803010,36.012565,129.31936633333333,69.08447705285268,18.30854493426246,1.3,41.0,,-1.7421875,2.5078125,-1.30859375,0.134765625,-0.0625,-0.1171875,0.0,180.0,360.0
3803011,,,,,,,,-1.7421875,2.5078125,-1.30859375,0.158203125,-0.1328125,-0.041015625,0.0,180.0,360.0
3803012,,,,,,,,-1.7421875,2.5078125,-1.30859375,0.185546875,-0.201171875,-0.005859375,0.0,180.0,360.0
3803013,,,,,,,,-1.40625,1.9921875,-1.375,0.185546875,-0.201171875,-0.005859375,0.0,180.0,360.0
3803014,,,,,,,,-1.40625,1.9921875,-1.375,0.23046875,-0.216796875,-0.0078125,0.0,180.0,360.0
3803015,,,,,,,,-1.078125,2.015625,-1.4453125,0.23046875,-0.216796875,-0.0078125,0.0,180.0,360.0
3803016,,,,,,,,-1.078125,2.015625,-1.4453125,0.23046875,-0.216796875,-0.0078125,0.0,180.0,360.0
3803017,,,,,,,,-1.078125,2.015625,-1.4453125,0.154296875,-0.236328125,-0.001953125,0.0,180.0,360.0
3803018,,,,,,,,-0.94921875,0.765625,-1.66015625,0.154296875,-0.236328125,-0.001953125,0.0,180.0,360.0
3803019,,,,,,,,-0.94921875,0.765625,-1.66015625,0.083984375,-0.251953125,0.0,0.0,180.0,360.0
3803020,36.0125655,129.319367,69.14457620573471,18.364025024391687,1.2000000000000002,42.0,,-0.94921875,0.765625,-1.66015625,0.091796875,-0.248046875,-0.037109375,0.0,180.0,360.0
3803021,,,,,,,,-0.7734375,-0.25390625,-1.29296875,0.091796875,-0.248046875,-0.037109375,0.0,180.0,360.0
3803022,,,,,,,,-0.7734375,-0.25390625,-1.29296875,0.154296875,-0.16796875,-0.08984375,0.0,180.0,360.0
3803023,,,,,,,,-0.48046875,-1.41015625,-0.49609375,0.154296875,-0.16796875,-0.08984375,0.0,180.0,360.0
3803024,,,,,,,,-0.48046875,-1.41015625,-0.49609375,0.08984375,-0.154296875,-0.11328125,0.0,180.0,360.0
3803025,,,,,,,,-0.8203125,-1.42578125,-0.90234375,0.08984375,-0.154296875,-0.11328125,0.0,180.0,360.0
3803026,,,,,,,,-0.8203125,-1.42578125,-0.90234375,-0.0546875,-0.14453125,-0.140625,0.0,180.0,360.0
3803027,,,,,,,,-0.8203125,-1.42578125,-0.90234375,-0.0546875,-0.14453125,-0.140625,0.0,180.0,360.0
3803028,,,,,,,,-0.8203125,-1.42578125,-0.90234375,-0.248046875,-0.16015625,-0.173828125,0.0,180.0,360.0
3803029,,,,,,,,-0.7421875,-0.99609375,-1.20703125,-0.248046875,-0.16015625,-0.173828125,0.0,180.0,360.0
3803030,36.01256683333334,129.3193686666667,69.29482401020955,18.511971853688603,1.0,45.0,,-0.7421875,-0.99609375,-1.20703125,-0.419921875,-0.248046875,-0.189453125,0.0,180.0,360.0
3803031,,,,,,,,-0.7421875,-0.99609375,-1.20703125,-0.75390625,-0.4296875,-0.1015625,0.0,180.0,360.0
3803032,,,,,,,,-1.57421875,-0.66796875,-0.73828125,-0.75390625,-0.4296875,-0.1015625,0.0,180.0,360.0
3803033,,,,,,,,-1.57421875,-0.66796875,-0.73828125,-0.89453125,-0.494140625,-0.01953125,0.0,180.0,360.0
3803034,,,,,,,,-0.953125,-3.5,-0.7890625,-0.89453125,-0.494140625,-0.01953125,0.0,180.0,360.0
3803035,,,,,,,,-0.953125,-3.5,-0.7890625,-0.451171875,-0.216796875,-0.126953125,0.0,180.0,360.0
3803036,,,,,,,,2.5703125,-4.55859375,2.75390625,-0.451171875,-0.216796875,-0.126953125,0.0,180.0,360.0
3803037,,,,,,,,2.5703125,-4.55859375,2.75390625,-0.0625,0.06640625,-0.3515625,0.0,180.0,360.0
3803038,,,,,,,,2.5703125,-4.55859375,2.75390625,0.14453125,0.103515625,-0.333984375,0.0,180.0,360.0
3803039,,,,,,,,2.828125,-0.88671875,2.609375,0.14453125,0.103515625,-0.333984375,0.0,180.0,360.0
3803040,36.0125675,129.3193701666667,69.43004749635625,18.58594574321874,1.2000000000000002,51.0,,2.828125,-0.88671875,2.609375,0.603515625,0.166015625,-0.224609375,0.0,180.0,360.0
3803041,,,,,,,,1.13671875,-3.046875,3.12109375,0.603515625,0.166015625,-0.224609375,0.0,180.0,360.0
3803042,,,,,,,,1.13671875,-3.046875,3.12109375,0.5859375,0.18359375,-0.1171875,0.0,180.0,360.0
3803043,,,,,,,,0.5390625,-2.3125,2.15234375,0.5859375,0.18359375,-0.1171875,0.0,180.0,360.0
3803044,,,,,,,,0.5390625,-2.3125,2.15234375,0.318359375,0.171875,0.0703125,0.0,180.0,360.0
3803045,,,,,,,,0.1171875,-0.26171875,1.74609375,0.318359375,0.171875,0.0703125,0.0,180.0,360.0
3803046,,,,,,,,0.1171875,-0.26171875,1.74609375,0.1640625,0.046875,0.16015625,0.0,180.0,360.0
3803047,,,,,,,,0.0390625,-0.56640625,1.0546875,0.1640625,0.046875,0.16015625,0.0,180.0,360.0
3803048,,,,,,,,0.0390625,-0.56640625,1.0546875,0.16015625,0.03515625,0.203125,0.0,180.0,360.0
3803049,,,,,,,,0.0390625,-0.56640625,1.0546875,0.173828125,0.033203125,0.236328125,0.0,180.0,360.0
3803050,36.012568,129.31937133333335,69.53522133353984,18.641426191341804,1.3,54.0,,-0.40234375,0.6875,0.05859375,0.173828125,0.033203125,0.236328125,0.0,180.0,360.0
3803051,,,,,,,,-0.40234375,0.6875,0.05859375,0.208984375,0.08984375,0.259765625,0.0,180.0,360.0
3803052,,,,,,,,-0.38671875,1.34765625,-0.36328125,0.208984375,0.08984375,0.259765625,0.0,180.0,360.0
3803053,,,,,,,,-0.38671875,1.34765625,-0.36328125,0.197265625,0.08984375,0.2890625,0.0,180.0,360.0
3803054,,,,,,,,-0.41015625,2.18359375,-0.71875,0.197265625,0.08984375,0.2890625,0.0,180.0,360.0
3803055,,,,,,,,-0.41015625,2.18359375,-0.71875,0.197265625,0.08984375,0.2890625,0.0,180.0,360.0
3803056,,,,,,,,-0.41015625,2.18359375,-0.71875,0.158203125,0.083984375,0.259765625,0.0,180.0,360.0
3803057,,,,,,,,0.0234375,3.79296875,-1.578125,0.158203125,0.083984375,0.259765625,0.0,180.0,360.0
3803058,,,,,,,,0.0234375,3.79296875,-1.578125,0.1015625,0.06640625,0.15625,0.0,180.0,360.0
3803059,,,,,,,,0.4765625,3.5546875,-1.76953125,0.1015625,0.06640625,0.15625,0.0,180.0,360.0
3803060,36.012568333333334,129.31937183333332,69.58029572751984,18.678412959854047,1.2000000000000002,52.0,,0.4765625,3.5546875,-1.76953125,0.083984375,0.15234375,0.048828125,0.0,180.0,360.0
3803061,,,,,,,,0.8046875,3.1640625,-1.83203125,0.083984375,0.15234375,0.048828125,0.0,180.0,360.0
3803062,,,,,,,,0.8046875,3.1640625,-1.83203125,0.087890625,0.2421875,-0.04296875,0.0,180.0,360.0
3803063,,,,,,,,0.8984375,2.6640625,-1.6953125,0.087890625,0.2421875,-0.04296875,0.0,180.0,360.0
3803064,,,,,,,,0.8984375,2.6640625,-1.6953125,0.103515625,0.322265625,-0.109375,0.0,180.0,360.0
3803065,,,,,,,,0.78125,2.390625,-1.671875,0.103515625,0.322265625,-0.109375,0.0,180.0,360.0
3803066,,,,,,,,0.78125,2.390625,-1.671875,0.140625,0.35546875,-0.142578125,0.0,180.0,360.0
3803067,,,,,,,,0.4375,1.37109375,-1.3359375,0.140625,0.35546875,-0.142578125,0.0,180.0,360.0
3803068,,,,,,,,0.4375,1.37109375,-1.3359375,0.150390625,0.34375,-0.130859375,0.0,180.0,360.0
3803069,,,,,,,,0.4375,1.37109375,-1.3359375,0.17578125,0.294921875,-0.09765625,0.0,180.0,360.0
3803070,36.012569,129.31937299999998,69.6854694164822,18.75238661533822,1.2000000000000002,53.0,,0.5078125,-0.34765625,-0.69140625,0.17578125,0.294921875,-0.09765625,0.0,180.0,360.0
3803071,,,,,,,,0.5078125,-0.34765625,-0.69140625,0.232421875,0.154296875,-0.0703125,0.0,180.0,360.0
3803072,,,,,,,,0.3828125,-0.8125,-0.26171875,0.232421875,0.154296875,-0.0703125,0.0,180.0,360.0
3803073,,,,,,,,0.3828125,-0.8125,-0.26171875,0.197265625,0.041015625,-0.021484375,0.0,180.0,360.0
3803074,,,,,,,,0.30859375,-0.79296875,-0.234375,0.197265625,0.041015625,-0.021484375,0.0,180.0,360.0
3803075,,,,,,,,0.30859375,-0.79296875,-0.234375,0.197265625,0.041015625,-0.021484375,0.0,180.0,360.0
3803076,,,,,,,,0.30859375,-0.79296875,-0.234375,0.005859375,-0.099609375,0.09375,0.0,180.0,360.0
3803077,,,,,,,,0.46875,-2.15625,-0.37109375,0.005859375,-0.099609375,0.09375,0.0,180.0,360.0
3803078,,,,,,,,0.46875,-2.15625,-0.37109375,0.005859375,-0.099609375,0.09375,0.0,180.0,360.0
3803079,,,,,,,,0.46875,-2.15625,-0.37109375,-0.26953125,-0.01171875,0.1953125,0.0,180.0,360.0
3803080,36.01256983333334,129.319374,69.77561806283929,18.844853360475188,1.1,51.0,,1.328125,-0.8203125,-0.82421875,-0.26953125,-0.01171875,0.1953125,0.0,180.0,360.0
3803081,,,,,,,,1.328125,-0.8203125,-0.82421875,-0.716796875,0.01171875,0.2578125,0.0,180.0,360.0
3803082,,,,,,,,1.328125,-0.8203125,-0.82421875,-0.771484375,0.08984375,0.154296875,0.0,180.0,360.0
3803083,,,,,,,,0.83984375,-4.17578125,0.30859375,-0.771484375,0.08984375,0.154296875,0.0,180.0,360.0
3803084,,,,,,,,0.83984375,-4.17578125,0.30859375,-0.51171875,0.01953125,0.107421875,0.0,180.0,360.0
3803085,,,,,,,,-0.6328125,-2.453125,2.875,-0.51171875,0.01953125,0.107421875,0.0,180.0,360.0
3803086,,,,,,,,-0.6328125,-2.453125,2.875,-0.1015625,0.080078125,0.12890625,0.0,180.0,360.0
3803087,,,,,,,,-1.97265625,-1.609375,2.75390625,-0.1015625,0.080078125,0.12890625,0.0,180.0,360.0
3803088,,,,,,,,-1.97265625,-1.609375,2.75390625,-0.0234375,-0.00390625,0.166015625,0.0,180.0,360.0
3803089,,,,,,,,-2.125,-1.875,2.6796875,-0.0234375,-0.00390625,0.166015625,0.0,180.0,360.0
3803090,36.01257066666667,129.3193755,69.91084139231766,18.937320462382075,1.3,51.0,,-2.125,-1.875,2.6796875,0.013671875,0.083984375,0.09765625,0.0,180.0,360.0
3803091,,,,,,,,-2.125,-1.875,2.6796875,0.205078125,0.17578125,-0.0859375,0.0,180.0,360.0
3803092,,,,,,,,0.95703125,-2.828125,2.703125,0.205078125,0.17578125,-0.0859375,0.0,180.0,360.0
3803093,,,,,,,,0.95703125,-2.828125,2.703125,0.2109375,-0.08984375,-0.21875,0.0,180.0,360.0
3803094,,,,,,,,-0.21875,-1.1484375,2.9609375,0.2109375,-0.08984375,-0.21875,0.0,180.0,360.0
3803095,,,,,,,,-0.21875,-1.1484375,2.9609375,0.033203125,-0.1328125,-0.21484375,0.0,180.0,360.0
3803096,,,,,,,,-0.31640625,-0.66015625,1.08984375,0.033203125,-0.1328125,-0.21484375,0.0,180.0,360.0
3803097,,,,,,,,-0.31640625,-0.66015625,1.08984375,0.06640625,-0.052734375,-0.208984375,0.0,180.0,360.0
3803098,,,,,,,,-0.31640625,-0.66015625,1.08984375,0.06640625,-0.052734375,-0.208984375,0.0,180.0,360.0
3803099,,,,,,,,-0.31640625,-0.66015625,1.08984375,0.072265625,0.0,-0.208984375,0.0,180.0,360.0
3803100,36.012572500000005,129.31937733333334,70.07611362477077,19.140747041644776,1.3,45.0,123.0,-0.31640625,-0.66015625,1.08984375,0.072265625,0.0,-0.208984375,0.0,180.0,360.0
3803101,,,,,,,,-0.31640625,-0.66015625,1.08984375,0.072265625,0.0,-0.208984375,0.0,180.0,360.0
3803102,,,,,,,,0.015625,1.74609375,-0.48046875,0.072265625,0.0,-0.208984375,0.0,180.0,360.0
3803103,,,,,,,,0.015625,1.74609375,-0.48046875,-0.001953125,-0.01953125,-0.212890625,0.0,180.0,360.0
3803104,,,,,,,,0.015625,1.74609375,-0.48046875,0.115234375,-0.150390625,0.001953125,0.0,180.0,360.0
3803105,,,,,,,,0.015625,1.74609375,-0.48046875,0.115234375,-0.150390625,0.001953125,0.0,180.0,360.0
3803106,,,,,,,,0.015625,1.74609375,-0.48046875,0.189453125,-0.087890625,-0.080078125,0.0,180.0,360.0
3803107,,,,,,,,-0.59375,-1.3515625,-0.5078125,0.189453125,-0.087890625,-0.080078125,0.0,180.0,360.0
3803108,,,,,,,,-0.59375,-1.3515625,-0.5078125,0.048828125,-0.111328125,-0.1015625,0.0,180.0,360.0
3803109,,,,,,,,-0.59375,-1.3515625,-0.5078125,-0.16015625,-0.138671875,-0.109375,0.0,180.0,360.0
3803110,36.01257366666667,129.31937916666666,70.24138644409076,19.270200800925846,1.2000000000000002,47.0,,-0.6171875,-1.39453125,-0.58203125,-0.16015625,-0.138671875,-0.109375,0.0,180.0,360.0
3803111,,,,,,,,-0.6171875,-1.39453125,-0.58203125,-0.31640625,-0.07421875,-0.130859375,0.0,180.0,360.0
3803112,,,,,,,,0.30859375,-1.41796875,-0.8125,-0.31640625,-0.07421875,-0.130859375,0.0,180.0,360.0
3803113,,,,,,,,0.30859375,-1.41796875,-0.8125,-0.44140625,0.01953125,-0.17578125,0.0,180.0,360.0
3803114,,,,,,,,0.15625,-0.5625,-0.6171875,-0.44140625,0.01953125,-0.17578125,0.0,180.0,360.0
3803115,,,,,,,,0.15625,-0.5625,-0.6171875,-0.693359375,-0.107421875,-0.125,0.0,180.0,360.0
3803116,,,,,,,,0.15625,-0.5625,-0.6171875,-0.98046875,-0.498046875,0.044921875,0.0,180.0,360.0
3803117,,,,,,,,-1.484375,-0.65234375,-0.46875,-0.98046875,-0.498046875,0.044921875,0.0,180.0,360.0
3803118,,,,,,,,-1.484375,-0.65234375,-0.46875,-0.744140625,-0.44921875,0.048828125,0.0,180.0,360.0
3803119,,,,,,,,1.265625,-3.70703125,1.42578125,-0.744140625,-0.44921875,0.048828125,0.0,180.0,360.0
3803120,36.01257433333333,129.31938016666666,70.33153522445794,19.344174344233043,1.2000000000000002,49.0,,1.265625,-3.70703125,1.42578125,-0.42578125,-0.322265625,-0.068359375,0.0,180.0,360.0
3803121,,,,,,,,2.75390625,-3.59765625,2.140625,-0.42578125,-0.322265625,-0.068359375,0.0,180.0,360.0
3803122,,,,,,,,2.75390625,-3.59765625,2.140625,0.08984375,-0.0625,-0.201171875,0.0,180.0,360.0
3803123,,,,,,,,3.74609375,-2.7890625,2.3125,0.08984375,-0.0625,-0.201171875,0.0,180.0,360.0
3803124,,,,,,,,3.74609375,-2.7890625,2.3125,0.08984375,-0.0625,-0.201171875,0.0,180.0,360.0
3803125,,,,,,,,3.74609375,-2.7890625,2.3125,0.763671875,0.025390625,-0.115234375,0.0,180.0,360.0
3803126,,,,,,,,0.62890625,-2.734375,2.2734375,0.763671875,0.025390625,-0.115234375,0.0,180.0,360.0
3803127,,,,,,,,0.62890625,-2.734375,2.2734375,0.408203125,0.009765625,0.154296875,0.0,180.0,360.0
3803128,,,,,,,,1.125,-0.58984375,1.47265625,0.408203125,0.009765625,0.154296875,0.0,180.0,360.0
3803129,,,,,,,,1.125,-0.58984375,1.47265625,0.22265625,-0.0859375,0.263671875,0.0,180.0,360.0
3803130,36.012575,129.31938133333333,70.43670889737702,19.418148008630926,1.1,51.0,,0.55078125,-0.59765625,1.1875,0.22265625,-0.0859375,0.263671875,0.0,180.0,360.0
3803131,,,,,,,,0.55078125,-0.59765625,1.1875,0.23046875,-0.056640625,0.306640625,0.0,180.0,360.0
3803132,,,,,,,,0.28515625,-0.4296875,0.83203125,0.23046875,-0.056640625,0.306640625,0.0,180.0,360.0
3803133,,,,,,,,0.28515625,-0.4296875,0.83203125,0.189453125,-0.06640625,0.330078125,0.0,180.0,360.0
3803134,,,,,,,,0.07421875,0.67578125,0.16015625,0.189453125,-0.06640625,0.330078125,0.0,180.0,360.0
3803135,,,,,,,,0.07421875,0.67578125,0.16015625,0.1640625,-0.078125,0.349609375,0.0,180.0,360.0
3803136,,,,,,,,0.07421875,0.67578125,0.16015625,0.15234375,-0.044921875,0.373046875,0.0,180.0,360.0
3803137,,,,,,,,0.08203125,2.0703125,-0.6171875,0.15234375,-0.044921875,0.373046875,0.0,180.0,360.0
3803138,,,,,,,,0.08203125,2.0703125,-0.6171875,0.1640625,-0.029296875,0.388671875,0.0,180.0,360.0
3803139,,,,,,,,0.11328125,3.1796875,-1.0703125,0.1640625,-0.029296875,0.388671875,0.0,180.0,360.0
3803140,36.01257566666666,129.31938266666666,70.55690746468356,19.492121795758433,1.3,54.0,,0.11328125,3.1796875,-1.0703125,0.173828125,-0.05078125,0.357421875,0.0,180.0,360.0
3803141,,,,,,,,0.4140625,3.640625,-1.3671875,0.173828125,-0.05078125,0.357421875,0.0,180.0,360.0
3803142,,,,,,,,0.4140625,3.640625,-1.3671875,0.13671875,-0.00390625,0.30078125,0.0,180.0,360.0
3803143,,,,,,,,0.69921875,3.640625,-1.70703125,0.13671875,-0.00390625,0.30078125,0.0,180.0,360.0
3803144,,,,,,,,0.69921875,3.640625,-1.70703125,0.13671875,-0.00390625,0.30078125,0.0,180.0,360.0
3803145,,,,,,,,0.69921875,3.640625,-1.70703125,0.166015625,0.119140625,0.18359375,0.0,180.0,360.0
3803146,,,,,,,,1.0078125,2.66796875,-1.5546875,0.166015625,0.119140625,0.18359375,0.0,180.0,360.0
3803147,,,,,,,,1.0078125,2.66796875,-1.5546875,0.1875,0.259765625,0.10546875,0.0,180.0,360.0
3803148,,,,,,,,1.20703125,2.390625,-1.640625,0.1875,0.259765625,0.10546875,0.0,180.0,360.0
3803149,,,,,,,,1.20703125,2.390625,-1.640625,0.212890625,0.3828125,0.0625,0.0,180.0,360.0
3803150,36.012576833333334,129.31938483333334,70.75223006125374,19.621575806928107,1.3,51.0,,1.4296875,2.0234375,-1.609375,0.212890625,0.3828125,0.0625,0.0,180.0,360.0
3803151,,,,,,,,1.4296875,2.0234375,-1.609375,0.177734375,0.40234375,0.02734375,0.0,180.0,360.0
3803152,,,,,,,,1.30859375,1.59375,-1.49609375,0.177734375,0.40234375,0.02734375,0.0,180.0,360.0
3803153,,,,,,,,1.30859375,1.59375,-1.49609375,0.10546875,0.28515625,0.041015625,0.0,180.0,360.0
3803154,,,,,,,,0.734375,0.50390625,-0.890625,0.10546875,0.28515625,0.041015625,0.0,180.0,360.0
3803155,,,,,,,,0.734375,0.50390625,-0.890625,0.048828125,0.302734375,0.05859375,0.0,180.0,360.0
3803156,,,,,,,,0.734375,0.50390625,-0.890625,0.048828125,0.302734375,0.05859375,0.0,180.0,360.0
3803157,,,,,,,,0.734375,0.50390625,-0.890625,0.009765625,0.275390625,0.0859375,0.0,180.0,360.0
3803158,,,,,,,,0.98046875,-0.66015625,-0.515625,0.009765625,0.275390625,0.0859375,0.0,180.0,360.0
3803159,,,,,,,,0.98046875,-0.66015625,-0.515625,-0.072265625,0.185546875,0.134765625,0.0,180.0,360.0
3803160,36.01257783333333,129.31938616666667,70.87242832455253,19.73253600978428,1.3,49.0,,0.98046875,-0.66015625,-0.515625,-0.140625,0.16015625,0.146484375,0.0,180.0,360.0
3803161,,,,,,,,0.4453125,-2.15234375,-0.65234375,-0.140625,0.16015625,0.146484375,0.0,180.0,360.0
3803162,,,,,,,,0.4453125,-2.15234375,-0.65234375,-0.15625,0.126953125,0.154296875,0.0,180.0,360.0
3803163,,,,,,,,0.0546875,-1.91015625,0.10546875,-0.15625,0.126953125,0.154296875,0.0,180.0,360.0
3803164,,,,,,,,0.0546875,-1.91015625,0.10546875,-0.52734375,0.0703125,0.173828125,0.0,180.0,360.0
3803165,,,,,,,,0.53125,-0.70703125,-0.57421875,-0.52734375,0.0703125,0.173828125,0.0,180.0,360.0
3803166,,,,,,,,0.53125,-0.70703125,-0.57421875,-0.92578125,-0.103515625,0.158203125,0.0,180.0,360.0
3803167,,,,,,,,0.53125,-0.70703125,-0.57421875,-0.7421875,-0.298828125,0.142578125,0.0,180.0,360.0
3803168,,,,,,,,-1.484375,-3.69921875,2.578125,-0.7421875,-0.298828125,0.142578125,0.0,180.0,360.0
3803169,,,,,,,,-1.484375,-3.69921875,2.578125,-0.2890625,-0.31640625,0.1484375,0.0,180.0,360.0
3803170,36.01257866666666,129.319387,70.94755205203178,19.82500264423764,1.3,45.0,,-2.234375,-4.42578125,3.1484375,-0.2890625,-0.31640625,0.1484375,0.0,180.0,360.0
3803171,,,,,,,,-2.234375,-4.42578125,3.1484375,-0.001953125,-0.26171875,0.13671875,0.0,180.0,360.0
3803172,,,,,,,,-2.3046875,-4.265625,2.95703125,-0.001953125,-0.26171875,0.13671875,0.0,180.0,360.0
3803173,,,,,,,,-2.3046875,-4.265625,2.95703125,0.13671875,-0.05078125,0.001953125,0.0,180.0,360.0
3803174,,,,,,,,0.60546875,-3.5,2.89453125,0.13671875,-0.05078125,0.001953125,0.0,180.0,360.0
3803175,,,,,,,,0.60546875,-3.5,2.89453125,0.376953125,0.099609375,-0.212890625,0.0,180.0,360.0
3803176,,,,,,,,0.60546875,-3.5,2.89453125,0.376953125,0.099609375,-0.212890625,0.0,180.0,360.0
3803177,,,,,,,,0.60546875,-3.5,2.89453125,0.388671875,0.0703125,-0.330078125,0.0,180.0,360.0
3803178,,,,,,,,-0.18359375,-0.234375,1.4296875,0.388671875,0.0703125,-0.330078125,0.0,180.0,360.0
3803179,,,,,,,,-0.18359375,-0.234375,1.4296875,0.240234375,0.091796875,-0.328125,0.0,180.0,360.0
3803180,36.01257966666667,129.31938816666667,71.05272541681906,19.935962727674713,1.4000000000000001,44.0,,-0.18359375,-0.234375,1.4296875,0.185546875,0.125,-0.33203125,0.0,180.0,360.0
3803181,,,,,,,,-0.109375,0.1328125,0.41015625,0.185546875,0.125,-0.33203125,0.0,180.0,360.0
3803182,,,,,,,,-0.109375,0.1328125,0.41015625,0.212890625,0.173828125,-0.34375,0.0,180.0,360.0
3803183,,,,,,,,0.02734375,1.00390625,0.09375,0.212890625,0.173828125,-0.34375,0.0,180.0,360.0
3803184,,,,,,,,0.02734375,1.00390625,0.09375,0.162109375,0.1953125,-0.341796875,0.0,180.0,360.0
3803185,,,,,,,,-0.01953125,2.75,-0.8125,0.162109375,0.1953125,-0.341796875,0.0,180.0,360.0
3803186,,,,,,,,-0.01953125,2.75,-0.8125,0.142578125,0.1953125,-0.328125,0.0,180.0,360.0
3803187,,,,,,,,-0.01953125,2.75,-0.8125,0.169921875,0.17578125,-0.306640625,0.0,180.0,360.0
3803188,,,,,,,,-0.48046875,3.45703125,-1.05078125,0.169921875,0.17578125,-0.306640625,0.0,180.0,360.0
3803189,,,,,,,,-0.48046875,3.45703125,-1.05078125,0.16796875,0.166015625,-0.251953125,0.0,180.0,360.0
3803190,36.0125805,129.31938916666667,71.14287403226643,20.028429486465072,1.4000000000000001,43.0,,-0.90234375,3.44921875,-1.1640625,0.16796875,0.166015625,-0.251953125,0.0,180.0,360.0
3803191,,,,,,,,-0.90234375,3.44921875,-1.1640625,0.13671875,0.091796875,-0.169921875,0.0,180.0,360.0
3803192,,,,,,,,-1.5546875,3.27734375,-1.3125,0.13671875,0.091796875,-0.169921875,0.0,180.0,360.0
3803193,,,,,,,,-1.5546875,3.27734375,-1.3125,0.1328125,0.00390625,-0.080078125,0.0,180.0,360.0
3803194,,,,,,,,-1.83984375,2.6875,-1.3359375,0.1328125,0.00390625,-0.080078125,0.0,180.0,360.0
3803195,,,,,,,,-1.83984375,2.6875,-1.3359375,0.134765625,-0.064453125,-0.021484375,0.0,180.0,360.0
3803196,,,,,,,,-1.48046875,1.90625,-1.375,0.134765625,-0.064453125,-0.021484375,0.0,180.0,360.0
3803197,,,,,,,,-1.48046875,1.90625,-1.375,0.189453125,-0.095703125,-0.013671875,0.0,180.0,360.0
3803198,,,,,,,,-1.48046875,1.90625,-1.375,0.18359375,-0.05859375,-0.01953125,0.0,180.0,360.0
3803199,,,,,,,,-1.1796875,1.9609375,-1.3828125,0.18359375,-0.05859375,-0.01953125,0.0,180.0,360.0
3803200,36.012581833333336,129.31939116666666,71.32317156199835,20.1763765935244,1.2000000000000002,45.0,123.0,-1.1796875,1.9609375,-1.3828125,0.11328125,-0.041015625,-0.025390625,0.0,180.0,360.0
3803201,,,,,,,,-1.1796875,1.9609375,-1.3828125,0.11328125,-0.041015625,-0.025390625,0.0,180.0,360.0
3803202,,,,,,,,-0.69140625,0.51953125,-1.3125,0.11328125,-0.041015625,-0.025390625,0.0,180.0,360.0
3803203,,,,,,,,-0.69140625,0.51953125,-1.3125,-0.484375,0.0390625,-0.1953125,0.0,180.0,360.0
3803204,,,,,,,,-0.69140625,0.51953125,-1.3125,-1.00390625,-0.326171875,0.0234375,0.0,180.0,360.0
3803205,,,,,,,,-2.078125,0.3671875,-0.3046875,-1.00390625,-0.326171875,0.0234375,0.0,180.0,360.0
3803206,,,,,,,,-2.078125,0.3671875,-0.3046875,-1.033203125,-0.53515625,0.068359375,0.0,180.0,360.0
3803207,,,,,,,,-0.984375,-2.91015625,-0.21875,-1.033203125,-0.53515625,0.068359375,0.0,180.0,360.0
3803208,,,,,,,,-0.984375,-2.91015625,-0.21875,-0.779296875,-0.48046875,0.001953125,0.0,180.0,360.0
3803209,,,,,,,,3.51171875,-5.26171875,2.4140625,-0.779296875,-0.48046875,0.001953125,0.0,180.0,360.0
3803210,36.01258233333333,129.31939283333335,71.47342005160262,20.23185742987006,1.2000000000000002,49.0,,3.51171875,-5.26171875,2.4140625,-0.064453125,-0.1484375,-0.26953125,0.0,180.0,360.0
3803211,,,,,,,,3.51171875,-5.26171875,2.4140625,0.310546875,-0.103515625,-0.24609375,0.0,180.0,360.0
3803212,,,,,,,,2.09375,-3.8828125,3.54296875,0.310546875,-0.103515625,-0.24609375,0.0,180.0,360.0
3803213,,,,,,,,2.09375,-3.8828125,3.54296875,0.79296875,0.087890625,-0.166015625,0.0,180.0,360.0
3803214,,,,,,,,0.33203125,-5.0625,3.73828125,0.79296875,0.087890625,-0.166015625,0.0,180.0,360.0
3803215,,,,,,,,0.33203125,-5.0625,3.73828125,0.44921875,0.083984375,0.060546875,0.0,180.0,360.0
3803216,,,,,,,,0.16015625,-2.8359375,2.45703125,0.44921875,0.083984375,0.060546875,0.0,180.0,360.0
3803217,,,,,,,,0.16015625,-2.8359375,2.45703125,0.224609375,0.005859375,0.2265625,0.0,180.0,360.0
3803218,,,,,,,,0.30078125,-0.62890625,1.16015625,0.224609375,0.005859375,0.2265625,0.0,180.0,360.0
3803219,,,,,,,,0.30078125,-0.62890625,1.16015625,0.1875,-0.03125,0.287109375,0.0,180.0,360.0
3803220,36.012583166666666,129.31939433333335,71.60864334166577,20.324324560120527,1.4000000000000001,52.0,,-0.50390625,-0.23828125,0.67578125,0.1875,-0.03125,0.287109375,0.0,180.0,360.0
3803221,,,,,,,,-0.50390625,-0.23828125,0.67578125,0.13671875,-0.080078125,0.314453125,0.0,180.0,360.0
3803222,,,,,,,,-0.50390625,-0.23828125,0.67578125,0.09765625,-0.099609375,0.345703125,0.0,180.0,360.0
3803223,,,,,,,,-0.609375,1.6171875,-0.46484375,0.09765625,-0.099609375,0.345703125,0.0,180.0,360.0
3803224,,,,,,,,-0.609375,1.6171875,-0.46484375,0.0859375,-0.083984375,0.37890625,0.0,180.0,360.0
3803225,,,,,,,,-0.515625,2.23046875,-0.83203125,0.0859375,-0.083984375,0.37890625,0.0,180.0,360.0
3803226,,,,,,,,-0.515625,2.23046875,-0.83203125,0.046875,-0.05078125,0.376953125,0.0,180.0,360.0
3803227,,,,,,,,-0.30078125,2.6953125,-1.26953125,0.046875,-0.05078125,0.376953125,0.0,180.0,360.0
3803228,,,,,,,,-0.30078125,2.6953125,-1.26953125,0.037109375,-0.02734375,0.328125,0.0,180.0,360.0
3803229,,,,,,,,0.30859375,3.5546875,-1.5859375,0.037109375,-0.02734375,0.328125,0.0,180.0,360.0
3803230,36.01258383333333,129.3193955,71.71381699425619,20.398298240404866,1.4000000000000001,51.0,,0.30859375,3.5546875,-1.5859375,0.05859375,-0.01953125,0.255859375,0.0,180.0,360.0
3803231,,,,,,,,0.30859375,3.5546875,-1.5859375,0.05859375,-0.01953125,0.255859375,0.0,180.0,360.0
3803232,,,,,,,,0.30859375,3.5546875,-1.5859375,0.080078125,0.02734375,0.1484375,0.0,180.0,360.0
3803233,,,,,,,,0.875,2.93359375,-1.81640625,0.080078125,0.02734375,0.1484375,0.0,180.0,360.0
3803234,,,,,,,,0.875,2.93359375,-1.81640625,0.091796875,0.119140625,0.05859375,0.0,180.0,360.0
3803235,,,,,,,,1.12890625,2.8125,-1.83203125,0.091796875,0.119140625,0.05859375,0.0,180.0,360.0
3803236,,,,,,,,1.12890625,2.8125,-1.83203125,0.103515625,0.23046875,-0.013671875,0.0,180.0,360.0
3803237,,,,,,,,1.12890625,2.8125,-1.83203125,0.13671875,0.30859375,-0.083984375,0.0,180.0,360.0
3803238,,,,,,,,1.0234375,2.0,-1.77734375,0.13671875,0.30859375,-0.083984375,0.0,180.0,360.0
3803239,,,,,,,,1.0234375,2.0,-1.77734375,0.162109375,0.302734375,-0.125,0.0,180.0,360.0
3803240,36.012584999999994,129.3193973333333,71.8790897602415,20.527752031388054,1.3,50.0,,0.36328125,0.328125,-0.94140625,0.162109375,0.302734375,-0.125,0.0,180.0,360.0
3803241,,,,,,,,0.36328125,0.328125,-0.94140625,0.181640625,0.224609375,-0.11328125,0.0,180.0,360.0
3803242,,,,,,,,0.36328125,0.328125,-0.94140625,0.23046875,0.13671875,-0.107421875,0.0,180.0,360.0
3803243,,,,,,,,0.30859375,-0.3828125,-0.5859375,0.23046875,0.13671875,-0.107421875,0.0,180.0,360.0
3803244,,,,,,,,0.30859375,-0.3828125,-0.5859375,0.091796875,0.03515625,-0.04296875,0.0,180.0,360.0
3803245,,,,,,,,0.30078125,-0.24609375,-0.73046875,0.091796875,0.03515625,-0.04296875,0.0,180.0,360.0
3803246,,,,,,,,0.30078125,-0.24609375,-0.73046875,-0.095703125,-0.087890625,0.017578125,0.0,180.0,360.0
3803247,,,,,,,,0.1796875,-0.9453125,-0.73046875,-0.095703125,-0.087890625,0.017578125,0.0,180.0,360.0
3803248,,,,,,,,0.1796875,-0.9453125,-0.73046875,-0.146484375,-0.18359375,0.060546875,0.0,180.0,360.0
3803249,,,,,,,,0.1015625,-2.23828125,-0.125,-0.146484375,-0.18359375,0.060546875,0.0,180.0,360.0
3803250,36.01258583333333,129.31939849999998,71.98426325606415,20.620218920798106,1.3,50.0,,0.1015625,-2.23828125,-0.125,-0.27734375,-0.103515625,0.109375,0.0,180.0,360.0
3803251,,,,,,,,0.1015625,-2.23828125,-0.125,-0.27734375,-0.103515625,0.109375,0.0,180.0,360.0
3803252,,,,,,,,0.1015625,-2.23828125,-0.125,-0.7265625,-0.0703125,0.19921875,0.0,180.0,360.0
3803253,,,,,,,,1.453125,-2.328125,-1.078125,-0.7265625,-0.0703125,0.19921875,0.0,180.0,360.0
3803254,,,,,,,,1.453125,-2.328125,-1.078125,-1.02734375,-0.01953125,0.162109375,0.0,180.0,360.0
3803255,,,,,,,,1.453125,-2.328125,-1.078125,-0.734375,-0.00390625,0.03125,0.0,180.0,360.0
3803256,,,,,,,,0.6796875,-4.08984375,0.57421875,-0.734375,-0.00390625,0.03125,0.0,180.0,360.0
3803257,,,,,,,,0.6796875,-4.08984375,0.57421875,-0.1953125,0.037109375,0.0,0.0,180.0,360.0
3803258,,,,,,,,-0.77734375,-3.98828125,2.375,-0.1953125,0.037109375,0.0,0.0,180.0,360.0
3803259,,,,,,,,-0.77734375,-3.98828125,2.375,0.111328125,0.115234375,0.015625,0.0,180.0,360.0
3803260,36.01258683333333,129.31939966666667,72.08943660035811,20.731179017632552,1.4000000000000001,47.0,,-0.9296875,-2.6796875,2.76171875,0.111328125,0.115234375,0.015625,0.0,180.0,360.0
3803261,,,,,,,,-0.9296875,-2.6796875,2.76171875,0.193359375,0.23828125,0.013671875,0.0,180.0,360.0
3803262,,,,,,,,-0.9296875,-2.6796875,2.76171875,0.35546875,0.427734375,-0.154296875,0.0,180.0,360.0
3803263,,,,,,,,1.12109375,-3.109375,2.26171875,0.35546875,0.427734375,-0.154296875,0.0,180.0,360.0
3803264,,,,,,,,1.12109375,-3.109375,2.26171875,0.212890625,0.224609375,-0.318359375,0.0,180.0,360.0
3803265,,,,,,,,-0.2109375,-0.05078125,1.81640625,0.212890625,0.224609375,-0.318359375,0.0,180.0,360.0
3803266,,,,,,,,-0.2109375,-0.05078125,1.81640625,0.056640625,0.1015625,-0.333984375,0.0,180.0,360.0
3803267,,,,,,,,-0.41796875,-0.3359375,1.546875,0.056640625,0.1015625,-0.333984375,0.0,180.0,360.0
3803268,,,,,,,,-0.41796875,-0.3359375,1.546875,0.130859375,0.16015625,-0.3203125,0.0,180.0,360.0
3803269,,,,,,,,-0.3671875,-0.10546875,0.87890625,0.130859375,0.16015625,-0.3203125,0.0,180.0,360.0
3803270,36.0125875,129.31940066666667,72.17958535122906,20.805152580305464,1.3,46.0,,-0.3671875,-0.10546875,0.87890625,0.130859375,0.16015625,-0.3203125,0.0,180.0,360.0
3803271,,,,,,,,-0.3671875,-0.10546875,0.87890625,0.134765625,0.154296875,-0.2890625,0.0,180.0,360.0
3803272,,,,,,,,-0.4375,1.75390625,-0.46875,0.134765625,0.154296875,-0.2890625,0.0,180.0,360.0
3803273,,,,,,,,-0.4375,1.75390625,-0.46875,0.126953125,0.080078125,-0.291015625,0.0,180.0,360.0
3803274,,,,,,,,-0.46875,2.16796875,-0.70703125,0.126953125,0.080078125,-0.291015625,0.0,180.0,360.0
3803275,,,,,,,,-0.46875,2.16796875,-0.70703125,0.205078125,0.0625,-0.2890625,0.0,180.0,360.0
3803276,,,,,,,,-0.515625,2.69140625,-0.73828125,0.205078125,0.0625,-0.2890625,0.0,180.0,360.0
3803277,,,,,,,,-0.515625,2.69140625,-0.73828125,0.1953125,0.041015625,-0.244140625,0.0,180.0,360.0
3803278,,,,,,,,-1.14453125,3.36328125,-1.390625,0.1953125,0.041015625,-0.244140625,0.0,180.0,360.0
3803279,,,,,,,,-1.14453125,3.36328125,-1.390625,0.150390625,0.0,-0.15625,0.0,180.0,360.0
3803280,36.012588,129.3194015,72.25470935957058,20.86063281554251,1.3,47.0,,-1.57421875,3.1875,-1.5546875,0.150390625,0.0,-0.15625,0.0,180.0,360.0
3803281,,,,,,,,-1.57421875,3.1875,-1.5546875,0.126953125,-0.0703125,-0.052734375,0.0,180.0,360.0
3803282,,,,,,,,-1.57421875,3.1875,-1.5546875,0.126953125,-0.11328125,0.0234375,0.0,180.0,360.0
3803283,,,,,,,,-1.55859375,2.4453125,-1.66796875,0.126953125,-0.11328125,0.0234375,0.0,180.0,360.0
3803284,,,,,,,,-1.55859375,2.4453125,-1.66796875,0.1953125,-0.130859375,0.033203125,0.0,180.0,360.0
3803285,,,,,,,,-1.12890625,1.5546875,-1.30859375,0.1953125,-0.130859375,0.033203125,0.0,180.0,360.0
3803286,,,,,,,,-1.12890625,1.5546875,-1.30859375,0.265625,-0.095703125,0.017578125,0.0,180.0,360.0
3803287,,,,,,,,-0.984375,1.38671875,-1.2734375,0.265625,-0.095703125,0.017578125,0.0,180.0,360.0
3803288,,,,,,,,-0.984375,1.38671875,-1.2734375,0.240234375,-0.095703125,0.025390625,0.0,180.0,360.0
3803289,,,,,,,,-1.015625,1.0546875,-1.42578125,0.240234375,-0.095703125,0.025390625,0.0,180.0,360.0
3803290,36.01258883333333,129.31940266666666,72.35988284773184,20.953099708859263,1.3,47.0,,-1.015625,1.0546875,-1.42578125,0.240234375,-0.095703125,0.025390625,0.0,180.0,360.0
3803291,,,,,,,,-1.015625,1.0546875,-1.42578125,0.205078125,-0.07421875,-0.025390625,0.0,180.0,360.0
3803292,,,,,,,,-0.51171875,-0.578125,-0.484375,0.205078125,-0.07421875,-0.025390625,0.0,180.0,360.0
3803293,,,,,,,,-0.51171875,-0.578125,-0.484375,0.107421875,-0.05078125,-0.12890625,0.0,180.0,360.0
3803294,,,,,,,,-0.6171875,-0.515625,-0.6484375,0.107421875,-0.05078125,-0.12890625,0.0,180.0,360.0
3803295,,,,,,,,-0.6171875,-0.515625,-0.6484375,-0.07421875,-0.10546875,-0.15625,0.0,180.0,360.0
3803296,,,,,,,,-0.71875,-0.71484375,-0.72265625,-0.07421875,-0.10546875,-0.15625,0.0,180.0,360.0
3803297,,,,,,,,-0.71875,-0.71484375,-0.72265625,-0.279296875,-0.080078125,-0.154296875,0.0,180.0,360.0
3803298,,,,,,,,-0.55859375,-0.9453125,-0.8828125,-0.279296875,-0.080078125,-0.154296875,0.0,180.0,360.0
3803299,,,,,,,,-0.55859375,-0.9453125,-0.8828125,-0.34375,0.04296875,-0.177734375,0.0,180.0,360.0
3803300,36.01259016666667,129.31940500000002,72.57023012174561,21.101047089267155,1.2000000000000002,49.0,123.0,-0.55859375,-0.9453125,-0.8828125,-0.34375,0.04296875,-0.177734375,0.0,180.0,360.0
3803301,,,,,,,,-0.55859375,-0.9453125,-0.8828125,-0.447265625,0.02734375,-0.1796875,0.0,180.0,360.0
3803302,,,,,,,,-1.6328125,1.4375,-0.2890625,-0.447265625,0.02734375,-0.1796875,0.0,180.0,360.0
3803303,,,,,,,,-1.6328125,1.4375,-0.2890625,0.107421875,-0.017578125,0.216796875,0.0,180.0,360.0
3803304,,,,,,,,1.34765625,2.765625,-2.078125,0.107421875,-0.017578125,0.216796875,0.0,180.0,360.0
3803305,,,,,,,,1.34765625,2.765625,-2.078125,0.1015625,0.10546875,0.087890625,0.0,180.0,360.0
3803306,,,,,,,,1.29296875,2.453125,-1.91015625,0.1015625,0.10546875,0.087890625,0.0,180.0,360.0
3803307,,,,,,,,1.29296875,2.453125,-1.91015625,0.126953125,0.255859375,-0.001953125,0.0,180.0,360.0
3803308,,,,,,,,0.97265625,2.13671875,-1.75,0.126953125,0.255859375,-0.001953125,0.0,180.0,360.0
3803309,,,,,,,,0.97265625,2.13671875,-1.75,0.193359375,0.337890625,-0.0625,0.0,180.0,360.0
3803310,36.01259116666667,129.31940716666668,72.76555280427137,21.212007939273477,1.0,54.0,,0.97265625,2.13671875,-1.75,0.30078125,0.40234375,-0.10546875,0.0,180.0,360.0
3803311,,,,,,,,0.63671875,1.30859375,-1.18359375,0.30078125,0.40234375,-0.10546875,0.0,180.0,360.0
3803312,,,,,,,,0.63671875,1.30859375,-1.18359375,0.3203125,0.37109375,-0.130859375,0.0,180.0,360.0
3803313,,,,,,,,0.63671875,1.30859375,-1.18359375,0.3203125,0.37109375,-0.130859375,0.0,180.0,360.0
3803314,,,,,,,,0.63671875,1.30859375,-1.18359375,0.224609375,0.271484375,-0.12109375,0.0,180.0,360.0
3803315,,,,,,,,0.66015625,-0.22265625,-0.8125,0.224609375,0.271484375,-0.12109375,0.0,180.0,360.0
3803316,,,,,,,,0.66015625,-0.22265625,-0.8125,0.138671875,0.197265625,-0.087890625,0.0,180.0,360.0
3803317,,,,,,,,0.765625,-0.71484375,-0.5625,0.138671875,0.197265625,-0.087890625,0.0,180.0,360.0
3803318,,,,,,,,0.765625,-0.71484375,-0.5625,0.044921875,0.09375,-0.02734375,0.0,180.0,360.0
3803319,,,,,,,,0.52734375,-0.875,-0.27734375,0.044921875,0.09375,-0.02734375,0.0,180.0,360.0
3803320,36.01259166666667,129.31940816666665,72.85570169465566,21.26748830528545,1.1,53.0,,0.52734375,-0.875,-0.27734375,-0.0625,0.052734375,0.015625,0.0,180.0,360.0
3803321,,,,,,,,0.4609375,-2.17578125,-0.53125,-0.0625,0.052734375,0.015625,0.0,180.0,360.0
3803322,,,,,,,,0.4609375,-2.17578125,-0.53125,-0.177734375,0.064453125,0.052734375,0.0,180.0,360.0
3803323,,,,,,,,0.4609375,-2.17578125,-0.53125,-0.177734375,0.064453125,0.052734375,0.0,180.0,360.0
3803324,,,,,,,,0.4609375,-2.17578125,-0.53125,-0.583984375,0.029296875,0.138671875,0.0,180.0,360.0
3803325,,,,,,,,1.2265625,-1.09765625,-0.98046875,-0.583984375,0.029296875,0.138671875,0.0,180.0,360.0
3803326,,,,,,,,1.2265625,-1.09765625,-0.98046875,-0.9140625,-0.00390625,0.1328125,0.0,180.0,360.0
3803327,,,,,,,,1.2265625,-1.09765625,-0.98046875,-0.609375,-0.07421875,0.052734375,0.0,180.0,360.0
3803328,,,,,,,,-0.4453125,-3.8984375,2.80078125,-0.609375,-0.07421875,0.052734375,0.0,180.0,360.0
3803329,,,,,,,,-0.4453125,-3.8984375,2.80078125,-0.1796875,-0.0625,0.046875,0.0,180.0,360.0
3803330,36.0125925,129.31940916666665,72.9458502776905,21.359955080439704,1.1,50.0,,-0.6640625,-3.453125,2.6953125,-0.1796875,-0.0625,0.046875,0.0,180.0,360.0
3803331,,,,,,,,-0.6640625,-3.453125,2.6953125,0.005859375,-0.080078125,0.08984375,0.0,180.0,360.0
3803332,,,,,,,,-1.38671875,-1.5234375,2.875,0.005859375,-0.080078125,0.08984375,0.0,180.0,360.0
3803333,,,,,,,,-1.38671875,-1.5234375,2.875,0.05078125,0.115234375,0.041015625,0.0,180.0,360.0
3803334,,,,,,,,-1.38671875,-1.5234375,2.875,0.115234375,0.271484375,-0.072265625,0.0,180.0,360.0
3803335,,,,,,,,1.12109375,-2.17578125,2.0390625,0.115234375,0.271484375,-0.072265625,0.0,180.0,360.0
3803336,,,,,,,,1.12109375,-2.17578125,2.0390625,0.25390625,0.228515625,-0.23046875,0.0,180.0,360.0
3803337,,,,,,,,0.56640625,-1.26171875,2.45703125,0.25390625,0.228515625,-0.23046875,0.0,180.0,360.0
3803338,,,,,,,,0.56640625,-1.26171875,2.45703125,0.08203125,0.1953125,-0.25,0.0,180.0,360.0
3803339,,,,,,,,-0.4296875,-0.359375,1.84375,0.08203125,0.1953125,-0.25,0.0,180.0,360.0
3803340,36.0125935,129.31941033333334,73.05102360086674,21.470915188871572,1.3,47.0,,-0.4296875,-0.359375,1.84375,0.06640625,0.2421875,-0.236328125,0.0,180.0,360.0
3803341,,,,,,,,-0.3984375,-0.50390625,1.0859375,0.06640625,0.2421875,-0.236328125,0.0,180.0,360.0
3803342,,,,,,,,-0.3984375,-0.50390625,1.0859375,0.087890625,0.2734375,-0.23046875,0.0,180.0,360.0
3803343,,,,,,,,-0.3984375,-0.50390625,1.0859375,0.087890625,0.2734375,-0.23046875,0.0,180.0,360.0
3803344,,,,,,,,-0.3984375,-0.50390625,1.0859375,0.076171875,0.255859375,-0.236328125,0.0,180.0,360.0
3803345,,,,,,,,-0.38671875,1.6953125,-0.46484375,0.076171875,0.255859375,-0.236328125,0.0,180.0,360.0
3803346,,,,,,,,-0.38671875,1.6953125,-0.46484375,0.078125,0.21875,-0.25,0.0,180.0,360.0
3803347,,,,,,,,-0.38671875,1.6953125,-0.46484375,0.107421875,0.185546875,-0.25390625,0.0,180.0,360.0
3803348,,,,,,,,-0.59375,2.875,-0.87890625,0.107421875,0.185546875,-0.25390625,0.0,180.0,360.0
3803349,,,,,,,,-0.59375,2.875,-0.87890625,0.119140625,0.146484375,-0.2265625,0.0,180.0,360.0
3803350,36.012595000000005,129.31941216666667,73.21629602352517,21.637355415753397,1.3,46.0,,-0.81640625,3.1640625,-1.17578125,0.119140625,0.146484375,-0.2265625,0.0,180.0,360.0
3803351,,,,,,,,-0.81640625,3.1640625,-1.17578125,0.126953125,0.107421875,-0.177734375,0.0,180.0,360.0
3803352,,,,,,,,-1.55078125,3.04296875,-1.4765625,0.126953125,0.107421875,-0.177734375,0.0,180.0,360.0
3803353,,,,,,,,-1.55078125,3.04296875,-1.4765625,0.13671875,0.068359375,-0.109375,0.0,180.0,360.0
3803354,,,,,,,,-1.55078125,3.04296875,-1.4765625,0.173828125,-0.005859375,-0.041015625,0.0,180.0,360.0
3803355,,,,,,,,-1.8046875,2.328125,-1.4453125,0.173828125,-0.005859375,-0.041015625,0.0,180.0,360.0
3803356,,,,,,,,-1.8046875,2.328125,-1.4453125,0.236328125,-0.06640625,-0.0078125,0.0,180.0,360.0
3803357,,,,,,,,-1.73046875,2.08984375,-1.40234375,0.236328125,-0.06640625,-0.0078125,0.0,180.0,360.0
3803358,,,,,,,,-1.73046875,2.08984375,-1.40234375,0.27734375,-0.1171875,0.01171875,0.0,180.0,360.0
3803359,,,,,,,,-1.546875,1.953125,-1.37109375,0.27734375,-0.1171875,0.01171875,0.0,180.0,360.0
3803360,36.01259566666667,129.31941333333333,73.32146964619393,21.711329116338902,1.3,47.0,,-1.546875,1.953125,-1.37109375,0.224609375,-0.18359375,0.041015625,0.0,180.0,360.0
3803361,,,,,,,,-1.5,1.01953125,-1.49609375,0.224609375,-0.18359375,0.041015625,0.0,180.0,360.0
3803362,,,,,,,,-1.5,1.01953125,-1.49609375,0.1875,-0.236328125,0.056640625,0.0,180.0,360.0
3803363,,,,,,,,-0.88671875,-0.73828125,-0.8515625,0.1875,-0.236328125,0.056640625,0.0,180.0,360.0
3803364,,,,,,,,-0.88671875,-0.73828125,-0.8515625,0.22265625,-0.212890625,0.021484375,0.0,180.0,360.0
3803365,,,,,,,,-0.88671875,-0.73828125,-0.8515625,0.1875,-0.18359375,-0.03515625,0.0,180.0,360.0
3803366,,,,,,,,-0.671875,-0.75390625,-0.69921875,0.1875,-0.18359375,-0.03515625,0.0,180.0,360.0
3803367,,,,,,,,-0.671875,-0.75390625,-0.69921875,0.03125,-0.18359375,-0.083984375,0.0,180.0,360.0
3803368,,,,,,,,-0.41796875,-1.0,-0.9140625,0.03125,-0.18359375,-0.083984375,0.0,180.0,360.0
3803369,,,,,,,,-0.41796875,-1.0,-0.9140625,-0.154296875,-0.126953125,-0.12890625,0.0,180.0,360.0
3803370,36.012596333333335,129.31941450000002,73.42664326945281,21.78530281697136,1.3,50.0,,-0.09765625,-1.265625,-0.8984375,-0.154296875,-0.126953125,-0.12890625,0.0,180.0,360.0
3803371,,,,,,,,-0.09765625,-1.265625,-0.8984375,-0.31640625,-0.001953125,-0.1640625,0.0,180.0,360.0
3803372,,,,,,,,0.20703125,-0.67578125,-0.78125,-0.31640625,-0.001953125,-0.1640625,0.0,180.0,360.0
3803373,,,,,,,,0.20703125,-0.67578125,-0.78125,-0.4453125,0.078125,-0.17578125,0.0,180.0,360.0
3803374,,,,,,,,0.20703125,-0.67578125,-0.78125,-0.4453125,0.078125,-0.17578125,0.0,180.0,360.0
3803375,,,,,,,,0.20703125,-0.67578125,-0.78125,-0.76171875,-0.091796875,-0.064453125,0.0,180.0,360.0
3803376,,,,,,,,-1.671875,-1.53125,-0.41015625,-0.76171875,-0.091796875,-0.064453125,0.0,180.0,360.0
3803377,,,,,,,,-1.671875,-1.53125,-0.41015625,-1.087890625,-0.455078125,0.08203125,0.0,180.0,360.0
3803378,,,,,,,,-1.671875,-1.53125,-0.41015625,-0.775390625,-0.447265625,0.017578125,0.0,180.0,360.0
3803379,,,,,,,,0.54296875,-4.7578125,1.49609375,-0.775390625,-0.447265625,0.017578125,0.0,180.0,360.0
3803380,36.012597166666666,129.319416,73.5618665133863,21.877769976584307,1.3,51.0,,0.54296875,-4.7578125,1.49609375,-0.142578125,-0.138671875,-0.197265625,0.0,180.0,360.0
3803381,,,,,,,,4.65625,-4.95703125,2.96875,-0.142578125,-0.138671875,-0.197265625,0.0,180.0,360.0
3803382,,,,,,,,4.65625,-4.95703125,2.96875,0.265625,-0.052734375,-0.2578125,0.0,180.0,360.0
3803383,,,,,,,,0.71875,-3.8984375,3.91015625,0.265625,-0.052734375,-0.2578125,0.0,180.0,360.0
3803384,,,,,,,,0.71875,-3.8984375,3.91015625,0.7734375,0.04296875,-0.142578125,0.0,180.0,360.0
3803385,,,,,,,,0.71875,-3.8984375,3.91015625,0.58984375,-0.046875,0.076171875,0.0,180.0,360.0
3803386,,,,,,,,-0.4921875,-3.1015625,3.171875,0.58984375,-0.046875,0.076171875,0.0,180.0,360.0
3803387,,,,,,,,-0.4921875,-3.1015625,3.171875,0.240234375,-0.11328125,0.2890625,0.0,180.0,360.0
3803388,,,,,,,,0.41015625,-0.24609375,1.29296875,0.240234375,-0.11328125,0.2890625,0.0,180.0,360.0
3803389,,,,,,,,0.41015625,-0.24609375,1.29296875,0.142578125,-0.1640625,0.373046875,0.0,180.0,360.0
3803390,36.012598000000004,129.3194175,73.6970897559131,21.970237139020842,1.4000000000000001,54.0,,0.2734375,-0.54296875,1.14453125,0.142578125,-0.1640625,0.373046875,0.0,180.0,360.0
3803391,,,,,,,,0.2734375,-0.54296875,1.14453125,0.076171875,-0.189453125,0.404296875,0.0,180.0,360.0
3803392,,,,,,,,-0.54296875,0.54296875,0.12109375,0.076171875,-0.189453125,0.404296875,0.0,180.0,360.0
3803393,,,,,,,,-0.54296875,0.54296875,0.12109375,0.076171875,-0.189453125,0.404296875,0.0,180.0,360.0
3803394,,,,,,,,-0.54296875,0.54296875,0.12109375,0.0,-0.189453125,0.44921875,0.0,180.0,360.0
3803395,,,,,,,,-0.40234375,1.90625,-0.73046875,0.0,-0.189453125,0.44921875,0.0,180.0,360.0
3803396,,,,,,,,-0.40234375,1.90625,-0.73046875,0.033203125,-0.103515625,0.427734375,0.0,180.0,360.0
3803397,,,,,,,,0.13671875,2.23046875,-1.07421875,0.033203125,-0.103515625,0.427734375,0.0,180.0,360.0
3803398,,,,,,,,0.13671875,2.23046875,-1.07421875,0.068359375,-0.064453125,0.380859375,0.0,180.0,360.0
3803399,,,,,,,,0.40625,2.70703125,-1.27734375,0.068359375,-0.064453125,0.380859375,0.0,180.0,360.0
3803400,36.012599,129.31941899999998,73.83231284131183,22.081197508119885,1.2000000000000002,52.0,123.0,0.40625,2.70703125,-1.27734375,0.068359375,-0.064453125,0.380859375,0.0,180.0,360.0
3803401,,,,,,,,0.40625,2.70703125,-1.27734375,0.068359375,-0.064453125,0.380859375,0.0,180.0,360.0
3803402,,,,,,,,0.40625,2.70703125,-1.27734375,0.119140625,-0.0390625,0.294921875,0.0,180.0,360.0
3803403,,,,,,,,0.84375,3.28125,-1.7421875,0.119140625,-0.0390625,0.294921875,0.0,180.0,360.0
3803404,,,,,,,,0.84375,3.28125,-1.7421875,-0.16015625,0.046875,0.068359375,0.0,180.0,360.0
3803405,,,,,,,,0.23828125,-1.5859375,0.265625,-0.16015625,0.046875,0.068359375,0.0,180.0,360.0
3803406,,,,,,,,0.23828125,-1.5859375,0.265625,-0.505859375,0.04296875,0.16015625,0.0,180.0,360.0
3803407,,,,,,,,0.5390625,-0.296875,-0.3359375,-0.505859375,0.04296875,0.16015625,0.0,180.0,360.0
3803408,,,,,,,,0.5390625,-0.296875,-0.3359375,-0.873046875,-0.052734375,0.193359375,0.0,180.0,360.0
3803409,,,,,,,,0.83984375,-2.14453125,-0.55078125,-0.873046875,-0.052734375,0.193359375,0.0,180.0,360.0
3803410,36.01260033333333,129.319421,74.01261028363243,22.229144670747967,1.2000000000000002,50.0,,0.83984375,-2.14453125,-0.55078125,-0.6484375,-0.0390625,0.09765625,0.0,180.0,360.0
3803411,,,,,,,,-1.12109375,-2.38671875,2.48828125,-0.6484375,-0.0390625,0.09765625,0.0,180.0,360.0
3803412,,,,,,,,-1.12109375,-2.38671875,2.48828125,-0.43359375,-0.103515625,0.13671875,0.0,180.0,360.0
3803413,,,,,,,,-1.12109375,-2.38671875,2.48828125,-0.15625,-0.076171875,0.1328125,0.0,180.0,360.0
3803414,,,,,,,,-1.40625,-3.30859375,2.8203125,-0.15625,-0.076171875,0.1328125,0.0,180.0,360.0
3803415,,,,,,,,-1.40625,-3.30859375,2.8203125,0.10546875,0.107421875,0.05078125,0.0,180.0,360.0
3803416,,,,,,,,-0.66015625,-3.84375,3.140625,0.10546875,0.107421875,0.05078125,0.0,180.0,360.0
3803417,,,,,,,,-0.66015625,-3.84375,3.140625,0.244140625,0.17578125,-0.09375,0.0,180.0,360.0
3803418,,,,,,,,0.46484375,-3.4296875,2.8046875,0.244140625,0.17578125,-0.09375,0.0,180.0,360.0
3803419,,,,,,,,0.46484375,-3.4296875,2.8046875,0.2890625,0.0546875,-0.24609375,0.0,180.0,360.0
3803420,36.012601333333336,129.319422,74.10275869035314,22.340104665914158,1.3,47.0,,0.46484375,-3.4296875,2.8046875,0.2890625,0.0546875,-0.24609375,0.0,180.0,360.0
3803421,,,,,,,,0.46484375,-3.4296875,2.8046875,0.173828125,-0.015625,-0.287109375,0.0,180.0,360.0
3803422,,,,,,,,-0.1796875,-0.65625,0.984375,0.173828125,-0.015625,-0.287109375,0.0,180.0,360.0
3803423,,,,,,,,-0.1796875,-0.65625,0.984375,0.1640625,0.01171875,-0.314453125,0.0,180.0,360.0
3803424,,,,,,,,-0.1796875,-0.65625,0.984375,0.201171875,0.046875,-0.328125,0.0,180.0,360.0
3803425,,,,,,,,-0.06640625,0.0234375,0.625,0.201171875,0.046875,-0.328125,0.0,180.0,360.0
3803426,,,,,,,,-0.06640625,0.0234375,0.625,0.20703125,0.0703125,-0.3359375,0.0,180.0,360.0
3803427,,,,,,,,0.0234375,1.85546875,-0.5234375,0.20703125,0.0703125,-0.3359375,0.0,180.0,360.0
3803428,,,,,,,,0.0234375,1.85546875,-0.5234375,0.1953125,0.056640625,-0.3359375,0.0,180.0,360.0
3803429,,,,,,,,-0.109375,2.68359375,-0.91015625,0.1953125,0.056640625,-0.3359375,0.0,180.0,360.0
3803430,36.01260216666667,129.31942316666667,74.20793214125729,22.43257158226564,1.4000000000000001,45.0,,-0.109375,2.68359375,-0.91015625,0.216796875,0.05859375,-0.326171875,0.0,180.0,360.0
3803431,,,,,,,,-0.546875,3.65625,-1.36328125,0.216796875,0.05859375,-0.326171875,0.0,180.0,360.0
3803432,,,,,,,,-0.546875,3.65625,-1.36328125,0.197265625,0.048828125,-0.279296875,0.0,180.0,360.0
3803433,,,,,,,,-0.546875,3.65625,-1.36328125,0.173828125,0.009765625,-0.1875,0.0,180.0,360.0
3803434,,,,,,,,-1.52734375,3.2890625,-1.53125,0.173828125,0.009765625,-0.1875,0.0,180.0,360.0
3803435,,,,,,,,-1.52734375,3.2890625,-1.53125,0.19921875,-0.0546875,-0.0859375,0.0,180.0,360.0
3803436,,,,,,,,-1.98046875,3.00390625,-1.44921875,0.19921875,-0.0546875,-0.0859375,0.0,180.0,360.0
3803437,,,,,,,,-1.98046875,3.00390625,-1.44921875,0.162109375,-0.1484375,0.009765625,0.0,180.0,360.0
3803438,,,,,,,,-2.109375,2.75,-1.6015625,0.162109375,-0.1484375,0.009765625,0.0,180.0,360.0
3803439,,,,,,,,-2.109375,2.75,-1.6015625,0.14453125,-0.22265625,0.060546875,0.0,180.0,360.0
3803440,36.01260283333333,129.3194245,74.3281306354288,22.50654542055193,1.3,48.0,,-1.7265625,2.0546875,-1.5859375,0.14453125,-0.22265625,0.060546875,0.0,180.0,360.0
3803441,,,,,,,,-1.7265625,2.0546875,-1.5859375,0.13671875,-0.236328125,0.0703125,0.0,180.0,360.0
3803442,,,,,,,,-1.7265625,2.0546875,-1.5859375,0.13671875,-0.236328125,0.0703125,0.0,180.0,360.0
3803443,,,,,,,,-1.7265625,2.0546875,-1.5859375,0.10546875,-0.20703125,0.064453125,0.0,180.0,360.0
3803444,,,,,,,,-0.83984375,0.23046875,-1.17578125,0.10546875,-0.20703125,0.064453125,0.0,180.0,360.0
3803445,,,,,,,,-0.83984375,0.23046875,-1.17578125,0.091796875,-0.212890625,0.037109375,0.0,180.0,360.0
3803446,,,,,,,,-0.83984375,0.23046875,-1.17578125,0.123046875,-0.166015625,-0.01953125,0.0,180.0,360.0
3803447,,,,,,,,-0.80859375,-0.62890625,-0.609375,0.123046875,-0.166015625,-0.01953125,0.0,180.0,360.0
3803448,,,,,,,,-0.80859375,-0.62890625,-0.609375,0.04296875,-0.162109375,-0.04296875,0.0,180.0,360.0
3803449,,,,,,,,-0.9375,-0.828125,-0.77734375,0.04296875,-0.162109375,-0.04296875,0.0,180.0,360.0
3803450,36.01260366666667,129.3194255,74.41827919237096,22.59901221248501,1.3,48.0,,-0.9375,-0.828125,-0.77734375,-0.119140625,-0.1953125,-0.060546875,0.0,180.0,360.0
3803451,,,,,,,,-0.2265625,-1.328125,-0.8359375,-0.119140625,-0.1953125,-0.060546875,0.0,180.0,360.0
3803452,,,,,,,,-0.2265625,-1.328125,-0.8359375,-0.263671875,-0.083984375,-0.11328125,0.0,180.0,360.0
3803453,,,,,,,,-0.2265625,-1.328125,-0.8359375,-0.359375,0.0703125,-0.1640625,0.0,180.0,360.0
3803454,,,,,,,,0.578125,-0.1328125,-0.75,-0.359375,0.0703125,-0.1640625,0.0,180.0,360.0
3803455,,,,,,,,0.578125,-0.1328125,-0.75,-0.53515625,0.0625,-0.126953125,0.0,180.0,360.0
3803456,,,,,,,,-0.20703125,0.92578125,-0.4453125,-0.53515625,0.0625,-0.126953125,0.0,180.0,360.0
3803457,,,,,,,,-0.20703125,0.92578125,-0.4453125,-0.95703125,-0.359375,0.0625,0.0,180.0,360.0
3803458,,,,,,,,-0.94921875,-0.19140625,0.140625,-0.95703125,-0.359375,0.0625,0.0,180.0,360.0
3803459,,,,,,,,-0.94921875,-0.19140625,0.140625,-0.95703125,-0.359375,0.0625,0.0,180.0,360.0
3803460,36.012604499999995,129.319427,74.55350241532051,22.691479386439408,1.3,50.0,,-0.94921875,-0.19140625,0.140625,-0.40625,0.0,-0.146484375,0.0,180.0,360.0
3803461,,,,,,,,5.1640625,-3.73828125,3.125,-0.40625,0.0,-0.146484375,0.0,180.0,360.0
3803462,,,,,,,,5.1640625,-3.73828125,3.125,-0.40625,0.0,-0.146484375,0.0,180.0,360.0
3803463,,,,,,,,5.1640625,-3.73828125,3.125,0.25,0.103515625,-0.263671875,0.0,180.0,360.0
3803464,,,,,,,,0.2890625,-3.484375,4.6640625,0.25,0.103515625,-0.263671875,0.0,180.0,360.0
3803465,,,,,,,,0.2890625,-3.484375,4.6640625,0.66796875,0.1171875,-0.076171875,0.0,180.0,360.0
3803466,,,,,,,,0.2890625,-3.484375,4.6640625,0.49609375,0.056640625,0.134765625,0.0,180.0,360.0
3803467,,,,,,,,-0.0546875,-0.95703125,2.2421875,0.49609375,0.056640625,0.134765625,0.0,180.0,360.0
3803468,,,,,,,,-0.0546875,-0.95703125,2.2421875,0.0078125,-0.18359375,0.396484375,0.0,180.0,360.0
3803469,,,,,,,,0.359375,0.0390625,1.3046875,0.0078125,-0.18359375,0.396484375,0.0,180.0,360.0
3803470,36.012606,129.31942983333332,74.80892412105065,22.857920410866843,1.4000000000000001,53.0,,0.359375,0.0390625,1.3046875,0.03515625,-0.203125,0.46484375,0.0,180.0,360.0
3803471,,,,,,,,0.0859375,-1.43359375,1.15234375,0.03515625,-0.203125,0.46484375,0.0,180.0,360.0
3803472,,,,,,,,0.0859375,-1.43359375,1.15234375,0.060546875,-0.189453125,0.47265625,0.0,180.0,360.0
3803473,,,,,,,,0.0859375,-1.43359375,1.15234375,0.01171875,-0.25,0.48046875,0.0,180.0,360.0
3803474,,,,,,,,-0.44921875,0.8515625,-0.2421875,0.01171875,-0.25,0.48046875,0.0,180.0,360.0
3803475,,,,,,,,-0.44921875,0.8515625,-0.2421875,0.0390625,-0.236328125,0.48046875,0.0,180.0,360.0
3803476,,,,,,,,-0.21484375,1.39453125,-0.7421875,0.0390625,-0.236328125,0.48046875,0.0,180.0,360.0
3803477,,,,,,,,-0.21484375,1.39453125,-0.7421875,0.119140625,-0.2109375,0.478515625,0.0,180.0,360.0
3803478,,,,,,,,-0.13671875,1.984375,-1.015625,0.119140625,-0.2109375,0.478515625,0.0,180.0,360.0
3803479,,,,,,,,-0.13671875,1.984375,-1.015625,0.18359375,-0.169921875,0.455078125,0.0,180.0,360.0
3803480,36.0126065,129.31943099999998,74.91409787344753,22.913400924253295,1.4000000000000001,55.0,,0.46875,3.5625,-1.67578125,0.18359375,-0.169921875,0.455078125,0.0,180.0,360.0
3803481,,,,,,,,0.46875,3.5625,-1.67578125,0.22265625,-0.1328125,0.396484375,0.0,180.0,360.0
3803482,,,,,,,,0.46875,3.5625,-1.67578125,0.22265625,-0.1328125,0.396484375,0.0,180.0,360.0
3803483,,,,,,,,0.46875,3.5625,-1.67578125,0.18359375,-0.103515625,0.30078125,0.0,180.0,360.0
3803484,,,,,,,,1.4375,3.39453125,-2.28125,0.18359375,-0.103515625,0.30078125,0.0,180.0,360.0
3803485,,,,,,,,1.4375,3.39453125,-2.28125,0.130859375,0.013671875,0.177734375,0.0,180.0,360.0
3803486,,,,,,,,1.4375,3.39453125,-2.28125,0.146484375,0.13671875,0.08203125,0.0,180.0,360.0
3803487,,,,,,,,1.40625,2.95703125,-2.09375,0.146484375,0.13671875,0.08203125,0.0,180.0,360.0
3803488,,,,,,,,1.40625,2.95703125,-2.09375,0.14453125,0.22265625,0.0234375,0.0,180.0,360.0
3803489,,,,,,,,1.34765625,2.52734375,-1.76953125,0.14453125,0.22265625,0.0234375,0.0,180.0,360.0
3803490,36.012607,129.31943216666664,75.01927162492832,22.968881438765933,1.4000000000000001,55.0,,1.34765625,2.52734375,-1.76953125,0.1796875,0.34765625,-0.046875,0.0,180.0,360.0
3803491,,,,,,,,0.94921875,1.203125,-1.13671875,0.1796875,0.34765625,-0.046875,0.0,180.0,360.0
3803492,,,,,,,,0.94921875,1.203125,-1.13671875,0.171875,0.294921875,-0.076171875,0.0,180.0,360.0
3803493,,,,,,,,0.94921875,1.203125,-1.13671875,0.142578125,0.2421875,-0.068359375,0.0,180.0,360.0
3803494,,,,,,,,1.1015625,-0.27734375,-0.53125,0.142578125,0.2421875,-0.068359375,0.0,180.0,360.0
3803495,,,,,,,,1.1015625,-0.27734375,-0.53125,0.12109375,0.2890625,-0.048828125,0.0,180.0,360.0
3803496,,,,,,,,1.24609375,-0.78125,-0.48046875,0.12109375,0.2890625,-0.048828125,0.0,180.0,360.0
3803497,,,,,,,,1.24609375,-0.78125,-0.48046875,0.03515625,0.240234375,-0.021484375,0.0,180.0,360.0
3803498,,,,,,,,0.796875,-0.9140625,-0.50390625,0.03515625,0.240234375,-0.021484375,0.0,180.0,360.0
3803499,,,,,,,,0.796875,-0.9140625,-0.50390625,-0.06640625,0.046875,0.017578125,0.0,180.0,360.0
3803500,36.012608500000006,129.31943416666667,75.19956887024252,23.135321832444607,1.2000000000000002,49.0,123.0,0.3046875,-1.1796875,-0.265625,-0.06640625,0.046875,0.017578125,0.0,180.0,360.0
3803501,,,,,,,,0.3046875,-1.1796875,-0.265625,-0.06640625,0.046875,0.017578125,0.0,180.0,360.0
3803502,,,,,,,,0.3046875,-1.1796875,-0.265625,-0.078125,0.01953125,0.017578125,0.0,180.0,360.0
3803503,,,,,,,,0.3046875,-1.1796875,-0.265625,0.20703125,0.232421875,-0.04296875,0.0,180.0,360.0
3803504,,,,,,,,0.7109375,-2.48046875,2.671875,0.20703125,0.232421875,-0.04296875,0.0,180.0,360.0
3803505,,,,,,,,0.7109375,-2.48046875,2.671875,0.2578125,0.169921875,-0.23828125,0.0,180.0,360.0
3803506,,,,,,,,0.03125,-1.33984375,2.5703125,0.2578125,0.169921875,-0.23828125,0.0,180.0,360.0
3803507,,,,,,,,0.03125,-1.33984375,2.5703125,0.06640625,-0.056640625,-0.333984375,0.0,180.0,360.0
3803508,,,,,,,,-0.26953125,-0.85546875,1.4765625,0.06640625,-0.056640625,-0.333984375,0.0,180.0,360.0
3803509,,,,,,,,-0.26953125,-0.85546875,1.4765625,0.068359375,-0.001953125,-0.380859375,0.0,180.0,360.0
3803510,36.0126095,129.3194355,75.31976702998723,23.24628209653219,1.4000000000000001,46.0,,-0.203125,-0.75,1.26953125,0.068359375,-0.001953125,-0.380859375,0.0,180.0,360.0
3803511,,,,,,,,-0.203125,-0.75,1.26953125,0.12109375,0.08203125,-0.3984375,0.0,180.0,360.0
3803512,,,,,,,,-0.12109375,1.6171875,-0.21875,0.12109375,0.08203125,-0.3984375,0.0,180.0,360.0
3803513,,,,,,,,-0.12109375,1.6171875,-0.21875,0.076171875,0.07421875,-0.373046875,0.0,180.0,360.0
3803514,,,,,,,,-0.12109375,1.6171875,-0.21875,0.03125,0.0703125,-0.369140625,0.0,180.0,360.0
3803515,,,,,,,,-0.20703125,2.796875,-0.96875,0.03125,0.0703125,-0.369140625,0.0,180.0,360.0
3803516,,,,,,,,-0.20703125,2.796875,-0.96875,0.03125,0.0703125,-0.369140625,0.0,180.0,360.0
3803517,,,,,,,,-0.20703125,2.796875,-0.96875,0.078125,0.0625,-0.365234375,0.0,180.0,360.0
3803518,,,,,,,,-0.5703125,3.34765625,-1.23046875,0.078125,0.0625,-0.365234375,0.0,180.0,360.0
3803519,,,,,,,,-0.5703125,3.34765625,-1.23046875,0.1328125,0.09765625,-0.326171875,0.0,180.0,360.0
3803520,36.012609833333336,129.31943600000002,75.36484138245905,23.283268894168227,1.1,44.0,,-0.5703125,3.34765625,-1.23046875,0.099609375,0.05859375,-0.25,0.0,180.0,360.0
3803521,,,,,,,,-1.296875,3.1015625,-1.64453125,0.099609375,0.05859375,-0.25,0.0,180.0,360.0
3803522,,,,,,,,-1.296875,3.1015625,-1.64453125,0.0859375,0.017578125,-0.16015625,0.0,180.0,360.0
3803523,,,,,,,,-1.375,2.734375,-1.59375,0.0859375,0.017578125,-0.16015625,0.0,180.0,360.0
3803524,,,,,,,,-1.375,2.734375,-1.59375,0.126953125,-0.005859375,-0.091796875,0.0,180.0,360.0
3803525,,,,,,,,-1.484375,2.3046875,-1.5234375,0.126953125,-0.005859375,-0.091796875,0.0,180.0,360.0
3803526,,,,,,,,-1.484375,2.3046875,-1.5234375,0.126953125,-0.005859375,-0.091796875,0.0,180.0,360.0
3803527,,,,,,,,-1.484375,2.3046875,-1.5234375,0.205078125,-0.08203125,-0.048828125,0.0,180.0,360.0
3803528,,,,,,,,-1.31640625,1.44921875,-1.45703125,0.205078125,-0.08203125,-0.048828125,0.0,180.0,360.0
3803529,,,,,,,,-1.31640625,1.44921875,-1.45703125,0.20703125,-0.12890625,-0.041015625,0.0,180.0,360.0
3803530,36.012610333333335,129.31943683333333,75.43996534548754,23.338749156273867,1.2000000000000002,45.0,,-1.1015625,0.95703125,-1.31640625,0.20703125,-0.12890625,-0.041015625,0.0,180.0,360.0
3803531,,,,,,,,-1.1015625,0.95703125,-1.31640625,0.201171875,-0.15625,-0.048828125,0.0,180.0,360.0
3803532,,,,,,,,-0.9921875,0.2890625,-1.1484375,0.201171875,-0.15625,-0.048828125,0.0,180.0,360.0
3803533,,,,,,,,-0.9921875,0.2890625,-1.1484375,0.18359375,-0.169921875,-0.080078125,0.0,180.0,360.0
3803534,,,,,,,,-0.85546875,-0.4140625,-0.875,0.18359375,-0.169921875,-0.080078125,0.0,180.0,360.0
3803535,,,,,,,,-0.85546875,-0.4140625,-0.875,0.140625,-0.150390625,-0.109375,0.0,180.0,360.0
3803536,,,,,,,,-0.47265625,-1.2109375,-0.4453125,0.140625,-0.150390625,-0.109375,0.0,180.0,360.0
3803537,,,,,,,,-0.47265625,-1.2109375,-0.4453125,0.03515625,-0.115234375,-0.12890625,0.0,180.0,360.0
3803538,,,,,,,,-0.47265625,-1.2109375,-0.4453125,0.03515625,-0.115234375,-0.12890625,0.0,180.0,360.0
3803539,,,,,,,,-0.47265625,-1.2109375,-0.4453125,-0.177734375,-0.05859375,-0.12890625,0.0,180.0,360.0
