time,latitude,longitude,enu_x,enu_y,speed,course,Hrage,accX,accY,accZ,gyrX,gyrY,gyrZ,eulR,eulP,eulY
3808900,36.013076,129.32014283333334,139.0845751152367,75.00954510651367,0.8,226.0,123.0,-1.0390625,-0.06640625,-0.99609375,0.064453125,-0.017578125,-0.171875,0.0,180.0,360.0
3808901,,,,,,,,-1.0390625,-0.06640625,-0.99609375,0.064453125,-0.017578125,-0.171875,0.0,180.0,360.0
3808902,,,,,,,,-1.0390625,-0.06640625,-0.99609375,0.029296875,0.00390625,-0.17578125,0.0,180.0,360.0
3808903,,,,,,,,-1.0390625,-0.06640625,-0.99609375,-0.58984375,-0.109375,0.0546875,0.0,180.0,360.0
3808904,,,,,,,,0.03125,-1.765625,-0.5859375,-0.58984375,-0.109375,0.0546875,0.0,180.0,360.0
3808905,,,,,,,,0.03125,-1.765625,-0.5859375,-0.646484375,-0.12109375,0.056640625,0.0,180.0,360.0
3808906,,,,,,,,0.03125,-1.765625,-0.5859375,-0.345703125,-0.001953125,-0.015625,0.0,180.0,360.0
3808907,,,,,,,,1.49609375,-2.265625,0.62109375,-0.345703125,-0.001953125,-0.015625,0.0,180.0,360.0
3808908,,,,,,,,1.49609375,-2.265625,0.62109375,-0.0234375,0.20703125,-0.130859375,0.0,180.0,360.0
3808909,,,,,,,,1.7265625,-1.15234375,0.96484375,-0.0234375,0.20703125,-0.130859375,0.0,180.0,360.0
3808910,36.01307516666667,129.32014083333334,138.9042789747654,74.91707621716019,0.9,233.0,,1.7265625,-1.15234375,0.96484375,0.279296875,0.109375,-0.177734375,0.0,180.0,360.0
3808911,,,,,,,,0.828125,-1.0,1.74609375,0.279296875,0.109375,-0.177734375,0.0,180.0,360.0
3808912,,,,,,,,0.828125,-1.0,1.74609375,0.3984375,-0.142578125,-0.111328125,0.0,180.0,360.0
3808913,,,,,,,,-1.125,-1.3203125,2.15234375,0.3984375,-0.142578125,-0.111328125,0.0,180.0,360.0
3808914,,,,,,,,-1.125,-1.3203125,2.15234375,0.27734375,-0.431640625,0.10546875,0.0,180.0,360.0
3808915,,,,,,,,-1.125,-1.3203125,2.15234375,0.27734375,-0.431640625,0.10546875,0.0,180.0,360.0
3808916,,,,,,,,-1.125,-1.3203125,2.15234375,0.0390625,-0.59375,0.26953125,0.0,180.0,360.0
3808917,,,,,,,,0.71484375,-1.13671875,1.1171875,0.0390625,-0.59375,0.26953125,0.0,180.0,360.0
3808918,,,,,,,,0.71484375,-1.13671875,1.1171875,0.103515625,-0.529296875,0.25390625,0.0,180.0,360.0
3808919,,,,,,,,0.71484375,-1.13671875,1.1171875,0.267578125,-0.43359375,0.14453125,0.0,180.0,360.0
3808920,36.01307466666666,129.32013966666668,138.79910625161145,74.86159493473554,1.1,238.0,,1.2421875,-0.44140625,0.43359375,0.267578125,-0.43359375,0.14453125,0.0,180.0,360.0
3808921,,,,,,,,1.2421875,-0.44140625,0.43359375,0.369140625,-0.25390625,0.068359375,0.0,180.0,360.0
3808922,,,,,,,,1.359375,0.30859375,-0.265625,0.369140625,-0.25390625,0.068359375,0.0,180.0,360.0
3808923,,,,,,,,1.359375,0.30859375,-0.265625,0.361328125,-0.13671875,0.076171875,0.0,180.0,360.0
3808924,,,,,,,,0.33984375,1.75,-0.98046875,0.361328125,-0.13671875,0.076171875,0.0,180.0,360.0
3808925,,,,,,,,0.33984375,1.75,-0.98046875,0.283203125,-0.134765625,0.119140625,0.0,180.0,360.0
3808926,,,,,,,,0.33984375,1.75,-0.98046875,0.185546875,-0.146484375,0.15234375,0.0,180.0,360.0
3808927,,,,,,,,0.48046875,2.39453125,-1.25,0.185546875,-0.146484375,0.15234375,0.0,180.0,360.0
3808928,,,,,,,,0.48046875,2.39453125,-1.25,0.15234375,-0.142578125,0.134765625,0.0,180.0,360.0
3808929,,,,,,,,0.6953125,2.26953125,-1.265625,0.15234375,-0.142578125,0.134765625,0.0,180.0,360.0
3808930,36.01307416666667,129.32013866666665,138.7089583220318,74.8061138890142,1.1,239.0,,0.6953125,2.26953125,-1.265625,0.1640625,-0.119140625,0.091796875,0.0,180.0,360.0
3808931,,,,,,,,0.85546875,2.1484375,-1.10546875,0.1640625,-0.119140625,0.091796875,0.0,180.0,360.0
3808932,,,,,,,,0.85546875,2.1484375,-1.10546875,0.1875,-0.05859375,0.072265625,0.0,180.0,360.0
3808933,,,,,,,,0.87109375,1.984375,-1.01953125,0.1875,-0.05859375,0.072265625,0.0,180.0,360.0
3808934,,,,,,,,0.87109375,1.984375,-1.01953125,0.205078125,0.005859375,0.05078125,0.0,180.0,360.0
3808935,,,,,,,,0.734375,1.96875,-1.15234375,0.205078125,0.005859375,0.05078125,0.0,180.0,360.0
3808936,,,,,,,,0.734375,1.96875,-1.15234375,0.173828125,0.025390625,0.048828125,0.0,180.0,360.0
3808937,,,,,,,,0.734375,1.96875,-1.15234375,0.162109375,0.046875,0.037109375,0.0,180.0,360.0
3808938,,,,,,,,0.7421875,1.6875,-1.26953125,0.162109375,0.046875,0.037109375,0.0,180.0,360.0
3808939,,,,,,,,0.7421875,1.6875,-1.26953125,0.158203125,0.060546875,0.0390625,0.0,180.0,360.0
3808940,36.013073999999996,129.32013783333332,138.63383461125673,74.78761949533194,1.0,242.0,,0.56640625,0.8671875,-1.078125,0.158203125,0.060546875,0.0390625,0.0,180.0,360.0
3808941,,,,,,,,0.56640625,0.8671875,-1.078125,0.08203125,0.0390625,0.0703125,0.0,180.0,360.0
3808942,,,,,,,,0.54296875,0.70703125,-0.9765625,0.08203125,0.0390625,0.0703125,0.0,180.0,360.0
3808943,,,,,,,,0.54296875,0.70703125,-0.9765625,-0.0078125,0.03125,0.099609375,0.0,180.0,360.0
3808944,,,,,,,,0.75,-0.13671875,-1.13671875,-0.0078125,0.03125,0.099609375,0.0,180.0,360.0
3808945,,,,,,,,0.75,-0.13671875,-1.13671875,-0.11328125,0.015625,0.12109375,0.0,180.0,360.0
3808946,,,,,,,,0.75,-0.13671875,-1.13671875,-0.11328125,-0.03125,0.12890625,0.0,180.0,360.0
3808947,,,,,,,,0.28125,-1.82421875,-0.5625,-0.11328125,-0.03125,0.12890625,0.0,180.0,360.0
3808948,,,,,,,,0.28125,-1.82421875,-0.5625,-0.015625,-0.09375,0.123046875,0.0,180.0,360.0
3808949,,,,,,,,-0.0390625,-2.359375,-0.15625,-0.015625,-0.09375,0.123046875,0.0,180.0,360.0
3808950,36.013073500000004,129.32013700000002,138.55871148708127,74.7321386891335,1.0,240.0,,-0.0390625,-2.359375,-0.15625,-0.046875,-0.103515625,0.130859375,0.0,180.0,360.0
3808951,,,,,,,,-0.1015625,-2.04296875,-0.234375,-0.046875,-0.103515625,0.130859375,0.0,180.0,360.0
3808952,,,,,,,,-0.1015625,-2.04296875,-0.234375,-0.357421875,-0.08984375,0.1484375,0.0,180.0,360.0
3808953,,,,,,,,0.71875,-0.84765625,-1.08203125,-0.357421875,-0.08984375,0.1484375,0.0,180.0,360.0
3808954,,,,,,,,0.71875,-0.84765625,-1.08203125,-0.71875,-0.123046875,0.158203125,0.0,180.0,360.0
3808955,,,,,,,,0.94921875,-1.76953125,-0.91796875,-0.71875,-0.123046875,0.158203125,0.0,180.0,360.0
3808956,,,,,,,,0.94921875,-1.76953125,-0.91796875,-0.720703125,-0.119140625,0.107421875,0.0,180.0,360.0
3808957,,,,,,,,0.94921875,-1.76953125,-0.91796875,-0.625,-0.0703125,0.09375,0.0,180.0,360.0
3808958,,,,,,,,0.0078125,-2.78515625,0.39453125,-0.625,-0.0703125,0.09375,0.0,180.0,360.0
3808959,,,,,,,,0.0078125,-2.78515625,0.39453125,-0.08984375,0.080078125,-0.017578125,0.0,180.0,360.0
3808960,36.013072666666666,129.32013583333335,138.4535393404056,74.63967099579054,1.0,236.0,,-0.40625,-2.265625,1.5078125,-0.08984375,0.080078125,-0.017578125,0.0,180.0,360.0
3808961,,,,,,,,-0.40625,-2.265625,1.5078125,-0.130859375,0.13671875,-0.048828125,0.0,180.0,360.0
3808962,,,,,,,,-0.09765625,-0.80859375,1.4453125,-0.130859375,0.13671875,-0.048828125,0.0,180.0,360.0
3808963,,,,,,,,-0.09765625,-0.80859375,1.4453125,0.025390625,0.333984375,-0.15234375,0.0,180.0,360.0
3808964,,,,,,,,1.03515625,-0.79296875,1.8359375,0.025390625,0.333984375,-0.15234375,0.0,180.0,360.0
3808965,,,,,,,,1.03515625,-0.79296875,1.8359375,0.06640625,0.423828125,-0.2109375,0.0,180.0,360.0
3808966,,,,,,,,1.03515625,-0.79296875,1.8359375,0.06640625,0.423828125,-0.2109375,0.0,180.0,360.0
3808967,,,,,,,,1.03515625,-0.79296875,1.8359375,0.037109375,0.373046875,-0.2578125,0.0,180.0,360.0
3808968,,,,,,,,-0.109375,-0.83984375,1.890625,0.037109375,0.373046875,-0.2578125,0.0,180.0,360.0
3808969,,,,,,,,-0.109375,-0.83984375,1.890625,0.173828125,0.390625,-0.302734375,0.0,180.0,360.0
3808970,36.013072,129.32013516666666,138.39344129897677,74.5656972203982,1.0,229.0,,-0.109375,-0.83984375,1.890625,0.25390625,0.384765625,-0.28515625,0.0,180.0,360.0
3808971,,,,,,,,-0.390625,-0.43359375,1.484375,0.25390625,0.384765625,-0.28515625,0.0,180.0,360.0
3808972,,,,,,,,-0.390625,-0.43359375,1.484375,0.248046875,0.35546875,-0.26171875,0.0,180.0,360.0
3808973,,,,,,,,-0.69921875,0.02734375,0.77734375,0.248046875,0.35546875,-0.26171875,0.0,180.0,360.0
3808974,,,,,,,,-0.69921875,0.02734375,0.77734375,0.220703125,0.318359375,-0.271484375,0.0,180.0,360.0
3808975,,,,,,,,-0.69921875,0.02734375,0.77734375,0.220703125,0.318359375,-0.271484375,0.0,180.0,360.0
3808976,,,,,,,,-0.69921875,0.02734375,0.77734375,0.208984375,0.275390625,-0.3046875,0.0,180.0,360.0
3808977,,,,,,,,-0.41796875,2.36328125,-0.91796875,0.208984375,0.275390625,-0.3046875,0.0,180.0,360.0
3808978,,,,,,,,-0.41796875,2.36328125,-0.91796875,0.224609375,0.271484375,-0.326171875,0.0,180.0,360.0
3808979,,,,,,,,-0.41796875,2.36328125,-0.91796875,0.21484375,0.2578125,-0.326171875,0.0,180.0,360.0
3808980,36.01307033333333,129.320133,138.1981217960603,74.38076207309251,1.2000000000000002,227.0,,-1.20703125,2.76171875,-1.171875,0.21484375,0.2578125,-0.326171875,0.0,180.0,360.0
3808981,,,,,,,,-1.20703125,2.76171875,-1.171875,0.142578125,0.2265625,-0.279296875,0.0,180.0,360.0
3808982,,,,,,,,-1.484375,2.5546875,-1.36328125,0.142578125,0.2265625,-0.279296875,0.0,180.0,360.0
3808983,,,,,,,,-1.484375,2.5546875,-1.36328125,0.109375,0.16015625,-0.2265625,0.0,180.0,360.0
3808984,,,,,,,,-1.67578125,2.0078125,-1.2421875,0.109375,0.16015625,-0.2265625,0.0,180.0,360.0
3808985,,,,,,,,-1.67578125,2.0078125,-1.2421875,0.109375,0.12109375,-0.19140625,0.0,180.0,360.0
3808986,,,,,,,,-1.5703125,1.76171875,-1.08203125,0.109375,0.12109375,-0.19140625,0.0,180.0,360.0
3808987,,,,,,,,-1.5703125,1.76171875,-1.08203125,0.13671875,0.0546875,-0.15234375,0.0,180.0,360.0
3808988,,,,,,,,-1.5703125,1.76171875,-1.08203125,0.138671875,0.00390625,-0.14453125,0.0,180.0,360.0
3808989,,,,,,,,-1.6015625,1.5859375,-1.15234375,0.138671875,0.00390625,-0.14453125,0.0,180.0,360.0
3808990,36.01306966666667,129.3201318333333,138.09294935025898,74.30678759061156,1.2000000000000002,230.0,,-1.6015625,1.5859375,-1.15234375,0.103515625,-0.017578125,-0.142578125,0.0,180.0,360.0
3808991,,,,,,,,-1.3671875,1.42578125,-1.17578125,0.103515625,-0.017578125,-0.142578125,0.0,180.0,360.0
3808992,,,,,,,,-1.3671875,1.42578125,-1.17578125,0.060546875,-0.033203125,-0.150390625,0.0,180.0,360.0
3808993,,,,,,,,-1.15234375,1.06640625,-1.23046875,0.060546875,-0.033203125,-0.150390625,0.0,180.0,360.0
3808994,,,,,,,,-1.15234375,1.06640625,-1.23046875,0.01953125,-0.0625,-0.15625,0.0,180.0,360.0
3808995,,,,,,,,-1.15234375,1.06640625,-1.23046875,0.01953125,-0.0625,-0.15625,0.0,180.0,360.0
3808996,,,,,,,,-1.15234375,1.06640625,-1.23046875,-0.005859375,-0.11328125,-0.15234375,0.0,180.0,360.0
3808997,,,,,,,,-1.4296875,-1.06640625,-0.265625,-0.005859375,-0.11328125,-0.15234375,0.0,180.0,360.0
3808998,,,,,,,,-1.4296875,-1.06640625,-0.265625,-0.041015625,-0.181640625,-0.1484375,0.0,180.0,360.0
3808999,,,,,,,,-1.4296875,-1.06640625,-0.265625,-0.142578125,-0.205078125,-0.1484375,0.0,180.0,360.0
3809000,36.0130685,129.3201295,137.8826041652295,74.17733183751132,1.2000000000000002,233.0,123.0,-0.76953125,-0.64453125,-0.66796875,-0.142578125,-0.205078125,-0.1484375,0.0,180.0,360.0
3809001,,,,,,,,-0.76953125,-0.64453125,-0.66796875,-0.142578125,-0.205078125,-0.1484375,0.0,180.0,360.0
3809002,,,,,,,,-0.76953125,-0.64453125,-0.66796875,-0.30859375,-0.185546875,-0.138671875,0.0,180.0,360.0
3809003,,,,,,,,0.7890625,3.52734375,-1.6171875,-0.30859375,-0.185546875,-0.138671875,0.0,180.0,360.0
3809004,,,,,,,,0.7890625,3.52734375,-1.6171875,0.291015625,0.08984375,0.26171875,0.0,180.0,360.0
3809005,,,,,,,,1.1484375,3.7421875,-1.6328125,0.291015625,0.08984375,0.26171875,0.0,180.0,360.0
3809006,,,,,,,,1.1484375,3.7421875,-1.6328125,0.193359375,0.138671875,0.20703125,0.0,180.0,360.0
3809007,,,,,,,,1.1171875,3.28125,-1.59375,0.193359375,0.138671875,0.20703125,0.0,180.0,360.0
3809008,,,,,,,,1.1171875,3.28125,-1.59375,0.123046875,0.1640625,0.154296875,0.0,180.0,360.0
3809009,,,,,,,,1.1171875,3.28125,-1.59375,0.078125,0.15234375,0.138671875,0.0,180.0,360.0
3809010,36.01306683333333,129.32012583333332,137.55206142417683,73.99239458268896,1.3,239.0,,0.74609375,2.546875,-1.09765625,0.078125,0.15234375,0.138671875,0.0,180.0,360.0
3809011,,,,,,,,0.74609375,2.546875,-1.09765625,0.087890625,0.162109375,0.12890625,0.0,180.0,360.0
3809012,,,,,,,,0.73828125,2.1484375,-0.98828125,0.087890625,0.162109375,0.12890625,0.0,180.0,360.0
3809013,,,,,,,,0.73828125,2.1484375,-0.98828125,0.1171875,0.15234375,0.111328125,0.0,180.0,360.0
3809014,,,,,,,,0.609375,1.53515625,-0.9375,0.1171875,0.15234375,0.111328125,0.0,180.0,360.0
3809015,,,,,,,,0.609375,1.53515625,-0.9375,0.087890625,0.146484375,0.107421875,0.0,180.0,360.0
3809016,,,,,,,,0.59375,1.296875,-1.07421875,0.087890625,0.146484375,0.107421875,0.0,180.0,360.0
3809017,,,,,,,,0.59375,1.296875,-1.07421875,0.087890625,0.146484375,0.107421875,0.0,180.0,360.0
3809018,,,,,,,,0.59375,1.296875,-1.07421875,-0.15625,0.08203125,0.169921875,0.0,180.0,360.0
3809019,,,,,,,,0.85546875,0.3828125,-1.16015625,-0.15625,0.08203125,0.169921875,0.0,180.0,360.0
3809020,36.01306616666667,129.32012466666666,137.44688896852168,73.91842010804724,1.3,236.0,,0.85546875,0.3828125,-1.16015625,-0.302734375,0.111328125,0.17578125,0.0,180.0,360.0
3809021,,,,,,,,0.85546875,0.3828125,-1.16015625,-0.3046875,0.123046875,0.15625,0.0,180.0,360.0
3809022,,,,,,,,1.24609375,-1.515625,-0.734375,-0.3046875,0.123046875,0.15625,0.0,180.0,360.0
3809023,,,,,,,,1.24609375,-1.515625,-0.734375,-0.232421875,0.041015625,0.119140625,0.0,180.0,360.0
3809024,,,,,,,,0.92578125,-2.04296875,-0.18359375,-0.232421875,0.041015625,0.119140625,0.0,180.0,360.0
3809025,,,,,,,,0.92578125,-2.04296875,-0.18359375,-0.169921875,0.037109375,0.080078125,0.0,180.0,360.0
3809026,,,,,,,,0.92578125,-2.04296875,-0.18359375,-0.169921875,0.037109375,0.080078125,0.0,180.0,360.0
3809027,,,,,,,,0.92578125,-2.04296875,-0.18359375,-0.484375,0.044921875,0.099609375,0.0,180.0,360.0
3809028,,,,,,,,0.88671875,-1.99609375,-0.32421875,-0.484375,0.044921875,0.099609375,0.0,180.0,360.0
3809029,,,,,,,,0.88671875,-1.99609375,-0.32421875,-0.71484375,-0.072265625,0.083984375,0.0,180.0,360.0
3809030,36.01306533333333,129.3201236666667,137.35674160629372,73.82595266216238,1.2000000000000002,231.0,,0.88671875,-1.99609375,-0.32421875,-0.642578125,-0.0625,0.021484375,0.0,180.0,360.0
3809031,,,,,,,,0.48046875,-3.22265625,0.4296875,-0.642578125,-0.0625,0.021484375,0.0,180.0,360.0
3809032,,,,,,,,0.48046875,-3.22265625,0.4296875,0.0078125,-0.134765625,-0.033203125,0.0,180.0,360.0
3809033,,,,,,,,-1.7109375,-4.15625,3.2109375,0.0078125,-0.134765625,-0.033203125,0.0,180.0,360.0
3809034,,,,,,,,-1.7109375,-4.15625,3.2109375,0.130859375,0.08203125,-0.0234375,0.0,180.0,360.0
3809035,,,,,,,,-1.41796875,-1.0625,2.69140625,0.130859375,0.08203125,-0.0234375,0.0,180.0,360.0
3809036,,,,,,,,-1.41796875,-1.0625,2.69140625,-0.119140625,0.10546875,-0.00390625,0.0,180.0,360.0
3809037,,,,,,,,1.23046875,-1.89453125,2.7265625,-0.119140625,0.10546875,-0.00390625,0.0,180.0,360.0
3809038,,,,,,,,1.23046875,-1.89453125,2.7265625,0.11328125,0.349609375,-0.1484375,0.0,180.0,360.0
3809039,,,,,,,,1.23046875,-1.89453125,2.7265625,-0.001953125,0.068359375,-0.23046875,0.0,180.0,360.0
3809040,36.01306483333334,129.32012283333333,137.28161845883565,73.77047186697098,1.2000000000000002,227.0,,-0.078125,-1.359375,2.19921875,-0.001953125,0.068359375,-0.23046875,0.0,180.0,360.0
3809041,,,,,,,,-0.078125,-1.359375,2.19921875,0.07421875,0.091796875,-0.25,0.0,180.0,360.0
3809042,,,,,,,,-0.34765625,-1.51953125,2.0859375,0.07421875,0.091796875,-0.25,0.0,180.0,360.0
3809043,,,,,,,,-0.34765625,-1.51953125,2.0859375,0.2265625,0.18359375,-0.234375,0.0,180.0,360.0
3809044,,,,,,,,-0.5859375,-1.21484375,2.0078125,0.2265625,0.18359375,-0.234375,0.0,180.0,360.0
3809045,,,,,,,,-0.5859375,-1.21484375,2.0078125,0.275390625,0.197265625,-0.203125,0.0,180.0,360.0
3809046,,,,,,,,-0.44140625,0.41796875,0.47265625,0.275390625,0.197265625,-0.203125,0.0,180.0,360.0
3809047,,,,,,,,-0.44140625,0.41796875,0.47265625,0.212890625,0.138671875,-0.1953125,0.0,180.0,360.0
3809048,,,,,,,,-0.44140625,0.41796875,0.47265625,0.212890625,0.138671875,-0.1953125,0.0,180.0,360.0
3809049,,,,,,,,-0.44140625,0.41796875,0.47265625,0.17578125,0.08984375,-0.216796875,0.0,180.0,360.0
3809050,36.013064,129.32012216666666,137.22152069345222,73.6780048927003,1.3,223.0,,-0.328125,2.1953125,-0.69140625,0.17578125,0.08984375,-0.216796875,0.0,180.0,360.0
3809051,,,,,,,,-0.328125,2.1953125,-0.69140625,0.21875,0.05078125,-0.248046875,0.0,180.0,360.0
3809052,,,,,,,,-0.328125,2.1953125,-0.69140625,0.263671875,0.064453125,-0.24609375,0.0,180.0,360.0
3809053,,,,,,,,-0.8125,2.9375,-0.75390625,0.263671875,0.064453125,-0.24609375,0.0,180.0,360.0
3809054,,,,,,,,-0.8125,2.9375,-0.75390625,0.265625,0.080078125,-0.189453125,0.0,180.0,360.0
3809055,,,,,,,,-1.35546875,3.08203125,-1.0390625,0.265625,0.080078125,-0.189453125,0.0,180.0,360.0
3809056,,,,,,,,-1.35546875,3.08203125,-1.0390625,0.1953125,0.029296875,-0.095703125,0.0,180.0,360.0
3809057,,,,,,,,-1.734375,2.78125,-1.46484375,0.1953125,0.029296875,-0.095703125,0.0,180.0,360.0
3809058,,,,,,,,-1.734375,2.78125,-1.46484375,0.11328125,-0.025390625,-0.01171875,0.0,180.0,360.0
3809059,,,,,,,,-1.734375,2.78125,-1.46484375,0.099609375,-0.091796875,0.041015625,0.0,180.0,360.0
3809060,36.013063333333335,129.32012116666667,137.13137303520716,73.6040306560088,1.2000000000000002,226.0,,-1.50390625,2.046875,-1.44921875,0.099609375,-0.091796875,0.041015625,0.0,180.0,360.0
3809061,,,,,,,,-1.50390625,2.046875,-1.44921875,0.1484375,-0.11328125,0.05078125,0.0,180.0,360.0
3809062,,,,,,,,-1.38671875,1.76953125,-1.28125,0.1484375,-0.11328125,0.05078125,0.0,180.0,360.0
3809063,,,,,,,,-1.38671875,1.76953125,-1.28125,0.18359375,-0.107421875,0.04296875,0.0,180.0,360.0
3809064,,,,,,,,-1.1875,1.6796875,-1.2734375,0.18359375,-0.107421875,0.04296875,0.0,180.0,360.0
3809065,,,,,,,,-1.1875,1.6796875,-1.2734375,0.169921875,-0.111328125,0.021484375,0.0,180.0,360.0
3809066,,,,,,,,-0.68359375,0.63671875,-1.3359375,0.169921875,-0.111328125,0.021484375,0.0,180.0,360.0
3809067,,,,,,,,-0.68359375,0.63671875,-1.3359375,0.154296875,-0.099609375,-0.01953125,0.0,180.0,360.0
3809068,,,,,,,,-0.5390625,-0.7265625,-0.4609375,0.154296875,-0.099609375,-0.01953125,0.0,180.0,360.0
3809069,,,,,,,,-0.5390625,-0.7265625,-0.4609375,0.146484375,-0.091796875,-0.06640625,0.0,180.0,360.0
3809070,36.01306266666666,129.32012,137.02620057097454,73.53005618564666,1.2000000000000002,227.0,,-0.5390625,-0.7265625,-0.4609375,0.056640625,-0.134765625,-0.08984375,0.0,180.0,360.0
3809071,,,,,,,,-0.70703125,-1.0859375,-0.21875,0.056640625,-0.134765625,-0.08984375,0.0,180.0,360.0
3809072,,,,,,,,-0.70703125,-1.0859375,-0.21875,-0.083984375,-0.06640625,-0.115234375,0.0,180.0,360.0
3809073,,,,,,,,-0.1171875,-1.2109375,-0.484375,-0.083984375,-0.06640625,-0.115234375,0.0,180.0,360.0
3809074,,,,,,,,-0.1171875,-1.2109375,-0.484375,-0.216796875,0.0625,-0.150390625,0.0,180.0,360.0
3809075,,,,,,,,0.44140625,-1.2109375,-0.453125,-0.216796875,0.0625,-0.150390625,0.0,180.0,360.0
3809076,,,,,,,,0.44140625,-1.2109375,-0.453125,-0.20703125,0.197265625,-0.224609375,0.0,180.0,360.0
3809077,,,,,,,,-0.75390625,0.484375,-0.3984375,-0.20703125,0.197265625,-0.224609375,0.0,180.0,360.0
3809078,,,,,,,,-0.75390625,0.484375,-0.3984375,-0.3984375,0.1015625,-0.1640625,0.0,180.0,360.0
3809079,,,,,,,,-0.75390625,0.484375,-0.3984375,-0.771484375,-0.361328125,0.033203125,0.0,180.0,360.0
3809080,36.013062,129.320119,136.93605290755553,73.45608195215448,1.2000000000000002,227.0,,-2.47265625,-1.32421875,-0.3359375,-0.771484375,-0.361328125,0.033203125,0.0,180.0,360.0
3809081,,,,,,,,-2.47265625,-1.32421875,-0.3359375,-0.740234375,-0.58984375,0.109375,0.0,180.0,360.0
3809082,,,,,,,,-0.640625,-3.46875,-0.1796875,-0.740234375,-0.58984375,0.109375,0.0,180.0,360.0
3809083,,,,,,,,-0.640625,-3.46875,-0.1796875,-0.5625,-0.6640625,0.0859375,0.0,180.0,360.0
3809084,,,,,,,,1.23828125,-4.08984375,2.12109375,-0.5625,-0.6640625,0.0859375,0.0,180.0,360.0
3809085,,,,,,,,1.23828125,-4.08984375,2.12109375,0.166015625,-0.123046875,-0.140625,0.0,180.0,360.0
3809086,,,,,,,,3.62109375,-3.3515625,2.96484375,0.166015625,-0.123046875,-0.140625,0.0,180.0,360.0
3809087,,,,,,,,3.62109375,-3.3515625,2.96484375,0.615234375,-0.05859375,-0.19140625,0.0,180.0,360.0
3809088,,,,,,,,3.62109375,-3.3515625,2.96484375,0.615234375,-0.05859375,-0.19140625,0.0,180.0,360.0
3809089,,,,,,,,3.62109375,-3.3515625,2.96484375,0.92578125,0.009765625,-0.140625,0.0,180.0,360.0
3809090,36.0130605,129.32011666666668,136.72570825889952,73.2896398116748,1.3,229.0,,-0.46484375,-1.046875,1.89453125,0.92578125,0.009765625,-0.140625,0.0,180.0,360.0
3809091,,,,,,,,-0.46484375,-1.046875,1.89453125,0.564453125,-0.107421875,0.17578125,0.0,180.0,360.0
3809092,,,,,,,,-0.46484375,-1.046875,1.89453125,0.0390625,-0.3828125,0.51171875,0.0,180.0,360.0
3809093,,,,,,,,-0.41796875,-0.48046875,0.55078125,0.0390625,-0.3828125,0.51171875,0.0,180.0,360.0
3809094,,,,,,,,-0.41796875,-0.48046875,0.55078125,0.1640625,-0.26171875,0.546875,0.0,180.0,360.0
3809095,,,,,,,,0.51171875,-1.203125,1.2421875,0.1640625,-0.26171875,0.546875,0.0,180.0,360.0
3809096,,,,,,,,0.51171875,-1.203125,1.2421875,0.36328125,-0.091796875,0.443359375,0.0,180.0,360.0
3809097,,,,,,,,0.28125,1.1796875,0.05859375,0.36328125,-0.091796875,0.443359375,0.0,180.0,360.0
3809098,,,,,,,,0.28125,1.1796875,0.05859375,0.349609375,-0.119140625,0.3828125,0.0,180.0,360.0
3809099,,,,,,,,0.28125,1.1796875,0.05859375,0.2734375,-0.083984375,0.357421875,0.0,180.0,360.0
3809100,36.013059500000004,129.32011466666665,136.54541234536921,73.17867776475154,1.2000000000000002,233.0,123.0,0.28125,1.1796875,0.05859375,0.2734375,-0.083984375,0.357421875,0.0,180.0,360.0
3809101,,,,,,,,0.28125,1.1796875,0.05859375,0.2734375,-0.083984375,0.357421875,0.0,180.0,360.0
3809102,,,,,,,,0.1171875,2.4375,-1.19140625,0.2734375,-0.083984375,0.357421875,0.0,180.0,360.0
3809103,,,,,,,,0.1171875,2.4375,-1.19140625,0.23046875,-0.048828125,0.326171875,0.0,180.0,360.0
3809104,,,,,,,,0.1171875,2.4375,-1.19140625,0.04296875,0.158203125,0.021484375,0.0,180.0,360.0
3809105,,,,,,,,0.56640625,-0.33203125,-0.81640625,0.04296875,0.158203125,0.021484375,0.0,180.0,360.0
3809106,,,,,,,,0.56640625,-0.33203125,-0.81640625,-0.080078125,0.060546875,0.068359375,0.0,180.0,360.0
3809107,,,,,,,,0.56640625,-0.33203125,-0.81640625,-0.12109375,-0.017578125,0.06640625,0.0,180.0,360.0
3809108,,,,,,,,0.46484375,-1.35546875,-0.41015625,-0.12109375,-0.017578125,0.06640625,0.0,180.0,360.0
3809109,,,,,,,,0.46484375,-1.35546875,-0.41015625,-0.123046875,0.0078125,0.052734375,0.0,180.0,360.0
3809110,36.01305816666666,129.32011266666666,136.36511700173654,73.03072930652951,1.2000000000000002,230.0,,0.28125,-1.734375,-0.078125,-0.123046875,0.0078125,0.052734375,0.0,180.0,360.0
3809111,,,,,,,,0.28125,-1.734375,-0.078125,-0.505859375,0.0234375,0.12109375,0.0,180.0,360.0
3809112,,,,,,,,0.7578125,-0.4140625,-0.69140625,-0.505859375,0.0234375,0.12109375,0.0,180.0,360.0
3809113,,,,,,,,0.7578125,-0.4140625,-0.69140625,-0.845703125,-0.041015625,0.140625,0.0,180.0,360.0
3809114,,,,,,,,0.62890625,-3.59375,1.04296875,-0.845703125,-0.041015625,0.140625,0.0,180.0,360.0
3809115,,,,,,,,0.62890625,-3.59375,1.04296875,-0.640625,0.0,0.046875,0.0,180.0,360.0
3809116,,,,,,,,-0.20703125,-4.3828125,3.07421875,-0.640625,0.0,0.046875,0.0,180.0,360.0
3809117,,,,,,,,-0.20703125,-4.3828125,3.07421875,-0.11328125,-0.0390625,-0.029296875,0.0,180.0,360.0
3809118,,,,,,,,-0.20703125,-4.3828125,3.07421875,0.30859375,0.1015625,-0.0625,0.0,180.0,360.0
3809119,,,,,,,,-1.91015625,-1.9140625,3.2734375,0.30859375,0.1015625,-0.0625,0.0,180.0,360.0
3809120,36.013057333333336,129.32011183333333,136.28999441799,72.93826210613513,1.2000000000000002,226.0,,-1.91015625,-1.9140625,3.2734375,0.005859375,0.064453125,0.0078125,0.0,180.0,360.0
3809121,,,,,,,,-1.25,-1.1171875,2.125,0.005859375,0.064453125,0.0078125,0.0,180.0,360.0
3809122,,,,,,,,-1.25,-1.1171875,2.125,0.076171875,0.529296875,-0.111328125,0.0,180.0,360.0
3809123,,,,,,,,1.1328125,-1.65234375,1.88671875,0.076171875,0.529296875,-0.111328125,0.0,180.0,360.0
3809124,,,,,,,,1.1328125,-1.65234375,1.88671875,0.076171875,0.529296875,-0.111328125,0.0,180.0,360.0
3809125,,,,,,,,1.1328125,-1.65234375,1.88671875,0.095703125,0.337890625,-0.373046875,0.0,180.0,360.0
3809126,,,,,,,,-0.15234375,-0.62890625,1.6796875,0.095703125,0.337890625,-0.373046875,0.0,180.0,360.0
3809127,,,,,,,,-0.15234375,-0.62890625,1.6796875,0.193359375,0.359375,-0.4609375,0.0,180.0,360.0
3809128,,,,,,,,-0.5546875,-0.48046875,1.73828125,0.193359375,0.359375,-0.4609375,0.0,180.0,360.0
3809129,,,,,,,,-0.5546875,-0.48046875,1.73828125,0.267578125,0.380859375,-0.3984375,0.0,180.0,360.0
3809130,36.013056166666665,129.320111,136.21487240813477,72.80880849039536,1.3,220.0,,-1.11328125,0.19921875,1.1484375,0.267578125,0.380859375,-0.3984375,0.0,180.0,360.0
3809131,,,,,,,,-1.11328125,0.19921875,1.1484375,0.1796875,0.32421875,-0.3203125,0.0,180.0,360.0
3809132,,,,,,,,-0.89453125,1.6328125,-0.37109375,0.1796875,0.32421875,-0.3203125,0.0,180.0,360.0
3809133,,,,,,,,-0.89453125,1.6328125,-0.37109375,0.05859375,0.228515625,-0.29296875,0.0,180.0,360.0
3809134,,,,,,,,-0.6640625,2.16015625,-0.73828125,0.05859375,0.228515625,-0.29296875,0.0,180.0,360.0
3809135,,,,,,,,-0.6640625,2.16015625,-0.73828125,0.06640625,0.166015625,-0.302734375,0.0,180.0,360.0
3809136,,,,,,,,-0.55078125,2.84375,-0.72265625,0.06640625,0.166015625,-0.302734375,0.0,180.0,360.0
3809137,,,,,,,,-0.55078125,2.84375,-0.72265625,0.115234375,0.15625,-0.294921875,0.0,180.0,360.0
3809138,,,,,,,,-0.55078125,2.84375,-0.72265625,0.08203125,0.134765625,-0.255859375,0.0,180.0,360.0
3809139,,,,,,,,-1.2578125,2.78125,-1.45703125,0.08203125,0.134765625,-0.255859375,0.0,180.0,360.0
3809140,36.013055666666666,129.32011,136.12472444369277,72.75332747190959,1.3,223.0,,-1.2578125,2.78125,-1.45703125,0.04296875,0.0625,-0.185546875,0.0,180.0,360.0
3809141,,,,,,,,-1.6015625,2.50390625,-1.4375,0.04296875,0.0625,-0.185546875,0.0,180.0,360.0
3809142,,,,,,,,-1.6015625,2.50390625,-1.4375,0.044921875,0.041015625,-0.1171875,0.0,180.0,360.0
3809143,,,,,,,,-1.55859375,2.15234375,-1.40625,0.044921875,0.041015625,-0.1171875,0.0,180.0,360.0
3809144,,,,,,,,-1.55859375,2.15234375,-1.40625,0.044921875,0.041015625,-0.1171875,0.0,180.0,360.0
3809145,,,,,,,,-1.55859375,2.15234375,-1.40625,0.09375,0.015625,-0.078125,0.0,180.0,360.0
3809146,,,,,,,,-1.41015625,1.4921875,-1.3515625,0.09375,0.015625,-0.078125,0.0,180.0,360.0
3809147,,,,,,,,-1.41015625,1.4921875,-1.3515625,0.115234375,-0.00390625,-0.083984375,0.0,180.0,360.0
3809148,,,,,,,,-1.3203125,1.4765625,-1.3359375,0.115234375,-0.00390625,-0.083984375,0.0,180.0,360.0
3809149,,,,,,,,-1.3203125,1.4765625,-1.3359375,0.07421875,-0.009765625,-0.10546875,0.0,180.0,360.0
3809150,36.01305516666666,129.32010899999997,136.0345764768594,72.69784645349094,1.1,227.0,,-1.06640625,1.26953125,-1.4765625,0.07421875,-0.009765625,-0.10546875,0.0,180.0,360.0
3809151,,,,,,,,-1.06640625,1.26953125,-1.4765625,0.044921875,-0.03125,-0.130859375,0.0,180.0,360.0
3809152,,,,,,,,-0.8515625,0.07421875,-1.140625,0.044921875,-0.03125,-0.130859375,0.0,180.0,360.0
3809153,,,,,,,,-0.8515625,0.07421875,-1.140625,0.03125,-0.04296875,-0.14453125,0.0,180.0,360.0
3809154,,,,,,,,-0.875,-0.5078125,-0.95703125,0.03125,-0.04296875,-0.14453125,0.0,180.0,360.0
3809155,,,,,,,,-0.875,-0.5078125,-0.95703125,0.015625,-0.072265625,-0.138671875,0.0,180.0,360.0
3809156,,,,,,,,-0.88671875,-1.328125,-0.53515625,0.015625,-0.072265625,-0.138671875,0.0,180.0,360.0
3809157,,,,,,,,-0.88671875,-1.328125,-0.53515625,0.00390625,-0.0234375,-0.15234375,0.0,180.0,360.0
3809158,,,,,,,,-0.88671875,-1.328125,-0.53515625,-0.171875,0.0078125,-0.171875,0.0,180.0,360.0
3809159,,,,,,,,-0.3046875,-1.10546875,-0.90234375,-0.171875,0.0078125,-0.171875,0.0,180.0,360.0
3809160,36.013054333333336,129.3201078333333,135.9294042786194,72.6053787901076,1.2000000000000002,228.0,,-0.3046875,-1.10546875,-0.90234375,-0.29296875,0.05859375,-0.1953125,0.0,180.0,360.0
3809161,,,,,,,,-0.01953125,-0.90625,-0.90234375,-0.29296875,0.05859375,-0.1953125,0.0,180.0,360.0
3809162,,,,,,,,-0.01953125,-0.90625,-0.90234375,-0.408203125,0.076171875,-0.177734375,0.0,180.0,360.0
3809163,,,,,,,,-0.55078125,0.14453125,-0.5703125,-0.408203125,0.076171875,-0.177734375,0.0,180.0,360.0
3809164,,,,,,,,-0.55078125,0.14453125,-0.5703125,-0.408203125,0.076171875,-0.177734375,0.0,180.0,360.0
3809165,,,,,,,,-0.55078125,0.14453125,-0.5703125,-0.943359375,-0.33984375,0.0390625,0.0,180.0,360.0
3809166,,,,,,,,-0.3828125,-4.484375,-0.20703125,-0.943359375,-0.33984375,0.0390625,0.0,180.0,360.0
3809167,,,,,,,,-0.3828125,-4.484375,-0.20703125,-0.5859375,-0.3203125,0.009765625,0.0,180.0,360.0
3809168,,,,,,,,1.9453125,-4.56640625,3.15234375,-0.5859375,-0.3203125,0.009765625,0.0,180.0,360.0
3809169,,,,,,,,1.9453125,-4.56640625,3.15234375,-0.048828125,0.064453125,-0.25,0.0,180.0,360.0
3809170,36.013053666666664,129.32010666666665,135.8242317941885,72.5314043348613,1.2000000000000002,230.0,,3.5703125,-3.82421875,2.15234375,-0.048828125,0.064453125,-0.25,0.0,180.0,360.0
3809171,,,,,,,,3.5703125,-3.82421875,2.15234375,0.14453125,-0.041015625,-0.244140625,0.0,180.0,360.0
3809172,,,,,,,,3.109375,-1.25390625,2.48828125,0.14453125,-0.041015625,-0.244140625,0.0,180.0,360.0
3809173,,,,,,,,3.109375,-1.25390625,2.48828125,0.57421875,0.0,-0.185546875,0.0,180.0,360.0
3809174,,,,,,,,0.3046875,-3.8828125,3.23828125,0.57421875,0.0,-0.185546875,0.0,180.0,360.0
3809175,,,,,,,,0.3046875,-3.8828125,3.23828125,0.474609375,-0.080078125,-0.01171875,0.0,180.0,360.0
3809176,,,,,,,,-0.33984375,-0.4765625,1.3984375,0.474609375,-0.080078125,-0.01171875,0.0,180.0,360.0
3809177,,,,,,,,-0.33984375,-0.4765625,1.3984375,0.140625,-0.23046875,0.25390625,0.0,180.0,360.0
3809178,,,,,,,,-0.33984375,-0.4765625,1.3984375,0.064453125,-0.3203125,0.400390625,0.0,180.0,360.0
3809179,,,,,,,,-0.0859375,-0.69921875,0.90625,0.064453125,-0.3203125,0.400390625,0.0,180.0,360.0
3809180,36.013053166666666,129.3201055,135.71905902291147,72.47592308809041,1.2000000000000002,233.0,,-0.0859375,-0.69921875,0.90625,0.07421875,-0.31640625,0.453125,0.0,180.0,360.0
3809181,,,,,,,,-0.22265625,-0.34375,0.4375,0.07421875,-0.31640625,0.453125,0.0,180.0,360.0
3809182,,,,,,,,-0.22265625,-0.34375,0.4375,0.0546875,-0.32421875,0.47265625,0.0,180.0,360.0
3809183,,,,,,,,-0.41796875,0.703125,-0.06640625,0.0546875,-0.32421875,0.47265625,0.0,180.0,360.0
3809184,,,,,,,,-0.41796875,0.703125,-0.06640625,0.02734375,-0.2890625,0.4765625,0.0,180.0,360.0
3809185,,,,,,,,0.07421875,2.1015625,-1.109375,0.02734375,-0.2890625,0.4765625,0.0,180.0,360.0
3809186,,,,,,,,0.07421875,2.1015625,-1.109375,0.04296875,-0.181640625,0.453125,0.0,180.0,360.0
3809187,,,,,,,,0.07421875,2.1015625,-1.109375,0.04296875,-0.181640625,0.453125,0.0,180.0,360.0
3809188,,,,,,,,0.07421875,2.1015625,-1.109375,0.078125,-0.11328125,0.39453125,0.0,180.0,360.0
3809189,,,,,,,,0.6875,3.04296875,-1.46875,0.078125,-0.11328125,0.39453125,0.0,180.0,360.0
3809190,36.0130525,129.32010433333335,135.61388653360174,72.40194863587861,1.2000000000000002,233.0,,0.6875,3.04296875,-1.46875,0.111328125,-0.064453125,0.314453125,0.0,180.0,360.0
3809191,,,,,,,,0.6875,3.04296875,-1.46875,0.134765625,0.013671875,0.224609375,0.0,180.0,360.0
3809192,,,,,,,,0.9140625,2.96484375,-1.6171875,0.134765625,0.013671875,0.224609375,0.0,180.0,360.0
3809193,,,,,,,,0.9140625,2.96484375,-1.6171875,0.150390625,0.111328125,0.1328125,0.0,180.0,360.0
3809194,,,,,,,,1.06640625,2.61328125,-1.79296875,0.150390625,0.111328125,0.1328125,0.0,180.0,360.0
3809195,,,,,,,,1.06640625,2.61328125,-1.79296875,0.16015625,0.21484375,0.044921875,0.0,180.0,360.0
3809196,,,,,,,,0.9140625,1.87890625,-1.45703125,0.16015625,0.21484375,0.044921875,0.0,180.0,360.0
3809197,,,,,,,,0.9140625,1.87890625,-1.45703125,0.189453125,0.27734375,-0.015625,0.0,180.0,360.0
3809198,,,,,,,,0.9140625,1.87890625,-1.45703125,0.177734375,0.283203125,-0.056640625,0.0,180.0,360.0
3809199,,,,,,,,0.546875,1.69140625,-1.39453125,0.177734375,0.283203125,-0.056640625,0.0,180.0,360.0
3809200,36.013051499999996,129.3201025,135.4486153902086,72.29098684283711,1.1,233.0,123.0,0.546875,1.69140625,-1.39453125,0.146484375,0.263671875,-0.068359375,0.0,180.0,360.0
3809201,,,,,,,,0.546875,1.69140625,-1.39453125,0.146484375,0.263671875,-0.068359375,0.0,180.0,360.0
3809202,,,,,,,,0.28515625,0.14453125,-0.9140625,0.146484375,0.263671875,-0.068359375,0.0,180.0,360.0
3809203,,,,,,,,0.28515625,0.14453125,-0.9140625,-0.537109375,-0.005859375,0.14453125,0.0,180.0,360.0
3809204,,,,,,,,0.28515625,0.14453125,-0.9140625,-0.7578125,0.02734375,0.134765625,0.0,180.0,360.0
3809205,,,,,,,,0.49609375,-4.49609375,0.41015625,-0.7578125,0.02734375,0.134765625,0.0,180.0,360.0
3809206,,,,,,,,0.49609375,-4.49609375,0.41015625,-0.310546875,-0.2109375,0.13671875,0.0,180.0,360.0
3809207,,,,,,,,-0.62890625,-4.87890625,3.484375,-0.310546875,-0.2109375,0.13671875,0.0,180.0,360.0
3809208,,,,,,,,-0.62890625,-4.87890625,3.484375,0.28125,0.00390625,0.087890625,0.0,180.0,360.0
3809209,,,,,,,,-1.6484375,-3.64453125,4.09765625,0.28125,0.00390625,0.087890625,0.0,180.0,360.0
3809210,36.013050166666666,129.3201005,135.2683200123655,72.1430384079977,1.2000000000000002,226.0,,-1.6484375,-3.64453125,4.09765625,-0.1640625,-0.140625,0.10546875,0.0,180.0,360.0
3809211,,,,,,,,-1.6484375,-3.64453125,4.09765625,-0.1640625,-0.140625,0.10546875,0.0,180.0,360.0
3809212,,,,,,,,-1.6484375,-3.64453125,4.09765625,-0.103515625,0.201171875,0.001953125,0.0,180.0,360.0
3809213,,,,,,,,1.20703125,-1.76171875,3.4453125,-0.103515625,0.201171875,0.001953125,0.0,180.0,360.0
3809214,,,,,,,,1.20703125,-1.76171875,3.4453125,0.0703125,0.1796875,-0.154296875,0.0,180.0,360.0
3809215,,,,,,,,1.20703125,-1.76171875,3.4453125,-0.087890625,0.095703125,-0.19921875,0.0,180.0,360.0
3809216,,,,,,,,-0.1171875,-0.765625,2.28125,-0.087890625,0.095703125,-0.19921875,0.0,180.0,360.0
3809217,,,,,,,,-0.1171875,-0.765625,2.28125,-0.029296875,0.09765625,-0.20703125,0.0,180.0,360.0
3809218,,,,,,,,-0.65234375,-0.6796875,1.828125,-0.029296875,0.09765625,-0.20703125,0.0,180.0,360.0
3809219,,,,,,,,-0.65234375,-0.6796875,1.828125,0.029296875,0.150390625,-0.197265625,0.0,180.0,360.0
3809220,36.013049333333335,129.32009950000003,135.1781726068866,72.05057098544282,1.3,225.0,,-0.33984375,0.27734375,0.40234375,0.029296875,0.150390625,-0.197265625,0.0,180.0,360.0
3809221,,,,,,,,-0.33984375,0.27734375,0.40234375,0.02734375,0.130859375,-0.203125,0.0,180.0,360.0
3809222,,,,,,,,-0.33984375,0.27734375,0.40234375,0.02734375,0.130859375,-0.203125,0.0,180.0,360.0
3809223,,,,,,,,-0.33984375,0.27734375,0.40234375,0.046875,0.095703125,-0.23828125,0.0,180.0,360.0
3809224,,,,,,,,-0.12890625,1.7265625,-0.31640625,0.046875,0.095703125,-0.23828125,0.0,180.0,360.0
3809225,,,,,,,,-0.12890625,1.7265625,-0.31640625,0.107421875,0.072265625,-0.28515625,0.0,180.0,360.0
3809226,,,,,,,,-0.12890625,1.7265625,-0.31640625,0.1015625,0.04296875,-0.302734375,0.0,180.0,360.0
3809227,,,,,,,,-0.4296875,2.67578125,-0.9609375,0.1015625,0.04296875,-0.302734375,0.0,180.0,360.0
3809228,,,,,,,,-0.4296875,2.67578125,-0.9609375,0.0859375,0.021484375,-0.271484375,0.0,180.0,360.0
3809229,,,,,,,,-0.63671875,2.66015625,-1.29296875,0.0859375,0.021484375,-0.271484375,0.0,180.0,360.0
3809230,36.01304866666667,129.3200985,135.08802491033455,71.97659677016819,1.3,227.0,,-0.63671875,2.66015625,-1.29296875,0.146484375,0.017578125,-0.20703125,0.0,180.0,360.0
3809231,,,,,,,,-0.63671875,2.66015625,-1.29296875,0.146484375,0.017578125,-0.20703125,0.0,180.0,360.0
3809232,,,,,,,,-0.63671875,2.66015625,-1.29296875,0.19921875,-0.00390625,-0.140625,0.0,180.0,360.0
3809233,,,,,,,,-1.41015625,2.28515625,-1.59375,0.19921875,-0.00390625,-0.140625,0.0,180.0,360.0
3809234,,,,,,,,-1.41015625,2.28515625,-1.59375,0.240234375,-0.0390625,-0.083984375,0.0,180.0,360.0
3809235,,,,,,,,-1.41015625,2.28515625,-1.59375,0.26953125,-0.080078125,-0.048828125,0.0,180.0,360.0
3809236,,,,,,,,-1.43359375,2.0703125,-1.5390625,0.26953125,-0.080078125,-0.048828125,0.0,180.0,360.0
3809237,,,,,,,,-1.43359375,2.0703125,-1.5390625,0.283203125,-0.078125,-0.037109375,0.0,180.0,360.0
3809238,,,,,,,,-1.22265625,1.9375,-1.44140625,0.283203125,-0.078125,-0.037109375,0.0,180.0,360.0
3809239,,,,,,,,-1.22265625,1.9375,-1.44140625,0.208984375,-0.08203125,-0.037109375,0.0,180.0,360.0
3809240,36.013048166666664,129.3200975,134.99787693257,71.92111576287049,1.1,228.0,,-0.921875,1.80078125,-1.56640625,0.208984375,-0.08203125,-0.037109375,0.0,180.0,360.0
3809241,,,,,,,,-0.921875,1.80078125,-1.56640625,0.078125,-0.107421875,-0.060546875,0.0,180.0,360.0
3809242,,,,,,,,-0.5625,0.7421875,-1.3671875,0.078125,-0.107421875,-0.060546875,0.0,180.0,360.0
3809243,,,,,,,,-0.5625,0.7421875,-1.3671875,-0.00390625,-0.1171875,-0.109375,0.0,180.0,360.0
3809244,,,,,,,,-0.5625,0.7421875,-1.3671875,-0.05859375,-0.13671875,-0.138671875,0.0,180.0,360.0
3809245,,,,,,,,-0.6328125,-0.765625,-0.9375,-0.05859375,-0.13671875,-0.138671875,0.0,180.0,360.0
3809246,,,,,,,,-0.6328125,-0.765625,-0.9375,-0.1328125,-0.134765625,-0.130859375,0.0,180.0,360.0
3809247,,,,,,,,-0.59375,-1.49609375,-0.796875,-0.1328125,-0.134765625,-0.130859375,0.0,180.0,360.0
3809248,,,,,,,,-0.59375,-1.49609375,-0.796875,-0.19140625,0.0234375,-0.126953125,0.0,180.0,360.0
3809249,,,,,,,,-0.08203125,-1.83203125,-0.73046875,-0.19140625,0.0234375,-0.126953125,0.0,180.0,360.0
3809250,36.0130475,129.32009616666667,134.8776796250309,71.84714108878569,1.3,229.0,,-0.08203125,-1.83203125,-0.73046875,-0.24609375,0.18359375,-0.15234375,0.0,180.0,360.0
3809251,,,,,,,,0.203125,-0.828125,-0.55078125,-0.24609375,0.18359375,-0.15234375,0.0,180.0,360.0
3809252,,,,,,,,0.203125,-0.828125,-0.55078125,-0.349609375,0.216796875,-0.16796875,0.0,180.0,360.0
3809253,,,,,,,,0.203125,-0.828125,-0.55078125,-0.69921875,-0.015625,-0.0625,0.0,180.0,360.0
3809254,,,,,,,,-1.0,0.54296875,-0.578125,-0.69921875,-0.015625,-0.0625,0.0,180.0,360.0
3809255,,,,,,,,-1.0,0.54296875,-0.578125,-0.80078125,-0.33984375,0.041015625,0.0,180.0,360.0
3809256,,,,,,,,-1.515625,-2.51953125,-0.39453125,-0.80078125,-0.33984375,0.041015625,0.0,180.0,360.0
3809257,,,,,,,,-1.515625,-2.51953125,-0.39453125,-0.638671875,-0.3046875,-0.01171875,0.0,180.0,360.0
3809258,,,,,,,,2.5390625,-3.828125,2.21484375,-0.638671875,-0.3046875,-0.01171875,0.0,180.0,360.0
3809259,,,,,,,,2.5390625,-3.828125,2.21484375,-0.076171875,0.19921875,-0.2109375,0.0,180.0,360.0
3809260,36.013047,129.32009516666668,134.7875316424527,71.79166008338385,1.2000000000000002,230.0,,4.16796875,-3.1484375,2.38671875,-0.076171875,0.19921875,-0.2109375,0.0,180.0,360.0
3809261,,,,,,,,4.16796875,-3.1484375,2.38671875,0.28125,0.1875,-0.259765625,0.0,180.0,360.0
3809262,,,,,,,,0.8203125,-3.20703125,3.6875,0.28125,0.1875,-0.259765625,0.0,180.0,360.0
3809263,,,,,,,,0.8203125,-3.20703125,3.6875,0.662109375,0.107421875,-0.24609375,0.0,180.0,360.0
3809264,,,,,,,,0.8203125,-3.20703125,3.6875,0.421875,-0.00390625,-0.048828125,0.0,180.0,360.0
3809265,,,,,,,,-0.0390625,-0.71875,1.0234375,0.421875,-0.00390625,-0.048828125,0.0,180.0,360.0
3809266,,,,,,,,-0.0390625,-0.71875,1.0234375,0.015625,-0.255859375,0.27734375,0.0,180.0,360.0
3809267,,,,,,,,-0.75,-0.421875,0.48828125,0.015625,-0.255859375,0.27734375,0.0,180.0,360.0
3809268,,,,,,,,-0.75,-0.421875,0.48828125,0.13671875,-0.15625,0.392578125,0.0,180.0,360.0
3809269,,,,,,,,-0.28515625,-1.6328125,1.24609375,0.13671875,-0.15625,0.392578125,0.0,180.0,360.0
3809270,36.01304666666667,129.32009383333335,134.66733376482378,71.754671825645,1.2000000000000002,232.0,,-0.28515625,-1.6328125,1.24609375,0.13671875,-0.15625,0.392578125,0.0,180.0,360.0
3809271,,,,,,,,-0.28515625,-1.6328125,1.24609375,0.26171875,-0.119140625,0.37109375,0.0,180.0,360.0
3809272,,,,,,,,-0.14453125,1.09765625,-0.1484375,0.26171875,-0.119140625,0.37109375,0.0,180.0,360.0
3809273,,,,,,,,-0.14453125,1.09765625,-0.1484375,0.26171875,-0.119140625,0.37109375,0.0,180.0,360.0
3809274,,,,,,,,-0.14453125,1.09765625,-0.1484375,0.1875,-0.109375,0.404296875,0.0,180.0,360.0
3809275,,,,,,,,-0.1953125,1.86328125,-0.80859375,0.1875,-0.109375,0.404296875,0.0,180.0,360.0
3809276,,,,,,,,-0.1953125,1.86328125,-0.80859375,0.22265625,-0.01953125,0.4140625,0.0,180.0,360.0
3809277,,,,,,,,-0.1953125,1.86328125,-0.80859375,0.271484375,0.03515625,0.369140625,0.0,180.0,360.0
3809278,,,,,,,,0.3359375,3.05078125,-0.98046875,0.271484375,0.03515625,0.369140625,0.0,180.0,360.0
3809279,,,,,,,,0.3359375,3.05078125,-0.98046875,0.2265625,-0.00390625,0.30078125,0.0,180.0,360.0
3809280,36.013046333333335,129.32009283333335,134.57718549641496,71.71768403009007,1.3,233.0,,0.70703125,3.34765625,-1.33984375,0.2265625,-0.00390625,0.30078125,0.0,180.0,360.0
3809281,,,,,,,,0.70703125,3.34765625,-1.33984375,0.162109375,0.03125,0.205078125,0.0,180.0,360.0
3809282,,,,,,,,1.28125,2.765625,-1.73828125,0.162109375,0.03125,0.205078125,0.0,180.0,360.0
3809283,,,,,,,,1.28125,2.765625,-1.73828125,0.15625,0.13671875,0.10546875,0.0,180.0,360.0
3809284,,,,,,,,1.28125,2.765625,-1.73828125,0.130859375,0.23046875,0.02734375,0.0,180.0,360.0
3809285,,,,,,,,1.08203125,2.29296875,-1.47265625,0.130859375,0.23046875,0.02734375,0.0,180.0,360.0
3809286,,,,,,,,1.08203125,2.29296875,-1.47265625,0.201171875,0.302734375,-0.03125,0.0,180.0,360.0
3809287,,,,,,,,0.9453125,2.015625,-1.203125,0.201171875,0.302734375,-0.03125,0.0,180.0,360.0
3809288,,,,,,,,0.9453125,2.015625,-1.203125,0.240234375,0.361328125,-0.0703125,0.0,180.0,360.0
3809289,,,,,,,,0.83203125,1.921875,-1.12890625,0.240234375,0.361328125,-0.0703125,0.0,180.0,360.0
3809290,36.013046,129.320092,134.50206203091267,71.68069646572822,1.2000000000000002,235.0,,0.83203125,1.921875,-1.12890625,0.240234375,0.361328125,-0.0703125,0.0,180.0,360.0
3809291,,,,,,,,0.83203125,1.921875,-1.12890625,0.08984375,0.40625,-0.05859375,0.0,180.0,360.0
3809292,,,,,,,,0.45703125,1.01171875,-1.23046875,0.08984375,0.40625,-0.05859375,0.0,180.0,360.0
3809293,,,,,,,,0.45703125,1.01171875,-1.23046875,0.08984375,0.40625,-0.05859375,0.0,180.0,360.0
3809294,,,,,,,,0.45703125,1.01171875,-1.23046875,-0.197265625,0.248046875,-0.0078125,0.0,180.0,360.0
3809295,,,,,,,,0.2578125,-0.59765625,-0.69140625,-0.197265625,0.248046875,-0.0078125,0.0,180.0,360.0
3809296,,,,,,,,0.2578125,-0.59765625,-0.69140625,-0.224609375,0.1640625,-0.0078125,0.0,180.0,360.0
3809297,,,,,,,,0.2578125,-0.59765625,-0.69140625,-0.15625,-0.0703125,0.013671875,0.0,180.0,360.0
3809298,,,,,,,,-0.2734375,-2.57421875,0.05078125,-0.15625,-0.0703125,0.013671875,0.0,180.0,360.0
3809299,,,,,,,,-0.2734375,-2.57421875,0.05078125,-0.015625,-0.166015625,0.015625,0.0,180.0,360.0
3809300,36.01304483333333,129.32008966666666,134.29171672996367,71.55124079835359,1.3,233.0,123.0,-0.2734375,-2.57421875,0.05078125,-0.015625,-0.166015625,0.015625,0.0,180.0,360.0
3809301,,,,,,,,-0.2734375,-2.57421875,0.05078125,-0.015625,-0.166015625,0.015625,0.0,180.0,360.0
3809302,,,,,,,,-0.28125,-2.91015625,0.265625,-0.015625,-0.166015625,0.015625,0.0,180.0,360.0
3809303,,,,,,,,-0.28125,-2.91015625,0.265625,-0.166015625,-0.224609375,0.080078125,0.0,180.0,360.0
3809304,,,,,,,,-0.28125,-2.91015625,0.265625,0.1015625,0.05859375,-0.060546875,0.0,180.0,360.0
3809305,,,,,,,,-0.7265625,0.69921875,0.53125,0.1015625,0.05859375,-0.060546875,0.0,180.0,360.0
3809306,,,,,,,,-0.7265625,0.69921875,0.53125,0.052734375,0.095703125,0.056640625,0.0,180.0,360.0
3809307,,,,,,,,-0.7265625,0.69921875,0.53125,-0.05078125,0.056640625,0.0390625,0.0,180.0,360.0
3809308,,,,,,,,-0.2109375,1.50390625,-0.16796875,-0.05078125,0.056640625,0.0390625,0.0,180.0,360.0
3809309,,,,,,,,-0.2109375,1.50390625,-0.16796875,-0.046875,0.009765625,-0.017578125,0.0,180.0,360.0
3809310,36.01304366666667,129.32008750000003,134.0963962291387,71.4217853649276,1.3,227.0,,-0.2109375,1.50390625,-0.16796875,-0.046875,0.009765625,-0.017578125,0.0,180.0,360.0
3809311,,,,,,,,-0.2109375,1.50390625,-0.16796875,0.005859375,-0.025390625,-0.064453125,0.0,180.0,360.0
3809312,,,,,,,,-0.6796875,2.58203125,-0.96484375,0.005859375,-0.025390625,-0.064453125,0.0,180.0,360.0
3809313,,,,,,,,-0.6796875,2.58203125,-0.96484375,0.033203125,-0.0234375,-0.072265625,0.0,180.0,360.0
3809314,,,,,,,,-0.6796875,2.58203125,-0.96484375,0.048828125,0.0,-0.056640625,0.0,180.0,360.0
3809315,,,,,,,,-1.00390625,2.57421875,-1.203125,0.048828125,0.0,-0.056640625,0.0,180.0,360.0
3809316,,,,,,,,-1.00390625,2.57421875,-1.203125,0.046875,0.0078125,-0.021484375,0.0,180.0,360.0
3809317,,,,,,,,-1.1328125,2.30078125,-1.44921875,0.046875,0.0078125,-0.021484375,0.0,180.0,360.0
3809318,,,,,,,,-1.1328125,2.30078125,-1.44921875,0.04296875,-0.01171875,-0.005859375,0.0,180.0,360.0
3809319,,,,,,,,-1.171875,1.984375,-1.5703125,0.04296875,-0.01171875,-0.005859375,0.0,180.0,360.0
3809320,36.01304283333333,129.32008666666667,134.02127360511926,71.32931818319842,1.3,226.0,,-1.171875,1.984375,-1.5703125,0.078125,-0.025390625,-0.01171875,0.0,180.0,360.0
3809321,,,,,,,,-1.171875,1.984375,-1.5703125,0.078125,-0.025390625,-0.01171875,0.0,180.0,360.0
3809322,,,,,,,,-1.171875,1.984375,-1.5703125,0.0859375,-0.060546875,-0.0234375,0.0,180.0,360.0
3809323,,,,,,,,-1.02734375,1.69140625,-1.6328125,0.0859375,-0.060546875,-0.0234375,0.0,180.0,360.0
3809324,,,,,,,,-1.02734375,1.69140625,-1.6328125,0.0390625,-0.087890625,-0.03515625,0.0,180.0,360.0
3809325,,,,,,,,-1.02734375,1.69140625,-1.6328125,0.009765625,-0.111328125,-0.05078125,0.0,180.0,360.0
3809326,,,,,,,,-0.765625,0.34375,-1.41015625,0.009765625,-0.111328125,-0.05078125,0.0,180.0,360.0
3809327,,,,,,,,-0.765625,0.34375,-1.41015625,0.029296875,-0.083984375,-0.080078125,0.0,180.0,360.0
3809328,,,,,,,,-0.671875,-0.27734375,-1.02734375,0.029296875,-0.083984375,-0.080078125,0.0,180.0,360.0
3809329,,,,,,,,-0.671875,-0.27734375,-1.02734375,0.029296875,-0.083984375,-0.080078125,0.0,180.0,360.0
3809330,36.0130415,129.32008466666667,133.84097818340751,71.18136977804828,1.2000000000000002,229.0,,-0.671875,-0.27734375,-1.02734375,-0.015625,-0.060546875,-0.103515625,0.0,180.0,360.0
3809331,,,,,,,,-0.3203125,-0.97265625,-0.8359375,-0.015625,-0.060546875,-0.103515625,0.0,180.0,360.0
3809332,,,,,,,,-0.3203125,-0.97265625,-0.8359375,-0.134765625,0.052734375,-0.158203125,0.0,180.0,360.0
3809333,,,,,,,,-0.0390625,-1.02734375,-0.7734375,-0.134765625,0.052734375,-0.158203125,0.0,180.0,360.0
3809334,,,,,,,,-0.0390625,-1.02734375,-0.7734375,-0.25390625,0.12109375,-0.185546875,0.0,180.0,360.0
3809335,,,,,,,,0.08203125,-0.94140625,-0.85546875,-0.25390625,0.12109375,-0.185546875,0.0,180.0,360.0
3809336,,,,,,,,0.08203125,-0.94140625,-0.85546875,-0.35546875,0.173828125,-0.1796875,0.0,180.0,360.0
3809337,,,,,,,,-0.4375,-0.0546875,-1.22265625,-0.35546875,0.173828125,-0.1796875,0.0,180.0,360.0
3809338,,,,,,,,-0.4375,-0.0546875,-1.22265625,-0.517578125,0.1328125,-0.12890625,0.0,180.0,360.0
3809339,,,,,,,,-1.13671875,0.34375,-1.0703125,-0.517578125,0.1328125,-0.12890625,0.0,180.0,360.0
3809340,36.013040833333335,129.32008333333334,133.72078085609564,71.1073951192739,1.2000000000000002,229.0,,-1.13671875,0.34375,-1.0703125,-0.984375,-0.1953125,0.01171875,0.0,180.0,360.0
3809341,,,,,,,,-1.13671875,0.34375,-1.0703125,-0.984375,-0.1953125,0.01171875,0.0,180.0,360.0
3809342,,,,,,,,-1.13671875,0.34375,-1.0703125,-0.80859375,-0.376953125,0.005859375,0.0,180.0,360.0
3809343,,,,,,,,2.12109375,-5.18359375,2.9921875,-0.80859375,-0.376953125,0.005859375,0.0,180.0,360.0
3809344,,,,,,,,2.12109375,-5.18359375,2.9921875,-0.26953125,-0.05078125,-0.1640625,0.0,180.0,360.0
3809345,,,,,,,,2.12109375,-5.18359375,2.9921875,-0.26953125,-0.05078125,-0.1640625,0.0,180.0,360.0
3809346,,,,,,,,2.12109375,-5.18359375,2.9921875,0.17578125,0.076171875,-0.287109375,0.0,180.0,360.0
3809347,,,,,,,,1.19921875,-2.50390625,2.9296875,0.17578125,0.076171875,-0.287109375,0.0,180.0,360.0
3809348,,,,,,,,1.19921875,-2.50390625,2.9296875,0.474609375,0.134765625,-0.197265625,0.0,180.0,360.0
3809349,,,,,,,,1.19921875,-2.50390625,2.9296875,0.474609375,0.134765625,-0.197265625,0.0,180.0,360.0
3809350,36.013040333333336,129.320082,133.60058324563957,71.05191366936113,1.2000000000000002,231.0,,1.19921875,-2.50390625,2.9296875,0.451171875,-0.095703125,0.07421875,0.0,180.0,360.0
3809351,,,,,,,,-0.77734375,-0.13671875,1.1484375,0.451171875,-0.095703125,0.07421875,0.0,180.0,360.0
3809352,,,,,,,,-0.77734375,-0.13671875,1.1484375,0.07421875,-0.31640625,0.400390625,0.0,180.0,360.0
3809353,,,,,,,,-0.5390625,-0.0234375,0.92578125,0.07421875,-0.31640625,0.400390625,0.0,180.0,360.0
3809354,,,,,,,,-0.5390625,-0.0234375,0.92578125,0.06640625,-0.404296875,0.46875,0.0,180.0,360.0
3809355,,,,,,,,-0.39453125,-0.4375,1.078125,0.06640625,-0.404296875,0.46875,0.0,180.0,360.0
3809356,,,,,,,,-0.39453125,-0.4375,1.078125,0.1015625,-0.408203125,0.4296875,0.0,180.0,360.0
3809357,,,,,,,,0.05078125,0.078125,0.19921875,0.1015625,-0.408203125,0.4296875,0.0,180.0,360.0
3809358,,,,,,,,0.05078125,0.078125,0.19921875,0.103515625,-0.36328125,0.37890625,0.0,180.0,360.0
3809359,,,,,,,,0.3359375,0.69921875,-0.27734375,0.103515625,-0.36328125,0.37890625,0.0,180.0,360.0
3809360,36.01303966666667,129.32008083333332,133.49541071858212,70.97793924188147,1.3,233.0,,0.3359375,0.69921875,-0.27734375,0.08984375,-0.28515625,0.341796875,0.0,180.0,360.0
3809361,,,,,,,,0.3359375,0.69921875,-0.27734375,0.08984375,-0.28515625,0.341796875,0.0,180.0,360.0
3809362,,,,,,,,0.3359375,0.69921875,-0.27734375,0.119140625,-0.21484375,0.279296875,0.0,180.0,360.0
3809363,,,,,,,,0.80859375,2.23828125,-0.859375,0.119140625,-0.21484375,0.279296875,0.0,180.0,360.0
3809364,,,,,,,,0.80859375,2.23828125,-0.859375,0.150390625,-0.173828125,0.19921875,0.0,180.0,360.0
3809365,,,,,,,,0.80859375,2.23828125,-0.859375,0.134765625,-0.12109375,0.125,0.0,180.0,360.0
3809366,,,,,,,,0.921875,2.69921875,-1.42578125,0.134765625,-0.12109375,0.125,0.0,180.0,360.0
3809367,,,,,,,,0.921875,2.69921875,-1.42578125,0.123046875,-0.044921875,0.05859375,0.0,180.0,360.0
3809368,,,,,,,,0.86328125,2.68359375,-1.53515625,0.123046875,-0.044921875,0.05859375,0.0,180.0,360.0
3809369,,,,,,,,0.86328125,2.68359375,-1.53515625,0.123046875,-0.044921875,0.05859375,0.0,180.0,360.0
3809370,36.013039166666665,129.32007966666666,133.39023791162273,70.9224580235854,1.4000000000000001,234.0,,0.86328125,2.68359375,-1.53515625,0.12890625,0.07421875,-0.013671875,0.0,180.0,360.0
3809371,,,,,,,,0.6796875,2.359375,-1.51953125,0.12890625,0.07421875,-0.013671875,0.0,180.0,360.0
3809372,,,,,,,,0.6796875,2.359375,-1.51953125,0.10546875,0.109375,-0.072265625,0.0,180.0,360.0
3809373,,,,,,,,0.5546875,1.96875,-1.40625,0.10546875,0.109375,-0.072265625,0.0,180.0,360.0
3809374,,,,,,,,0.5546875,1.96875,-1.40625,0.09375,0.09375,-0.103515625,0.0,180.0,360.0
3809375,,,,,,,,0.38671875,1.6953125,-1.27734375,0.09375,0.09375,-0.103515625,0.0,180.0,360.0
3809376,,,,,,,,0.38671875,1.6953125,-1.27734375,0.041015625,0.109375,-0.083984375,0.0,180.0,360.0
3809377,,,,,,,,0.26171875,1.44921875,-1.16796875,0.041015625,0.109375,-0.083984375,0.0,180.0,360.0
3809378,,,,,,,,0.26171875,1.44921875,-1.16796875,-0.080078125,0.126953125,-0.025390625,0.0,180.0,360.0
3809379,,,,,,,,0.5234375,0.75,-1.12109375,-0.080078125,0.126953125,-0.025390625,0.0,180.0,360.0
3809380,36.01303866666667,129.32007833333333,133.27004029668234,70.86697657790998,1.3,235.0,,0.5234375,0.75,-1.12109375,-0.1953125,0.12890625,0.015625,0.0,180.0,360.0
3809381,,,,,,,,0.5234375,0.75,-1.12109375,-0.1953125,0.12890625,0.015625,0.0,180.0,360.0
3809382,,,,,,,,0.5234375,0.75,-1.12109375,-0.244140625,0.138671875,0.009765625,0.0,180.0,360.0
3809383,,,,,,,,1.15234375,-1.33984375,-0.64453125,-0.244140625,0.138671875,0.009765625,0.0,180.0,360.0
3809384,,,,,,,,1.15234375,-1.33984375,-0.64453125,-0.234375,0.115234375,-0.005859375,0.0,180.0,360.0
3809385,,,,,,,,1.15234375,-1.33984375,-0.64453125,-0.193359375,0.15234375,-0.009765625,0.0,180.0,360.0
3809386,,,,,,,,1.23046875,-1.6328125,-0.1328125,-0.193359375,0.15234375,-0.009765625,0.0,180.0,360.0
3809387,,,,,,,,1.23046875,-1.6328125,-0.1328125,-0.44140625,0.1953125,0.048828125,0.0,180.0,360.0
3809388,,,,,,,,1.23828125,-0.671875,-0.54296875,-0.44140625,0.1953125,0.048828125,0.0,180.0,360.0
3809389,,,,,,,,1.23828125,-0.671875,-0.54296875,-0.771484375,0.255859375,0.103515625,0.0,180.0,360.0
3809390,36.013038,129.32007733333333,133.17989257400671,70.79300238192914,1.2000000000000002,231.0,,0.6953125,-3.8359375,-0.48046875,-0.771484375,0.255859375,0.103515625,0.0,180.0,360.0
3809391,,,,,,,,0.6953125,-3.8359375,-0.48046875,-0.705078125,0.29296875,0.109375,0.0,180.0,360.0
3809392,,,,,,,,0.6953125,-3.8359375,-0.48046875,-0.150390625,0.1015625,0.1171875,0.0,180.0,360.0
3809393,,,,,,,,-1.25,-5.359375,3.20703125,-0.150390625,0.1015625,0.1171875,0.0,180.0,360.0
3809394,,,,,,,,-1.25,-5.359375,3.20703125,0.251953125,0.181640625,0.0703125,0.0,180.0,360.0
3809395,,,,,,,,-1.96484375,-2.37890625,2.95703125,0.251953125,0.181640625,0.0703125,0.0,180.0,360.0
3809396,,,,,,,,-1.96484375,-2.37890625,2.95703125,-0.044921875,0.154296875,0.029296875,0.0,180.0,360.0
3809397,,,,,,,,-1.13671875,-0.54296875,2.05078125,-0.044921875,0.154296875,0.029296875,0.0,180.0,360.0
3809398,,,,,,,,-1.13671875,-0.54296875,2.05078125,0.017578125,0.412109375,-0.076171875,0.0,180.0,360.0
3809399,,,,,,,,1.5859375,-0.91796875,1.97265625,0.017578125,0.412109375,-0.076171875,0.0,180.0,360.0
3809400,36.01303633333334,129.32007533333334,132.99959768718975,70.60806758105917,1.3,224.0,123.0,1.5859375,-0.91796875,1.97265625,0.017578125,0.412109375,-0.076171875,0.0,180.0,360.0
3809401,,,,,,,,1.5859375,-0.91796875,1.97265625,0.017578125,0.412109375,-0.076171875,0.0,180.0,360.0
3809402,,,,,,,,1.5859375,-0.91796875,1.97265625,-0.0625,0.318359375,-0.158203125,0.0,180.0,360.0
3809403,,,,,,,,-0.26953125,-1.14453125,1.8203125,-0.0625,0.318359375,-0.158203125,0.0,180.0,360.0
3809404,,,,,,,,-0.26953125,-1.14453125,1.8203125,0.271484375,-0.072265625,0.0703125,0.0,180.0,360.0
3809405,,,,,,,,-1.6015625,2.33203125,-1.12890625,0.271484375,-0.072265625,0.0703125,0.0,180.0,360.0
3809406,,,,,,,,-1.6015625,2.33203125,-1.12890625,0.224609375,-0.1796875,0.12109375,0.0,180.0,360.0
3809407,,,,,,,,-1.6015625,2.33203125,-1.12890625,0.224609375,-0.1796875,0.12109375,0.0,180.0,360.0
3809408,,,,,,,,-1.6015625,2.33203125,-1.12890625,0.2109375,-0.171875,0.11328125,0.0,180.0,360.0
3809409,,,,,,,,-0.71875,1.953125,-1.3828125,0.2109375,-0.171875,0.11328125,0.0,180.0,360.0
3809410,36.01303516666667,129.32007316666667,132.80427714370728,70.47861217603143,1.2000000000000002,228.0,,-0.71875,1.953125,-1.3828125,0.15234375,-0.166015625,0.091796875,0.0,180.0,360.0
3809411,,,,,,,,-0.71875,1.953125,-1.3828125,0.03515625,-0.140625,0.046875,0.0,180.0,360.0
3809412,,,,,,,,-0.40234375,1.6328125,-1.4921875,0.03515625,-0.140625,0.046875,0.0,180.0,360.0
3809413,,,,,,,,-0.40234375,1.6328125,-1.4921875,-0.078125,-0.119140625,-0.005859375,0.0,180.0,360.0
3809414,,,,,,,,-0.359375,1.09765625,-1.4453125,-0.078125,-0.119140625,-0.005859375,0.0,180.0,360.0
3809415,,,,,,,,-0.359375,1.09765625,-1.4453125,-0.15234375,-0.15625,-0.03125,0.0,180.0,360.0
3809416,,,,,,,,-0.41015625,0.26171875,-1.23046875,-0.15234375,-0.15625,-0.03125,0.0,180.0,360.0
3809417,,,,,,,,-0.41015625,0.26171875,-1.23046875,-0.1796875,-0.16796875,-0.04296875,0.0,180.0,360.0
3809418,,,,,,,,-0.41015625,0.26171875,-1.23046875,-0.1796875,-0.16796875,-0.04296875,0.0,180.0,360.0
3809419,,,,,,,,-0.41015625,0.26171875,-1.23046875,-0.181640625,-0.140625,-0.046875,0.0,180.0,360.0
3809420,36.01303433333333,129.320072,132.69910488476964,70.38614455123003,1.3,228.0,,-0.40625,-2.07421875,-0.7890625,-0.181640625,-0.140625,-0.046875,0.0,180.0,360.0
3809421,,,,,,,,-0.40625,-2.07421875,-0.7890625,-0.158203125,-0.044921875,-0.08203125,0.0,180.0,360.0
3809422,,,,,,,,-0.40625,-2.07421875,-0.7890625,-0.16796875,-0.0078125,-0.14453125,0.0,180.0,360.0
3809423,,,,,,,,-0.7734375,-0.421875,-1.00390625,-0.16796875,-0.0078125,-0.14453125,0.0,180.0,360.0
3809424,,,,,,,,-0.7734375,-0.421875,-1.00390625,-0.41796875,-0.146484375,-0.119140625,0.0,180.0,360.0
3809425,,,,,,,,-1.41015625,-0.2578125,-1.00390625,-0.41796875,-0.146484375,-0.119140625,0.0,180.0,360.0
3809426,,,,,,,,-1.41015625,-0.2578125,-1.00390625,-0.720703125,-0.474609375,0.005859375,0.0,180.0,360.0
3809427,,,,,,,,0.375,-4.94921875,0.0625,-0.720703125,-0.474609375,0.005859375,0.0,180.0,360.0
3809428,,,,,,,,0.375,-4.94921875,0.0625,-0.66015625,-0.517578125,0.01171875,0.0,180.0,360.0
3809429,,,,,,,,2.2890625,-5.1328125,2.265625,-0.66015625,-0.517578125,0.01171875,0.0,180.0,360.0
3809430,36.013033666666665,129.32007083333335,132.59393234766614,70.31217013513012,1.2000000000000002,229.0,,2.2890625,-5.1328125,2.265625,-0.16015625,-0.240234375,-0.205078125,0.0,180.0,360.0
3809431,,,,,,,,2.2890625,-5.1328125,2.265625,0.35546875,0.197265625,-0.33984375,0.0,180.0,360.0
3809432,,,,,,,,3.60546875,-1.9453125,2.82421875,0.35546875,0.197265625,-0.33984375,0.0,180.0,360.0
3809433,,,,,,,,3.60546875,-1.9453125,2.82421875,0.67578125,0.177734375,-0.31640625,0.0,180.0,360.0
3809434,,,,,,,,0.91015625,-2.43359375,3.65234375,0.67578125,0.177734375,-0.31640625,0.0,180.0,360.0
3809435,,,,,,,,0.91015625,-2.43359375,3.65234375,0.572265625,-0.05859375,-0.138671875,0.0,180.0,360.0
3809436,,,,,,,,-0.82421875,-2.7265625,2.64453125,0.572265625,-0.05859375,-0.138671875,0.0,180.0,360.0
3809437,,,,,,,,-0.82421875,-2.7265625,2.64453125,0.078125,-0.32421875,0.201171875,0.0,180.0,360.0
3809438,,,,,,,,-0.82421875,-2.7265625,2.64453125,0.078125,-0.32421875,0.201171875,0.0,180.0,360.0
3809439,,,,,,,,-0.82421875,-2.7265625,2.64453125,0.05078125,-0.369140625,0.357421875,0.0,180.0,360.0
3809440,36.013033,129.32006983333335,132.50378461363053,70.23819594693772,1.1,230.0,,0.41015625,-1.5859375,1.2421875,0.05078125,-0.369140625,0.357421875,0.0,180.0,360.0
3809441,,,,,,,,0.41015625,-1.5859375,1.2421875,0.1875,-0.26953125,0.349609375,0.0,180.0,360.0
3809442,,,,,,,,0.41015625,-1.5859375,1.2421875,0.32421875,-0.216796875,0.283203125,0.0,180.0,360.0
3809443,,,,,,,,0.2890625,-0.88671875,0.4609375,0.32421875,-0.216796875,0.283203125,0.0,180.0,360.0
3809444,,,,,,,,0.2890625,-0.88671875,0.4609375,0.357421875,-0.13671875,0.244140625,0.0,180.0,360.0
3809445,,,,,,,,0.16796875,0.9453125,-0.59765625,0.357421875,-0.13671875,0.244140625,0.0,180.0,360.0
3809446,,,,,,,,0.16796875,0.9453125,-0.59765625,0.3515625,-0.0546875,0.240234375,0.0,180.0,360.0
3809447,,,,,,,,0.0625,1.73828125,-0.96875,0.3515625,-0.0546875,0.240234375,0.0,180.0,360.0
3809448,,,,,,,,0.0625,1.73828125,-0.96875,0.333984375,-0.025390625,0.21875,0.0,180.0,360.0
3809449,,,,,,,,0.4296875,2.91015625,-1.30078125,0.333984375,-0.025390625,0.21875,0.0,180.0,360.0
3809450,36.01303166666666,129.3200671666667,132.2633899087907,70.09024666695294,1.3,232.0,,0.4296875,2.91015625,-1.30078125,0.326171875,-0.00390625,0.16015625,0.0,180.0,360.0
3809451,,,,,,,,0.4296875,2.91015625,-1.30078125,0.279296875,0.013671875,0.09375,0.0,180.0,360.0
3809452,,,,,,,,0.8828125,3.39453125,-1.5703125,0.279296875,0.013671875,0.09375,0.0,180.0,360.0
3809453,,,,,,,,0.8828125,3.39453125,-1.5703125,0.23828125,0.07421875,0.025390625,0.0,180.0,360.0
3809454,,,,,,,,1.01171875,3.265625,-1.69921875,0.23828125,0.07421875,0.025390625,0.0,180.0,360.0
3809455,,,,,,,,1.01171875,3.265625,-1.69921875,0.197265625,0.181640625,-0.02734375,0.0,180.0,360.0
3809456,,,,,,,,1.05859375,3.02734375,-1.81640625,0.197265625,0.181640625,-0.02734375,0.0,180.0,360.0
3809457,,,,,,,,1.05859375,3.02734375,-1.81640625,0.189453125,0.28125,-0.078125,0.0,180.0,360.0
3809458,,,,,,,,1.05859375,3.02734375,-1.81640625,0.189453125,0.28125,-0.078125,0.0,180.0,360.0
3809459,,,,,,,,1.05859375,3.02734375,-1.81640625,0.23828125,0.328125,-0.119140625,0.0,180.0,360.0
3809460,36.013031,129.32006583333333,132.14319255083663,70.01627203033335,1.3,234.0,,0.63671875,1.5625,-1.19921875,0.23828125,0.328125,-0.119140625,0.0,180.0,360.0
3809461,,,,,,,,0.63671875,1.5625,-1.19921875,0.271484375,0.31640625,-0.12890625,0.0,180.0,360.0
3809462,,,,,,,,0.63671875,1.5625,-1.19921875,0.189453125,0.251953125,-0.103515625,0.0,180.0,360.0
3809463,,,,,,,,0.31640625,1.23046875,-1.19140625,0.189453125,0.251953125,-0.103515625,0.0,180.0,360.0
3809464,,,,,,,,0.31640625,1.23046875,-1.19140625,0.0546875,0.154296875,-0.021484375,0.0,180.0,360.0
3809465,,,,,,,,0.171875,0.375,-0.87109375,0.0546875,0.154296875,-0.021484375,0.0,180.0,360.0
3809466,,,,,,,,0.171875,0.375,-0.87109375,-0.04296875,0.123046875,0.072265625,0.0,180.0,360.0
3809467,,,,,,,,0.33203125,-0.1640625,-0.83984375,-0.04296875,0.123046875,0.072265625,0.0,180.0,360.0
3809468,,,,,,,,0.33203125,-0.1640625,-0.83984375,-0.12109375,0.04296875,0.12890625,0.0,180.0,360.0
3809469,,,,,,,,0.66796875,-1.42578125,-0.73828125,-0.12109375,0.04296875,0.12890625,0.0,180.0,360.0
3809470,36.01303033333333,129.320065,132.06806961849645,69.94229807274175,1.2000000000000002,232.0,,0.66796875,-1.42578125,-0.73828125,-0.1484375,-0.015625,0.125,0.0,180.0,360.0
3809471,,,,,,,,0.66796875,-1.42578125,-0.73828125,-0.048828125,-0.01953125,0.111328125,0.0,180.0,360.0
3809472,,,,,,,,0.234375,-1.9921875,0.44921875,-0.048828125,-0.01953125,0.111328125,0.0,180.0,360.0
3809473,,,,,,,,0.234375,-1.9921875,0.44921875,-0.3828125,-0.0390625,0.19921875,0.0,180.0,360.0
3809474,,,,,,,,0.2265625,-1.02734375,-0.0546875,-0.3828125,-0.0390625,0.19921875,0.0,180.0,360.0
3809475,,,,,,,,0.2265625,-1.02734375,-0.0546875,-0.615234375,-0.07421875,0.228515625,0.0,180.0,360.0
3809476,,,,,,,,0.2578125,-2.0234375,-0.23046875,-0.615234375,-0.07421875,0.228515625,0.0,180.0,360.0
3809477,,,,,,,,0.2578125,-2.0234375,-0.23046875,-0.51171875,-0.16796875,0.166015625,0.0,180.0,360.0
3809478,,,,,,,,-0.515625,-3.44140625,2.22265625,-0.51171875,-0.16796875,0.166015625,0.0,180.0,360.0
3809479,,,,,,,,-0.515625,-3.44140625,2.22265625,-0.01171875,-0.224609375,0.03515625,0.0,180.0,360.0
3809480,36.01302933333333,129.320064,131.9779224323179,69.83133747555493,1.3,225.0,,-0.515625,-3.44140625,2.22265625,0.17578125,-0.115234375,-0.033203125,0.0,180.0,360.0
3809481,,,,,,,,-1.17578125,-1.78515625,2.828125,0.17578125,-0.115234375,-0.033203125,0.0,180.0,360.0
3809482,,,,,,,,-1.17578125,-1.78515625,2.828125,-0.287109375,-0.1640625,-0.033203125,0.0,180.0,360.0
3809483,,,,,,,,-0.8828125,-0.359375,1.53515625,-0.287109375,-0.1640625,-0.033203125,0.0,180.0,360.0
3809484,,,,,,,,-0.8828125,-0.359375,1.53515625,0.001953125,0.357421875,-0.19140625,0.0,180.0,360.0
3809485,,,,,,,,1.98046875,-1.76171875,2.34765625,0.001953125,0.357421875,-0.19140625,0.0,180.0,360.0
3809486,,,,,,,,1.98046875,-1.76171875,2.34765625,0.03515625,0.283203125,-0.34765625,0.0,180.0,360.0
3809487,,,,,,,,0.72265625,-1.4921875,1.7890625,0.03515625,0.283203125,-0.34765625,0.0,180.0,360.0
3809488,,,,,,,,0.72265625,-1.4921875,1.7890625,0.150390625,0.3359375,-0.43359375,0.0,180.0,360.0
3809489,,,,,,,,-0.359375,-1.1640625,2.109375,0.150390625,0.3359375,-0.43359375,0.0,180.0,360.0
3809490,36.013028500000004,129.32006283333334,131.87275015694584,69.73886986122568,1.3,223.0,,-0.359375,-1.1640625,2.109375,0.2734375,0.35546875,-0.427734375,0.0,180.0,360.0
3809491,,,,,,,,-0.359375,-1.1640625,2.109375,0.248046875,0.32421875,-0.337890625,0.0,180.0,360.0
3809492,,,,,,,,-1.36328125,0.375,0.484375,0.248046875,0.32421875,-0.337890625,0.0,180.0,360.0
3809493,,,,,,,,-1.36328125,0.375,0.484375,0.19921875,0.208984375,-0.279296875,0.0,180.0,360.0
3809494,,,,,,,,-1.1328125,1.01953125,-0.29296875,0.19921875,0.208984375,-0.279296875,0.0,180.0,360.0
3809495,,,,,,,,-1.1328125,1.01953125,-0.29296875,0.171875,0.068359375,-0.279296875,0.0,180.0,360.0
3809496,,,,,,,,-0.7578125,1.625,-0.75390625,0.171875,0.068359375,-0.279296875,0.0,180.0,360.0
3809497,,,,,,,,-0.7578125,1.625,-0.75390625,0.171875,0.068359375,-0.279296875,0.0,180.0,360.0
3809498,,,,,,,,-0.7578125,1.625,-0.75390625,0.267578125,-0.03515625,-0.28125,0.0,180.0,360.0
3809499,,,,,,,,-0.875,2.81640625,-1.12109375,0.267578125,-0.03515625,-0.28125,0.0,180.0,360.0
3809500,36.01302733333333,129.3200605,131.66240477117583,69.60941425698478,1.2000000000000002,228.0,123.0,-0.875,2.81640625,-1.12109375,0.22265625,-0.0546875,-0.1953125,0.0,180.0,360.0
3809501,,,,,,,,-0.875,2.81640625,-1.12109375,0.22265625,-0.0546875,-0.1953125,0.0,180.0,360.0
3809502,,,,,,,,-1.54296875,2.6171875,-1.30859375,0.22265625,-0.0546875,-0.1953125,0.0,180.0,360.0
3809503,,,,,,,,-1.54296875,2.6171875,-1.30859375,-0.05078125,-0.037109375,-0.15234375,0.0,180.0,360.0
3809504,,,,,,,,-1.54296875,2.6171875,-1.30859375,-0.142578125,0.013671875,-0.154296875,0.0,180.0,360.0
3809505,,,,,,,,-0.7890625,-1.16015625,-0.4296875,-0.142578125,0.013671875,-0.154296875,0.0,180.0,360.0
3809506,,,,,,,,-0.7890625,-1.16015625,-0.4296875,-0.234375,0.09765625,-0.15234375,0.0,180.0,360.0
3809507,,,,,,,,-0.7890625,-1.16015625,-0.4296875,-0.234375,0.09765625,-0.15234375,0.0,180.0,360.0
3809508,,,,,,,,-0.7890625,-1.16015625,-0.4296875,-0.3515625,0.15234375,-0.134765625,0.0,180.0,360.0
3809509,,,,,,,,-1.79296875,1.0234375,-0.421875,-0.3515625,0.15234375,-0.134765625,0.0,180.0,360.0
3809510,36.01302616666667,129.32005816666666,131.4520593744027,69.47995865797421,1.3,232.0,,-1.79296875,1.0234375,-0.421875,-0.615234375,-0.056640625,-0.041015625,0.0,180.0,360.0
3809511,,,,,,,,-1.79296875,1.0234375,-0.421875,-0.931640625,-0.548828125,0.1015625,0.0,180.0,360.0
3809512,,,,,,,,-2.3359375,-0.69140625,-0.31640625,-0.931640625,-0.548828125,0.1015625,0.0,180.0,360.0
3809513,,,,,,,,-2.3359375,-0.69140625,-0.31640625,-0.783203125,-0.41796875,0.060546875,0.0,180.0,360.0
3809514,,,,,,,,2.48828125,-4.96484375,2.3046875,-0.783203125,-0.41796875,0.060546875,0.0,180.0,360.0
3809515,,,,,,,,2.48828125,-4.96484375,2.3046875,-0.27734375,0.0390625,-0.173828125,0.0,180.0,360.0
3809516,,,,,,,,3.8359375,-1.77734375,2.4453125,-0.27734375,0.0390625,-0.173828125,0.0,180.0,360.0
3809517,,,,,,,,3.8359375,-1.77734375,2.4453125,0.03125,0.146484375,-0.306640625,0.0,180.0,360.0
3809518,,,,,,,,3.8359375,-1.77734375,2.4453125,0.46875,0.173828125,-0.263671875,0.0,180.0,360.0
3809519,,,,,,,,0.78125,-3.48046875,3.43359375,0.46875,0.173828125,-0.263671875,0.0,180.0,360.0
3809520,36.013025666666664,129.32005683333333,131.33186172685754,69.42447723860656,1.2000000000000002,233.0,,0.78125,-3.48046875,3.43359375,0.5859375,0.25,-0.150390625,0.0,180.0,360.0
3809521,,,,,,,,0.06640625,-2.171875,2.25390625,0.5859375,0.25,-0.150390625,0.0,180.0,360.0
3809522,,,,,,,,0.06640625,-2.171875,2.25390625,0.1328125,0.044921875,0.142578125,0.0,180.0,360.0
3809523,,,,,,,,-0.09375,-0.046875,1.46875,0.1328125,0.044921875,0.142578125,0.0,180.0,360.0
3809524,,,,,,,,-0.09375,-0.046875,1.46875,-0.111328125,-0.138671875,0.337890625,0.0,180.0,360.0
3809525,,,,,,,,-0.35546875,0.2265625,1.046875,-0.111328125,-0.138671875,0.337890625,0.0,180.0,360.0
3809526,,,,,,,,-0.35546875,0.2265625,1.046875,-0.033203125,-0.142578125,0.392578125,0.0,180.0,360.0
3809527,,,,,,,,-0.35546875,0.2265625,1.046875,-0.033203125,-0.142578125,0.392578125,0.0,180.0,360.0
3809528,,,,,,,,-0.35546875,0.2265625,1.046875,-0.013671875,-0.162109375,0.400390625,0.0,180.0,360.0
3809529,,,,,,,,-0.57421875,0.6953125,-0.1640625,-0.013671875,-0.162109375,0.400390625,0.0,180.0,360.0
3809530,36.013025166666665,129.32005533333333,131.19663926864837,69.36899559635943,1.4000000000000001,237.0,,-0.57421875,0.6953125,-0.1640625,0.00390625,-0.208984375,0.3984375,0.0,180.0,360.0
3809531,,,,,,,,-0.57421875,0.6953125,-0.1640625,0.025390625,-0.1875,0.37890625,0.0,180.0,360.0
3809532,,,,,,,,-0.41796875,1.09375,-0.73828125,0.025390625,-0.1875,0.37890625,0.0,180.0,360.0
3809533,,,,,,,,-0.41796875,1.09375,-0.73828125,0.03515625,-0.134765625,0.349609375,0.0,180.0,360.0
3809534,,,,,,,,0.09765625,2.2890625,-1.1953125,0.03515625,-0.134765625,0.349609375,0.0,180.0,360.0
3809535,,,,,,,,0.09765625,2.2890625,-1.1953125,0.044921875,-0.09765625,0.294921875,0.0,180.0,360.0
3809536,,,,,,,,0.83203125,2.8046875,-1.59765625,0.044921875,-0.09765625,0.294921875,0.0,180.0,360.0
3809537,,,,,,,,0.83203125,2.8046875,-1.59765625,0.037109375,-0.01171875,0.189453125,0.0,180.0,360.0
3809538,,,,,,,,0.83203125,2.8046875,-1.59765625,0.0390625,0.1171875,0.064453125,0.0,180.0,360.0
3809539,,,,,,,,1.109375,2.7265625,-1.7265625,0.0390625,0.1171875,0.064453125,0.0,180.0,360.0
3809540,36.01302466666667,129.32005416666667,131.09146642816816,69.31351440625066,1.3,238.0,,1.109375,2.7265625,-1.7265625,0.015625,0.232421875,-0.041015625,0.0,180.0,360.0
3809541,,,,,,,,1.00390625,2.44921875,-1.734375,0.015625,0.232421875,-0.041015625,0.0,180.0,360.0
3809542,,,,,,,,1.00390625,2.44921875,-1.734375,0.0078125,0.3125,-0.115234375,0.0,180.0,360.0
3809543,,,,,,,,0.97265625,2.3359375,-1.6640625,0.0078125,0.3125,-0.115234375,0.0,180.0,360.0
3809544,,,,,,,,0.97265625,2.3359375,-1.6640625,0.041015625,0.37109375,-0.16796875,0.0,180.0,360.0
3809545,,,,,,,,0.96484375,2.05859375,-1.59765625,0.041015625,0.37109375,-0.16796875,0.0,180.0,360.0
3809546,,,,,,,,0.96484375,2.05859375,-1.59765625,0.09765625,0.4296875,-0.189453125,0.0,180.0,360.0
3809547,,,,,,,,0.96484375,2.05859375,-1.59765625,0.09765625,0.4296875,-0.189453125,0.0,180.0,360.0
3809548,,,,,,,,0.96484375,2.05859375,-1.59765625,0.115234375,0.41796875,-0.16796875,0.0,180.0,360.0
3809549,,,,,,,,0.2890625,-0.1171875,-0.88671875,0.115234375,0.41796875,-0.16796875,0.0,180.0,360.0
3809550,36.01302416666667,129.320053,130.98629358611652,69.25803321572307,1.2000000000000002,237.0,,0.2890625,-0.1171875,-0.88671875,0.11328125,0.337890625,-0.1015625,0.0,180.0,360.0
3809551,,,,,,,,0.2890625,-0.1171875,-0.88671875,0.103515625,0.27734375,-0.029296875,0.0,180.0,360.0
3809552,,,,,,,,0.2890625,-0.515625,-0.734375,0.103515625,0.27734375,-0.029296875,0.0,180.0,360.0
3809553,,,,,,,,0.2890625,-0.515625,-0.734375,0.005859375,0.169921875,0.0546875,0.0,180.0,360.0
3809554,,,,,,,,0.53515625,-0.9921875,-0.82421875,0.005859375,0.169921875,0.0546875,0.0,180.0,360.0
3809555,,,,,,,,0.53515625,-0.9921875,-0.82421875,-0.052734375,0.166015625,0.09375,0.0,180.0,360.0
3809556,,,,,,,,0.7265625,-1.7109375,-0.85546875,-0.052734375,0.166015625,0.09375,0.0,180.0,360.0
3809557,,,,,,,,0.7265625,-1.7109375,-0.85546875,-0.048828125,0.201171875,0.119140625,0.0,180.0,360.0
3809558,,,,,,,,0.7265625,-1.7109375,-0.85546875,-0.048828125,0.201171875,0.119140625,0.0,180.0,360.0
3809559,,,,,,,,0.7265625,-1.7109375,-0.85546875,-0.2421875,0.212890625,0.169921875,0.0,180.0,360.0
3809560,36.01302366666666,129.32005166666667,130.8660959323201,69.20255180321315,1.3,237.0,,0.30859375,-0.61328125,-0.5625,-0.2421875,0.212890625,0.169921875,0.0,180.0,360.0
3809561,,,,,,,,0.30859375,-0.61328125,-0.5625,-0.69921875,0.138671875,0.2421875,0.0,180.0,360.0
3809562,,,,,,,,0.30859375,-0.61328125,-0.5625,-0.65234375,0.240234375,0.21484375,0.0,180.0,360.0
3809563,,,,,,,,0.22265625,-3.1640625,0.75,-0.65234375,0.240234375,0.21484375,0.0,180.0,360.0
3809564,,,,,,,,0.22265625,-3.1640625,0.75,-0.423828125,0.033203125,0.275390625,0.0,180.0,360.0
3809565,,,,,,,,-0.53125,-3.0859375,2.7734375,-0.423828125,0.033203125,0.275390625,0.0,180.0,360.0
3809566,,,,,,,,-0.53125,-3.0859375,2.7734375,-0.423828125,0.033203125,0.275390625,0.0,180.0,360.0
3809567,,,,,,,,-0.53125,-3.0859375,2.7734375,0.017578125,-0.017578125,0.3203125,0.0,180.0,360.0
3809568,,,,,,,,-1.22265625,-1.5625,1.75,0.017578125,-0.017578125,0.3203125,0.0,180.0,360.0
3809569,,,,,,,,-1.22265625,-1.5625,1.75,-0.044921875,0.162109375,0.212890625,0.0,180.0,360.0
3809570,36.013023,129.32005066666667,130.77594817265154,69.12857763337048,1.2000000000000002,233.0,,0.390625,-2.20703125,1.60546875,-0.044921875,0.162109375,0.212890625,0.0,180.0,360.0
3809571,,,,,,,,0.390625,-2.20703125,1.60546875,0.162109375,0.14453125,0.04296875,0.0,180.0,360.0
3809572,,,,,,,,0.65234375,-2.2734375,2.62890625,0.162109375,0.14453125,0.04296875,0.0,180.0,360.0
3809573,,,,,,,,0.65234375,-2.2734375,2.62890625,0.1875,0.0234375,-0.080078125,0.0,180.0,360.0
3809574,,,,,,,,-0.109375,-0.21484375,1.79296875,0.1875,0.0234375,-0.080078125,0.0,180.0,360.0
3809575,,,,,,,,-0.109375,-0.21484375,1.79296875,0.052734375,0.015625,-0.123046875,0.0,180.0,360.0
3809576,,,,,,,,-0.3515625,0.28515625,1.06640625,0.052734375,0.015625,-0.123046875,0.0,180.0,360.0
3809577,,,,,,,,-0.3515625,0.28515625,1.06640625,-0.013671875,-0.048828125,-0.150390625,0.0,180.0,360.0
3809578,,,,,,,,-0.3515625,0.28515625,1.06640625,-0.013671875,-0.048828125,-0.150390625,0.0,180.0,360.0
3809579,,,,,,,,-0.3515625,0.28515625,1.06640625,-0.0234375,-0.103515625,-0.20703125,0.0,180.0,360.0
3809580,36.01302166666667,129.32004866666665,130.59565264922125,68.98062929523404,1.2000000000000002,228.0,,-0.109375,1.44140625,-0.4296875,-0.0234375,-0.103515625,-0.20703125,0.0,180.0,360.0
3809581,,,,,,,,-0.109375,1.44140625,-0.4296875,-0.04296875,-0.171875,-0.2578125,0.0,180.0,360.0
3809582,,,,,,,,-0.109375,1.44140625,-0.4296875,-0.02734375,-0.205078125,-0.283203125,0.0,180.0,360.0
3809583,,,,,,,,-0.2265625,2.515625,-1.140625,-0.02734375,-0.205078125,-0.283203125,0.0,180.0,360.0
3809584,,,,,,,,-0.2265625,2.515625,-1.140625,-0.0078125,-0.212890625,-0.279296875,0.0,180.0,360.0
3809585,,,,,,,,-0.40234375,2.8203125,-1.37109375,-0.0078125,-0.212890625,-0.279296875,0.0,180.0,360.0
3809586,,,,,,,,-0.40234375,2.8203125,-1.37109375,-0.0078125,-0.212890625,-0.279296875,0.0,180.0,360.0
3809587,,,,,,,,-0.40234375,2.8203125,-1.37109375,0.03515625,-0.1796875,-0.23828125,0.0,180.0,360.0
3809588,,,,,,,,-0.84375,2.4296875,-1.4765625,0.03515625,-0.1796875,-0.23828125,0.0,180.0,360.0
3809589,,,,,,,,-0.84375,2.4296875,-1.4765625,0.056640625,-0.11328125,-0.166015625,0.0,180.0,360.0
3809590,36.013021333333334,129.3200475,130.49047952507533,68.94364131857593,1.2000000000000002,233.0,,-0.875,2.22265625,-1.609375,0.056640625,-0.11328125,-0.166015625,0.0,180.0,360.0
3809591,,,,,,,,-0.875,2.22265625,-1.609375,0.08984375,-0.068359375,-0.134765625,0.0,180.0,360.0
3809592,,,,,,,,-0.90625,1.87109375,-1.4609375,0.08984375,-0.068359375,-0.134765625,0.0,180.0,360.0
3809593,,,,,,,,-0.90625,1.87109375,-1.4609375,0.1171875,-0.044921875,-0.126953125,0.0,180.0,360.0
3809594,,,,,,,,-1.00390625,1.6328125,-1.24609375,0.1171875,-0.044921875,-0.126953125,0.0,180.0,360.0
3809595,,,,,,,,-1.00390625,1.6328125,-1.24609375,0.08203125,-0.015625,-0.1171875,0.0,180.0,360.0
3809596,,,,,,,,-0.8828125,1.38671875,-1.53125,0.08203125,-0.015625,-0.1171875,0.0,180.0,360.0
3809597,,,,,,,,-0.8828125,1.38671875,-1.53125,0.021484375,0.0,-0.1171875,0.0,180.0,360.0
3809598,,,,,,,,-0.8828125,1.38671875,-1.53125,0.021484375,0.0,-0.1171875,0.0,180.0,360.0
3809599,,,,,,,,-0.8828125,1.38671875,-1.53125,0.013671875,-0.00390625,-0.150390625,0.0,180.0,360.0
3809600,36.01302033333333,129.320045,130.26510901256634,68.83267873081141,1.3,232.0,123.0,-0.671875,-0.24609375,-1.04296875,0.013671875,-0.00390625,-0.150390625,0.0,180.0,360.0
3809601,,,,,,,,-0.671875,-0.24609375,-1.04296875,0.013671875,-0.00390625,-0.150390625,0.0,180.0,360.0
3809602,,,,,,,,-0.671875,-0.24609375,-1.04296875,0.03515625,0.0,-0.19921875,0.0,180.0,360.0
3809603,,,,,,,,0.03125,-3.5546875,0.58203125,0.03515625,0.0,-0.19921875,0.0,180.0,360.0
3809604,,,,,,,,0.03125,-3.5546875,0.58203125,-0.806640625,-0.275390625,0.033203125,0.0,180.0,360.0
3809605,,,,,,,,0.03125,-3.5546875,0.58203125,-0.533203125,-0.205078125,-0.0625,0.0,180.0,360.0
3809606,,,,,,,,1.9296875,-3.66015625,2.38671875,-0.533203125,-0.205078125,-0.0625,0.0,180.0,360.0
3809607,,,,,,,,1.9296875,-3.66015625,2.38671875,-0.533203125,-0.205078125,-0.0625,0.0,180.0,360.0
3809608,,,,,,,,1.9296875,-3.66015625,2.38671875,0.033203125,-0.01953125,-0.22265625,0.0,180.0,360.0
3809609,,,,,,,,1.25390625,-4.08984375,3.421875,0.033203125,-0.01953125,-0.22265625,0.0,180.0,360.0
3809610,36.01302,129.32004383333333,130.15993588550748,68.79569075805611,1.2000000000000002,235.0,,1.25390625,-4.08984375,3.421875,0.71484375,0.033203125,-0.12109375,0.0,180.0,360.0
3809611,,,,,,,,0.45703125,-4.10546875,3.3984375,0.71484375,0.033203125,-0.12109375,0.0,180.0,360.0
3809612,,,,,,,,0.45703125,-4.10546875,3.3984375,0.6484375,0.017578125,0.0625,0.0,180.0,360.0
3809613,,,,,,,,0.45703125,-4.10546875,3.3984375,0.6484375,0.017578125,0.0625,0.0,180.0,360.0
3809614,,,,,,,,0.45703125,-4.10546875,3.3984375,0.337890625,-0.142578125,0.2578125,0.0,180.0,360.0
3809615,,,,,,,,0.55859375,-0.765625,1.203125,0.337890625,-0.142578125,0.2578125,0.0,180.0,360.0
3809616,,,,,,,,0.55859375,-0.765625,1.203125,0.267578125,-0.205078125,0.35546875,0.0,180.0,360.0
3809617,,,,,,,,0.52734375,-1.109375,1.1328125,0.267578125,-0.205078125,0.35546875,0.0,180.0,360.0
3809618,,,,,,,,0.52734375,-1.109375,1.1328125,0.228515625,-0.216796875,0.369140625,0.0,180.0,360.0
3809619,,,,,,,,0.1171875,-0.0390625,0.578125,0.228515625,-0.216796875,0.369140625,0.0,180.0,360.0
3809620,36.013019500000006,129.32004233333333,130.024713410181,68.7402091349091,1.3,237.0,,0.1171875,-0.0390625,0.578125,0.125,-0.203125,0.392578125,0.0,180.0,360.0
3809621,,,,,,,,0.21484375,1.85546875,-0.70703125,0.125,-0.203125,0.392578125,0.0,180.0,360.0
3809622,,,,,,,,0.21484375,1.85546875,-0.70703125,0.091796875,-0.130859375,0.404296875,0.0,180.0,360.0
3809623,,,,,,,,0.21484375,1.85546875,-0.70703125,0.091796875,-0.130859375,0.404296875,0.0,180.0,360.0
3809624,,,,,,,,0.21484375,1.85546875,-0.70703125,0.029296875,-0.068359375,0.380859375,0.0,180.0,360.0
3809625,,,,,,,,0.9609375,3.01953125,-1.703125,0.029296875,-0.068359375,0.380859375,0.0,180.0,360.0
3809626,,,,,,,,0.9609375,3.01953125,-1.703125,-0.01171875,-0.03515625,0.30859375,0.0,180.0,360.0
3809627,,,,,,,,0.9609375,3.01953125,-1.703125,0.017578125,0.03125,0.212890625,0.0,180.0,360.0
3809628,,,,,,,,1.30078125,3.03515625,-1.92578125,0.017578125,0.03125,0.212890625,0.0,180.0,360.0
3809629,,,,,,,,1.30078125,3.03515625,-1.92578125,0.009765625,0.12890625,0.1171875,0.0,180.0,360.0
3809630,36.013018833333334,129.32004116666667,129.9195408281281,68.66623475014889,1.3,236.0,,1.265625,2.765625,-2.05078125,0.009765625,0.12890625,0.1171875,0.0,180.0,360.0
3809631,,,,,,,,1.265625,2.765625,-2.05078125,0.029296875,0.248046875,0.04296875,0.0,180.0,360.0
3809632,,,,,,,,0.875,1.92578125,-1.4921875,0.029296875,0.248046875,0.04296875,0.0,180.0,360.0
3809633,,,,,,,,0.875,1.92578125,-1.4921875,0.115234375,0.294921875,-0.001953125,0.0,180.0,360.0
3809634,,,,,,,,0.875,1.92578125,-1.4921875,0.314453125,0.357421875,-0.041015625,0.0,180.0,360.0
3809635,,,,,,,,0.890625,1.09765625,-0.88671875,0.314453125,0.357421875,-0.041015625,0.0,180.0,360.0
3809636,,,,,,,,0.890625,1.09765625,-0.88671875,0.427734375,0.35546875,-0.052734375,0.0,180.0,360.0
3809637,,,,,,,,0.66796875,1.1953125,-0.7734375,0.427734375,0.35546875,-0.052734375,0.0,180.0,360.0
3809638,,,,,,,,0.66796875,1.1953125,-0.7734375,0.359375,0.228515625,-0.001953125,0.0,180.0,360.0
3809639,,,,,,,,0.25390625,1.1171875,-0.890625,0.359375,0.228515625,-0.001953125,0.0,180.0,360.0
3809640,36.013018333333335,129.32004016666667,129.829392781651,68.61075379706259,1.2000000000000002,235.0,,0.25390625,1.1171875,-0.890625,0.24609375,0.181640625,0.0625,0.0,180.0,360.0
3809641,,,,,,,,0.30859375,0.6796875,-0.953125,0.24609375,0.181640625,0.0625,0.0,180.0,360.0
3809642,,,,,,,,0.30859375,0.6796875,-0.953125,0.08984375,0.1015625,0.12890625,0.0,180.0,360.0
3809643,,,,,,,,0.30859375,0.6796875,-0.953125,0.08984375,0.1015625,0.12890625,0.0,180.0,360.0
3809644,,,,,,,,0.30859375,0.6796875,-0.953125,-0.025390625,-0.02734375,0.1640625,0.0,180.0,360.0
3809645,,,,,,,,0.4765625,-1.5546875,-0.5703125,-0.025390625,-0.02734375,0.1640625,0.0,180.0,360.0
3809646,,,,,,,,0.4765625,-1.5546875,-0.5703125,-0.0625,-0.126953125,0.16015625,0.0,180.0,360.0
3809647,,,,,,,,0.4765625,-1.5546875,-0.5703125,-0.02734375,-0.119140625,0.16015625,0.0,180.0,360.0
3809648,,,,,,,,0.43359375,-2.19921875,-0.1328125,-0.02734375,-0.119140625,0.16015625,0.0,180.0,360.0
3809649,,,,,,,,0.43359375,-2.19921875,-0.1328125,-0.41015625,-0.099609375,0.228515625,0.0,180.0,360.0
3809650,36.01301766666666,129.32003866666668,129.6941705742111,68.5367789709754,1.3,234.0,,0.9453125,-0.16015625,-0.796875,-0.41015625,-0.099609375,0.228515625,0.0,180.0,360.0
3809651,,,,,,,,0.9453125,-0.16015625,-0.796875,-0.748046875,-0.072265625,0.18359375,0.0,180.0,360.0
3809652,,,,,,,,0.5625,-2.84375,0.125,-0.748046875,-0.072265625,0.18359375,0.0,180.0,360.0
3809653,,,,,,,,0.5625,-2.84375,0.125,-0.63671875,-0.119140625,0.06640625,0.0,180.0,360.0
3809654,,,,,,,,-0.30859375,-3.09375,2.05078125,-0.63671875,-0.119140625,0.06640625,0.0,180.0,360.0
3809655,,,,,,,,-0.30859375,-3.09375,2.05078125,-0.2421875,-0.2109375,0.021484375,0.0,180.0,360.0
3809656,,,,,,,,-0.30859375,-3.09375,2.05078125,0.3046875,-0.185546875,0.037109375,0.0,180.0,360.0
3809657,,,,,,,,-1.96484375,-2.46484375,3.3359375,0.3046875,-0.185546875,0.037109375,0.0,180.0,360.0
3809658,,,,,,,,-1.96484375,-2.46484375,3.3359375,0.064453125,-0.28515625,0.123046875,0.0,180.0,360.0
3809659,,,,,,,,-1.92578125,-1.09375,2.2421875,0.064453125,-0.28515625,0.123046875,0.0,180.0,360.0
3809660,36.013016,129.32003683333332,129.5289003764949,68.35184446376837,1.2000000000000002,227.0,,-1.92578125,-1.09375,2.2421875,0.185546875,0.185546875,0.009765625,0.0,180.0,360.0
3809661,,,,,,,,0.83984375,-2.2421875,1.765625,0.185546875,0.185546875,0.009765625,0.0,180.0,360.0
3809662,,,,,,,,0.83984375,-2.2421875,1.765625,0.21875,0.107421875,-0.189453125,0.0,180.0,360.0
3809663,,,,,,,,0.83984375,-2.2421875,1.765625,0.21875,0.107421875,-0.189453125,0.0,180.0,360.0
3809664,,,,,,,,0.83984375,-2.2421875,1.765625,0.080078125,-0.03125,-0.306640625,0.0,180.0,360.0
3809665,,,,,,,,0.109375,-0.61328125,1.6328125,0.080078125,-0.03125,-0.306640625,0.0,180.0,360.0
3809666,,,,,,,,0.109375,-0.61328125,1.6328125,0.111328125,0.02734375,-0.328125,0.0,180.0,360.0
3809667,,,,,,,,0.109375,-0.61328125,1.6328125,0.154296875,0.12890625,-0.2734375,0.0,180.0,360.0
3809668,,,,,,,,-0.24609375,-0.19921875,1.13671875,0.154296875,0.12890625,-0.2734375,0.0,180.0,360.0
3809669,,,,,,,,-0.24609375,-0.19921875,1.13671875,0.09375,0.13671875,-0.232421875,0.0,180.0,360.0
3809670,36.013015333333335,129.32003566666666,129.4237277854391,68.2778700853532,1.2000000000000002,226.0,,-0.16796875,1.25,-0.16015625,0.09375,0.13671875,-0.232421875,0.0,180.0,360.0
3809671,,,,,,,,-0.16796875,1.25,-0.16015625,0.05859375,0.146484375,-0.25,0.0,180.0,360.0
3809672,,,,,,,,0.0234375,2.23046875,-0.55859375,0.05859375,0.146484375,-0.25,0.0,180.0,360.0
3809673,,,,,,,,0.0234375,2.23046875,-0.55859375,0.10546875,0.158203125,-0.283203125,0.0,180.0,360.0
3809674,,,,,,,,-0.27734375,2.60546875,-0.7890625,0.10546875,0.158203125,-0.283203125,0.0,180.0,360.0
3809675,,,,,,,,-0.27734375,2.60546875,-0.7890625,0.1171875,0.189453125,-0.271484375,0.0,180.0,360.0
3809676,,,,,,,,-0.27734375,2.60546875,-0.7890625,0.064453125,0.166015625,-0.20703125,0.0,180.0,360.0
3809677,,,,,,,,-1.20703125,2.703125,-1.31640625,0.064453125,0.166015625,-0.20703125,0.0,180.0,360.0
3809678,,,,,,,,-1.20703125,2.703125,-1.31640625,0.0546875,0.1484375,-0.12109375,0.0,180.0,360.0
3809679,,,,,,,,-1.421875,2.3828125,-1.33203125,0.0546875,0.1484375,-0.12109375,0.0,180.0,360.0
3809680,36.01301466666666,129.32003466666666,129.3335800039014,68.20389592883988,1.3,227.0,,-1.421875,2.3828125,-1.33203125,0.103515625,0.154296875,-0.064453125,0.0,180.0,360.0
3809681,,,,,,,,-1.359375,2.0390625,-1.3125,0.103515625,0.154296875,-0.064453125,0.0,180.0,360.0
3809682,,,,,,,,-1.359375,2.0390625,-1.3125,0.185546875,0.150390625,-0.052734375,0.0,180.0,360.0
3809683,,,,,,,,-1.359375,2.0390625,-1.3125,0.185546875,0.150390625,-0.052734375,0.0,180.0,360.0
3809684,,,,,,,,-1.359375,2.0390625,-1.3125,0.2421875,0.138671875,-0.060546875,0.0,180.0,360.0
3809685,,,,,,,,-1.09765625,1.80859375,-1.48046875,0.2421875,0.138671875,-0.060546875,0.0,180.0,360.0
3809686,,,,,,,,-1.09765625,1.80859375,-1.48046875,0.23046875,0.103515625,-0.0546875,0.0,180.0,360.0
3809687,,,,,,,,-1.09765625,1.80859375,-1.48046875,0.17578125,0.08984375,-0.052734375,0.0,180.0,360.0
3809688,,,,,,,,-0.984375,1.59375,-1.54296875,0.17578125,0.08984375,-0.052734375,0.0,180.0,360.0
3809689,,,,,,,,-0.984375,1.59375,-1.54296875,0.1015625,0.021484375,-0.048828125,0.0,180.0,360.0
3809690,36.01301383333334,129.3200336666667,129.2434324977504,68.11142856876525,1.3,226.0,,-0.79296875,0.34375,-1.22265625,0.1015625,0.021484375,-0.048828125,0.0,180.0,360.0
3809691,,,,,,,,-0.79296875,0.34375,-1.22265625,0.087890625,-0.001953125,-0.080078125,0.0,180.0,360.0
3809692,,,,,,,,-0.65625,-0.26953125,-0.89453125,0.087890625,-0.001953125,-0.080078125,0.0,180.0,360.0
3809693,,,,,,,,-0.65625,-0.26953125,-0.89453125,0.09375,-0.017578125,-0.1171875,0.0,180.0,360.0
3809694,,,,,,,,-0.74609375,-0.67578125,-0.80078125,0.09375,-0.017578125,-0.1171875,0.0,180.0,360.0
3809695,,,,,,,,-0.74609375,-0.67578125,-0.80078125,0.0,-0.076171875,-0.119140625,0.0,180.0,360.0
3809696,,,,,,,,-0.74609375,-0.67578125,-0.80078125,-0.0859375,-0.064453125,-0.109375,0.0,180.0,360.0
3809697,,,,,,,,-0.55859375,-1.06640625,-0.79296875,-0.0859375,-0.064453125,-0.109375,0.0,180.0,360.0
3809698,,,,,,,,-0.55859375,-1.06640625,-0.79296875,-0.177734375,-0.005859375,-0.1171875,0.0,180.0,360.0
3809699,,,,,,,,-0.46484375,-0.8359375,-0.7265625,-0.177734375,-0.005859375,-0.1171875,0.0,180.0,360.0
3809700,36.01301266666667,129.32003133333333,129.03308702981155,67.98197302717978,1.3,228.0,123.0,-0.46484375,-0.8359375,-0.7265625,-0.177734375,-0.005859375,-0.1171875,0.0,180.0,360.0
3809701,,,,,,,,-0.46484375,-0.8359375,-0.7265625,-0.177734375,-0.005859375,-0.1171875,0.0,180.0,360.0
3809702,,,,,,,,-0.46484375,-0.8359375,-0.7265625,-0.337890625,-0.083984375,-0.115234375,0.0,180.0,360.0
3809703,,,,,,,,-1.6171875,1.1796875,-0.5,-0.337890625,-0.083984375,-0.115234375,0.0,180.0,360.0
3809704,,,,,,,,-1.6171875,1.1796875,-0.5,0.1875,-0.166015625,0.3125,0.0,180.0,360.0
3809705,,,,,,,,-0.125,0.0546875,0.65234375,0.1875,-0.166015625,0.3125,0.0,180.0,360.0
3809706,,,,,,,,-0.125,0.0546875,0.65234375,0.099609375,-0.177734375,0.3359375,0.0,180.0,360.0
3809707,,,,,,,,0.0859375,1.1328125,-0.16796875,0.099609375,-0.177734375,0.3359375,0.0,180.0,360.0
3809708,,,,,,,,0.0859375,1.1328125,-0.16796875,0.0390625,-0.0859375,0.361328125,0.0,180.0,360.0
3809709,,,,,,,,0.0859375,1.1328125,-0.16796875,-0.013671875,-0.01171875,0.37109375,0.0,180.0,360.0
3809710,36.0130115,129.32002866666664,128.79269193056035,67.85251704957524,1.3,234.0,,0.4296875,2.10546875,-0.7890625,-0.013671875,-0.01171875,0.37109375,0.0,180.0,360.0
3809711,,,,,,,,0.4296875,2.10546875,-0.7890625,-0.013671875,-0.01171875,0.37109375,0.0,180.0,360.0
3809712,,,,,,,,0.4296875,2.10546875,-0.7890625,-0.001953125,0.08984375,0.30859375,0.0,180.0,360.0
3809713,,,,,,,,0.83203125,2.859375,-1.28515625,-0.001953125,0.08984375,0.30859375,0.0,180.0,360.0
3809714,,,,,,,,0.83203125,2.859375,-1.28515625,0.029296875,0.1484375,0.232421875,0.0,180.0,360.0
3809715,,,,,,,,0.83203125,2.859375,-1.28515625,0.03125,0.22265625,0.158203125,0.0,180.0,360.0
3809716,,,,,,,,0.94140625,2.97265625,-1.72265625,0.03125,0.22265625,0.158203125,0.0,180.0,360.0
3809717,,,,,,,,0.94140625,2.97265625,-1.72265625,0.021484375,0.330078125,0.1015625,0.0,180.0,360.0
3809718,,,,,,,,0.89453125,2.859375,-1.84765625,0.021484375,0.330078125,0.1015625,0.0,180.0,360.0
3809719,,,,,,,,0.89453125,2.859375,-1.84765625,0.048828125,0.41015625,0.060546875,0.0,180.0,360.0
3809720,36.01301083333333,129.3200275,128.6875193297845,67.77854268061331,1.3,235.0,,0.6640625,2.28515625,-1.671875,0.048828125,0.41015625,0.060546875,0.0,180.0,360.0
3809721,,,,,,,,0.6640625,2.28515625,-1.671875,0.1328125,0.44140625,0.015625,0.0,180.0,360.0
3809722,,,,,,,,0.6640625,2.28515625,-1.671875,0.1328125,0.44140625,0.015625,0.0,180.0,360.0
3809723,,,,,,,,0.6640625,2.28515625,-1.671875,0.142578125,0.40234375,0.0078125,0.0,180.0,360.0
3809724,,,,,,,,0.4296875,1.06640625,-1.171875,0.142578125,0.40234375,0.0078125,0.0,180.0,360.0
3809725,,,,,,,,0.4296875,1.06640625,-1.171875,0.130859375,0.3359375,0.0234375,0.0,180.0,360.0
3809726,,,,,,,,0.30078125,0.4375,-0.8984375,0.130859375,0.3359375,0.0234375,0.0,180.0,360.0
3809727,,,,,,,,0.30078125,0.4375,-0.8984375,0.1171875,0.232421875,0.052734375,0.0,180.0,360.0
3809728,,,,,,,,0.30078125,0.4375,-0.8984375,0.115234375,0.1484375,0.087890625,0.0,180.0,360.0
3809729,,,,,,,,0.33203125,-0.5,-0.38671875,0.115234375,0.1484375,0.087890625,0.0,180.0,360.0
3809730,36.01301016666666,129.32002633333335,128.58234672524145,67.70456831202715,1.3,233.0,,0.33203125,-0.5,-0.38671875,0.087890625,-0.01171875,0.130859375,0.0,180.0,360.0
3809731,,,,,,,,-0.09765625,-2.15234375,-0.1484375,0.087890625,-0.01171875,0.130859375,0.0,180.0,360.0
3809732,,,,,,,,-0.09765625,-2.15234375,-0.1484375,0.056640625,-0.11328125,0.15625,0.0,180.0,360.0
3809733,,,,,,,,-0.09765625,-2.15234375,-0.1484375,-0.017578125,-0.111328125,0.181640625,0.0,180.0,360.0
3809734,,,,,,,,-0.06640625,-2.390625,0.11328125,-0.017578125,-0.111328125,0.181640625,0.0,180.0,360.0
3809735,,,,,,,,-0.06640625,-2.390625,0.11328125,-0.50390625,-0.193359375,0.255859375,0.0,180.0,360.0
3809736,,,,,,,,0.38671875,-0.68359375,-0.5703125,-0.50390625,-0.193359375,0.255859375,0.0,180.0,360.0
3809737,,,,,,,,0.38671875,-0.68359375,-0.5703125,-0.744140625,-0.212890625,0.23828125,0.0,180.0,360.0
3809738,,,,,,,,0.41796875,-0.64453125,-0.453125,-0.744140625,-0.212890625,0.23828125,0.0,180.0,360.0
3809739,,,,,,,,0.41796875,-0.64453125,-0.453125,-0.865234375,-0.294921875,0.224609375,0.0,180.0,360.0
3809740,36.013009333333336,129.3200255,128.50722401377305,67.61210117909243,1.2000000000000002,230.0,,-0.546875,-2.7109375,1.07421875,-0.865234375,-0.294921875,0.224609375,0.0,180.0,360.0
3809741,,,,,,,,-0.546875,-2.7109375,1.07421875,-0.619140625,-0.298828125,0.20703125,0.0,180.0,360.0
3809742,,,,,,,,-0.546875,-2.7109375,1.07421875,-0.619140625,-0.298828125,0.20703125,0.0,180.0,360.0
3809743,,,,,,,,-0.546875,-2.7109375,1.07421875,-0.13671875,-0.2265625,0.1328125,0.0,180.0,360.0
3809744,,,,,,,,-1.15234375,-1.29296875,1.85546875,-0.13671875,-0.2265625,0.1328125,0.0,180.0,360.0
3809745,,,,,,,,-1.15234375,-1.29296875,1.85546875,-0.1015625,-0.177734375,0.10546875,0.0,180.0,360.0
3809746,,,,,,,,-1.15234375,-1.29296875,1.85546875,0.046875,0.06640625,-0.0234375,0.0,180.0,360.0
3809747,,,,,,,,0.51171875,-2.28125,1.609375,0.046875,0.06640625,-0.0234375,0.0,180.0,360.0
3809748,,,,,,,,0.51171875,-2.28125,1.609375,0.236328125,0.177734375,-0.205078125,0.0,180.0,360.0
3809749,,,,,,,,0.46484375,-1.29296875,1.84765625,0.236328125,0.177734375,-0.205078125,0.0,180.0,360.0
3809750,36.0130085,129.32002466666665,128.43210130079845,67.51963404535357,1.2000000000000002,225.0,,0.46484375,-1.29296875,1.84765625,0.23828125,0.103515625,-0.3203125,0.0,180.0,360.0
3809751,,,,,,,,-0.2578125,-0.04296875,1.0859375,0.23828125,0.103515625,-0.3203125,0.0,180.0,360.0
3809752,,,,,,,,-0.2578125,-0.04296875,1.0859375,0.1640625,0.126953125,-0.34375,0.0,180.0,360.0
3809753,,,,,,,,-0.2578125,-0.04296875,1.0859375,0.169921875,0.15234375,-0.337890625,0.0,180.0,360.0
3809754,,,,,,,,-0.41796875,0.0234375,0.6875,0.169921875,0.15234375,-0.337890625,0.0,180.0,360.0
3809755,,,,,,,,-0.41796875,0.0234375,0.6875,0.166015625,0.173828125,-0.341796875,0.0,180.0,360.0
3809756,,,,,,,,-0.28125,1.04296875,0.07421875,0.166015625,0.173828125,-0.341796875,0.0,180.0,360.0
3809757,,,,,,,,-0.28125,1.04296875,0.07421875,0.1328125,0.154296875,-0.361328125,0.0,180.0,360.0
3809758,,,,,,,,-0.375,1.71875,-0.42578125,0.1328125,0.154296875,-0.361328125,0.0,180.0,360.0
3809759,,,,,,,,-0.375,1.71875,-0.42578125,0.150390625,0.1328125,-0.3671875,0.0,180.0,360.0
3809760,36.01300783333333,129.3200235,128.32692869039528,67.44565968056004,1.2000000000000002,224.0,,-0.515625,2.16015625,-0.52734375,0.150390625,0.1328125,-0.3671875,0.0,180.0,360.0
3809761,,,,,,,,-0.515625,2.16015625,-0.52734375,0.150390625,0.1328125,-0.3671875,0.0,180.0,360.0
3809762,,,,,,,,-0.515625,2.16015625,-0.52734375,0.119140625,0.119140625,-0.30859375,0.0,180.0,360.0
3809763,,,,,,,,-1.2890625,2.60546875,-1.1484375,0.119140625,0.119140625,-0.30859375,0.0,180.0,360.0
3809764,,,,,,,,-1.2890625,2.60546875,-1.1484375,0.08203125,0.07421875,-0.1953125,0.0,180.0,360.0
3809765,,,,,,,,-1.46875,2.4296875,-1.21484375,0.08203125,0.07421875,-0.1953125,0.0,180.0,360.0
3809766,,,,,,,,-1.46875,2.4296875,-1.21484375,0.08203125,0.025390625,-0.115234375,0.0,180.0,360.0
3809767,,,,,,,,-1.60546875,2.15234375,-1.1640625,0.08203125,0.025390625,-0.115234375,0.0,180.0,360.0
3809768,,,,,,,,-1.60546875,2.15234375,-1.1640625,0.111328125,-0.0390625,-0.068359375,0.0,180.0,360.0
3809769,,,,,,,,-1.70703125,1.484375,-1.21875,0.111328125,-0.0390625,-0.068359375,0.0,180.0,360.0
3809770,36.013006499999996,129.32002116666666,128.11658346536535,67.29771095442247,1.3,229.0,,-1.70703125,1.484375,-1.21875,0.166015625,-0.0859375,-0.0546875,0.0,180.0,360.0
3809771,,,,,,,,-1.453125,1.39453125,-1.203125,0.166015625,-0.0859375,-0.0546875,0.0,180.0,360.0
3809772,,,,,,,,-1.453125,1.39453125,-1.203125,0.203125,-0.08984375,-0.056640625,0.0,180.0,360.0
3809773,,,,,,,,-1.453125,1.39453125,-1.203125,0.19140625,-0.09375,-0.06640625,0.0,180.0,360.0
3809774,,,,,,,,-1.0078125,1.0625,-1.33203125,0.19140625,-0.09375,-0.06640625,0.0,180.0,360.0
3809775,,,,,,,,-1.0078125,1.0625,-1.33203125,0.20703125,-0.095703125,-0.099609375,0.0,180.0,360.0
3809776,,,,,,,,-0.83203125,0.05078125,-0.9453125,0.20703125,-0.095703125,-0.099609375,0.0,180.0,360.0
3809777,,,,,,,,-0.83203125,0.05078125,-0.9453125,0.205078125,-0.083984375,-0.140625,0.0,180.0,360.0
3809778,,,,,,,,-0.80859375,-0.15625,-0.828125,0.205078125,-0.083984375,-0.140625,0.0,180.0,360.0
3809779,,,,,,,,-0.80859375,-0.15625,-0.828125,0.15234375,-0.091796875,-0.1640625,0.0,180.0,360.0
3809780,36.01300583333333,129.32002016666667,128.0264356622193,67.22373681158065,1.2000000000000002,229.0,,-0.87890625,-0.21484375,-0.77734375,0.15234375,-0.091796875,-0.1640625,0.0,180.0,360.0
3809781,,,,,,,,-0.87890625,-0.21484375,-0.77734375,0.15234375,-0.091796875,-0.1640625,0.0,180.0,360.0
3809782,,,,,,,,-0.87890625,-0.21484375,-0.77734375,-0.013671875,-0.140625,-0.169921875,0.0,180.0,360.0
3809783,,,,,,,,-0.4375,-1.0,-0.75390625,-0.013671875,-0.140625,-0.169921875,0.0,180.0,360.0
3809784,,,,,,,,-0.4375,-1.0,-0.75390625,-0.205078125,-0.064453125,-0.208984375,0.0,180.0,360.0
3809785,,,,,,,,0.08984375,-0.890625,-0.8359375,-0.205078125,-0.064453125,-0.208984375,0.0,180.0,360.0
3809786,,,,,,,,0.08984375,-0.890625,-0.8359375,-0.32421875,-0.0078125,-0.224609375,0.0,180.0,360.0
3809787,,,,,,,,0.08984375,-0.1953125,-0.71484375,-0.32421875,-0.0078125,-0.224609375,0.0,180.0,360.0
3809788,,,,,,,,0.08984375,-0.1953125,-0.71484375,-0.6796875,-0.111328125,-0.130859375,0.0,180.0,360.0
3809789,,,,,,,,-0.8671875,-0.67578125,-0.55078125,-0.6796875,-0.111328125,-0.130859375,0.0,180.0,360.0
3809790,36.013005166666666,129.32001916666667,127.93628785838705,67.14976267159213,1.2000000000000002,228.0,,-0.8671875,-0.67578125,-0.55078125,-0.77734375,-0.265625,-0.029296875,0.0,180.0,360.0
3809791,,,,,,,,-0.4765625,-4.14453125,0.12109375,-0.77734375,-0.265625,-0.029296875,0.0,180.0,360.0
3809792,,,,,,,,-0.4765625,-4.14453125,0.12109375,-0.59375,-0.056640625,-0.0703125,0.0,180.0,360.0
3809793,,,,,,,,-0.4765625,-4.14453125,0.12109375,-0.283203125,0.16796875,-0.173828125,0.0,180.0,360.0
3809794,,,,,,,,2.6484375,-2.99609375,1.578125,-0.283203125,0.16796875,-0.173828125,0.0,180.0,360.0
3809795,,,,,,,,2.6484375,-2.99609375,1.578125,-0.01171875,0.232421875,-0.193359375,0.0,180.0,360.0
3809796,,,,,,,,1.93359375,-1.76171875,2.93359375,-0.01171875,0.232421875,-0.193359375,0.0,180.0,360.0
3809797,,,,,,,,1.93359375,-1.76171875,2.93359375,0.46875,0.28125,-0.150390625,0.0,180.0,360.0
3809798,,,,,,,,0.6875,-4.0703125,3.33203125,0.46875,0.28125,-0.150390625,0.0,180.0,360.0
3809799,,,,,,,,0.6875,-4.0703125,3.33203125,0.556640625,0.125,-0.060546875,0.0,180.0,360.0
3809800,36.013004,129.32001666666665,127.71091753411758,67.02030694345852,1.3,233.0,123.0,0.6875,-4.0703125,3.33203125,0.556640625,0.125,-0.060546875,0.0,180.0,360.0
3809801,,,,,,,,0.6875,-4.0703125,3.33203125,0.556640625,0.125,-0.060546875,0.0,180.0,360.0
3809802,,,,,,,,-0.05078125,-2.98046875,2.953125,0.556640625,0.125,-0.060546875,0.0,180.0,360.0
3809803,,,,,,,,-0.05078125,-2.98046875,2.953125,0.197265625,-0.015625,0.15625,0.0,180.0,360.0
3809804,,,,,,,,-0.05078125,-2.98046875,2.953125,0.03125,0.185546875,0.03515625,0.0,180.0,360.0
3809805,,,,,,,,0.78125,2.046875,-1.52734375,0.03125,0.185546875,0.03515625,0.0,180.0,360.0
3809806,,,,,,,,0.78125,2.046875,-1.52734375,0.06640625,0.251953125,-0.0234375,0.0,180.0,360.0
3809807,,,,,,,,0.78125,2.046875,-1.52734375,0.16796875,0.255859375,-0.046875,0.0,180.0,360.0
3809808,,,,,,,,0.296875,1.38671875,-1.12890625,0.16796875,0.255859375,-0.046875,0.0,180.0,360.0
3809809,,,,,,,,0.296875,1.38671875,-1.12890625,0.248046875,0.2421875,-0.0546875,0.0,180.0,360.0
3809810,36.01300283333333,129.32001433333335,127.50057202411807,66.89085143885418,1.2000000000000002,236.0,,0.296875,1.38671875,-1.12890625,0.248046875,0.2421875,-0.0546875,0.0,180.0,360.0
3809811,,,,,,,,0.296875,1.38671875,-1.12890625,0.23828125,0.1484375,-0.04296875,0.0,180.0,360.0
3809812,,,,,,,,0.14453125,0.49609375,-0.9765625,0.23828125,0.1484375,-0.04296875,0.0,180.0,360.0
3809813,,,,,,,,0.14453125,0.49609375,-0.9765625,0.189453125,0.068359375,0.013671875,0.0,180.0,360.0
3809814,,,,,,,,0.14453125,0.49609375,-0.9765625,0.099609375,0.021484375,0.05859375,0.0,180.0,360.0
3809815,,,,,,,,0.3125,-0.1328125,-0.984375,0.099609375,0.021484375,0.05859375,0.0,180.0,360.0
3809816,,,,,,,,0.3125,-0.1328125,-0.984375,-0.00390625,-0.0234375,0.1015625,0.0,180.0,360.0
3809817,,,,,,,,0.4453125,-0.4453125,-0.87890625,-0.00390625,-0.0234375,0.1015625,0.0,180.0,360.0
3809818,,,,,,,,0.4453125,-0.4453125,-0.87890625,-0.08984375,-0.07421875,0.12109375,0.0,180.0,360.0
3809819,,,,,,,,0.66796875,-1.89453125,-0.48046875,-0.08984375,-0.07421875,0.12109375,0.0,180.0,360.0
3809820,36.013002,129.32001333333335,127.41042448077178,66.79838409640769,1.2000000000000002,232.0,,0.66796875,-1.89453125,-0.48046875,-0.095703125,-0.083984375,0.107421875,0.0,180.0,360.0
3809821,,,,,,,,0.66796875,-1.89453125,-0.48046875,-0.298828125,-0.064453125,0.15625,0.0,180.0,360.0
3809822,,,,,,,,0.68359375,-0.76953125,-0.42578125,-0.298828125,-0.064453125,0.15625,0.0,180.0,360.0
3809823,,,,,,,,0.68359375,-0.76953125,-0.42578125,-0.76171875,-0.029296875,0.2421875,0.0,180.0,360.0
3809824,,,,,,,,0.98046875,-0.890625,-0.875,-0.76171875,-0.029296875,0.2421875,0.0,180.0,360.0
3809825,,,,,,,,0.98046875,-0.890625,-0.875,-0.849609375,0.03125,0.158203125,0.0,180.0,360.0
3809826,,,,,,,,1.17578125,-2.90234375,-0.8359375,-0.849609375,0.03125,0.158203125,0.0,180.0,360.0
3809827,,,,,,,,1.17578125,-2.90234375,-0.8359375,-0.669921875,-0.072265625,0.09765625,0.0,180.0,360.0
3809828,,,,,,,,-0.2109375,-4.83203125,2.2734375,-0.669921875,-0.072265625,0.09765625,0.0,180.0,360.0
3809829,,,,,,,,-0.2109375,-4.83203125,2.2734375,0.2421875,0.06640625,-0.03125,0.0,180.0,360.0
3809830,36.01300116666666,129.3200121666667,127.30525212149142,66.70591653718134,1.3,228.0,,-0.2109375,-4.83203125,2.2734375,0.2421875,0.06640625,-0.03125,0.0,180.0,360.0
3809831,,,,,,,,-0.2109375,-4.83203125,2.2734375,-0.099609375,-0.087890625,0.09765625,0.0,180.0,360.0
3809832,,,,,,,,-0.546875,-0.54296875,1.0390625,-0.099609375,-0.087890625,0.09765625,0.0,180.0,360.0
3809833,,,,,,,,-0.546875,-0.54296875,1.0390625,-0.185546875,0.115234375,0.09765625,0.0,180.0,360.0
3809834,,,,,,,,-0.546875,-0.54296875,1.0390625,-0.021484375,0.287109375,-0.05078125,0.0,180.0,360.0
3809835,,,,,,,,1.2734375,-1.4765625,1.26953125,-0.021484375,0.287109375,-0.05078125,0.0,180.0,360.0
3809836,,,,,,,,1.2734375,-1.4765625,1.26953125,-0.017578125,0.2265625,-0.25,0.0,180.0,360.0
3809837,,,,,,,,0.578125,-1.125,1.34765625,-0.017578125,0.2265625,-0.25,0.0,180.0,360.0
3809838,,,,,,,,0.578125,-1.125,1.34765625,0.12890625,0.154296875,-0.31640625,0.0,180.0,360.0
3809839,,,,,,,,-0.640625,-0.51953125,1.66796875,0.12890625,0.154296875,-0.31640625,0.0,180.0,360.0
3809840,36.013000166666664,129.32001116666666,127.21510483898801,66.59495598971876,1.3,226.0,,-0.640625,-0.51953125,1.66796875,0.197265625,0.1484375,-0.267578125,0.0,180.0,360.0
3809841,,,,,,,,-0.640625,-0.51953125,1.66796875,0.19921875,0.107421875,-0.19921875,0.0,180.0,360.0
3809842,,,,,,,,-0.8203125,0.31640625,0.4921875,0.19921875,0.107421875,-0.19921875,0.0,180.0,360.0
3809843,,,,,,,,-0.8203125,0.31640625,0.4921875,0.15625,0.029296875,-0.173828125,0.0,180.0,360.0
3809844,,,,,,,,-0.66015625,0.9140625,-0.11328125,0.15625,0.029296875,-0.173828125,0.0,180.0,360.0
3809845,,,,,,,,-0.66015625,0.9140625,-0.11328125,0.1484375,-0.04296875,-0.185546875,0.0,180.0,360.0
3809846,,,,,,,,-0.4609375,1.48046875,-0.41015625,0.1484375,-0.04296875,-0.185546875,0.0,180.0,360.0
3809847,,,,,,,,-0.4609375,1.48046875,-0.41015625,0.150390625,-0.06640625,-0.19140625,0.0,180.0,360.0
3809848,,,,,,,,-0.375,2.3515625,-0.7890625,0.150390625,-0.06640625,-0.19140625,0.0,180.0,360.0
3809849,,,,,,,,-0.375,2.3515625,-0.7890625,0.17578125,-0.064453125,-0.1640625,0.0,180.0,360.0
3809850,36.0129995,129.32001033333333,127.13998183887891,66.52098207390942,1.2000000000000002,226.0,,-0.375,2.3515625,-0.7890625,0.17578125,-0.064453125,-0.1640625,0.0,180.0,360.0
3809851,,,,,,,,-0.375,2.3515625,-0.7890625,0.212890625,-0.033203125,-0.103515625,0.0,180.0,360.0
3809852,,,,,,,,-1.265625,2.51171875,-1.2265625,0.212890625,-0.033203125,-0.103515625,0.0,180.0,360.0
3809853,,,,,,,,-1.265625,2.51171875,-1.2265625,0.201171875,-0.013671875,-0.029296875,0.0,180.0,360.0
3809854,,,,,,,,-1.265625,2.51171875,-1.2265625,0.1796875,-0.0390625,0.021484375,0.0,180.0,360.0
3809855,,,,,,,,-1.15234375,2.0,-1.46484375,0.1796875,-0.0390625,0.021484375,0.0,180.0,360.0
3809856,,,,,,,,-1.15234375,2.0,-1.46484375,0.212890625,-0.0546875,0.015625,0.0,180.0,360.0
3809857,,,,,,,,-1.0,1.67578125,-1.34375,0.212890625,-0.0546875,0.015625,0.0,180.0,360.0
3809858,,,,,,,,-1.0,1.67578125,-1.34375,0.2734375,-0.060546875,-0.009765625,0.0,180.0,360.0
3809859,,,,,,,,-1.16015625,1.6171875,-1.48046875,0.2734375,-0.060546875,-0.009765625,0.0,180.0,360.0
3809860,36.012999,129.320009,127.01978412364019,66.46550071401596,1.2000000000000002,230.0,,-1.16015625,1.6171875,-1.48046875,0.224609375,-0.09765625,-0.0078125,0.0,180.0,360.0
3809861,,,,,,,,-1.16015625,1.6171875,-1.48046875,0.15234375,-0.166015625,-0.0078125,0.0,180.0,360.0
3809862,,,,,,,,-0.859375,0.3671875,-1.375,0.15234375,-0.166015625,-0.0078125,0.0,180.0,360.0
3809863,,,,,,,,-0.859375,0.3671875,-1.375,0.17578125,-0.185546875,-0.0546875,0.0,180.0,360.0
3809864,,,,,,,,-0.640625,-0.4140625,-0.9453125,0.17578125,-0.185546875,-0.0546875,0.0,180.0,360.0
3809865,,,,,,,,-0.640625,-0.4140625,-0.9453125,0.244140625,-0.193359375,-0.10546875,0.0,180.0,360.0
3809866,,,,,,,,-0.625,-0.77734375,-0.5859375,0.244140625,-0.193359375,-0.10546875,0.0,180.0,360.0
3809867,,,,,,,,-0.625,-0.77734375,-0.5859375,0.185546875,-0.181640625,-0.12109375,0.0,180.0,360.0
3809868,,,,,,,,-0.65625,-0.609375,-0.65625,0.185546875,-0.181640625,-0.12109375,0.0,180.0,360.0
3809869,,,,,,,,-0.65625,-0.609375,-0.65625,0.0390625,-0.1953125,-0.107421875,0.0,180.0,360.0
3809870,36.012998333333336,129.320008,126.92963630350386,66.391526583729,1.2000000000000002,231.0,,-0.65625,-0.609375,-0.65625,0.0390625,-0.1953125,-0.107421875,0.0,180.0,360.0
3809871,,,,,,,,-0.65625,-0.609375,-0.65625,-0.134765625,-0.12890625,-0.109375,0.0,180.0,360.0
3809872,,,,,,,,0.0390625,-0.6171875,-0.80078125,-0.134765625,-0.12890625,-0.109375,0.0,180.0,360.0
3809873,,,,,,,,0.0390625,-0.6171875,-0.80078125,-0.23828125,-0.01171875,-0.15234375,0.0,180.0,360.0
3809874,,,,,,,,0.0390625,-0.6171875,-0.80078125,-0.419921875,-0.03515625,-0.158203125,0.0,180.0,360.0
3809875,,,,,,,,-0.34375,0.3515625,-0.65625,-0.419921875,-0.03515625,-0.158203125,0.0,180.0,360.0
3809876,,,,,,,,-0.34375,0.3515625,-0.65625,-0.802734375,-0.314453125,-0.068359375,0.0,180.0,360.0
3809877,,,,,,,,-1.5625,-0.578125,-0.36328125,-0.802734375,-0.314453125,-0.068359375,0.0,180.0,360.0
3809878,,,,,,,,-1.5625,-0.578125,-0.36328125,-0.72265625,-0.478515625,-0.015625,0.0,180.0,360.0
3809879,,,,,,,,1.82421875,-4.4375,1.37890625,-0.72265625,-0.478515625,-0.015625,0.0,180.0,360.0
3809880,36.01299766666667,129.32000683333334,126.82446366681242,66.31755223762352,1.2000000000000002,229.0,,1.82421875,-4.4375,1.37890625,-0.544921875,-0.28515625,-0.0703125,0.0,180.0,360.0
3809881,,,,,,,,3.2421875,-3.31640625,2.01171875,-0.544921875,-0.28515625,-0.0703125,0.0,180.0,360.0
3809882,,,,,,,,3.2421875,-3.31640625,2.01171875,-0.111328125,0.08984375,-0.203125,0.0,180.0,360.0
3809883,,,,,,,,3.2421875,-3.31640625,2.01171875,0.171875,0.029296875,-0.1875,0.0,180.0,360.0
3809884,,,,,,,,2.04296875,-2.0078125,3.14453125,0.171875,0.029296875,-0.1875,0.0,180.0,360.0
3809885,,,,,,,,2.04296875,-2.0078125,3.14453125,0.6484375,0.068359375,-0.1640625,0.0,180.0,360.0
3809886,,,,,,,,0.7890625,-3.67578125,3.6875,0.6484375,0.068359375,-0.1640625,0.0,180.0,360.0
3809887,,,,,,,,0.7890625,-3.67578125,3.6875,0.42578125,-0.08203125,0.0234375,0.0,180.0,360.0
3809888,,,,,,,,-0.00390625,-2.25390625,2.390625,0.42578125,-0.08203125,0.0234375,0.0,180.0,360.0
3809889,,,,,,,,-0.00390625,-2.25390625,2.390625,-0.001953125,-0.23828125,0.306640625,0.0,180.0,360.0
3809890,36.012997166666665,129.32000533333334,126.68924113305604,66.26207066568783,1.2000000000000002,233.0,,-0.00390625,-2.25390625,2.390625,-0.001953125,-0.23828125,0.306640625,0.0,180.0,360.0
3809891,,,,,,,,-0.00390625,-2.25390625,2.390625,-0.05859375,-0.25,0.4375,0.0,180.0,360.0
3809892,,,,,,,,0.52734375,-1.00390625,1.04296875,-0.05859375,-0.25,0.4375,0.0,180.0,360.0
3809893,,,,,,,,0.52734375,-1.00390625,1.04296875,0.048828125,-0.158203125,0.412109375,0.0,180.0,360.0
3809894,,,,,,,,0.52734375,-1.00390625,1.04296875,0.068359375,-0.171875,0.37109375,0.0,180.0,360.0
3809895,,,,,,,,0.34765625,0.0859375,0.53515625,0.068359375,-0.171875,0.37109375,0.0,180.0,360.0
3809896,,,,,,,,0.34765625,0.0859375,0.53515625,0.091796875,-0.06640625,0.34765625,0.0,180.0,360.0
3809897,,,,,,,,0.4453125,1.47265625,-0.46875,0.091796875,-0.06640625,0.34765625,0.0,180.0,360.0
3809898,,,,,,,,0.4453125,1.47265625,-0.46875,0.095703125,0.01171875,0.345703125,0.0,180.0,360.0
3809899,,,,,,,,0.15625,2.89453125,-1.06640625,0.095703125,0.01171875,0.345703125,0.0,180.0,360.0
3809900,36.012996,129.32000283333335,126.4638707695051,66.13261496977185,1.2000000000000002,237.0,123.0,0.15625,2.89453125,-1.06640625,0.07421875,0.005859375,0.33203125,0.0,180.0,360.0
3809901,,,,,,,,0.15625,2.89453125,-1.06640625,0.07421875,0.005859375,0.33203125,0.0,180.0,360.0
3809902,,,,,,,,0.47265625,3.21875,-1.36328125,0.07421875,0.005859375,0.33203125,0.0,180.0,360.0
3809903,,,,,,,,0.47265625,3.21875,-1.36328125,0.125,0.310546875,-0.0234375,0.0,180.0,360.0
3809904,,,,,,,,0.47265625,3.21875,-1.36328125,0.125,0.310546875,-0.0234375,0.0,180.0,360.0
3809905,,,,,,,,0.47265625,3.21875,-1.36328125,0.08203125,0.181640625,0.00390625,0.0,180.0,360.0
3809906,,,,,,,,0.20703125,-0.15234375,-0.90625,0.08203125,0.181640625,0.00390625,0.0,180.0,360.0
3809907,,,,,,,,0.20703125,-0.15234375,-0.90625,0.05859375,0.099609375,0.0546875,0.0,180.0,360.0
3809908,,,,,,,,0.4921875,-0.54296875,-0.9296875,0.05859375,0.099609375,0.0546875,0.0,180.0,360.0
3809909,,,,,,,,0.4921875,-0.54296875,-0.9296875,0.00390625,0.05859375,0.083984375,0.0,180.0,360.0
3809910,36.0129945,129.32000066666666,126.26855055944284,65.96617329739205,1.2000000000000002,231.0,,0.65234375,-0.96484375,-0.9296875,0.00390625,0.05859375,0.083984375,0.0,180.0,360.0
3809911,,,,,,,,0.65234375,-0.96484375,-0.9296875,-0.005859375,0.08203125,0.0859375,0.0,180.0,360.0
3809912,,,,,,,,0.79296875,-1.609375,-0.77734375,-0.005859375,0.08203125,0.0859375,0.0,180.0,360.0
3809913,,,,,,,,0.79296875,-1.609375,-0.77734375,-0.005859375,0.109375,0.087890625,0.0,180.0,360.0
3809914,,,,,,,,0.79296875,-1.609375,-0.77734375,-0.005859375,0.109375,0.087890625,0.0,180.0,360.0
3809915,,,,,,,,0.79296875,-1.609375,-0.77734375,-0.3515625,0.123046875,0.150390625,0.0,180.0,360.0
3809916,,,,,,,,0.96875,-0.16796875,-1.00390625,-0.3515625,0.123046875,0.150390625,0.0,180.0,360.0
3809917,,,,,,,,0.96875,-0.16796875,-1.00390625,-0.89453125,0.07421875,0.23046875,0.0,180.0,360.0
3809918,,,,,,,,0.96875,-0.16796875,-1.00390625,-0.92578125,0.220703125,0.107421875,0.0,180.0,360.0
3809919,,,,,,,,0.45703125,-3.125,0.8671875,-0.92578125,0.220703125,0.107421875,0.0,180.0,360.0
3809920,36.01299366666667,129.3199995,126.16337818097979,65.87370575126307,1.3,228.0,,0.45703125,-3.125,0.8671875,-0.74609375,-0.0390625,0.146484375,0.0,180.0,360.0
3809921,,,,,,,,-0.515625,-4.296875,2.34375,-0.74609375,-0.0390625,0.146484375,0.0,180.0,360.0
3809922,,,,,,,,-0.515625,-4.296875,2.34375,0.07421875,0.0625,0.083984375,0.0,180.0,360.0
3809923,,,,,,,,-1.3828125,-4.53125,2.58984375,0.07421875,0.0625,0.083984375,0.0,180.0,360.0
3809924,,,,,,,,-1.3828125,-4.53125,2.58984375,0.056640625,-0.20703125,0.189453125,0.0,180.0,360.0
3809925,,,,,,,,-1.3828125,-4.53125,2.58984375,0.056640625,-0.20703125,0.189453125,0.0,180.0,360.0
3809926,,,,,,,,-1.3828125,-4.53125,2.58984375,0.095703125,-0.130859375,0.123046875,0.0,180.0,360.0
3809927,,,,,,,,0.390625,-1.96484375,1.6328125,0.095703125,-0.130859375,0.123046875,0.0,180.0,360.0
3809928,,,,,,,,0.390625,-1.96484375,1.6328125,0.162109375,0.021484375,-0.01171875,0.0,180.0,360.0
3809929,,,,,,,,0.390625,-1.96484375,1.6328125,0.181640625,-0.138671875,-0.1484375,0.0,180.0,360.0
3809930,36.012993,129.31999866666666,126.08825516273109,65.79973184502305,1.2000000000000002,227.0,,0.3046875,-0.48046875,1.8515625,0.181640625,-0.138671875,-0.1484375,0.0,180.0,360.0
3809931,,,,,,,,0.3046875,-0.48046875,1.8515625,0.0390625,-0.1484375,-0.15625,0.0,180.0,360.0
3809932,,,,,,,,-0.34765625,0.27734375,1.63671875,0.0390625,-0.1484375,-0.15625,0.0,180.0,360.0
3809933,,,,,,,,-0.34765625,0.27734375,1.63671875,-0.00390625,-0.07421875,-0.125,0.0,180.0,360.0
3809934,,,,,,,,-0.34765625,0.27734375,1.63671875,-0.00390625,-0.07421875,-0.125,0.0,180.0,360.0
3809935,,,,,,,,-0.34765625,0.27734375,1.63671875,0.021484375,0.00390625,-0.130859375,0.0,180.0,360.0
3809936,,,,,,,,0.1171875,0.9375,0.01953125,0.021484375,0.00390625,-0.130859375,0.0,180.0,360.0
3809937,,,,,,,,0.1171875,0.9375,0.01953125,0.044921875,0.02734375,-0.154296875,0.0,180.0,360.0
3809938,,,,,,,,0.1171875,0.9375,0.01953125,0.05859375,0.0,-0.1796875,0.0,180.0,360.0
3809939,,,,,,,,-0.15625,1.58984375,-0.38671875,0.05859375,0.0,-0.1796875,0.0,180.0,360.0
3809940,36.01299233333334,129.31999750000003,125.98308251451836,65.72575750923825,1.2000000000000002,228.0,,-0.15625,1.58984375,-0.38671875,0.078125,-0.02734375,-0.185546875,0.0,180.0,360.0
3809941,,,,,,,,-0.3515625,2.34765625,-0.78515625,0.078125,-0.02734375,-0.185546875,0.0,180.0,360.0
3809942,,,,,,,,-0.3515625,2.34765625,-0.78515625,0.10546875,-0.037109375,-0.17578125,0.0,180.0,360.0
3809943,,,,,,,,-0.57421875,2.453125,-0.9921875,0.10546875,-0.037109375,-0.17578125,0.0,180.0,360.0
3809944,,,,,,,,-0.57421875,2.453125,-0.9921875,0.123046875,-0.048828125,-0.126953125,0.0,180.0,360.0
3809945,,,,,,,,-1.1640625,2.62890625,-1.21484375,0.123046875,-0.048828125,-0.126953125,0.0,180.0,360.0
3809946,,,,,,,,-1.1640625,2.62890625,-1.21484375,0.119140625,-0.091796875,-0.06640625,0.0,180.0,360.0
3809947,,,,,,,,-1.1640625,2.62890625,-1.21484375,0.12890625,-0.162109375,-0.009765625,0.0,180.0,360.0
3809948,,,,,,,,-1.45703125,1.97265625,-1.4765625,0.12890625,-0.162109375,-0.009765625,0.0,180.0,360.0
3809949,,,,,,,,-1.45703125,1.97265625,-1.4765625,0.173828125,-0.22265625,0.0390625,0.0,180.0,360.0
3809950,36.01299183333333,129.3199965,125.8929344106511,65.67027659467057,1.1,230.0,,-1.33984375,1.57421875,-1.30859375,0.173828125,-0.22265625,0.0390625,0.0,180.0,360.0
3809951,,,,,,,,-1.33984375,1.57421875,-1.30859375,0.24609375,-0.205078125,0.0625,0.0,180.0,360.0
3809952,,,,,,,,-1.1484375,1.44921875,-1.30078125,0.24609375,-0.205078125,0.0625,0.0,180.0,360.0
3809953,,,,,,,,-1.1484375,1.44921875,-1.30078125,0.234375,-0.2109375,0.07421875,0.0,180.0,360.0
3809954,,,,,,,,-0.7265625,1.28125,-1.22265625,0.234375,-0.2109375,0.07421875,0.0,180.0,360.0
3809955,,,,,,,,-0.7265625,1.28125,-1.22265625,0.208984375,-0.220703125,0.052734375,0.0,180.0,360.0
3809956,,,,,,,,-0.7265625,1.28125,-1.22265625,0.208984375,-0.220703125,0.052734375,0.0,180.0,360.0
3809957,,,,,,,,-0.7265625,1.28125,-1.22265625,0.1484375,-0.248046875,0.015625,0.0,180.0,360.0
3809958,,,,,,,,-0.62109375,0.27734375,-0.91796875,0.1484375,-0.248046875,0.015625,0.0,180.0,360.0
3809959,,,,,,,,-0.62109375,0.27734375,-0.91796875,0.015625,-0.2734375,-0.0078125,0.0,180.0,360.0
3809960,36.012991166666666,129.3199955,125.80278657519537,65.59630247608831,1.2000000000000002,230.0,,-0.62109375,0.27734375,-0.91796875,-0.109375,-0.31640625,-0.01171875,0.0,180.0,360.0
3809961,,,,,,,,-0.7578125,-0.7578125,-0.828125,-0.109375,-0.31640625,-0.01171875,0.0,180.0,360.0
3809962,,,,,,,,-0.7578125,-0.7578125,-0.828125,-0.197265625,-0.294921875,-0.029296875,0.0,180.0,360.0
3809963,,,,,,,,-0.4296875,-1.203125,-0.71875,-0.197265625,-0.294921875,-0.029296875,0.0,180.0,360.0
3809964,,,,,,,,-0.4296875,-1.203125,-0.71875,-0.283203125,-0.19921875,-0.078125,0.0,180.0,360.0
3809965,,,,,,,,0.03515625,-0.7734375,-0.78515625,-0.283203125,-0.19921875,-0.078125,0.0,180.0,360.0
3809966,,,,,,,,0.03515625,-0.7734375,-0.78515625,-0.373046875,-0.17578125,-0.111328125,0.0,180.0,360.0
3809967,,,,,,,,0.03515625,-0.7734375,-0.78515625,-0.548828125,-0.228515625,-0.0859375,0.0,180.0,360.0
3809968,,,,,,,,-0.69140625,0.0546875,-0.39453125,-0.548828125,-0.228515625,-0.0859375,0.0,180.0,360.0
3809969,,,,,,,,-0.69140625,0.0546875,-0.39453125,-0.927734375,-0.39453125,0.033203125,0.0,180.0,360.0
3809970,36.0129905,129.3199945,125.71263873561219,65.52232835843195,1.2000000000000002,229.0,,-0.5625,-1.78125,-0.59765625,-0.927734375,-0.39453125,0.033203125,0.0,180.0,360.0
3809971,,,,,,,,-0.5625,-1.78125,-0.59765625,-0.76171875,-0.298828125,0.005859375,0.0,180.0,360.0
3809972,,,,,,,,0.76953125,-3.62109375,0.625,-0.76171875,-0.298828125,0.005859375,0.0,180.0,360.0
3809973,,,,,,,,0.76953125,-3.62109375,0.625,-0.455078125,0.001953125,-0.14453125,0.0,180.0,360.0
3809974,,,,,,,,3.328125,-2.36328125,1.24609375,-0.455078125,0.001953125,-0.14453125,0.0,180.0,360.0
3809975,,,,,,,,3.328125,-2.36328125,1.24609375,-0.1953125,0.076171875,-0.240234375,0.0,180.0,360.0
3809976,,,,,,,,1.703125,-3.046875,2.734375,-0.1953125,0.076171875,-0.240234375,0.0,180.0,360.0
3809977,,,,,,,,1.703125,-3.046875,2.734375,0.21484375,0.158203125,-0.1875,0.0,180.0,360.0
3809978,,,,,,,,1.703125,-3.046875,2.734375,0.369140625,0.13671875,-0.09375,0.0,180.0,360.0
3809979,,,,,,,,0.39453125,-3.8671875,2.89453125,0.369140625,0.13671875,-0.09375,0.0,180.0,360.0
3809980,36.012989166666664,129.319992,125.4872686037715,65.37437948020676,1.3,233.0,,0.39453125,-3.8671875,2.89453125,0.359375,0.20703125,0.05078125,0.0,180.0,360.0
3809981,,,,,,,,0.203125,-0.96875,1.97265625,0.359375,0.20703125,0.05078125,0.0,180.0,360.0
3809982,,,,,,,,0.203125,-0.96875,1.97265625,0.146484375,0.08984375,0.16796875,0.0,180.0,360.0
3809983,,,,,,,,-0.15625,0.140625,1.11328125,0.146484375,0.08984375,0.16796875,0.0,180.0,360.0
3809984,,,,,,,,-0.15625,0.140625,1.11328125,0.0390625,-0.001953125,0.2265625,0.0,180.0,360.0
3809985,,,,,,,,-0.1796875,-0.15625,0.5859375,0.0390625,-0.001953125,0.2265625,0.0,180.0,360.0
3809986,,,,,,,,-0.1796875,-0.15625,0.5859375,0.07421875,-0.001953125,0.23828125,0.0,180.0,360.0
3809987,,,,,,,,-0.1796875,-0.15625,0.5859375,0.099609375,0.01171875,0.255859375,0.0,180.0,360.0
3809988,,,,,,,,-0.1875,1.15234375,-0.12890625,0.099609375,0.01171875,0.255859375,0.0,180.0,360.0
3809989,,,,,,,,-0.1875,1.15234375,-0.12890625,0.0703125,0.029296875,0.294921875,0.0,180.0,360.0
3809990,36.0129885,129.31999116666665,125.41214557340801,65.30040557997248,1.2000000000000002,233.0,,-0.09375,1.734375,-0.57421875,0.0703125,0.029296875,0.294921875,0.0,180.0,360.0
3809991,,,,,,,,-0.09375,1.734375,-0.57421875,0.056640625,0.052734375,0.287109375,0.0,180.0,360.0
3809992,,,,,,,,0.0390625,2.28125,-0.85546875,0.056640625,0.052734375,0.287109375,0.0,180.0,360.0
3809993,,,,,,,,0.0390625,2.28125,-0.85546875,0.09765625,0.064453125,0.232421875,0.0,180.0,360.0
3809994,,,,,,,,0.61328125,2.546875,-1.109375,0.09765625,0.064453125,0.232421875,0.0,180.0,360.0
3809995,,,,,,,,0.61328125,2.546875,-1.109375,0.142578125,0.099609375,0.146484375,0.0,180.0,360.0
3809996,,,,,,,,0.61328125,2.546875,-1.109375,0.142578125,0.099609375,0.146484375,0.0,180.0,360.0
3809997,,,,,,,,0.61328125,2.546875,-1.109375,0.18359375,0.173828125,0.052734375,0.0,180.0,360.0
3809998,,,,,,,,0.9296875,2.1875,-1.37109375,0.18359375,0.173828125,0.052734375,0.0,180.0,360.0
3809999,,,,,,,,0.9296875,2.1875,-1.37109375,0.232421875,0.240234375,-0.01953125,0.0,180.0,360.0
3810000,36.01298716666667,129.31998866666666,125.18677543069795,65.15245671047501,1.3,232.0,123.0,0.9296875,2.1875,-1.37109375,0.296875,0.296875,-0.078125,0.0,180.0,360.0
3810001,,,,,,,,0.9296875,2.1875,-1.37109375,0.296875,0.296875,-0.078125,0.0,180.0,360.0
3810002,,,,,,,,0.6328125,1.96484375,-1.421875,0.296875,0.296875,-0.078125,0.0,180.0,360.0
3810003,,,,,,,,0.6328125,1.96484375,-1.421875,-0.66015625,-0.04296875,0.20703125,0.0,180.0,360.0
3810004,,,,,,,,0.6328125,1.96484375,-1.421875,-0.7109375,-0.01171875,0.177734375,0.0,180.0,360.0
3810005,,,,,,,,-0.15625,-3.1171875,1.375,-0.7109375,-0.01171875,0.177734375,0.0,180.0,360.0
3810006,,,,,,,,-0.15625,-3.1171875,1.375,-0.5546875,-0.12109375,0.205078125,0.0,180.0,360.0
3810007,,,,,,,,-0.5546875,-3.796875,2.12109375,-0.5546875,-0.12109375,0.205078125,0.0,180.0,360.0
3810008,,,,,,,,-0.5546875,-3.796875,2.12109375,-0.080078125,0.033203125,0.125,0.0,180.0,360.0
3810009,,,,,,,,-1.18359375,-2.9375,2.49609375,-0.080078125,0.033203125,0.125,0.0,180.0,360.0
3810010,36.012985666666665,129.31998666666667,125.00647999643402,64.98601528092892,1.2000000000000002,229.0,,-1.18359375,-2.9375,2.49609375,-0.19921875,-0.10546875,0.125,0.0,180.0,360.0
3810011,,,,,,,,-0.390625,-1.3203125,1.24609375,-0.19921875,-0.10546875,0.125,0.0,180.0,360.0
3810012,,,,,,,,-0.390625,-1.3203125,1.24609375,-0.19921875,-0.10546875,0.125,0.0,180.0,360.0
3810013,,,,,,,,-0.390625,-1.3203125,1.24609375,-0.125,0.12890625,-0.046875,0.0,180.0,360.0
3810014,,,,,,,,0.87890625,-1.09765625,1.921875,-0.125,0.12890625,-0.046875,0.0,180.0,360.0
3810015,,,,,,,,0.87890625,-1.09765625,1.921875,-0.0234375,0.14453125,-0.171875,0.0,180.0,360.0
3810016,,,,,,,,0.87890625,-1.09765625,1.921875,0.005859375,0.181640625,-0.265625,0.0,180.0,360.0
3810017,,,,,,,,-0.1953125,-0.44921875,1.38671875,0.005859375,0.181640625,-0.265625,0.0,180.0,360.0
3810018,,,,,,,,-0.1953125,-0.44921875,1.38671875,0.056640625,0.240234375,-0.310546875,0.0,180.0,360.0
3810019,,,,,,,,-0.203125,0.1953125,1.2265625,0.056640625,0.240234375,-0.310546875,0.0,180.0,360.0
3810020,36.012985,129.31998566666667,124.91633214385426,64.9120411710275,1.2000000000000002,228.0,,-0.203125,0.1953125,1.2265625,0.064453125,0.25390625,-0.302734375,0.0,180.0,360.0
3810021,,,,,,,,-0.2890625,0.65625,0.25390625,0.064453125,0.25390625,-0.302734375,0.0,180.0,360.0
3810022,,,,,,,,-0.2890625,0.65625,0.25390625,0.07421875,0.2734375,-0.306640625,0.0,180.0,360.0
3810023,,,,,,,,-0.2890625,0.65625,0.25390625,0.07421875,0.2734375,-0.306640625,0.0,180.0,360.0
3810024,,,,,,,,-0.2890625,0.65625,0.25390625,0.08984375,0.259765625,-0.32421875,0.0,180.0,360.0
3810025,,,,,,,,-0.3828125,2.01953125,-0.4609375,0.08984375,0.259765625,-0.32421875,0.0,180.0,360.0
3810026,,,,,,,,-0.3828125,2.01953125,-0.4609375,0.126953125,0.251953125,-0.345703125,0.0,180.0,360.0
3810027,,,,,,,,-0.3828125,2.01953125,-0.4609375,0.130859375,0.232421875,-0.341796875,0.0,180.0,360.0
3810028,,,,,,,,-0.484375,2.33984375,-0.73046875,0.130859375,0.232421875,-0.341796875,0.0,180.0,360.0
3810029,,,,,,,,-0.484375,2.33984375,-0.73046875,0.146484375,0.1953125,-0.298828125,0.0,180.0,360.0
3810030,36.01298433333333,129.31998466666667,124.82618429048878,64.83806706185833,1.2000000000000002,228.0,,-1.1796875,2.2109375,-0.8359375,0.146484375,0.1953125,-0.298828125,0.0,180.0,360.0
3810031,,,,,,,,-1.1796875,2.2109375,-0.8359375,0.193359375,0.15625,-0.234375,0.0,180.0,360.0
3810032,,,,,,,,-1.6328125,1.87890625,-1.0078125,0.193359375,0.15625,-0.234375,0.0,180.0,360.0
3810033,,,,,,,,-1.6328125,1.87890625,-1.0078125,0.2109375,0.08984375,-0.162109375,0.0,180.0,360.0
3810034,,,,,,,,-1.6328125,1.87890625,-1.0078125,0.23828125,0.015625,-0.125,0.0,180.0,360.0
