time,latitude,longitude,enu_x,enu_y,speed,course,Hrage,accX,accY,accZ,gyrX,gyrY,gyrZ,eulR,eulP,eulY
3956200,36.01362666666667,129.319712,100.24476944122284,136.11057537738813,0.0,65535.0,77.0,-1.71875,-1.64453125,-3.0625,-0.2265625,0.521484375,0.15234375,356.0111111111111,356.0,356.0111111111111
3956201,,,,,,,,-1.71875,-1.64453125,-3.0625,-0.2265625,0.521484375,0.15234375,356.0111111111111,356.0,356.0111111111111
3956202,,,,,,,,-1.71875,-1.64453125,-3.0625,-1.259765625,-0.451171875,-0.25,356.0111111111111,356.0,356.0111111111111
3956203,,,,,,,,-1.71875,-1.64453125,-3.0625,-1.259765625,-0.451171875,-0.25,356.0111111111111,356.0,356.0111111111111
3956204,,,,,,,,-1.71875,-1.64453125,-3.0625,0.3671875,-0.021484375,0.34375,356.0111111111111,356.0,356.0111111111111
3956205,,,,,,,,-1.71875,-1.64453125,-3.0625,0.3671875,-0.021484375,0.34375,356.0111111111111,356.0,356.0111111111111
3956206,,,,,,,,-1.71875,-1.64453125,-3.0625,-0.296875,-0.119140625,1.607421875,356.0111111111111,356.0,356.0111111111111
3956207,,,,,,,,-1.71875,-1.64453125,-3.0625,-0.296875,-0.119140625,1.607421875,356.0111111111111,356.0,356.0111111111111
3956208,,,,,,,,-1.71875,-1.64453125,-3.0625,0.3671875,-0.490234375,1.568359375,356.0111111111111,356.0,356.0111111111111
3956209,,,,,,,,-1.71875,-1.64453125,-3.0625,0.3671875,-0.490234375,1.568359375,356.0111111111111,356.0,356.0111111111111
3956210,36.013625166666664,129.31970766666666,99.85412924525365,135.94413204839321,1.5,243.0,,-1.71875,-1.64453125,-3.0625,0.47265625,-0.275390625,1.486328125,356.0111111111111,356.0,356.0111111111111
3956211,,,,,,,,-1.71875,-1.64453125,-3.0625,0.47265625,-0.275390625,1.486328125,356.0111111111111,356.0,356.0111111111111
3956212,,,,,,,,-1.71875,-1.64453125,-3.0625,0.88671875,0.587890625,1.654296875,356.0111111111111,356.0,356.0111111111111
3956213,,,,,,,,-1.71875,-1.64453125,-3.0625,0.88671875,0.587890625,1.654296875,356.0111111111111,356.0,356.0111111111111
3956214,,,,,,,,-1.71875,-1.64453125,-3.0625,0.58984375,0.53515625,1.13671875,356.0111111111111,356.0,356.0111111111111
3956215,,,,,,,,0.0546875,6.3828125,-2.953125,0.58984375,0.53515625,1.13671875,356.0111111111111,356.0,356.0111111111111
3956216,,,,,,,,0.0546875,6.3828125,-2.953125,0.58984375,0.53515625,1.13671875,356.0111111111111,356.0,356.0111111111111
3956217,,,,,,,,0.0546875,6.3828125,-2.953125,0.3046875,1.4140625,0.634765625,356.0111111111111,356.0,356.0111111111111
3956218,,,,,,,,0.0546875,6.3828125,-2.953125,0.3046875,1.4140625,0.634765625,356.0,356.0,356.0111111111111
3956219,,,,,,,,0.0546875,6.3828125,-2.953125,0.412109375,1.091796875,0.291015625,356.0,356.0,356.0111111111111
3956220,36.0136235,129.31970566666666,99.6738349942865,135.75919791236734,1.9000000000000001,236.0,,0.0546875,6.3828125,-2.953125,0.412109375,1.091796875,0.291015625,356.0,356.0,356.0111111111111
3956221,,,,,,,,0.0546875,6.3828125,-2.953125,0.009765625,1.099609375,-0.08984375,356.0,356.0,356.0111111111111
3956222,,,,,,,,0.0546875,6.3828125,-2.953125,0.009765625,1.099609375,-0.08984375,356.0,356.0,356.0111111111111
3956223,,,,,,,,0.0546875,6.3828125,-2.953125,-0.81640625,1.724609375,-1.013671875,356.0,356.0,356.0111111111111
3956224,,,,,,,,0.0546875,6.3828125,-2.953125,-0.81640625,1.724609375,-1.013671875,356.0,356.0,356.0111111111111
3956225,,,,,,,,0.0546875,6.3828125,-2.953125,-0.66796875,0.654296875,-1.24609375,356.0,356.0,356.0111111111111
3956226,,,,,,,,0.0546875,6.3828125,-2.953125,-0.66796875,0.654296875,-1.24609375,356.0,356.0,356.0111111111111
3956227,,,,,,,,0.0546875,6.3828125,-2.953125,0.171875,-2.359375,-1.041015625,356.0,356.0,356.0111111111111
3956228,,,,,,,,0.0546875,6.3828125,-2.953125,0.171875,-2.359375,-1.041015625,356.0,356.0,356.0111111111111
3956229,,,,,,,,0.0546875,6.3828125,-2.953125,1.873046875,2.87890625,-2.15625,356.0,356.0,356.0111111111111
3956230,36.0136215,129.31970366666667,99.49354115173878,135.53727736169708,2.2,228.0,,-7.9375,-11.18359375,4.45703125,1.873046875,2.87890625,-2.15625,356.0,356.0,356.0111111111111
3956231,,,,,,,,-7.9375,-11.18359375,4.45703125,1.873046875,2.87890625,-2.15625,356.0,356.0,356.0111111111111
3956232,,,,,,,,-7.9375,-11.18359375,4.45703125,-1.00390625,1.447265625,-1.75390625,356.0,356.0,356.0111111111111
3956233,,,,,,,,-7.9375,-11.18359375,4.45703125,-1.00390625,1.447265625,-1.75390625,356.0,356.0,356.0111111111111
3956234,,,,,,,,-7.9375,-11.18359375,4.45703125,-1.41015625,0.50390625,-2.470703125,356.0,356.0,356.0111111111111
3956235,,,,,,,,-7.9375,-11.18359375,4.45703125,-1.41015625,0.50390625,-2.470703125,356.0,356.0,356.0111111111111
3956236,,,,,,,,-7.9375,-11.18359375,4.45703125,-1.126953125,-0.046875,-1.779296875,356.0,356.0,356.0111111111111
3956237,,,,,,,,-7.9375,-11.18359375,4.45703125,-1.126953125,-0.046875,-1.779296875,356.0,356.0,356.0111111111111
3956238,,,,,,,,-7.9375,-11.18359375,4.45703125,0.134765625,-0.978515625,-0.86328125,356.0,356.0,356.0111111111111
3956239,,,,,,,,-7.9375,-11.18359375,4.45703125,0.134765625,-0.978515625,-0.86328125,356.0,356.0,356.0111111111111
3956240,36.0136195,129.31970116666668,99.26817321038558,135.31535630606766,2.6,224.0,,-7.9375,-11.18359375,4.45703125,0.173828125,-0.861328125,-0.677734375,356.0,356.0,356.0111111111111
3956241,,,,,,,,-7.9375,-11.18359375,4.45703125,0.173828125,-0.861328125,-0.677734375,356.0,356.0,356.0111111111111
3956242,,,,,,,,-7.9375,-11.18359375,4.45703125,0.462890625,-1.056640625,-0.30859375,356.0,356.0,356.0111111111111
3956243,,,,,,,,-7.9375,-11.18359375,4.45703125,0.462890625,-1.056640625,-0.30859375,356.0,356.0,356.0111111111111
3956244,,,,,,,,-7.9375,-11.18359375,4.45703125,0.103515625,-1.001953125,0.703125,356.0,356.0,356.0111111111111
3956245,,,,,,,,-0.703125,10.1328125,-14.3515625,0.103515625,-1.001953125,0.703125,356.0,356.0,356.0111111111111
3956246,,,,,,,,-0.703125,10.1328125,-14.3515625,0.103515625,-1.001953125,0.703125,356.0111111111111,356.0,356.0111111111111
3956247,,,,,,,,-0.703125,10.1328125,-14.3515625,0.103515625,-1.001953125,0.703125,356.0111111111111,356.0,356.0111111111111
3956248,,,,,,,,-0.703125,10.1328125,-14.3515625,-1.1875,-0.076171875,1.39453125,356.0111111111111,356.0,356.0111111111111
3956249,,,,,,,,-0.703125,10.1328125,-14.3515625,-1.1875,-0.076171875,1.39453125,356.0111111111111,356.0,356.0111111111111
3956250,36.0136175,129.31969833333332,99.01275586067146,135.09343491744414,2.8000000000000003,225.0,,-0.703125,10.1328125,-14.3515625,0.67578125,-1.876953125,1.404296875,356.0111111111111,356.0,356.0111111111111
3956251,,,,,,,,-0.703125,10.1328125,-14.3515625,0.67578125,-1.876953125,1.404296875,356.0111111111111,356.0,356.0111111111111
3956252,,,,,,,,-0.703125,10.1328125,-14.3515625,-0.0234375,-1.9296875,1.3125,356.0111111111111,356.0,356.0111111111111
3956253,,,,,,,,-0.703125,10.1328125,-14.3515625,-0.0234375,-1.9296875,1.3125,356.0111111111111,356.0,356.0111111111111
3956254,,,,,,,,-0.703125,10.1328125,-14.3515625,-0.572265625,-1.55859375,2.7265625,356.0111111111111,356.0,356.0111111111111
3956255,,,,,,,,-0.703125,10.1328125,-14.3515625,-0.572265625,-1.55859375,2.7265625,356.0111111111111,356.0,356.0111111111111
3956256,,,,,,,,-0.703125,10.1328125,-14.3515625,0.64453125,-1.63671875,1.890625,356.0111111111111,356.0,356.0111111111111
3956257,,,,,,,,-0.703125,10.1328125,-14.3515625,0.64453125,-1.63671875,1.890625,356.0111111111111,356.0,356.0111111111111
3956258,,,,,,,,-0.703125,10.1328125,-14.3515625,0.578125,0.87890625,1.2734375,356.0111111111111,356.0,356.0111111111111
3956259,,,,,,,,-0.703125,10.1328125,-14.3515625,0.578125,0.87890625,1.2734375,356.0111111111111,356.0,356.0111111111111
3956260,36.01361566666667,129.31969466666666,98.68221480361251,134.89000590072897,3.1,230.0,,-0.703125,10.1328125,-14.3515625,1.404296875,0.861328125,0.359375,356.0111111111111,356.0,356.0111111111111
3956261,,,,,,,,7.81640625,6.5625,-1.8828125,1.404296875,0.861328125,0.359375,356.0111111111111,356.0,356.0111111111111
3956262,,,,,,,,7.81640625,6.5625,-1.8828125,1.404296875,0.861328125,0.359375,356.0,356.0,356.0111111111111
3956263,,,,,,,,7.81640625,6.5625,-1.8828125,1.404296875,0.861328125,0.359375,356.0,356.0,356.0111111111111
3956264,,,,,,,,7.81640625,6.5625,-1.8828125,0.546875,1.095703125,-1.009765625,356.0,356.0,356.0111111111111
3956265,,,,,,,,7.81640625,6.5625,-1.8828125,0.546875,1.095703125,-1.009765625,356.0,356.0,356.0111111111111
3956266,,,,,,,,7.81640625,6.5625,-1.8828125,-1.84765625,0.525390625,-1.677734375,356.0,356.0,356.0111111111111
3956267,,,,,,,,7.81640625,6.5625,-1.8828125,-1.84765625,0.525390625,-1.677734375,356.0,356.0,356.0111111111111
3956268,,,,,,,,7.81640625,6.5625,-1.8828125,-0.470703125,0.3984375,-1.380859375,356.0,356.0,356.0111111111111
3956269,,,,,,,,7.81640625,6.5625,-1.8828125,-0.470703125,0.3984375,-1.380859375,356.0,356.0,356.0111111111111
3956270,36.01361033333333,129.31968683333335,97.97606061105442,134.29821531397891,3.9000000000000004,229.0,,7.81640625,6.5625,-1.8828125,1.244140625,3.59375,-2.29296875,356.0,356.0,356.0111111111111
3956271,,,,,,,,7.81640625,6.5625,-1.8828125,1.244140625,3.59375,-2.29296875,356.0,356.0,356.0111111111111
3956272,,,,,,,,7.81640625,6.5625,-1.8828125,-1.55078125,4.146484375,-2.95703125,356.0,356.0,356.0111111111111
3956273,,,,,,,,7.81640625,6.5625,-1.8828125,-1.55078125,4.146484375,-2.95703125,356.0,356.0,356.0111111111111
3956274,,,,,,,,7.81640625,6.5625,-1.8828125,-1.486328125,2.275390625,-2.724609375,356.0,356.0,356.0111111111111
3956275,,,,,,,,7.81640625,6.5625,-1.8828125,-1.486328125,2.275390625,-2.724609375,356.0,356.0,356.0111111111111
3956276,,,,,,,,7.81640625,6.5625,-1.8828125,-1.609375,1.80859375,-2.9140625,356.0,356.0,356.0111111111111
3956277,,,,,,,,-2.671875,-2.8828125,-0.31640625,-1.609375,1.80859375,-2.9140625,356.0,356.0,356.0111111111111
3956278,,,,,,,,-2.671875,-2.8828125,-0.31640625,-1.609375,1.80859375,-2.9140625,356.0,356.0,356.0111111111111
3956279,,,,,,,,-2.671875,-2.8828125,-0.31640625,-1.609375,1.80859375,-2.9140625,356.0,356.0,356.0111111111111
3956280,36.01360733333333,129.31968266666667,97.60044683954739,133.9653333743562,4.4,229.0,,-2.671875,-2.8828125,-0.31640625,0.654296875,-0.033203125,-0.625,356.0,356.0,356.0111111111111
3956281,,,,,,,,-2.671875,-2.8828125,-0.31640625,0.654296875,-0.033203125,-0.625,356.0,356.0,356.02222222222224
3956282,,,,,,,,-2.671875,-2.8828125,-0.31640625,1.31640625,0.115234375,-0.220703125,356.0,356.0,356.02222222222224
3956283,,,,,,,,-2.671875,-2.8828125,-0.31640625,1.31640625,0.115234375,-0.220703125,356.0,356.0,356.02222222222224
3956284,,,,,,,,-2.671875,-2.8828125,-0.31640625,0.84765625,-1.392578125,1.083984375,356.0,356.0,356.02222222222224
3956285,,,,,,,,-2.671875,-2.8828125,-0.31640625,0.84765625,-1.392578125,1.083984375,356.0,356.0,356.02222222222224
3956286,,,,,,,,-2.671875,-2.8828125,-0.31640625,-0.779296875,-2.017578125,1.5234375,356.0,356.0,356.02222222222224
3956287,,,,,,,,-2.671875,-2.8828125,-0.31640625,-0.779296875,-2.017578125,1.5234375,356.0,356.0,356.0111111111111
3956288,,,,,,,,-2.671875,-2.8828125,-0.31640625,-3.326171875,-2.099609375,1.427734375,356.0,356.0,356.0111111111111
3956289,,,,,,,,-2.671875,-2.8828125,-0.31640625,-3.326171875,-2.099609375,1.427734375,356.0,356.0,356.0111111111111
3956290,36.01360483333334,129.31967799999998,97.17975832724319,133.68793057893564,4.5,232.0,,-2.671875,-2.8828125,-0.31640625,-0.02734375,-1.193359375,2.2421875,356.0,356.0,356.0111111111111
3956291,,,,,,,,-2.671875,-2.8828125,-0.31640625,-0.02734375,-1.193359375,2.2421875,356.0,356.0,356.0111111111111
3956292,,,,,,,,-2.671875,-2.8828125,-0.31640625,0.71875,-2.359375,1.88671875,356.0,356.0,356.0111111111111
3956293,,,,,,,,9.66015625,-1.71875,6.8828125,0.71875,-2.359375,1.88671875,356.0,356.0,356.0111111111111
3956294,,,,,,,,9.66015625,-1.71875,6.8828125,0.71875,-2.359375,1.88671875,356.0,356.0,356.0111111111111
3956295,,,,,,,,9.66015625,-1.71875,6.8828125,-0.84765625,-2.41015625,2.80078125,356.0,356.0,356.0111111111111
3956296,,,,,,,,9.66015625,-1.71875,6.8828125,-0.84765625,-2.41015625,2.80078125,356.0111111111111,356.0,356.0111111111111
3956297,,,,,,,,9.66015625,-1.71875,6.8828125,-0.1640625,-2.578125,2.4453125,356.0111111111111,356.0,356.0111111111111
3956298,,,,,,,,9.66015625,-1.71875,6.8828125,-0.1640625,-2.578125,2.4453125,356.0111111111111,356.0,356.0111111111111
3956299,,,,,,,,9.66015625,-1.71875,6.8828125,0.62890625,-0.173828125,1.9453125,356.0111111111111,356.0,356.0111111111111
3956300,36.01359866666667,129.319668,96.27828383933648,133.00367192622562,5.2,232.0,77.0,9.66015625,-1.71875,6.8828125,0.62890625,-0.173828125,1.9453125,356.0111111111111,356.0,356.0111111111111
3956301,,,,,,,,9.66015625,-1.71875,6.8828125,0.62890625,-0.173828125,1.9453125,356.0111111111111,356.0,356.0111111111111
3956302,,,,,,,,9.66015625,-1.71875,6.8828125,0.62890625,-0.173828125,1.9453125,356.0111111111111,356.0,356.0111111111111
3956303,,,,,,,,9.66015625,-1.71875,6.8828125,1.525390625,0.525390625,0.927734375,356.0111111111111,356.0,356.0111111111111
3956304,,,,,,,,9.66015625,-1.71875,6.8828125,1.525390625,0.525390625,0.927734375,356.0111111111111,356.0,356.0111111111111
3956305,,,,,,,,9.66015625,-1.71875,6.8828125,-1.294921875,-0.591796875,-0.599609375,356.0111111111111,356.0,356.0111111111111
3956306,,,,,,,,9.66015625,-1.71875,6.8828125,-1.294921875,-0.591796875,-0.599609375,356.0,356.0,356.0111111111111
3956307,,,,,,,,9.66015625,-1.71875,6.8828125,1.783203125,1.09375,-0.126953125,356.0,356.0,356.0111111111111
3956308,,,,,,,,9.66015625,-1.71875,6.8828125,1.783203125,1.09375,-0.126953125,356.0,356.0,356.0111111111111
3956309,,,,,,,,9.66015625,-1.71875,6.8828125,0.876953125,-0.40625,0.228515625,356.0,356.0,356.0111111111111
3956310,36.01359216666666,129.3196585,95.4218837182965,132.28242743887148,5.5,230.0,,9.66015625,-1.71875,6.8828125,0.876953125,-0.40625,0.228515625,356.0,356.0,356.0111111111111
3956311,,,,,,,,9.66015625,-1.71875,6.8828125,-0.8515625,-1.767578125,1.1484375,356.0,356.0,356.0111111111111
3956312,,,,,,,,9.66015625,-1.71875,6.8828125,-0.8515625,-1.767578125,1.1484375,356.0,356.0,356.0111111111111
3956313,,,,,,,,9.66015625,-1.71875,6.8828125,-1.748046875,-1.853515625,1.37109375,356.0,356.0,356.0111111111111
3956314,,,,,,,,9.66015625,-1.71875,6.8828125,-1.748046875,-1.853515625,1.37109375,356.0,356.0,356.0111111111111
3956315,,,,,,,,9.66015625,-1.71875,6.8828125,-1.34375,-2.619140625,1.943359375,356.0,356.0,356.0111111111111
3956316,,,,,,,,5.99609375,-26.52734375,4.0625,-1.34375,-2.619140625,1.943359375,356.0,356.0,356.0111111111111
3956317,,,,,,,,5.99609375,-26.52734375,4.0625,-1.34375,-2.619140625,1.943359375,356.0,356.0,356.0111111111111
3956318,,,,,,,,5.99609375,-26.52734375,4.0625,-0.37109375,-4.37890625,2.6796875,356.0,356.0,356.0111111111111
3956319,,,,,,,,5.99609375,-26.52734375,4.0625,-0.37109375,-4.37890625,2.6796875,356.0111111111111,356.0,356.0111111111111
3956320,36.013589,129.31965333333335,94.95612174855115,131.9310514260768,5.6000000000000005,232.0,,5.99609375,-26.52734375,4.0625,-1.7109375,-2.578125,2.46484375,356.0111111111111,356.0,356.0111111111111
3956321,,,,,,,,5.99609375,-26.52734375,4.0625,-1.7109375,-2.578125,2.46484375,356.0111111111111,356.0,356.0111111111111
3956322,,,,,,,,5.99609375,-26.52734375,4.0625,-1.119140625,-2.373046875,3.234375,356.0111111111111,356.0,356.0111111111111
3956323,,,,,,,,5.99609375,-26.52734375,4.0625,-1.119140625,-2.373046875,3.234375,356.0111111111111,356.0,356.0111111111111
3956324,,,,,,,,5.99609375,-26.52734375,4.0625,0.029296875,-2.228515625,2.138671875,356.0111111111111,356.0,356.0111111111111
3956325,,,,,,,,5.99609375,-26.52734375,4.0625,0.029296875,-2.228515625,2.138671875,356.0111111111111,356.0,356.0111111111111
3956326,,,,,,,,5.99609375,-26.52734375,4.0625,1.859375,-0.30078125,1.607421875,356.0111111111111,356.0,356.0111111111111
3956327,,,,,,,,5.99609375,-26.52734375,4.0625,1.859375,-0.30078125,1.607421875,356.0,356.0,356.0111111111111
3956328,,,,,,,,5.99609375,-26.52734375,4.0625,2.626953125,0.453125,0.697265625,356.0,356.0,356.0111111111111
3956329,,,,,,,,5.99609375,-26.52734375,4.0625,2.626953125,0.453125,0.697265625,356.0,356.0,356.0111111111111
3956330,36.01358583333333,129.31964816666667,94.49035973997732,131.57967543740472,5.7,232.0,,5.99609375,-26.52734375,4.0625,0.728515625,0.958984375,0.076171875,356.0,356.0,356.0111111111111
3956331,,,,,,,,10.1796875,19.09765625,-5.73828125,0.728515625,0.958984375,0.076171875,356.0,356.0,356.0111111111111
3956332,,,,,,,,10.1796875,19.09765625,-5.73828125,0.728515625,0.958984375,0.076171875,356.0,356.0,356.0111111111111
3956333,,,,,,,,10.1796875,19.09765625,-5.73828125,-1.51953125,1.484375,-1.580078125,356.0,356.0,356.0111111111111
3956334,,,,,,,,10.1796875,19.09765625,-5.73828125,-1.51953125,1.484375,-1.580078125,356.0,356.0,356.0111111111111
3956335,,,,,,,,10.1796875,19.09765625,-5.73828125,-0.828125,-1.490234375,-1.921875,356.0,356.0,356.0111111111111
3956336,,,,,,,,10.1796875,19.09765625,-5.73828125,-0.828125,-1.490234375,-1.921875,356.0,356.0,356.0111111111111
3956337,,,,,,,,10.1796875,19.09765625,-5.73828125,0.982421875,3.6484375,-1.8203125,356.0,356.0,356.0111111111111
3956338,,,,,,,,10.1796875,19.09765625,-5.73828125,0.982421875,3.6484375,-1.8203125,356.0,356.0,356.0111111111111
3956339,,,,,,,,10.1796875,19.09765625,-5.73828125,-0.15234375,5.71875,-3.474609375,356.0,356.0,356.0111111111111
3956340,36.013582,129.31964283333335,94.00957378393221,131.15432647789387,6.0,230.0,,10.1796875,19.09765625,-5.73828125,-0.15234375,5.71875,-3.474609375,356.0,356.0,356.0111111111111
3956341,,,,,,,,10.1796875,19.09765625,-5.73828125,-2.16796875,2.619140625,-3.0625,356.0,356.0,356.0111111111111
3956342,,,,,,,,10.1796875,19.09765625,-5.73828125,-2.16796875,2.619140625,-3.0625,356.0,356.0,356.0111111111111
3956343,,,,,,,,10.1796875,19.09765625,-5.73828125,-1.55078125,2.03515625,-3.37890625,356.0,356.0,356.0111111111111
3956344,,,,,,,,10.1796875,19.09765625,-5.73828125,-1.55078125,2.03515625,-3.37890625,356.0,356.0,356.0111111111111
3956345,,,,,,,,10.1796875,19.09765625,-5.73828125,-0.775390625,1.44140625,-1.84765625,356.0,356.0,356.0111111111111
3956346,,,,,,,,-12.7421875,-1.5703125,2.53125,-0.775390625,1.44140625,-1.84765625,356.0,356.0,356.0111111111111
3956347,,,,,,,,-12.7421875,-1.5703125,2.53125,-0.775390625,1.44140625,-1.84765625,356.0,356.0,356.0111111111111
3956348,,,,,,,,-12.7421875,-1.5703125,2.53125,-0.775390625,1.44140625,-1.84765625,356.0,356.0,356.0111111111111
3956349,,,,,,,,-12.7421875,-1.5703125,2.53125,2.7578125,1.630859375,-0.060546875,356.0,356.0,356.0111111111111
3956350,36.013578,129.31963783333333,93.55883738528082,130.7104846567305,6.1000000000000005,228.0,,-12.7421875,-1.5703125,2.53125,2.7578125,1.630859375,-0.060546875,356.0,356.0,356.0111111111111
3956351,,,,,,,,-12.7421875,-1.5703125,2.53125,2.0234375,-0.46484375,0.498046875,356.0,356.0,356.0111111111111
3956352,,,,,,,,-12.7421875,-1.5703125,2.53125,2.0234375,-0.46484375,0.498046875,356.0,356.0,356.02222222222224
3956353,,,,,,,,-12.7421875,-1.5703125,2.53125,-0.8125,-2.0234375,0.8828125,356.0,356.0,356.02222222222224
3956354,,,,,,,,-12.7421875,-1.5703125,2.53125,-0.8125,-2.0234375,0.8828125,356.0,356.0,356.0111111111111
3956355,,,,,,,,-12.7421875,-1.5703125,2.53125,-2.09375,-2.705078125,1.1328125,356.0,356.0,356.0111111111111
3956356,,,,,,,,-12.7421875,-1.5703125,2.53125,-2.09375,-2.705078125,1.1328125,356.0,356.0,356.0111111111111
3956357,,,,,,,,-12.7421875,-1.5703125,2.53125,-1.947265625,-2.447265625,1.869140625,356.0,356.0,356.0111111111111
3956358,,,,,,,,-12.7421875,-1.5703125,2.53125,-1.947265625,-2.447265625,1.869140625,356.0,356.0,356.0111111111111
3956359,,,,,,,,-12.7421875,-1.5703125,2.53125,1.7109375,-4.38671875,2.462890625,356.0,356.0,356.0111111111111
3956360,36.013574166666665,129.31963216666665,93.04800192400418,130.28513542996643,6.2,229.0,,-12.7421875,-1.5703125,2.53125,1.7109375,-4.38671875,2.462890625,356.0,356.0,356.0111111111111
3956361,,,,,,,,-12.7421875,-1.5703125,2.53125,-1.05859375,-5.017578125,2.314453125,356.0,356.0,356.0111111111111
3956362,,,,,,,,10.1328125,-2.5234375,-3.55078125,-1.05859375,-5.017578125,2.314453125,356.0,356.0,356.0111111111111
3956363,,,,,,,,10.1328125,-2.5234375,-3.55078125,-1.05859375,-5.017578125,2.314453125,356.0111111111111,356.0,356.0111111111111
3956364,,,,,,,,10.1328125,-2.5234375,-3.55078125,-1.05859375,-5.017578125,2.314453125,356.0111111111111,356.0,356.0111111111111
3956365,,,,,,,,10.1328125,-2.5234375,-3.55078125,-1.646484375,-2.498046875,3.568359375,356.0111111111111,356.0,356.0111111111111
3956366,,,,,,,,10.1328125,-2.5234375,-3.55078125,-1.646484375,-2.498046875,3.568359375,356.0111111111111,356.0,356.0111111111111
3956367,,,,,,,,10.1328125,-2.5234375,-3.55078125,-0.517578125,-1.26953125,1.732421875,356.0111111111111,356.0,356.0111111111111
3956368,,,,,,,,10.1328125,-2.5234375,-3.55078125,-0.517578125,-1.26953125,1.732421875,356.0,356.0,356.0111111111111
3956369,,,,,,,,10.1328125,-2.5234375,-3.55078125,3.65625,-0.5234375,0.501953125,356.0,356.0,356.0111111111111
3956370,36.0135705,129.3196266666667,92.55219092824252,129.87827960049958,6.2,229.0,,10.1328125,-2.5234375,-3.55078125,3.65625,-0.5234375,0.501953125,356.0,356.0,356.0111111111111
3956371,,,,,,,,10.1328125,-2.5234375,-3.55078125,2.240234375,1.29296875,-0.375,356.0,356.0,356.0111111111111
3956372,,,,,,,,10.1328125,-2.5234375,-3.55078125,2.240234375,1.29296875,-0.375,356.0,356.0,356.0111111111111
3956373,,,,,,,,10.1328125,-2.5234375,-3.55078125,0.36328125,0.78125,-0.837890625,356.0,356.0,356.0111111111111
3956374,,,,,,,,10.1328125,-2.5234375,-3.55078125,0.36328125,0.78125,-0.837890625,356.0,356.0,356.0111111111111
3956375,,,,,,,,10.1328125,-2.5234375,-3.55078125,-0.3984375,-0.83203125,-0.818359375,356.0,356.0,356.0111111111111
3956376,,,,,,,,10.1328125,-2.5234375,-3.55078125,-0.3984375,-0.83203125,-0.818359375,356.0,356.0,356.0111111111111
3956377,,,,,,,,10.1328125,-2.5234375,-3.55078125,0.28515625,1.3671875,-1.333984375,356.0,356.0,356.0111111111111
3956378,,,,,,,,-5.671875,-50.7109375,4.34375,0.28515625,1.3671875,-1.333984375,356.0,356.0,356.0111111111111
3956379,,,,,,,,-5.671875,-50.7109375,4.34375,0.28515625,1.3671875,-1.333984375,356.0111111111111,356.0,356.0111111111111
3956380,36.01356666666666,129.319621,92.04135536986203,129.45293043235128,6.300000000000001,230.0,,-5.671875,-50.7109375,4.34375,0.28515625,1.3671875,-1.333984375,356.0111111111111,356.0,356.0111111111111
3956381,,,,,,,,-5.671875,-50.7109375,4.34375,0.791015625,5.193359375,-3.234375,356.0111111111111,356.0,356.0111111111111
3956382,,,,,,,,-5.671875,-50.7109375,4.34375,0.791015625,5.193359375,-3.234375,356.0,356.0,356.0111111111111
3956383,,,,,,,,-5.671875,-50.7109375,4.34375,-2.939453125,5.40625,-2.95703125,356.0,356.0,356.0111111111111
3956384,,,,,,,,-5.671875,-50.7109375,4.34375,-2.939453125,5.40625,-2.95703125,356.0,356.0,356.0111111111111
3956385,,,,,,,,-5.671875,-50.7109375,4.34375,-1.0390625,2.72265625,-3.3984375,356.0,356.0,356.0111111111111
3956386,,,,,,,,-5.671875,-50.7109375,4.34375,-1.0390625,2.72265625,-3.3984375,356.0,356.0,356.0111111111111
3956387,,,,,,,,-5.671875,-50.7109375,4.34375,0.099609375,3.1875,-2.501953125,356.0,356.0,356.0111111111111
3956388,,,,,,,,-5.671875,-50.7109375,4.34375,0.099609375,3.1875,-2.501953125,356.0,356.0,356.0111111111111
3956389,,,,,,,,-5.671875,-50.7109375,4.34375,-2.099609375,-0.177734375,-1.048828125,356.0,356.0,356.0111111111111
3956390,36.0135625,129.31961516666667,91.51549543706005,128.99059472214975,6.6000000000000005,229.0,,-5.671875,-50.7109375,4.34375,-2.099609375,-0.177734375,-1.048828125,356.0,356.0,356.02222222222224
3956391,,,,,,,,-5.671875,-50.7109375,4.34375,2.376953125,-0.140625,-0.15625,356.0,356.0,356.02222222222224
3956392,,,,,,,,-5.671875,-50.7109375,4.34375,2.376953125,-0.140625,-0.15625,356.0,356.0,356.02222222222224
3956393,,,,,,,,-5.671875,-50.7109375,4.34375,2.59375,-0.29296875,0.626953125,356.0,356.0,356.02222222222224
3956394,,,,,,,,-16.875,19.1328125,-4.0,2.59375,-0.29296875,0.626953125,356.0,356.0,356.02222222222224
3956395,,,,,,,,-16.875,19.1328125,-4.0,2.59375,-0.29296875,0.626953125,356.0,356.0,356.02222222222224
3956396,,,,,,,,-16.875,19.1328125,-4.0,-1.375,-2.890625,0.892578125,356.0,356.0,356.02222222222224
3956397,,,,,,,,-16.875,19.1328125,-4.0,-1.375,-2.890625,0.892578125,356.0,356.0,356.0111111111111
3956398,,,,,,,,-16.875,19.1328125,-4.0,-3.8984375,2.197265625,0.71875,356.0,356.0,356.0111111111111
3956399,,,,,,,,-16.875,19.1328125,-4.0,-3.8984375,2.197265625,0.71875,356.0,356.0,356.0111111111111
3956400,36.01355433333333,129.31960333333333,90.44875051131481,128.08441644982403,6.800000000000001,229.0,77.0,-16.875,19.1328125,-4.0,1.083984375,-3.583984375,0.21484375,356.0,356.0,356.0111111111111
3956401,,,,,,,,-16.875,19.1328125,-4.0,1.083984375,-3.583984375,0.21484375,356.0,356.0,356.0111111111111
3956402,,,,,,,,-16.875,19.1328125,-4.0,1.083984375,-3.583984375,0.21484375,356.0111111111111,356.0,356.0111111111111
3956403,,,,,,,,-16.875,19.1328125,-4.0,1.330078125,-1.478515625,1.564453125,356.0111111111111,356.0,356.0111111111111
3956404,,,,,,,,-16.875,19.1328125,-4.0,1.330078125,-1.478515625,1.564453125,356.0111111111111,356.0,356.0111111111111
3956405,,,,,,,,-16.875,19.1328125,-4.0,3.685546875,0.92578125,-0.173828125,356.0111111111111,356.0,356.0111111111111
3956406,,,,,,,,-16.875,19.1328125,-4.0,3.685546875,0.92578125,-0.173828125,356.0111111111111,356.0,356.0111111111111
3956407,,,,,,,,-16.875,19.1328125,-4.0,1.07421875,2.115234375,-0.9453125,356.0111111111111,356.0,356.0111111111111
3956408,,,,,,,,-16.875,19.1328125,-4.0,1.07421875,2.115234375,-0.9453125,356.0111111111111,356.0,356.0111111111111
3956409,,,,,,,,-16.875,19.1328125,-4.0,-1.30859375,1.24609375,-1.0,356.0111111111111,356.0,356.0111111111111
3956410,36.013547499999994,129.31959216666667,89.44210270322203,127.32618458759734,6.5,231.0,,-16.875,19.1328125,-4.0,-1.30859375,1.24609375,-1.0,356.0,356.0,356.0111111111111
3956411,,,,,,,,-16.875,19.1328125,-4.0,-2.19140625,-3.5625,-0.732421875,356.0,356.0,356.0111111111111
3956412,,,,,,,,-16.875,19.1328125,-4.0,-2.19140625,-3.5625,-0.732421875,356.0111111111111,356.0,356.0111111111111
3956413,,,,,,,,-16.875,19.1328125,-4.0,0.9296875,4.408203125,-1.4453125,356.0111111111111,356.0,356.0111111111111
3956414,,,,,,,,-16.875,19.1328125,-4.0,0.9296875,4.408203125,-1.4453125,356.0111111111111,356.0,356.0111111111111
3956415,,,,,,,,-16.875,19.1328125,-4.0,-0.298828125,7.00390625,-3.248046875,356.0111111111111,356.0,356.0111111111111
3956416,,,,,,,,8.11328125,4.00390625,2.171875,-0.298828125,7.00390625,-3.248046875,356.0111111111111,356.0,356.0111111111111
3956417,,,,,,,,8.11328125,4.00390625,2.171875,-0.298828125,7.00390625,-3.248046875,356.0,356.0,356.0111111111111
3956418,,,,,,,,8.11328125,4.00390625,2.171875,-0.298828125,7.00390625,-3.248046875,356.0,356.0,356.0111111111111
3956419,,,,,,,,8.11328125,4.00390625,2.171875,-2.779296875,3.216796875,-2.53125,356.0,356.0,356.0111111111111
3956420,36.01354333333334,129.31958649999999,88.93126721734683,126.86384918683629,6.6000000000000005,229.0,,8.11328125,4.00390625,2.171875,-2.779296875,3.216796875,-2.53125,356.0111111111111,356.0,356.0111111111111
3956421,,,,,,,,8.11328125,4.00390625,2.171875,-0.341796875,-0.642578125,-1.09375,356.0111111111111,356.0,356.0111111111111
3956422,,,,,,,,8.11328125,4.00390625,2.171875,-0.341796875,-0.642578125,-1.09375,356.0111111111111,356.0,356.0111111111111
3956423,,,,,,,,8.11328125,4.00390625,2.171875,-1.189453125,-1.03125,-0.21875,356.0111111111111,356.0,356.0111111111111
3956424,,,,,,,,8.11328125,4.00390625,2.171875,-1.189453125,-1.03125,-0.21875,356.0111111111111,356.0,356.0111111111111
3956425,,,,,,,,8.11328125,4.00390625,2.171875,1.765625,1.271484375,0.19140625,356.0111111111111,356.0,356.0111111111111
3956426,,,,,,,,8.11328125,4.00390625,2.171875,1.765625,1.271484375,0.19140625,356.0111111111111,356.0,356.0111111111111
3956427,,,,,,,,8.11328125,4.00390625,2.171875,2.353515625,-1.310546875,0.4609375,356.0111111111111,356.0,356.0111111111111
3956428,,,,,,,,8.11328125,4.00390625,2.171875,2.353515625,-1.310546875,0.4609375,356.0111111111111,356.0,356.0111111111111
3956429,,,,,,,,8.11328125,4.00390625,2.171875,-0.064453125,-2.421875,0.82421875,356.0111111111111,356.0,356.0111111111111
3956430,36.013539,129.31958066666667,88.40540715694033,126.38302045512955,6.800000000000001,228.0,,8.11328125,4.00390625,2.171875,-0.064453125,-2.421875,0.82421875,356.0111111111111,356.0,356.0111111111111
3956431,,,,,,,,8.11328125,4.00390625,2.171875,-0.994140625,0.02734375,0.3125,356.0111111111111,356.0,356.0111111111111
3956432,,,,,,,,-5.1875,6.1796875,-8.87890625,-0.994140625,0.02734375,0.3125,356.0111111111111,356.0,356.0111111111111
3956433,,,,,,,,-5.1875,6.1796875,-8.87890625,-0.994140625,0.02734375,0.3125,356.0111111111111,356.0,356.0111111111111
3956434,,,,,,,,-5.1875,6.1796875,-8.87890625,0.21875,-3.3203125,0.849609375,356.0111111111111,356.0,356.0111111111111
3956435,,,,,,,,-5.1875,6.1796875,-8.87890625,0.21875,-3.3203125,0.849609375,356.0111111111111,356.0,356.0111111111111
3956436,,,,,,,,-5.1875,6.1796875,-8.87890625,1.59375,-6.240234375,1.6875,356.0111111111111,356.0,356.0111111111111
3956437,,,,,,,,-5.1875,6.1796875,-8.87890625,1.59375,-6.240234375,1.6875,356.0111111111111,356.0,356.0111111111111
3956438,,,,,,,,-5.1875,6.1796875,-8.87890625,-1.76953125,-4.142578125,2.220703125,356.0111111111111,356.0,356.0111111111111
3956439,,,,,,,,-5.1875,6.1796875,-8.87890625,-1.76953125,-4.142578125,2.220703125,356.0111111111111,356.0,356.0111111111111
3956440,36.013535000000005,129.31957416666668,87.81944781576874,125.93917757225735,6.9,230.0,,-5.1875,6.1796875,-8.87890625,-2.78515625,-2.220703125,2.365234375,356.0111111111111,356.0,356.0111111111111
3956441,,,,,,,,-5.1875,6.1796875,-8.87890625,-2.78515625,-2.220703125,2.365234375,356.0111111111111,356.0,356.0111111111111
3956442,,,,,,,,-5.1875,6.1796875,-8.87890625,-1.435546875,-0.62890625,0.42578125,356.0111111111111,356.0,356.0111111111111
3956443,,,,,,,,-5.1875,6.1796875,-8.87890625,-1.435546875,-0.62890625,0.42578125,356.0111111111111,356.0,356.0111111111111
3956444,,,,,,,,-5.1875,6.1796875,-8.87890625,-0.4453125,2.484375,0.990234375,356.0111111111111,356.0,356.0111111111111
3956445,,,,,,,,-5.1875,6.1796875,-8.87890625,-0.4453125,2.484375,0.990234375,356.0111111111111,356.0,356.0111111111111
3956446,,,,,,,,-5.1875,6.1796875,-8.87890625,4.263671875,-0.76171875,0.171875,356.0111111111111,356.0,356.0111111111111
3956447,,,,,,,,-1.5546875,-1.47265625,3.26953125,4.263671875,-0.76171875,0.171875,356.0111111111111,356.0,356.0111111111111
3956448,,,,,,,,-1.5546875,-1.47265625,3.26953125,4.263671875,-0.76171875,0.171875,356.0111111111111,356.0,356.0111111111111
3956449,,,,,,,,-1.5546875,-1.47265625,3.26953125,1.998046875,0.7890625,-0.052734375,356.0111111111111,356.0,356.0111111111111
3956450,36.01353133333334,129.319568,87.2635374750978,125.53232144372888,6.9,231.0,,-1.5546875,-1.47265625,3.26953125,1.998046875,0.7890625,-0.052734375,356.0111111111111,356.0,356.0111111111111
3956451,,,,,,,,-1.5546875,-1.47265625,3.26953125,-0.18359375,2.203125,-1.380859375,356.0111111111111,356.0,356.0111111111111
3956452,,,,,,,,-1.5546875,-1.47265625,3.26953125,-0.18359375,2.203125,-1.380859375,356.0111111111111,356.0,356.0111111111111
3956453,,,,,,,,-1.5546875,-1.47265625,3.26953125,-1.125,-0.052734375,-1.240234375,356.0111111111111,356.0,356.0111111111111
3956454,,,,,,,,-1.5546875,-1.47265625,3.26953125,-1.125,-0.052734375,-1.240234375,356.0111111111111,356.0,356.0111111111111
3956455,,,,,,,,-1.5546875,-1.47265625,3.26953125,-3.201171875,-0.8046875,0.59375,356.0111111111111,356.0,356.0111111111111
3956456,,,,,,,,-1.5546875,-1.47265625,3.26953125,-3.201171875,-0.8046875,0.59375,356.0111111111111,356.0,356.0111111111111
3956457,,,,,,,,-1.5546875,-1.47265625,3.26953125,1.169921875,9.271484375,-2.271484375,356.0111111111111,356.0,356.0111111111111
3956458,,,,,,,,-1.5546875,-1.47265625,3.26953125,1.169921875,9.271484375,-2.271484375,356.0111111111111,356.0,356.0111111111111
3956459,,,,,,,,-1.5546875,-1.47265625,3.26953125,-0.490234375,2.734375,-3.068359375,356.0111111111111,356.0,356.0111111111111
3956460,36.01352766666666,129.31956233333332,86.75270122231187,125.12546579336443,6.6000000000000005,232.0,,-1.5546875,-1.47265625,3.26953125,-0.490234375,2.734375,-3.068359375,356.0111111111111,356.0,356.0111111111111
3956461,,,,,,,,-1.5546875,-1.47265625,3.26953125,-3.7734375,4.36328125,-1.30859375,356.0111111111111,356.0,356.0111111111111
3956462,,,,,,,,-14.10546875,0.734375,-5.546875,-3.7734375,4.36328125,-1.30859375,356.0111111111111,356.0,356.0111111111111
3956463,,,,,,,,-14.10546875,0.734375,-5.546875,-3.7734375,4.36328125,-1.30859375,356.0111111111111,356.0,356.0111111111111
3956464,,,,,,,,-14.10546875,0.734375,-5.546875,-3.7734375,4.36328125,-1.30859375,356.0111111111111,356.0,356.0111111111111
3956465,,,,,,,,-14.10546875,0.734375,-5.546875,0.3203125,-0.98828125,-0.134765625,356.0111111111111,356.0,356.0111111111111
3956466,,,,,,,,-14.10546875,0.734375,-5.546875,0.3203125,-0.98828125,-0.134765625,356.0111111111111,356.0,356.0111111111111
3956467,,,,,,,,-14.10546875,0.734375,-5.546875,1.66015625,0.46484375,0.21484375,356.0111111111111,356.0,356.0111111111111
3956468,,,,,,,,-14.10546875,0.734375,-5.546875,1.66015625,0.46484375,0.21484375,356.0111111111111,356.0,356.0111111111111
3956469,,,,,,,,-14.10546875,0.734375,-5.546875,3.779296875,1.447265625,0.419921875,356.0111111111111,356.0,356.0111111111111
3956470,36.013523166666666,129.31955633333334,86.21181640514402,124.62614383793911,6.800000000000001,229.0,,-14.10546875,0.734375,-5.546875,3.779296875,1.447265625,0.419921875,356.0111111111111,356.0,356.0111111111111
3956471,,,,,,,,-14.10546875,0.734375,-5.546875,1.90625,-1.685546875,0.42578125,356.0111111111111,356.0,356.0111111111111
3956472,,,,,,,,-14.10546875,0.734375,-5.546875,1.90625,-1.685546875,0.42578125,356.0111111111111,356.0,356.0111111111111
3956473,,,,,,,,-14.10546875,0.734375,-5.546875,-0.1953125,-3.287109375,1.07421875,356.0111111111111,356.0,356.0111111111111
3956474,,,,,,,,-14.10546875,0.734375,-5.546875,-0.1953125,-3.287109375,1.07421875,356.0111111111111,356.0,356.0111111111111
3956475,,,,,,,,-14.10546875,0.734375,-5.546875,-0.26953125,-1.474609375,0.72265625,356.0111111111111,356.0,356.0111111111111
3956476,,,,,,,,-14.10546875,0.734375,-5.546875,-0.26953125,-1.474609375,0.72265625,356.0111111111111,356.0,356.0111111111111
3956477,,,,,,,,-14.10546875,0.734375,-5.546875,-2.185546875,-2.435546875,1.181640625,356.0111111111111,356.0,356.0111111111111
3956478,,,,,,,,28.609375,-32.45703125,-1.92578125,-2.185546875,-2.435546875,1.181640625,356.0111111111111,356.0,356.0111111111111
3956479,,,,,,,,28.609375,-32.45703125,-1.92578125,-2.185546875,-2.435546875,1.181640625,356.0111111111111,356.0,356.0111111111111
3956480,36.01351483333334,129.319544,85.09999642889595,123.70147257048184,7.0,230.0,,28.609375,-32.45703125,-1.92578125,-2.185546875,-2.435546875,1.181640625,356.0111111111111,356.0,356.0111111111111
3956481,,,,,,,,28.609375,-32.45703125,-1.92578125,0.796875,-4.353515625,1.814453125,356.0111111111111,356.0,356.0111111111111
3956482,,,,,,,,28.609375,-32.45703125,-1.92578125,0.796875,-4.353515625,1.814453125,356.0111111111111,356.0,356.0111111111111
3956483,,,,,,,,28.609375,-32.45703125,-1.92578125,-2.375,-2.04296875,2.873046875,356.0111111111111,356.0,356.0111111111111
3956484,,,,,,,,28.609375,-32.45703125,-1.92578125,-2.375,-2.04296875,2.873046875,356.0111111111111,356.0,356.0111111111111
3956485,,,,,,,,28.609375,-32.45703125,-1.92578125,-0.5234375,-1.37890625,0.50390625,356.0111111111111,356.0,356.0111111111111
3956486,,,,,,,,28.609375,-32.45703125,-1.92578125,-0.5234375,-1.37890625,0.50390625,356.0111111111111,356.0,356.0111111111111
3956487,,,,,,,,28.609375,-32.45703125,-1.92578125,0.65234375,2.806640625,1.390625,356.0111111111111,356.0,356.0111111111111
3956488,,,,,,,,28.609375,-32.45703125,-1.92578125,0.65234375,2.806640625,1.390625,356.0,356.0,356.0111111111111
3956489,,,,,,,,28.609375,-32.45703125,-1.92578125,4.578125,-0.818359375,0.443359375,356.0,356.0,356.0111111111111
3956490,36.013510833333335,129.31953733333333,84.49901202151091,123.25762976399338,7.2,232.0,,28.609375,-32.45703125,-1.92578125,4.578125,-0.818359375,0.443359375,356.0,356.0,356.0111111111111
3956491,,,,,,,,28.609375,-32.45703125,-1.92578125,2.14453125,0.642578125,-0.2890625,356.0,356.0,356.0111111111111
3956492,,,,,,,,28.609375,-32.45703125,-1.92578125,2.14453125,0.642578125,-0.2890625,356.0,356.0,356.0111111111111
3956493,,,,,,,,28.609375,-32.45703125,-1.92578125,0.365234375,2.12890625,-0.443359375,356.0,356.0,356.0111111111111
3956494,,,,,,,,6.3359375,27.453125,-5.1953125,0.365234375,2.12890625,-0.443359375,356.0,356.0,356.0111111111111
3956495,,,,,,,,6.3359375,27.453125,-5.1953125,0.365234375,2.12890625,-0.443359375,356.0,356.0,356.0111111111111
3956496,,,,,,,,6.3359375,27.453125,-5.1953125,0.365234375,2.12890625,-0.443359375,356.0,356.0,356.0111111111111
3956497,,,,,,,,6.3359375,27.453125,-5.1953125,-1.33984375,-0.34375,-0.73046875,356.0,356.0,356.0111111111111
3956498,,,,,,,,6.3359375,27.453125,-5.1953125,-1.33984375,-0.34375,-0.73046875,356.0,356.0,356.0111111111111
3956499,,,,,,,,6.3359375,27.453125,-5.1953125,0.634765625,6.021484375,-2.333984375,356.0,356.0,356.0111111111111
3956500,36.01350183333333,129.31952516666666,83.4022171163276,122.25898602178003,7.300000000000001,228.0,77.0,6.3359375,27.453125,-5.1953125,0.634765625,6.021484375,-2.333984375,356.0,356.0,356.0111111111111
3956501,,,,,,,,6.3359375,27.453125,-5.1953125,0.634765625,6.021484375,-2.333984375,356.0,356.0,356.0111111111111
3956502,,,,,,,,6.3359375,27.453125,-5.1953125,0.634765625,6.021484375,-2.333984375,356.0111111111111,356.0,356.0111111111111
3956503,,,,,,,,6.3359375,27.453125,-5.1953125,0.72265625,3.80859375,-3.322265625,356.0111111111111,356.0,356.0111111111111
3956504,,,,,,,,6.3359375,27.453125,-5.1953125,0.72265625,3.80859375,-3.322265625,356.0111111111111,356.0,356.0111111111111
3956505,,,,,,,,6.3359375,27.453125,-5.1953125,2.435546875,-6.91015625,1.740234375,356.0111111111111,356.0,356.0111111111111
3956506,,,,,,,,6.3359375,27.453125,-5.1953125,2.435546875,-6.91015625,1.740234375,356.0111111111111,356.0,356.0111111111111
3956507,,,,,,,,6.3359375,27.453125,-5.1953125,1.119140625,-4.435546875,1.400390625,356.0111111111111,356.0,356.0111111111111
3956508,,,,,,,,6.3359375,27.453125,-5.1953125,1.119140625,-4.435546875,1.400390625,356.0111111111111,356.0,356.0111111111111
3956509,,,,,,,,6.3359375,27.453125,-5.1953125,-2.173828125,-4.822265625,2.00390625,356.0111111111111,356.0,356.0111111111111
3956510,36.013493499999996,129.31951283333333,82.2903965467518,121.33431511271407,7.2,230.0,,6.3359375,27.453125,-5.1953125,-2.173828125,-4.822265625,2.00390625,356.0111111111111,356.0,356.0111111111111
3956511,,,,,,,,6.3359375,27.453125,-5.1953125,-2.708984375,-2.294921875,1.05859375,356.0111111111111,356.0,356.0111111111111
3956512,,,,,,,,6.3359375,27.453125,-5.1953125,-2.708984375,-2.294921875,1.05859375,356.0111111111111,356.0,356.0111111111111
3956513,,,,,,,,6.3359375,27.453125,-5.1953125,-1.07421875,1.125,1.04296875,356.0111111111111,356.0,356.0111111111111
3956514,,,,,,,,6.3359375,27.453125,-5.1953125,-1.07421875,1.125,1.04296875,356.0111111111111,356.0,356.0111111111111
3956515,,,,,,,,6.3359375,27.453125,-5.1953125,1.986328125,0.759765625,1.63671875,356.0111111111111,356.0,356.0111111111111
3956516,,,,,,,,-20.23828125,-17.171875,27.7109375,1.986328125,0.759765625,1.63671875,356.0111111111111,356.0,356.0111111111111
3956517,,,,,,,,-20.23828125,-17.171875,27.7109375,1.986328125,0.759765625,1.63671875,356.0111111111111,356.0,356.0111111111111
3956518,,,,,,,,-20.23828125,-17.171875,27.7109375,1.986328125,0.759765625,1.63671875,356.0111111111111,356.0,356.0111111111111
3956519,,,,,,,,-20.23828125,-17.171875,27.7109375,3.93359375,0.537109375,-0.115234375,356.0111111111111,356.0,356.0111111111111
3956520,36.01348966666667,129.3195065,81.71946110687927,120.90896599019577,7.2,232.0,,-20.23828125,-17.171875,27.7109375,3.93359375,0.537109375,-0.115234375,356.0111111111111,356.0,356.0111111111111
3956521,,,,,,,,-20.23828125,-17.171875,27.7109375,0.505859375,2.04296875,-0.814453125,356.0111111111111,356.0,356.0111111111111
3956522,,,,,,,,-20.23828125,-17.171875,27.7109375,0.505859375,2.04296875,-0.814453125,356.0111111111111,356.0,356.0111111111111
3956523,,,,,,,,-20.23828125,-17.171875,27.7109375,-1.138671875,0.51953125,-0.5078125,356.0111111111111,356.0,356.0111111111111
3956524,,,,,,,,-20.23828125,-17.171875,27.7109375,-1.138671875,0.51953125,-0.5078125,356.0111111111111,356.0,356.0111111111111
3956525,,,,,,,,-20.23828125,-17.171875,27.7109375,-2.8671875,-4.142578125,-1.478515625,356.0111111111111,356.0,356.0111111111111
3956526,,,,,,,,-20.23828125,-17.171875,27.7109375,-2.8671875,-4.142578125,-1.478515625,356.0111111111111,356.0,356.0111111111111
3956527,,,,,,,,-20.23828125,-17.171875,27.7109375,1.048828125,11.71875,-2.6484375,356.0111111111111,356.0,356.0111111111111
3956528,,,,,,,,-20.23828125,-17.171875,27.7109375,1.048828125,11.71875,-2.6484375,356.0111111111111,356.0,356.0111111111111
3956529,,,,,,,,-20.23828125,-17.171875,27.7109375,1.818359375,2.970703125,-2.927734375,356.0111111111111,356.0,356.0111111111111
3956530,36.013484999999996,129.31950016666667,81.1485264679034,120.39115085953426,7.300000000000001,230.0,,-20.23828125,-17.171875,27.7109375,1.818359375,2.970703125,-2.927734375,356.0111111111111,356.0,356.0111111111111
3956531,,,,,,,,-20.23828125,-17.171875,27.7109375,-4.251953125,4.3984375,-2.828125,356.0111111111111,356.0,356.0111111111111
3956532,,,,,,,,-3.54296875,-1.33203125,-16.66015625,-4.251953125,4.3984375,-2.828125,356.0111111111111,356.0,356.0111111111111
3956533,,,,,,,,-3.54296875,-1.33203125,-16.66015625,-4.251953125,4.3984375,-2.828125,356.0111111111111,356.0,356.0111111111111
3956534,,,,,,,,-3.54296875,-1.33203125,-16.66015625,-2.091796875,-0.412109375,-1.65234375,356.0111111111111,356.0,356.0111111111111
3956535,,,,,,,,-3.54296875,-1.33203125,-16.66015625,-2.091796875,-0.412109375,-1.65234375,356.0111111111111,356.0,356.02222222222224
3956536,,,,,,,,-3.54296875,-1.33203125,-16.66015625,5.0390625,-1.9296875,-5.236328125,356.0111111111111,356.0,356.02222222222224
3956537,,,,,,,,-3.54296875,-1.33203125,-16.66015625,5.0390625,-1.9296875,-5.236328125,356.0111111111111,356.0,356.02222222222224
3956538,,,,,,,,-3.54296875,-1.33203125,-16.66015625,3.3671875,0.189453125,0.68359375,356.0111111111111,356.0,356.02222222222224
3956539,,,,,,,,-3.54296875,-1.33203125,-16.66015625,3.3671875,0.189453125,0.68359375,356.0111111111111,356.0,356.02222222222224
3956540,36.013480333333334,129.319494,80.5926164847913,119.87333590631673,7.4,228.0,,-3.54296875,-1.33203125,-16.66015625,4.1640625,0.193359375,0.638671875,356.0111111111111,356.0,356.02222222222224
3956541,,,,,,,,-3.54296875,-1.33203125,-16.66015625,4.1640625,0.193359375,0.638671875,356.0111111111111,356.0,356.02222222222224
3956542,,,,,,,,-3.54296875,-1.33203125,-16.66015625,2.21484375,-0.357421875,0.451171875,356.0111111111111,356.0,356.02222222222224
3956543,,,,,,,,-3.54296875,-1.33203125,-16.66015625,2.21484375,-0.357421875,0.451171875,356.0111111111111,356.0,356.02222222222224
3956544,,,,,,,,-3.54296875,-1.33203125,-16.66015625,-0.708984375,-2.70703125,0.26171875,356.0111111111111,356.0,356.02222222222224
3956545,,,,,,,,-3.54296875,-1.33203125,-16.66015625,-0.708984375,-2.70703125,0.26171875,356.0111111111111,356.0,356.02222222222224
3956546,,,,,,,,-3.54296875,-1.33203125,-16.66015625,-8.642578125,4.693359375,-0.64453125,356.0111111111111,356.0,356.02222222222224
3956547,,,,,,,,61.1328125,-60.85546875,31.19140625,-8.642578125,4.693359375,-0.64453125,356.0111111111111,356.0,356.02222222222224
3956548,,,,,,,,61.1328125,-60.85546875,31.19140625,-8.642578125,4.693359375,-0.64453125,356.0111111111111,356.0,356.02222222222224
3956549,,,,,,,,61.1328125,-60.85546875,31.19140625,4.025390625,-6.20703125,3.078125,356.0111111111111,356.0,356.02222222222224
3956550,36.013475666666665,129.31948683333334,79.94655808987078,119.35552016740095,7.6000000000000005,229.0,,61.1328125,-60.85546875,31.19140625,4.025390625,-6.20703125,3.078125,356.0111111111111,356.0,356.0111111111111
3956551,,,,,,,,61.1328125,-60.85546875,31.19140625,-2.548828125,-4.966796875,3.353515625,356.0111111111111,356.0,356.0111111111111
3956552,,,,,,,,61.1328125,-60.85546875,31.19140625,-2.548828125,-4.966796875,3.353515625,356.0111111111111,356.0,356.0111111111111
3956553,,,,,,,,61.1328125,-60.85546875,31.19140625,-2.5625,-2.48828125,2.17578125,356.0111111111111,356.0,356.0111111111111
3956554,,,,,,,,61.1328125,-60.85546875,31.19140625,-2.5625,-2.48828125,2.17578125,356.0111111111111,356.0,356.0111111111111
3956555,,,,,,,,61.1328125,-60.85546875,31.19140625,-2.09375,-0.349609375,2.2265625,356.0111111111111,356.0,356.0111111111111
3956556,,,,,,,,61.1328125,-60.85546875,31.19140625,-2.09375,-0.349609375,2.2265625,356.0111111111111,356.0,356.0111111111111
3956557,,,,,,,,61.1328125,-60.85546875,31.19140625,1.263671875,-2.037109375,2.064453125,356.0111111111111,356.0,356.0111111111111
3956558,,,,,,,,61.1328125,-60.85546875,31.19140625,1.263671875,-2.037109375,2.064453125,356.0111111111111,356.0,356.0111111111111
3956559,,,,,,,,61.1328125,-60.85546875,31.19140625,2.1640625,0.169921875,1.853515625,356.0111111111111,356.0,356.0111111111111
3956560,36.01347166666667,129.31948,79.33054840069288,118.91167758109893,7.5,231.0,,61.1328125,-60.85546875,31.19140625,2.1640625,0.169921875,1.853515625,356.0,356.0,356.0111111111111
3956561,,,,,,,,61.1328125,-60.85546875,31.19140625,5.671875,-0.603515625,0.78125,356.0,356.0,356.0111111111111
3956562,,,,,,,,0.4140625,3.95703125,6.0546875,5.671875,-0.603515625,0.78125,356.0,356.0,356.0111111111111
3956563,,,,,,,,0.4140625,3.95703125,6.0546875,5.671875,-0.603515625,0.78125,356.0,356.0,356.0111111111111
3956564,,,,,,,,0.4140625,3.95703125,6.0546875,1.89453125,1.177734375,-0.46875,356.0,356.0,356.0111111111111
3956565,,,,,,,,0.4140625,3.95703125,6.0546875,1.89453125,1.177734375,-0.46875,356.0,356.0,356.0111111111111
3956566,,,,,,,,0.4140625,3.95703125,6.0546875,-0.927734375,2.033203125,-0.595703125,356.0,356.0,356.0111111111111
3956567,,,,,,,,0.4140625,3.95703125,6.0546875,-0.927734375,2.033203125,-0.595703125,356.0,356.0,356.0111111111111
3956568,,,,,,,,0.4140625,3.95703125,6.0546875,-3.056640625,2.775390625,-1.69921875,356.0,356.0,356.0111111111111
3956569,,,,,,,,0.4140625,3.95703125,6.0546875,-3.056640625,2.775390625,-1.69921875,356.0,356.0,356.0111111111111
3956570,36.013467500000004,129.31947366666665,78.7596129913819,118.4493422349365,7.4,231.0,,0.4140625,3.95703125,6.0546875,-1.07421875,-8.005859375,-1.421875,356.0,356.0,356.0111111111111
3956571,,,,,,,,0.4140625,3.95703125,6.0546875,-1.07421875,-8.005859375,-1.421875,356.0111111111111,356.0,356.0111111111111
3956572,,,,,,,,0.4140625,3.95703125,6.0546875,0.484375,5.509765625,-2.24609375,356.0111111111111,356.0,356.0111111111111
3956573,,,,,,,,0.4140625,3.95703125,6.0546875,0.484375,5.509765625,-2.24609375,356.0111111111111,356.0,356.0111111111111
3956574,,,,,,,,0.4140625,3.95703125,6.0546875,-1.2421875,5.65625,-3.08203125,356.0111111111111,356.0,356.0111111111111
3956575,,,,,,,,0.4140625,3.95703125,6.0546875,-1.2421875,5.65625,-3.08203125,356.0,356.0,356.0111111111111
3956576,,,,,,,,0.4140625,3.95703125,6.0546875,-3.58203125,2.484375,-3.255859375,356.0,356.0,356.0111111111111
3956577,,,,,,,,1.875,2.828125,-12.171875,-3.58203125,2.484375,-3.255859375,356.0,356.0,356.0111111111111
3956578,,,,,,,,1.875,2.828125,-12.171875,-3.58203125,2.484375,-3.255859375,356.0,356.0,356.0111111111111
3956579,,,,,,,,1.875,2.828125,-12.171875,-4.00390625,-0.4921875,-1.10546875,356.0,356.0,356.0111111111111
3956580,36.01346233333334,129.31946733333334,78.18867851159304,117.87604767463745,7.5,228.0,,1.875,2.828125,-12.171875,-4.00390625,-0.4921875,-1.10546875,356.0111111111111,356.0,356.02222222222224
3956581,,,,,,,,1.875,2.828125,-12.171875,-0.306640625,0.611328125,-0.20703125,356.0111111111111,356.0,356.02222222222224
3956582,,,,,,,,1.875,2.828125,-12.171875,-0.306640625,0.611328125,-0.20703125,356.0111111111111,356.0,356.02222222222224
3956583,,,,,,,,1.875,2.828125,-12.171875,4.736328125,2.75390625,-0.431640625,356.0111111111111,356.0,356.02222222222224
3956584,,,,,,,,1.875,2.828125,-12.171875,4.736328125,2.75390625,-0.431640625,356.0111111111111,356.0,356.02222222222224
3956585,,,,,,,,1.875,2.828125,-12.171875,5.884765625,-2.98046875,0.72265625,356.0111111111111,356.0,356.02222222222224
3956586,,,,,,,,1.875,2.828125,-12.171875,5.884765625,-2.98046875,0.72265625,356.0111111111111,356.0,356.02222222222224
3956587,,,,,,,,1.875,2.828125,-12.171875,1.07421875,2.734375,-0.509765625,356.0111111111111,356.0,356.02222222222224
3956588,,,,,,,,1.875,2.828125,-12.171875,1.07421875,2.734375,-0.509765625,356.0111111111111,356.0,356.02222222222224
3956589,,,,,,,,1.875,2.828125,-12.171875,0.14453125,-3.40234375,0.701171875,356.0111111111111,356.0,356.02222222222224
3956590,36.013457833333334,129.31946083333332,77.6027185746637,117.37672585262428,7.5,228.0,,1.875,2.828125,-12.171875,0.14453125,-3.40234375,0.701171875,356.0111111111111,356.0,356.02222222222224
3956591,,,,,,,,1.875,2.828125,-12.171875,-0.787109375,-3.75390625,0.572265625,356.0111111111111,356.0,356.02222222222224
3956592,,,,,,,,5.11328125,12.32421875,-9.9140625,-0.787109375,-3.75390625,0.572265625,356.0111111111111,356.0,356.02222222222224
3956593,,,,,,,,5.11328125,12.32421875,-9.9140625,-0.787109375,-3.75390625,0.572265625,356.0111111111111,356.0,356.0111111111111
3956594,,,,,,,,5.11328125,12.32421875,-9.9140625,0.208984375,-0.36328125,-1.025390625,356.0111111111111,356.0,356.0111111111111
3956595,,,,,,,,5.11328125,12.32421875,-9.9140625,0.208984375,-0.36328125,-1.025390625,356.0111111111111,356.0,356.02222222222224
3956596,,,,,,,,5.11328125,12.32421875,-9.9140625,1.521484375,-5.849609375,1.619140625,356.0111111111111,356.0,356.02222222222224
3956597,,,,,,,,5.11328125,12.32421875,-9.9140625,1.521484375,-5.849609375,1.619140625,356.0111111111111,356.0,356.0111111111111
3956598,,,,,,,,5.11328125,12.32421875,-9.9140625,-2.681640625,-4.31640625,2.115234375,356.0111111111111,356.0,356.0111111111111
3956599,,,,,,,,5.11328125,12.32421875,-9.9140625,-2.681640625,-4.31640625,2.115234375,356.0111111111111,356.0,356.0111111111111
3956600,36.013449333333334,129.31944766666666,76.4157732933769,116.43356182282295,7.5,231.0,77.0,5.11328125,12.32421875,-9.9140625,-2.681640625,-4.31640625,2.115234375,356.0111111111111,356.0,356.0111111111111
3956601,,,,,,,,5.11328125,12.32421875,-9.9140625,-2.681640625,-4.31640625,2.115234375,356.0111111111111,356.0,356.0111111111111
3956602,,,,,,,,5.11328125,12.32421875,-9.9140625,-3.478515625,-2.0703125,1.82421875,356.0111111111111,356.0,356.0111111111111
3956603,,,,,,,,5.11328125,12.32421875,-9.9140625,-3.478515625,-2.0703125,1.82421875,356.0111111111111,356.0,356.0111111111111
3956604,,,,,,,,5.11328125,12.32421875,-9.9140625,-0.828125,1.37890625,-2.71484375,356.0111111111111,356.0,356.0111111111111
3956605,,,,,,,,5.11328125,12.32421875,-9.9140625,-0.828125,1.37890625,-2.71484375,356.0111111111111,356.0,356.0111111111111
3956606,,,,,,,,5.11328125,12.32421875,-9.9140625,-4.421875,5.306640625,-2.296875,356.0111111111111,356.0,356.0111111111111
3956607,,,,,,,,5.11328125,12.32421875,-9.9140625,-4.421875,5.306640625,-2.296875,356.0111111111111,356.0,356.0111111111111
3956608,,,,,,,,5.11328125,12.32421875,-9.9140625,-1.009765625,0.642578125,-1.349609375,356.0111111111111,356.0,356.0111111111111
3956609,,,,,,,,5.11328125,12.32421875,-9.9140625,-1.009765625,0.642578125,-1.349609375,356.0111111111111,356.0,356.02222222222224
3956610,36.0134405,129.3194355,75.31897645535253,115.45341230863045,7.4,229.0,,5.11328125,12.32421875,-9.9140625,0.9140625,2.0859375,-0.71484375,356.0111111111111,356.0,356.02222222222224
3956611,,,,,,,,5.11328125,12.32421875,-9.9140625,0.9140625,2.0859375,-0.71484375,356.0111111111111,356.0,356.02222222222224
3956612,,,,,,,,5.11328125,12.32421875,-9.9140625,-0.0078125,-1.6953125,-0.689453125,356.0111111111111,356.0,356.02222222222224
3956613,,,,,,,,-16.10546875,-22.6015625,5.390625,-0.0078125,-1.6953125,-0.689453125,356.0111111111111,356.0,356.02222222222224
3956614,,,,,,,,-16.10546875,-22.6015625,5.390625,-0.0078125,-1.6953125,-0.689453125,356.0111111111111,356.0,356.02222222222224
3956615,,,,,,,,-16.10546875,-22.6015625,5.390625,3.65234375,0.26171875,0.07421875,356.0111111111111,356.0,356.02222222222224
3956616,,,,,,,,-16.10546875,-22.6015625,5.390625,3.65234375,0.26171875,0.07421875,356.0111111111111,356.0,356.02222222222224
3956617,,,,,,,,-16.10546875,-22.6015625,5.390625,1.703125,-0.150390625,-0.1171875,356.0111111111111,356.0,356.02222222222224
3956618,,,,,,,,-16.10546875,-22.6015625,5.390625,1.703125,-0.150390625,-0.1171875,356.0111111111111,356.0,356.02222222222224
3956619,,,,,,,,-16.10546875,-22.6015625,5.390625,0.015625,-3.201171875,0.548828125,356.0111111111111,356.0,356.02222222222224
3956620,36.01343583333333,129.31942933333332,74.76306581594395,114.93559772720204,7.4,228.0,,-16.10546875,-22.6015625,5.390625,0.015625,-3.201171875,0.548828125,356.0111111111111,356.0,356.02222222222224
3956621,,,,,,,,-16.10546875,-22.6015625,5.390625,-2.599609375,0.564453125,-0.0390625,356.0111111111111,356.0,356.02222222222224
3956622,,,,,,,,-16.10546875,-22.6015625,5.390625,-2.599609375,0.564453125,-0.0390625,356.0111111111111,356.0,356.02222222222224
3956623,,,,,,,,-16.10546875,-22.6015625,5.390625,2.23828125,-4.943359375,0.828125,356.0111111111111,356.0,356.02222222222224
3956624,,,,,,,,-16.10546875,-22.6015625,5.390625,2.23828125,-4.943359375,0.828125,356.0111111111111,356.0,356.02222222222224
3956625,,,,,,,,-16.10546875,-22.6015625,5.390625,2.384765625,-5.166015625,1.861328125,356.0111111111111,356.0,356.02222222222224
3956626,,,,,,,,-16.10546875,-22.6015625,5.390625,2.384765625,-5.166015625,1.861328125,356.0111111111111,356.0,356.0111111111111
3956627,,,,,,,,-16.10546875,-22.6015625,5.390625,-3.4453125,-3.732421875,2.224609375,356.0111111111111,356.0,356.0111111111111
3956628,,,,,,,,1.25390625,-0.2265625,-14.33203125,-3.4453125,-3.732421875,2.224609375,356.0111111111111,356.0,356.0111111111111
3956629,,,,,,,,1.25390625,-0.2265625,-14.33203125,-3.4453125,-3.732421875,2.224609375,356.0111111111111,356.0,356.0111111111111
3956630,36.01342733333333,129.319416,73.56109516446155,113.99243395922684,7.5,231.0,,1.25390625,-0.2265625,-14.33203125,-3.04296875,-2.2578125,1.5703125,356.0111111111111,356.0,356.0111111111111
3956631,,,,,,,,1.25390625,-0.2265625,-14.33203125,-3.04296875,-2.2578125,1.5703125,356.0111111111111,356.0,356.0111111111111
3956632,,,,,,,,1.25390625,-0.2265625,-14.33203125,-2.146484375,-1.6171875,1.5546875,356.0111111111111,356.0,356.0111111111111
3956633,,,,,,,,1.25390625,-0.2265625,-14.33203125,-2.146484375,-1.6171875,1.5546875,356.0111111111111,356.0,356.0111111111111
3956634,,,,,,,,1.25390625,-0.2265625,-14.33203125,1.13671875,-3.296875,0.69921875,356.0111111111111,356.0,356.0111111111111
3956635,,,,,,,,1.25390625,-0.2265625,-14.33203125,1.13671875,-3.296875,0.69921875,356.0111111111111,356.0,356.0111111111111
3956636,,,,,,,,1.25390625,-0.2265625,-14.33203125,2.408203125,0.185546875,0.91015625,356.0111111111111,356.0,356.0111111111111
3956637,,,,,,,,1.25390625,-0.2265625,-14.33203125,2.408203125,0.185546875,0.91015625,356.0111111111111,356.0,356.0111111111111
3956638,,,,,,,,1.25390625,-0.2265625,-14.33203125,5.001953125,2.427734375,0.248046875,356.0111111111111,356.0,356.0111111111111
3956639,,,,,,,,1.25390625,-0.2265625,-14.33203125,5.001953125,2.427734375,0.248046875,356.0111111111111,356.0,356.0111111111111
3956640,36.0134235,129.31940983333334,73.00518356077909,113.56708553033323,7.300000000000001,231.0,,1.25390625,-0.2265625,-14.33203125,1.84765625,0.287109375,-0.03515625,356.0111111111111,356.0,356.0111111111111
3956641,,,,,,,,1.25390625,-0.2265625,-14.33203125,1.84765625,0.287109375,-0.03515625,356.0111111111111,356.0,356.0111111111111
3956642,,,,,,,,1.25390625,-0.2265625,-14.33203125,0.96875,1.14453125,-0.03125,356.0111111111111,356.0,356.0111111111111
3956643,,,,,,,,9.109375,32.5078125,-4.24609375,0.96875,1.14453125,-0.03125,356.0111111111111,356.0,356.0111111111111
3956644,,,,,,,,9.109375,32.5078125,-4.24609375,0.96875,1.14453125,-0.03125,356.0111111111111,356.0,356.0111111111111
3956645,,,,,,,,9.109375,32.5078125,-4.24609375,-3.224609375,-2.591796875,-2.376953125,356.0111111111111,356.0,356.0111111111111
3956646,,,,,,,,9.109375,32.5078125,-4.24609375,-3.224609375,-2.591796875,-2.376953125,356.0111111111111,356.0,356.0111111111111
3956647,,,,,,,,9.109375,32.5078125,-4.24609375,-0.427734375,2.34765625,0.97265625,356.0111111111111,356.0,356.0111111111111
3956648,,,,,,,,9.109375,32.5078125,-4.24609375,-0.427734375,2.34765625,0.97265625,356.0111111111111,356.0,356.0111111111111
3956649,,,,,,,,9.109375,32.5078125,-4.24609375,2.544921875,11.34375,-2.474609375,356.0111111111111,356.0,356.0111111111111
3956650,36.013419,129.31940333333333,72.41922304112722,113.06776405864687,7.4,230.0,,9.109375,32.5078125,-4.24609375,2.544921875,11.34375,-2.474609375,356.0111111111111,356.0,356.0111111111111
3956651,,,,,,,,9.109375,32.5078125,-4.24609375,-1.685546875,-0.16796875,-2.423828125,356.0111111111111,356.0,356.0111111111111
3956652,,,,,,,,9.109375,32.5078125,-4.24609375,-1.685546875,-0.16796875,-2.423828125,356.0111111111111,356.0,356.0111111111111
3956653,,,,,,,,9.109375,32.5078125,-4.24609375,-4.724609375,4.755859375,-2.15625,356.0111111111111,356.0,356.0111111111111
3956654,,,,,,,,9.109375,32.5078125,-4.24609375,-4.724609375,4.755859375,-2.15625,356.0111111111111,356.0,356.0111111111111
3956655,,,,,,,,9.109375,32.5078125,-4.24609375,-1.75390625,1.208984375,-1.521484375,356.0111111111111,356.0,356.0111111111111
3956656,,,,,,,,9.109375,32.5078125,-4.24609375,-1.75390625,1.208984375,-1.521484375,356.0111111111111,356.0,356.0111111111111
3956657,,,,,,,,9.109375,32.5078125,-4.24609375,0.646484375,1.54296875,-0.89453125,356.0111111111111,356.0,356.0111111111111
3956658,,,,,,,,-19.5,-6.33203125,-6.71484375,0.646484375,1.54296875,-0.89453125,356.0111111111111,356.0,356.0111111111111
3956659,,,,,,,,-19.5,-6.33203125,-6.71484375,0.646484375,1.54296875,-0.89453125,356.0111111111111,356.0,356.02222222222224
3956660,36.013415,129.319397,71.84828673977876,112.62392237293889,7.2,230.0,,-19.5,-6.33203125,-6.71484375,0.978515625,-4.0546875,0.55078125,356.0111111111111,356.0,356.02222222222224
3956661,,,,,,,,-19.5,-6.33203125,-6.71484375,0.978515625,-4.0546875,0.55078125,356.0111111111111,356.0,356.02222222222224
3956662,,,,,,,,-19.5,-6.33203125,-6.71484375,4.32421875,-1.640625,-0.041015625,356.0111111111111,356.0,356.02222222222224
3956663,,,,,,,,-19.5,-6.33203125,-6.71484375,4.32421875,-1.640625,-0.041015625,356.0111111111111,356.0,356.0111111111111
3956664,,,,,,,,-19.5,-6.33203125,-6.71484375,3.02734375,1.140625,-0.396484375,356.0111111111111,356.0,356.0111111111111
3956665,,,,,,,,-19.5,-6.33203125,-6.71484375,3.02734375,1.140625,-0.396484375,356.0111111111111,356.0,356.0111111111111
3956666,,,,,,,,-19.5,-6.33203125,-6.71484375,1.75390625,-2.623046875,0.771484375,356.0111111111111,356.0,356.0111111111111
3956667,,,,,,,,-19.5,-6.33203125,-6.71484375,1.75390625,-2.623046875,0.771484375,356.0111111111111,356.0,356.0111111111111
3956668,,,,,,,,-19.5,-6.33203125,-6.71484375,-1.89453125,-3.97265625,1.251953125,356.0111111111111,356.0,356.0111111111111
3956669,,,,,,,,-19.5,-6.33203125,-6.71484375,-1.89453125,-3.97265625,1.251953125,356.0111111111111,356.0,356.0111111111111
3956670,36.013410666666665,129.3193905,71.26232594161542,112.14309418631649,7.4,230.0,,-19.5,-6.33203125,-6.71484375,-2.205078125,-0.09375,0.333984375,356.0111111111111,356.0,356.0111111111111
3956671,,,,,,,,-19.5,-6.33203125,-6.71484375,-2.205078125,-0.09375,0.333984375,356.0111111111111,356.0,356.0111111111111
3956672,,,,,,,,-19.5,-6.33203125,-6.71484375,2.3828125,-4.951171875,1.302734375,356.0111111111111,356.0,356.0111111111111
3956673,,,,,,,,26.64453125,-57.6171875,15.7265625,2.3828125,-4.951171875,1.302734375,356.0111111111111,356.0,356.0111111111111
3956674,,,,,,,,26.64453125,-57.6171875,15.7265625,2.3828125,-4.951171875,1.302734375,356.0111111111111,356.0,356.0111111111111
3956675,,,,,,,,26.64453125,-57.6171875,15.7265625,0.080078125,-4.37109375,3.3515625,356.0111111111111,356.0,356.0111111111111
3956676,,,,,,,,26.64453125,-57.6171875,15.7265625,0.080078125,-4.37109375,3.3515625,356.0111111111111,356.0,356.0111111111111
3956677,,,,,,,,26.64453125,-57.6171875,15.7265625,-3.1796875,-2.392578125,2.4609375,356.0111111111111,356.0,356.0111111111111
3956678,,,,,,,,26.64453125,-57.6171875,15.7265625,-3.1796875,-2.392578125,2.4609375,356.0111111111111,356.0,356.0111111111111
3956679,,,,,,,,26.64453125,-57.6171875,15.7265625,-3.77734375,0.048828125,1.671875,356.0111111111111,356.0,356.0111111111111
3956680,36.013406833333335,129.31938366666665,70.64631515930259,111.7177454220564,7.5,232.0,,26.64453125,-57.6171875,15.7265625,-3.77734375,0.048828125,1.671875,356.0111111111111,356.0,356.0111111111111
3956681,,,,,,,,26.64453125,-57.6171875,15.7265625,-1.53125,-1.439453125,1.177734375,356.0111111111111,356.0,356.0111111111111
3956682,,,,,,,,26.64453125,-57.6171875,15.7265625,-1.53125,-1.439453125,1.177734375,356.0111111111111,356.0,356.0111111111111
3956683,,,,,,,,26.64453125,-57.6171875,15.7265625,0.68359375,-0.583984375,1.5625,356.0111111111111,356.0,356.0111111111111
3956684,,,,,,,,26.64453125,-57.6171875,15.7265625,0.68359375,-0.583984375,1.5625,356.0111111111111,356.0,356.0111111111111
3956685,,,,,,,,26.64453125,-57.6171875,15.7265625,1.830078125,0.96875,1.30859375,356.0111111111111,356.0,356.0111111111111
3956686,,,,,,,,26.64453125,-57.6171875,15.7265625,1.830078125,0.96875,1.30859375,356.0111111111111,356.0,356.0111111111111
3956687,,,,,,,,26.64453125,-57.6171875,15.7265625,4.20703125,2.037109375,0.25,356.0111111111111,356.0,356.0111111111111
3956688,,,,,,,,6.02734375,4.83203125,8.546875,4.20703125,2.037109375,0.25,356.0111111111111,356.0,356.0111111111111
3956689,,,,,,,,6.02734375,4.83203125,8.546875,4.20703125,2.037109375,0.25,356.0111111111111,356.0,356.0111111111111
3956690,36.013403000000004,129.3193775,70.09040327260115,111.29239718108923,7.2,232.0,,6.02734375,4.83203125,8.546875,0.140625,0.572265625,0.1875,356.0111111111111,356.0,356.0111111111111
3956691,,,,,,,,6.02734375,4.83203125,8.546875,0.140625,0.572265625,0.1875,356.0,356.0,356.0111111111111
3956692,,,,,,,,6.02734375,4.83203125,8.546875,-1.8984375,1.84375,-0.21875,356.0,356.0,356.0111111111111
3956693,,,,,,,,6.02734375,4.83203125,8.546875,-1.8984375,1.84375,-0.21875,356.0,356.0,356.0111111111111
3956694,,,,,,,,6.02734375,4.83203125,8.546875,-4.052734375,-4.716796875,-2.80859375,356.0,356.0,356.0111111111111
3956695,,,,,,,,6.02734375,4.83203125,8.546875,-4.052734375,-4.716796875,-2.80859375,356.0111111111111,356.0,356.0111111111111
3956696,,,,,,,,6.02734375,4.83203125,8.546875,3.349609375,6.208984375,-2.03125,356.0111111111111,356.0,356.0111111111111
3956697,,,,,,,,6.02734375,4.83203125,8.546875,3.349609375,6.208984375,-2.03125,356.0111111111111,356.0,356.0111111111111
3956698,,,,,,,,6.02734375,4.83203125,8.546875,0.13671875,6.767578125,-2.142578125,356.0111111111111,356.0,356.0111111111111
3956699,,,,,,,,6.02734375,4.83203125,8.546875,0.13671875,6.767578125,-2.142578125,356.0111111111111,356.0,356.0111111111111
3956700,36.0133945,129.31936566666667,69.02365427745849,110.34923511708644,7.1000000000000005,228.0,77.0,6.02734375,4.83203125,8.546875,-3.76171875,1.68359375,-2.3515625,356.0111111111111,356.0,356.0111111111111
3956701,,,,,,,,6.02734375,4.83203125,8.546875,-3.76171875,1.68359375,-2.3515625,356.0111111111111,356.0,356.0111111111111
3956702,,,,,,,,6.02734375,4.83203125,8.546875,-3.76171875,1.68359375,-2.3515625,356.0111111111111,356.0,356.0111111111111
3956703,,,,,,,,6.02734375,4.83203125,8.546875,0.517578125,-0.197265625,0.42578125,356.0111111111111,356.0,356.0111111111111
3956704,,,,,,,,6.02734375,4.83203125,8.546875,0.517578125,-0.197265625,0.42578125,356.0111111111111,356.0,356.0111111111111
3956705,,,,,,,,6.02734375,4.83203125,8.546875,-0.677734375,-3.12109375,0.666015625,356.0111111111111,356.0,356.0111111111111
3956706,,,,,,,,-7.77734375,14.46484375,-9.9140625,-0.677734375,-3.12109375,0.666015625,356.0111111111111,356.0,356.0111111111111
3956707,,,,,,,,-7.77734375,14.46484375,-9.9140625,-0.677734375,-3.12109375,0.666015625,356.0111111111111,356.0,356.0111111111111
3956708,,,,,,,,-7.77734375,14.46484375,-9.9140625,-5.396484375,3.98828125,-1.083984375,356.0111111111111,356.0,356.0111111111111
3956709,,,,,,,,-7.77734375,14.46484375,-9.9140625,-5.396484375,3.98828125,-1.083984375,356.0111111111111,356.0,356.0111111111111
3956710,36.0133945,129.31936566666667,69.02365427745849,110.34923511708644,7.1000000000000005,228.0,,-7.77734375,14.46484375,-9.9140625,5.03515625,-7.361328125,2.8203125,356.0111111111111,356.0,356.0111111111111
3956711,,,,,,,,-7.77734375,14.46484375,-9.9140625,5.03515625,-7.361328125,2.8203125,356.0111111111111,356.0,356.0111111111111
3956712,,,,,,,,-7.77734375,14.46484375,-9.9140625,1.431640625,-2.5625,2.59765625,356.0111111111111,356.0,356.0111111111111
3956713,,,,,,,,-7.77734375,14.46484375,-9.9140625,1.431640625,-2.5625,2.59765625,356.0111111111111,356.0,356.0111111111111
3956714,,,,,,,,-7.77734375,14.46484375,-9.9140625,-2.87109375,-2.345703125,2.0390625,356.0111111111111,356.0,356.0111111111111
3956715,,,,,,,,-7.77734375,14.46484375,-9.9140625,-2.87109375,-2.345703125,2.0390625,356.0111111111111,356.0,356.0111111111111
3956716,,,,,,,,-7.77734375,14.46484375,-9.9140625,-4.4375,-1.51953125,0.75390625,356.0111111111111,356.0,356.0111111111111
3956717,,,,,,,,-7.77734375,14.46484375,-9.9140625,-4.4375,-1.51953125,0.75390625,356.0111111111111,356.0,356.0111111111111
3956718,,,,,,,,-7.77734375,14.46484375,-9.9140625,-3.619140625,0.470703125,0.5703125,356.0111111111111,356.0,356.0111111111111
3956719,,,,,,,,-7.77734375,14.46484375,-9.9140625,-3.619140625,0.470703125,0.5703125,356.0111111111111,356.0,356.0111111111111
3956720,36.013383,129.31934816666666,67.44606640158729,109.07319150114948,6.800000000000001,231.0,,-7.77734375,14.46484375,-9.9140625,1.40625,0.048828125,0.931640625,356.0111111111111,356.0,356.0111111111111
3956721,,,,,,,,8.29296875,-7.18359375,1.109375,1.40625,0.048828125,0.931640625,356.0111111111111,356.0,356.0111111111111
3956722,,,,,,,,8.29296875,-7.18359375,1.109375,1.40625,0.048828125,0.931640625,356.0111111111111,356.0,356.0111111111111
3956723,,,,,,,,8.29296875,-7.18359375,1.109375,4.396484375,0.04296875,0.095703125,356.0111111111111,356.0,356.0111111111111
3956724,,,,,,,,8.29296875,-7.18359375,1.109375,4.396484375,0.04296875,0.095703125,356.0111111111111,356.0,356.0111111111111
3956725,,,,,,,,8.29296875,-7.18359375,1.109375,1.91015625,-1.5625,0.333984375,356.0111111111111,356.0,356.0111111111111
3956726,,,,,,,,8.29296875,-7.18359375,1.109375,1.91015625,-1.5625,0.333984375,356.0111111111111,356.0,356.0111111111111
3956727,,,,,,,,8.29296875,-7.18359375,1.109375,1.06640625,0.109375,0.029296875,356.0111111111111,356.0,356.0111111111111
3956728,,,,,,,,8.29296875,-7.18359375,1.109375,1.06640625,0.109375,0.029296875,356.0111111111111,356.0,356.0111111111111
3956729,,,,,,,,8.29296875,-7.18359375,1.109375,-2.111328125,1.97265625,-0.166015625,356.0111111111111,356.0,356.0111111111111
3956730,36.01337916666667,129.31934266666667,66.95025316186737,108.64784392138009,6.7,231.0,,8.29296875,-7.18359375,1.109375,-2.111328125,1.97265625,-0.166015625,356.0111111111111,356.0,356.0111111111111
3956731,,,,,,,,8.29296875,-7.18359375,1.109375,-0.921875,2.513671875,-0.951171875,356.0111111111111,356.0,356.0111111111111
3956732,,,,,,,,8.29296875,-7.18359375,1.109375,-0.921875,2.513671875,-0.951171875,356.0111111111111,356.0,356.0111111111111
3956733,,,,,,,,8.29296875,-7.18359375,1.109375,0.58984375,-4.615234375,-2.578125,356.0111111111111,356.0,356.0111111111111
3956734,,,,,,,,8.29296875,-7.18359375,1.109375,0.58984375,-4.615234375,-2.578125,356.0111111111111,356.0,356.0111111111111
3956735,,,,,,,,8.29296875,-7.18359375,1.109375,1.1015625,6.69921875,-2.671875,356.0111111111111,356.0,356.0111111111111
3956736,,,,,,,,3.84765625,-26.1796875,-10.90234375,1.1015625,6.69921875,-2.671875,356.0111111111111,356.0,356.0111111111111
3956737,,,,,,,,3.84765625,-26.1796875,-10.90234375,1.1015625,6.69921875,-2.671875,356.0111111111111,356.0,356.0111111111111
3956738,,,,,,,,3.84765625,-26.1796875,-10.90234375,-0.822265625,3.634765625,-2.751953125,356.0111111111111,356.0,356.0111111111111
3956739,,,,,,,,3.84765625,-26.1796875,-10.90234375,-0.822265625,3.634765625,-2.751953125,356.0111111111111,356.0,356.0111111111111
3956740,36.01337516666667,129.31933766666668,66.49951424314207,108.20400350383878,6.5,228.0,,3.84765625,-26.1796875,-10.90234375,-2.716796875,0.20703125,-2.578125,356.0111111111111,356.0,356.0111111111111
3956741,,,,,,,,3.84765625,-26.1796875,-10.90234375,-2.716796875,0.20703125,-2.578125,356.0111111111111,356.0,356.0111111111111
3956742,,,,,,,,3.84765625,-26.1796875,-10.90234375,-4.26953125,3.890625,-0.439453125,356.0111111111111,356.0,356.0111111111111
3956743,,,,,,,,3.84765625,-26.1796875,-10.90234375,-4.26953125,3.890625,-0.439453125,356.0111111111111,356.0,356.0111111111111
3956744,,,,,,,,3.84765625,-26.1796875,-10.90234375,-2.26171875,0.591796875,0.63671875,356.0111111111111,356.0,356.0111111111111
3956745,,,,,,,,3.84765625,-26.1796875,-10.90234375,-2.26171875,0.591796875,0.63671875,356.0111111111111,356.0,356.0111111111111
3956746,,,,,,,,3.84765625,-26.1796875,-10.90234375,2.294921875,-0.1328125,-0.943359375,356.0111111111111,356.0,356.0111111111111
3956747,,,,,,,,3.84765625,-26.1796875,-10.90234375,2.294921875,-0.1328125,-0.943359375,356.0111111111111,356.0,356.0111111111111
3956748,,,,,,,,3.84765625,-26.1796875,-10.90234375,6.822265625,-5.671875,0.794921875,356.0111111111111,356.0,356.0111111111111
3956749,,,,,,,,3.84765625,-26.1796875,-10.90234375,6.822265625,-5.671875,0.794921875,356.0111111111111,356.0,356.0111111111111
3956750,36.013371,129.31933233333334,66.01872592812668,107.74166967480174,6.7,228.0,,3.84765625,-26.1796875,-10.90234375,1.71484375,-0.181640625,-0.578125,356.0111111111111,356.0,356.0111111111111
3956751,,,,,,,,-0.59375,24.61328125,-6.1484375,1.71484375,-0.181640625,-0.578125,356.0111111111111,356.0,356.0111111111111
3956752,,,,,,,,-0.59375,24.61328125,-6.1484375,1.71484375,-0.181640625,-0.578125,356.0111111111111,356.0,356.0111111111111
3956753,,,,,,,,-0.59375,24.61328125,-6.1484375,-0.83984375,-2.404296875,0.576171875,356.0111111111111,356.0,356.0111111111111
3956754,,,,,,,,-0.59375,24.61328125,-6.1484375,-0.83984375,-2.404296875,0.576171875,356.0111111111111,356.0,356.0111111111111
3956755,,,,,,,,-0.59375,24.61328125,-6.1484375,-1.244140625,-3.826171875,1.244140625,356.0111111111111,356.0,356.0111111111111
3956756,,,,,,,,-0.59375,24.61328125,-6.1484375,-1.244140625,-3.826171875,1.244140625,356.0111111111111,356.0,356.0111111111111
3956757,,,,,,,,-0.59375,24.61328125,-6.1484375,-4.142578125,2.8203125,0.140625,356.0111111111111,356.0,356.0111111111111
3956758,,,,,,,,-0.59375,24.61328125,-6.1484375,-4.142578125,2.8203125,0.140625,356.0111111111111,356.0,356.0111111111111
3956759,,,,,,,,-0.59375,24.61328125,-6.1484375,5.85546875,-7.53515625,2.150390625,356.0111111111111,356.0,356.0111111111111
3956760,36.01336633333334,129.31932616666666,65.46281425277594,107.2238556887921,7.1000000000000005,227.0,,-0.59375,24.61328125,-6.1484375,5.85546875,-7.53515625,2.150390625,356.0111111111111,356.0,356.0111111111111
3956761,,,,,,,,-0.59375,24.61328125,-6.1484375,1.037109375,-2.9296875,2.353515625,356.0111111111111,356.0,356.0111111111111
3956762,,,,,,,,-0.59375,24.61328125,-6.1484375,1.037109375,-2.9296875,2.353515625,356.0111111111111,356.0,356.0111111111111
3956763,,,,,,,,-0.59375,24.61328125,-6.1484375,-3.03515625,-2.55859375,2.1171875,356.0111111111111,356.0,356.0111111111111
3956764,,,,,,,,-0.59375,24.61328125,-6.1484375,-3.03515625,-2.55859375,2.1171875,356.0111111111111,356.0,356.0111111111111
3956765,,,,,,,,-0.59375,24.61328125,-6.1484375,-2.98828125,-1.736328125,0.72265625,356.0111111111111,356.0,356.0111111111111
3956766,,,,,,,,0.93359375,13.484375,-5.87109375,-2.98828125,-1.736328125,0.72265625,356.0111111111111,356.0,356.0111111111111
3956767,,,,,,,,0.93359375,13.484375,-5.87109375,-2.98828125,-1.736328125,0.72265625,356.0111111111111,356.0,356.0111111111111
3956768,,,,,,,,0.93359375,13.484375,-5.87109375,-5.439453125,-2.98828125,0.392578125,356.0111111111111,356.0,356.0111111111111
3956769,,,,,,,,0.93359375,13.484375,-5.87109375,-5.439453125,-2.98828125,0.392578125,356.0111111111111,356.0,356.0111111111111
3956770,36.013362666666666,129.31931966666667,64.87685220124759,106.81700076453393,6.9,229.0,,0.93359375,13.484375,-5.87109375,-2.64453125,5.212890625,-1.013671875,356.0111111111111,356.0,356.0111111111111
3956771,,,,,,,,0.93359375,13.484375,-5.87109375,-2.64453125,5.212890625,-1.013671875,356.0111111111111,355.9888888888889,356.0111111111111
3956772,,,,,,,,0.93359375,13.484375,-5.87109375,1.529296875,3.216796875,0.701171875,356.0111111111111,355.9888888888889,356.0111111111111
3956773,,,,,,,,0.93359375,13.484375,-5.87109375,1.529296875,3.216796875,0.701171875,356.0111111111111,355.9888888888889,356.0111111111111
3956774,,,,,,,,0.93359375,13.484375,-5.87109375,4.529296875,0.982421875,0.275390625,356.0111111111111,355.9888888888889,356.0111111111111
3956775,,,,,,,,0.93359375,13.484375,-5.87109375,4.529296875,0.982421875,0.275390625,356.0111111111111,356.0,356.0111111111111
3956776,,,,,,,,0.93359375,13.484375,-5.87109375,2.455078125,3.125,0.216796875,356.0111111111111,356.0,356.0111111111111
3956777,,,,,,,,0.93359375,13.484375,-5.87109375,2.455078125,3.125,0.216796875,356.0111111111111,356.0,356.0111111111111
3956778,,,,,,,,0.93359375,13.484375,-5.87109375,-1.119140625,0.12890625,0.30859375,356.0111111111111,356.0,356.0111111111111
3956779,,,,,,,,0.93359375,13.484375,-5.87109375,-1.119140625,0.12890625,0.30859375,356.0111111111111,356.0,356.0111111111111
3956780,36.013359,129.31931383333333,64.35098907694058,106.4101463190639,6.9,231.0,,0.93359375,13.484375,-5.87109375,-2.564453125,-1.318359375,0.697265625,356.0111111111111,356.0,356.0111111111111
3956781,,,,,,,,3.8671875,11.56640625,0.96484375,-2.564453125,-1.318359375,0.697265625,356.0111111111111,356.0,356.0111111111111
3956782,,,,,,,,3.8671875,11.56640625,0.96484375,-2.564453125,-1.318359375,0.697265625,356.0111111111111,356.0,356.0111111111111
3956783,,,,,,,,3.8671875,11.56640625,0.96484375,-0.935546875,-1.818359375,0.4375,356.0111111111111,356.0,356.0111111111111
3956784,,,,,,,,3.8671875,11.56640625,0.96484375,-0.935546875,-1.818359375,0.4375,356.0111111111111,356.0,356.0111111111111
3956785,,,,,,,,3.8671875,11.56640625,0.96484375,4.0625,7.802734375,-2.625,356.0111111111111,356.0,356.0111111111111
3956786,,,,,,,,3.8671875,11.56640625,0.96484375,4.0625,7.802734375,-2.625,356.0111111111111,356.0,356.0111111111111
3956787,,,,,,,,3.8671875,11.56640625,0.96484375,-0.390625,3.70703125,-0.78125,356.0111111111111,356.0,356.0111111111111
3956788,,,,,,,,3.8671875,11.56640625,0.96484375,-0.390625,3.70703125,-0.78125,356.0111111111111,356.0,356.0111111111111
3956789,,,,,,,,3.8671875,11.56640625,0.96484375,-2.1640625,1.599609375,-1.06640625,356.0111111111111,356.0,356.0111111111111
3956790,36.01335466666667,129.31930833333334,63.85517594099072,105.92931929179309,6.7,228.0,,3.8671875,11.56640625,0.96484375,-2.1640625,1.599609375,-1.06640625,356.0111111111111,356.0,356.0111111111111
3956791,,,,,,,,3.8671875,11.56640625,0.96484375,-2.302734375,4.123046875,-1.38671875,356.0111111111111,356.0,356.0111111111111
3956792,,,,,,,,3.8671875,11.56640625,0.96484375,-2.302734375,4.123046875,-1.38671875,356.0111111111111,356.0,356.0111111111111
3956793,,,,,,,,3.8671875,11.56640625,0.96484375,-4.103515625,2.84375,1.0625,356.0111111111111,356.0,356.0111111111111
3956794,,,,,,,,3.8671875,11.56640625,0.96484375,-4.103515625,2.84375,1.0625,356.0111111111111,356.0,356.0111111111111
3956795,,,,,,,,3.8671875,11.56640625,0.96484375,-1.689453125,-7.423828125,2.9296875,356.0111111111111,356.0,356.0111111111111
3956796,,,,,,,,-19.01171875,-27.5703125,-11.25,-1.689453125,-7.423828125,2.9296875,356.0111111111111,356.0,356.0111111111111
3956797,,,,,,,,-19.01171875,-27.5703125,-11.25,-1.689453125,-7.423828125,2.9296875,356.0111111111111,355.9888888888889,356.0111111111111
3956798,,,,,,,,-19.01171875,-27.5703125,-11.25,4.859375,-8.841796875,1.34375,356.0111111111111,355.9888888888889,356.0111111111111
3956799,,,,,,,,-19.01171875,-27.5703125,-11.25,4.859375,-8.841796875,1.34375,356.0111111111111,356.0,356.0111111111111
