time,latitude,longitude,enu_x,enu_y,speed,course,ecg,accX,accY,accZ,gyrX,gyrY,gyrZ,eulR,eulP,eulY
4148000,36.0125205,129.31934516666666,67.17635287350092,13.370844258443235,1.2000000000000002,55.0,0.0,7.4140625,-11.92578125,2.5078125,0.24609375,0.712890625,-0.587890625,-0.03515625,-10.2578125,0.65625
4148001,,,,,,,,7.0625,-11.6328125,2.984375,0.25390625,0.71484375,-0.509765625,4.296875,-12.91015625,4.796875
4148002,,,,,,,,5.75,-11.1484375,3.0,0.2578125,0.728515625,-0.4453125,2.9921875,-12.484375,4.796875
4148003,,,,,,,,4.28515625,-11.125,2.35546875,0.314453125,0.40625,-0.32421875,1.30859375,-12.6328125,4.02734375
4148004,,,,,,,,3.88671875,-11.375,2.0546875,0.322265625,0.142578125,-0.19140625,1.34375,-12.7109375,3.68359375
4148005,,,,,,,,4.1796875,-11.015625,1.8203125,0.314453125,-0.068359375,-0.14453125,1.61328125,-12.3671875,3.4921875
4148006,,,,,,,,4.31640625,-10.83203125,1.703125,0.2890625,-0.123046875,-0.166015625,1.765625,-11.83203125,3.109375
4148007,,,,,,,,4.40234375,-9.99609375,1.02734375,0.169921875,-0.13671875,-0.232421875,1.73046875,-11.26171875,2.53515625
4148008,,,,,,,,4.37890625,-9.48046875,0.5625,0.0703125,-0.130859375,-0.244140625,1.69140625,-11.02734375,2.265625
4148009,,,,,,,,4.3984375,-9.265625,0.31640625,-0.03125,-0.130859375,-0.21875,1.8046875,-10.99609375,2.03515625
4148010,36.01252133333333,129.3193465,67.29655140934598,13.463311205511484,1.3,59.0,,4.24609375,-8.94140625,-0.07421875,-0.169921875,-0.056640625,-0.1875,1.65234375,-10.7578125,1.76953125
4148011,,,,,,,,4.0703125,-8.53515625,-0.11328125,-0.248046875,0.009765625,-0.20703125,1.5,-10.41796875,1.73046875
4148012,,,,,,,,3.8984375,-8.08984375,-0.265625,-0.28515625,0.033203125,-0.212890625,1.23046875,-9.7265625,1.4609375
4148013,,,,,,,,3.69140625,-7.26171875,-0.57421875,-0.326171875,0.0625,-0.212890625,1.15234375,-9.23046875,1.26953125
4148014,,,,,,,,3.4765625,-6.5078125,-0.796875,-0.349609375,0.03515625,-0.18359375,0.9609375,-8.54296875,1.0390625
4148015,,,,,,,,3.30078125,-5.9765625,-0.90234375,-0.359375,-0.029296875,-0.16015625,0.80859375,-8.08203125,0.92578125
4148016,,,,,,,,3.125,-5.5,-1.015625,-0.369140625,-0.068359375,-0.158203125,0.65625,-7.66015625,0.8125
4148017,,,,,,,,3.0625,-5.0546875,-1.1640625,-0.3828125,-0.115234375,-0.146484375,0.6171875,-7.2734375,0.65625
4148018,,,,,,,,3.26953125,-4.53515625,-1.27734375,-0.3984375,-0.154296875,-0.1328125,0.84765625,-6.81640625,0.54296875
4148019,,,,,,,,3.3671875,-4.08203125,-1.28515625,-0.416015625,-0.166015625,-0.126953125,0.9609375,-6.39453125,0.54296875
4148020,36.01252183333334,129.319347,67.34162569933703,13.518791167843432,1.2000000000000002,57.0,,3.64453125,-3.61328125,-1.30859375,-0.169921875,-0.056640625,-0.1875,1.26953125,-6.0078125,0.50390625
4148021,,,,,,,,3.87890625,-3.328125,-1.18359375,-0.4375,-0.236328125,-0.087890625,1.53515625,-5.78125,0.62109375
4148022,,,,,,,,4.125,-3.1953125,-1.33984375,-0.42578125,-0.236328125,-0.091796875,1.8046875,-5.70703125,0.46484375
4148023,,,,,,,,4.1484375,-3.2890625,-1.40625,-0.41796875,-0.255859375,-0.09375,1.84375,-5.86328125,0.390625
4148024,,,,,,,,4.1171875,-3.38671875,-1.484375,-0.384765625,-0.24609375,-0.126953125,1.84375,-6.0078125,0.3125
4148025,,,,,,,,3.81640625,-3.5625,-1.515625,-0.35546875,-0.267578125,-0.1484375,1.57421875,-6.2421875,0.2734375
4148026,,,,,,,,3.71875,-3.54296875,-1.4375,-0.326171875,-0.2734375,-0.123046875,1.5,-6.27734375,0.3515625
4148027,,,,,,,,3.41796875,-3.65234375,-1.20703125,-0.28515625,-0.26171875,-0.076171875,1.23046875,-6.4296875,0.58203125
4148028,,,,,,,,3.2421875,-3.87109375,-0.93359375,-0.2421875,-0.224609375,-0.00390625,1.078125,-6.6953125,0.84765625
4148029,,,,,,,,3.1796875,-4.19921875,-0.89453125,-0.20703125,-0.1953125,0.068359375,1.0390625,-7.08203125,0.88671875
4148030,36.01252233333333,129.31934816666666,67.44679961111687,13.574271590474876,1.3,56.0,,3.203125,-4.421875,-0.88671875,-0.18359375,-0.171875,0.134765625,1.078125,-7.3515625,0.88671875
4148031,,,,,,,,3.21875,-4.8828125,-1.078125,-0.16015625,-0.1640625,0.169921875,1.1171875,-7.8515625,0.6953125
4148032,,,,,,,,3.2109375,-5.2265625,-1.14453125,-0.1484375,-0.171875,0.185546875,1.1171875,-8.234375,0.62109375
4148033,,,,,,,,3.1484375,-5.7890625,-1.0703125,-0.12890625,-0.18359375,0.19140625,1.078125,-8.84375,0.6953125
4148034,,,,,,,,3.20703125,-6.1796875,-0.87890625,-0.11328125,-0.1875,0.18359375,1.15234375,-9.26953125,0.88671875
4148035,,,,,,,,3.1640625,-6.78515625,-0.640625,-0.08984375,-0.166015625,0.169921875,1.1171875,-9.9140625,1.1171875
4148036,,,,,,,,3.078125,-7.078125,-0.5234375,-0.087890625,-0.154296875,0.16796875,1.0390625,-10.23046875,1.234375
4148037,,,,,,,,2.984375,-7.265625,-0.41015625,-0.06640625,-0.11328125,0.17578125,0.9609375,-10.45703125,1.34765625
4148038,,,,,,,,3.0,-7.3046875,-0.171875,-0.05078125,-0.076171875,0.181640625,1.0,-10.53125,1.578125
4148039,,,,,,,,3.0390625,-7.34375,-0.25,-0.02734375,-0.0546875,0.216796875,1.0390625,-10.609375,1.5
4148040,36.012523,129.31934883333332,67.5068986642987,13.648244873602358,1.1,54.0,,3.0234375,-7.37890625,-0.5078125,-0.18359375,-0.171875,0.134765625,1.078125,-7.3515625,0.88671875
4148041,,,,,,,,2.9296875,-7.578125,-0.9375,-0.00390625,-0.056640625,0.181640625,0.9609375,-10.91796875,0.8125
4148042,,,,,,,,2.89453125,-7.66796875,-1.046875,-0.001953125,-0.06640625,0.158203125,0.92578125,-11.0234375,0.6953125
4148043,,,,,,,,2.9453125,-7.921875,-1.0078125,0.0078125,-0.10546875,0.080078125,1.0,-11.3359375,0.734375
4148044,,,,,,,,2.96875,-8.03515625,-0.89453125,0.009765625,-0.08203125,0.0390625,1.0390625,-11.484375,0.84765625
4148045,,,,,,,,2.984375,-7.8046875,-0.90234375,0.01171875,-0.013671875,0.005859375,1.078125,-11.296875,0.84765625
4148046,,,,,,,,3.0234375,-7.58203125,-0.9296875,0.009765625,0.033203125,-0.009765625,1.1171875,-11.10546875,0.8125
4148047,,,,,,,,3.21875,-6.72265625,-1.0390625,0.009765625,0.138671875,-0.041015625,1.34375,-10.296875,0.6953125
4148048,,,,,,,,3.40234375,-6.5625,-1.10546875,0.0078125,0.18359375,-0.0546875,1.53515625,-10.1875,0.62109375
4148049,,,,,,,,3.734375,-6.69921875,-1.18359375,0.013671875,0.189453125,-0.06640625,1.8828125,-10.33984375,0.54296875
4148050,36.012524,129.31934966666668,67.58202233928813,13.759204684731131,1.2000000000000002,48.0,,4.0234375,-7.2734375,-1.2890625,-0.18359375,-0.171875,0.134765625,1.078125,-7.3515625,0.88671875
4148051,,,,,,,,3.84765625,-8.10546875,-1.359375,0.033203125,0.25,-0.107421875,2.03515625,-11.828125,0.3515625
4148052,,,,,,,,3.03515625,-8.52734375,-1.28125,0.021484375,0.337890625,-0.12890625,1.23046875,-12.2890625,0.4296875
4148053,,,,,,,,2.21484375,-6.71875,-0.00390625,0.0234375,0.486328125,-0.10546875,0.42578125,-10.53515625,1.69140625
4148054,,,,,,,,1.90234375,-6.2578125,1.390625,0.025390625,0.673828125,-0.04296875,0.12109375,-10.11328125,3.0703125
4148055,,,,,,,,0.66796875,-8.1875,2.671875,0.09375,0.73046875,0.123046875,-1.10546875,-12.10546875,4.3359375
4148056,,,,,,,,0.98046875,-8.65625,3.25390625,0.130859375,0.505859375,0.39453125,-0.80078125,-12.6015625,4.91015625
4148057,,,,,,,,1.74609375,-8.44140625,3.18359375,0.107421875,0.345703125,0.580078125,-0.03515625,-12.40625,4.83203125
4148058,,,,,,,,2.4609375,-8.0078125,2.53515625,0.037109375,0.400390625,0.4375,0.65625,-12.0234375,4.18359375
4148059,,,,,,,,2.46875,-7.7109375,2.54296875,0.05859375,0.2734375,0.208984375,0.65625,-11.76171875,4.18359375
4148060,36.012524666666664,129.31935033333332,67.64212138582076,13.83317796924555,1.2000000000000002,46.0,,2.26171875,-7.47265625,2.41796875,-0.18359375,-0.171875,0.134765625,0.46484375,-11.56640625,4.06640625
4148061,,,,,,,,2.21484375,-7.40234375,2.1953125,0.06640625,-0.107421875,0.255859375,0.42578125,-11.5234375,3.8359375
4148062,,,,,,,,2.17578125,-7.71484375,1.76953125,0.068359375,-0.06640625,0.375,0.38671875,-11.8671875,3.41796875
4148063,,,,,,,,2.0625,-7.890625,1.64453125,0.072265625,-0.052734375,0.41015625,0.2734375,-12.06640625,3.30078125
4148064,,,,,,,,1.83203125,-7.76953125,1.4140625,0.091796875,0.009765625,0.314453125,0.04296875,-11.984375,3.0703125
4148065,,,,,,,,1.9375,-6.97265625,1.1015625,0.125,0.037109375,0.2578125,0.15625,-11.22265625,2.765625
4148066,,,,,,,,2.09375,-6.35546875,0.6796875,0.16796875,0.111328125,0.259765625,0.46484375,-10.109375,1.921875
4148067,,,,,,,,2.33203125,-5.55859375,0.08984375,0.1875,0.099609375,0.28515625,0.6171875,-9.6484375,1.6171875
4148068,,,,,,,,2.4375,-5.0859375,-0.21875,0.19140625,0.078125,0.283203125,0.65625,-9.421875,1.4609375
4148069,,,,,,,,2.58984375,-4.44140625,-0.453125,0.19140625,0.04296875,0.275390625,0.80859375,-8.8046875,1.234375
4148070,36.0125255,129.319351,67.70222029546126,13.925644459990945,1.1,45.0,,2.62890625,-3.94921875,-0.578125,0.181640625,0.041015625,0.28125,0.46484375,-11.56640625,4.06640625
4148071,,,,,,,,2.66796875,-3.234375,-0.81640625,0.185546875,0.037109375,0.302734375,0.88671875,-7.65625,0.88671875
4148072,,,,,,,,2.55859375,-2.69921875,-1.015625,0.20703125,0.025390625,0.3046875,0.76953125,-7.16015625,0.6953125
4148073,,,,,,,,2.4453125,-2.4375,-1.09765625,0.23046875,0.01171875,0.291015625,0.65625,-6.93359375,0.62109375
4148074,,,,,,,,2.17578125,-1.9921875,-1.19140625,0.25390625,-0.017578125,0.2734375,0.38671875,-6.51171875,0.54296875
4148075,,,,,,,,1.9765625,-1.72265625,-1.328125,0.28515625,-0.03515625,0.251953125,0.1953125,-6.27734375,0.4296875
4148076,,,,,,,,1.6328125,-1.5,-1.421875,0.302734375,-0.078125,0.23046875,-0.1484375,-6.08984375,0.3515625
4148077,,,,,,,,1.48046875,-1.5546875,-1.55078125,0.318359375,-0.125,0.224609375,-0.30078125,-6.16796875,0.23828125
4148078,,,,,,,,1.2421875,-1.4453125,-1.5390625,0.322265625,-0.169921875,0.220703125,-0.53125,-6.0859375,0.2734375
4148079,,,,,,,,1.12890625,-1.4296875,-1.515625,0.318359375,-0.1875,0.23046875,-0.64453125,-6.08984375,0.3125
4148080,36.012526333333334,129.31935166666665,67.76231919710766,14.018110950670291,1.2000000000000002,43.0,,1.04296875,-1.515625,-1.60546875,0.2890625,-0.201171875,0.208984375,-0.72265625,-6.203125,0.23828125
4148081,,,,,,,,1.11328125,-1.72265625,-1.73828125,0.240234375,-0.173828125,0.22265625,-0.64453125,-6.4296875,0.12109375
4148082,,,,,,,,1.11328125,-1.890625,-1.70703125,0.18359375,-0.150390625,0.224609375,-0.64453125,-6.62890625,0.16015625
4148083,,,,,,,,0.98828125,-2.1640625,-1.4921875,0.140625,-0.150390625,0.208984375,-0.76171875,-6.9296875,0.390625
4148084,,,,,,,,1.05859375,-2.39453125,-1.39453125,0.08203125,-0.115234375,0.166015625,-0.68359375,-7.19921875,0.50390625
4148085,,,,,,,,1.171875,-2.63671875,-1.31640625,0.041015625,-0.08984375,0.1328125,-0.5703125,-7.46484375,0.58203125
4148086,,,,,,,,1.35546875,-2.921875,-1.39453125,0.025390625,-0.07421875,0.11328125,-0.37890625,-7.77734375,0.50390625
4148087,,,,,,,,1.46484375,-3.3203125,-1.46875,-0.01171875,-0.076171875,0.0625,-0.26171875,-8.1953125,0.4296875
4148088,,,,,,,,1.5703125,-3.75390625,-1.35546875,-0.021484375,-0.087890625,0.00390625,-0.1484375,-8.6484375,0.54296875
4148089,,,,,,,,1.6328125,-4.25390625,-0.98046875,-0.02734375,-0.103515625,-0.060546875,-0.0703125,-9.19140625,0.92578125
4148090,36.01252683333333,129.31935216666668,67.80739348392501,14.073590914679553,1.1,45.0,,1.578125,-4.453125,-0.7890625,-0.02734375,-0.1015625,-0.11328125,-0.72265625,-6.203125,0.23828125
4148091,,,,,,,,1.5546875,-4.56640625,-0.828125,-0.025390625,-0.08203125,-0.1484375,-0.109375,-9.5703125,1.078125
4148092,,,,,,,,1.61328125,-4.609375,-1.1328125,-0.015625,-0.064453125,-0.171875,-0.03515625,-9.6484375,0.7734375
4148093,,,,,,,,1.7890625,-4.625,-1.28515625,-0.001953125,-0.05078125,-0.1875,0.15625,-9.6875,0.62109375
4148094,,,,,,,,2.10546875,-4.77734375,-1.36328125,0.017578125,-0.046875,-0.203125,0.50390625,-9.875,0.54296875
4148095,,,,,,,,2.3125,-5.0078125,-1.46875,0.04296875,-0.03515625,-0.236328125,0.734375,-10.1484375,0.4296875
4148096,,,,,,,,2.53125,-5.34375,-1.5546875,0.0546875,-0.01953125,-0.25,0.9609375,-10.49609375,0.3515625
4148097,,,,,,,,2.81640625,-5.7734375,-1.5546875,0.072265625,0.025390625,-0.259765625,1.26953125,-10.95703125,0.3515625
4148098,,,,,,,,3.13671875,-5.6953125,-1.44921875,0.080078125,0.087890625,-0.248046875,1.61328125,-10.91796875,0.46484375
4148099,,,,,,,,3.265625,-5.359375,-1.515625,0.08984375,0.162109375,-0.212890625,1.765625,-10.61328125,0.390625
4148100,36.012527666666664,129.31935316666667,67.89754219579673,14.166057638296778,1.1,49.0,0.0,2.90625,-4.4765625,-1.75390625,0.083984375,0.275390625,-0.1015625,1.421875,-9.765625,0.16015625
4148101,,,,,,,,1.7734375,-3.91015625,-1.5546875,0.08203125,0.341796875,-0.03515625,0.3125,-9.23046875,0.3515625
4148102,,,,,,,,1.28125,-4.4140625,-1.36328125,0.09375,0.359375,0.06640625,-0.37890625,-10.33984375,0.54296875
4148103,,,,,,,,1.08203125,-4.98046875,-1.35546875,0.103515625,0.35546875,0.119140625,-0.26171875,-11.48828125,0.4296875
4148104,,,,,,,,1.3984375,-6.50390625,-1.35546875,0.103515625,0.431640625,0.205078125,0.76953125,-12.21484375,1.26953125
4148105,,,,,,,,2.8203125,-6.75,-0.0078125,0.08203125,0.564453125,0.142578125,2.07421875,-12.33203125,2.57421875
4148106,,,,,,,,4.015625,-7.22265625,1.02734375,0.025390625,0.76953125,-0.03515625,3.18359375,-14.2421875,3.109375
4148107,,,,,,,,4.9375,-9.61328125,1.2265625,-0.017578125,0.9453125,-0.2421875,3.68359375,-15.78125,3.30078125
4148108,,,,,,,,5.16796875,-10.28125,1.42578125,-0.021484375,0.966796875,-0.310546875,4.2578125,-16.0078125,3.9921875
4148109,,,,,,,,5.92578125,-10.1328125,2.29296875,-0.0390625,0.884765625,-0.326171875,4.5625,-15.1640625,4.18359375
4148110,36.01252833333333,129.3193545,68.01774085639158,14.240031389286038,1.3,54.0,,5.41015625,-8.4453125,2.22265625,-0.052734375,0.869140625,-0.255859375,3.94921875,-14.015625,4.06640625
4148111,,,,,,,,3.6015625,-8.1875,2.390625,-0.03515625,0.822265625,-0.28125,2.1484375,-13.79296875,4.21875
4148112,,,,,,,,2.19921875,-8.1484375,2.63671875,0.052734375,0.42578125,-0.25,0.76953125,-13.79296875,4.44921875
4148113,,,,,,,,1.47265625,-8.1328125,2.484375,0.0859375,0.142578125,-0.203125,0.04296875,-13.7890625,4.296875
4148114,,,,,,,,1.44140625,-7.6015625,1.98828125,0.123046875,-0.2734375,-0.078125,0.04296875,-13.29296875,3.80078125
4148115,,,,,,,,2.3828125,-6.26953125,1.05859375,0.11328125,-0.458984375,-0.037109375,1.0,-11.98828125,2.87890625
4148116,,,,,,,,2.8203125,-5.43359375,0.546875,0.044921875,-0.56640625,-0.080078125,1.4609375,-11.18359375,2.3828125
4148117,,,,,,,,2.96484375,-4.6953125,-0.04296875,-0.04296875,-0.646484375,-0.16015625,1.65234375,-10.4921875,1.80859375
4148118,,,,,,,,2.6796875,-4.56640625,-0.20703125,-0.087890625,-0.66015625,-0.19140625,1.3828125,-10.375,1.65234375
4148119,,,,,,,,2.3203125,-4.7421875,-0.3984375,-0.2109375,-0.60546875,-0.154296875,1.078125,-10.609375,1.4609375
4148120,36.01252933333333,129.3193555,68.10788942183997,14.350991320779023,1.3,53.0,,2.13671875,-4.25,-0.734375,-0.2890625,-0.42578125,-0.1484375,0.92578125,-10.1484375,1.1171875
4148121,,,,,,,,1.98828125,-3.58984375,-0.94921875,-0.35546875,-0.1640625,-0.271484375,0.734375,-9.1875,0.8125
4148122,,,,,,,,1.8828125,-2.9375,-1.078125,-0.37109375,-0.130859375,-0.3515625,0.6171875,-8.19921875,0.46484375
4148123,,,,,,,,1.734375,-1.828125,-1.3984375,-0.373046875,-0.189453125,-0.353515625,0.6171875,-7.66015625,0.3125
4148124,,,,,,,,1.734375,-1.328125,-1.53515625,-0.376953125,-0.28515625,-0.326171875,0.734375,-6.96875,0.23828125
4148125,,,,,,,,1.90234375,-0.58203125,-1.61328125,-0.384765625,-0.375,-0.31640625,0.88671875,-6.69921875,0.12109375
4148126,,,,,,,,1.92578125,-0.40625,-1.61328125,-0.38671875,-0.408203125,-0.328125,0.92578125,-6.55078125,0.12109375
4148127,,,,,,,,2.14453125,0.09375,-1.54296875,-0.39453125,-0.470703125,-0.341796875,1.19140625,-6.08984375,0.16015625
4148128,,,,,,,,2.22265625,0.4296875,-1.4140625,-0.412109375,-0.498046875,-0.33984375,1.30859375,-5.78515625,0.2734375
4148129,,,,,,,,2.52734375,0.69140625,-1.234375,-0.42578125,-0.498046875,-0.322265625,1.65234375,-5.546875,0.4296875
4148130,36.01253,129.31935633333333,68.1830133674776,14.424964725260782,1.2000000000000002,52.0,,2.87890625,0.74609375,-1.234375,-0.404296875,-0.4765625,-0.294921875,2.07421875,-5.55078125,0.390625
4148131,,,,,,,,3.15234375,0.6328125,-1.36328125,-0.38671875,-0.4609375,-0.28125,2.37890625,-5.703125,0.23828125
4148132,,,,,,,,3.12890625,0.5703125,-1.38671875,-0.373046875,-0.458984375,-0.27734375,2.37890625,-5.78515625,0.19921875
4148133,,,,,,,,3.09765625,0.140625,-1.41015625,-0.34765625,-0.4609375,-0.263671875,2.37890625,-6.2421875,0.16015625
4148134,,,,,,,,2.890625,-0.0390625,-1.2578125,-0.30078125,-0.44921875,-0.232421875,2.2265625,-6.47265625,0.2734375
4148135,,,,,,,,2.36328125,-0.36328125,-1.0859375,-0.275390625,-0.416015625,-0.1796875,1.73046875,-6.8125,0.4296875
4148136,,,,,,,,2.0703125,-0.5390625,-0.92578125,-0.251953125,-0.39453125,-0.140625,1.4609375,-7.0078125,0.58203125
4148137,,,,,,,,1.73828125,-0.70703125,-0.71875,-0.212890625,-0.34375,-0.0703125,1.15234375,-7.19921875,0.7734375
4148138,,,,,,,,1.609375,-0.8671875,-0.47265625,-0.1875,-0.314453125,0.00390625,1.0390625,-7.39453125,1.00390625
4148139,,,,,,,,1.6015625,-0.859375,-0.46484375,-0.171875,-0.29296875,0.037109375,1.0,-7.46484375,1.00390625
4148140,36.01253066666666,129.3193575,68.2881871163963,14.498938364608872,1.3,52.0,,1.5078125,-1.21875,-0.3828125,-0.404296875,-0.4765625,-0.294921875,2.07421875,-5.55078125,0.390625
4148141,,,,,,,,1.609375,-1.84765625,-0.328125,-0.12890625,-0.259765625,0.15234375,1.078125,-8.421875,1.1171875
4148142,,,,,,,,1.72265625,-2.2890625,-0.16796875,-0.111328125,-0.263671875,0.193359375,1.19140625,-8.8828125,1.26953125
4148143,,,,,,,,1.8671875,-2.83984375,0.03125,-0.099609375,-0.27734375,0.1953125,1.34375,-9.453125,1.4609375
4148144,,,,,,,,2.015625,-3.22265625,0.1640625,-0.078125,-0.259765625,0.1328125,1.5,-9.875,1.578125
4148145,,,,,,,,2.08203125,-3.4375,0.2109375,-0.076171875,-0.26171875,0.09765625,1.57421875,-10.11328125,1.6171875
4148146,,,,,,,,2.03515625,-3.5078125,0.25390625,-0.06640625,-0.25,0.09765625,1.53515625,-10.19140625,1.65234375
4148147,,,,,,,,2.02734375,-3.5234375,0.29296875,-0.078125,-0.248046875,0.109375,1.53515625,-10.2265625,1.69140625
4148148,,,,,,,,2.01953125,-3.62109375,0.26171875,-0.09375,-0.232421875,0.125,1.53515625,-10.3359375,1.65234375
4148149,,,,,,,,2.01171875,-4.2421875,0.1328125,-0.0859375,-0.20703125,0.146484375,1.53515625,-10.9921875,1.5
4148150,36.0125315,129.3193585,68.37833581883966,14.591405093999864,1.3,50.0,,1.8203125,-4.5625,0.171875,-0.080078125,-0.19140625,0.1484375,1.34375,-11.3359375,1.5390625
4148151,,,,,,,,1.27734375,-4.66015625,0.41015625,-0.072265625,-0.134765625,0.119140625,0.80859375,-11.4453125,1.76953125
4148152,,,,,,,,0.96484375,-3.87109375,0.30078125,-0.05859375,-0.0546875,0.09375,0.50390625,-10.6796875,1.65234375
4148153,,,,,,,,1.1953125,-2.8125,-0.07421875,-0.0390625,0.046875,0.087890625,0.734375,-9.6484375,1.26953125
4148154,,,,,,,,1.453125,-2.37109375,-0.1796875,-0.001953125,0.09765625,0.078125,1.0,-9.23046875,1.15625
4148155,,,,,,,,2.08984375,-2.5,-0.2578125,0.064453125,0.08203125,0.005859375,1.65234375,-9.38671875,1.078125
4148156,,,,,,,,2.2734375,-3.47265625,-0.640625,0.083984375,0.111328125,-0.046875,1.84375,-10.37890625,0.6953125
4148157,,,,,,,,2.265625,-4.94921875,-0.5234375,0.095703125,0.22265625,-0.03515625,1.84375,-11.8671875,0.8125
4148158,,,,,,,,1.22265625,-5.27734375,0.6171875,0.107421875,0.39453125,-0.005859375,0.80859375,-12.21484375,1.9609375
4148159,,,,,,,,0.3359375,-4.796875,1.4609375,0.109375,0.640625,-0.029296875,-0.0703125,-11.76171875,2.8046875
4148160,36.01253233333333,129.31935933333335,68.45345961929938,14.683871706066,1.3,45.0,,-0.32421875,-5.27734375,2.109375,-0.080078125,-0.19140625,0.1484375,-0.72265625,-12.25,3.453125
4148161,,,,,,,,-0.5625,-6.83203125,2.90625,0.16015625,1.087890625,-0.11328125,-0.953125,-13.82421875,4.2578125
4148162,,,,,,,,-0.67578125,-7.078125,3.359375,0.23046875,0.9453125,0.056640625,-1.06640625,-14.09375,4.71875
4148163,,,,,,,,-1.12890625,-6.52734375,3.96484375,0.220703125,0.669921875,0.1953125,-1.52734375,-13.5546875,5.33203125
4148164,,,,,,,,-1.04296875,-5.59765625,3.6484375,0.193359375,0.599609375,0.181640625,-1.44921875,-12.63671875,5.0234375
4148165,,,,,,,,-0.578125,-5.0390625,3.49609375,0.15625,0.572265625,0.072265625,-0.9921875,-12.1015625,4.87109375
4148166,,,,,,,,0.5703125,-4.90234375,3.59765625,0.1328125,0.173828125,0.052734375,0.15625,-11.984375,4.98828125
4148167,,,,,,,,0.87890625,-4.81640625,3.55078125,0.12890625,-0.07421875,0.08984375,0.46484375,-11.90625,4.94921875
4148168,,,,,,,,0.95703125,-4.3046875,2.8046875,0.087890625,-0.412109375,0.103515625,0.54296875,-11.4140625,4.21875
4148169,,,,,,,,0.82421875,-4.01953125,2.61328125,0.0703125,-0.46484375,0.107421875,0.42578125,-11.140625,4.02734375
4148170,36.01253316666667,129.31936,68.51355850748945,14.776338202929391,1.3,43.0,,0.5546875,-3.53515625,2.33984375,-0.080078125,-0.19140625,0.1484375,0.15625,-10.68359375,3.76171875
4148171,,,,,,,,0.3203125,-3.7109375,1.91015625,0.08203125,-0.375,0.220703125,-0.0703125,-10.875,3.33984375
4148172,,,,,,,,0.36328125,-3.96484375,1.81640625,0.115234375,-0.318359375,0.25390625,-0.03515625,-11.14453125,3.26171875
4148173,,,,,,,,0.5546875,-3.3984375,1.5703125,0.2109375,-0.208984375,0.18359375,0.15625,-10.61328125,3.03125
4148174,,,,,,,,0.52734375,-2.84375,1.05078125,0.251953125,-0.056640625,0.111328125,0.12109375,-10.0703125,2.53515625
4148175,,,,,,,,0.48828125,-1.671875,0.18359375,0.296875,0.0390625,0.099609375,0.08203125,-8.921875,1.69140625
4148176,,,,,,,,0.48828125,-1.2734375,0.0,0.30859375,-0.03515625,0.15234375,0.08203125,-8.5390625,1.5390625
4148177,,,,,,,,0.52734375,-0.875,-0.21484375,0.314453125,-0.111328125,0.205078125,0.12109375,-8.16015625,1.34765625
4148178,,,,,,,,0.609375,-0.515625,-0.46875,0.310546875,-0.1640625,0.240234375,0.1953125,-7.8125,1.1171875
4148179,,,,,,,,0.7265625,-0.1171875,-0.76171875,0.306640625,-0.177734375,0.21875,0.3125,-7.4296875,0.84765625
4148180,36.012533833333336,129.31936066666668,68.57365754616848,14.85031149338435,1.2000000000000002,42.0,,0.88671875,0.19921875,-0.8984375,-0.080078125,-0.19140625,0.1484375,0.46484375,-7.12109375,0.734375
4148181,,,,,,,,0.88671875,0.59765625,-1.04296875,0.3125,-0.181640625,0.07421875,0.46484375,-6.734375,0.62109375
4148182,,,,,,,,0.76171875,0.8359375,-1.12890625,0.314453125,-0.185546875,0.046875,0.34765625,-6.51171875,0.54296875
4148183,,,,,,,,0.640625,0.890625,-1.16796875,0.33984375,-0.166015625,-0.029296875,0.234375,-6.46875,0.54296875
4148184,,,,,,,,0.234375,1.08984375,-1.16015625,0.357421875,-0.17578125,-0.0546875,-0.1484375,-6.2734375,0.58203125
4148185,,,,,,,,-0.078125,1.10546875,-1.1171875,0.365234375,-0.181640625,-0.072265625,-0.453125,-6.27734375,0.65625
4148186,,,,,,,,-0.125,1.07421875,-1.0546875,0.357421875,-0.189453125,-0.07421875,-0.4921875,-6.3125,0.734375
4148187,,,,,,,,-0.109375,1.04296875,-0.96484375,0.33203125,-0.220703125,-0.0703125,-0.453125,-6.35546875,0.84765625
4148188,,,,,,,,-0.00390625,0.97265625,-0.98828125,0.3046875,-0.236328125,-0.06640625,-0.33984375,-6.43359375,0.84765625
4148189,,,,,,,,0.01953125,0.9140625,-0.97265625,0.25390625,-0.267578125,-0.06640625,-0.30078125,-6.51171875,0.88671875
4148190,36.01253466666667,129.3193615,68.64878133739204,14.942778107307092,1.2000000000000002,43.0,,0.26171875,0.57421875,-0.99609375,0.203125,-0.279296875,-0.06640625,0.46484375,-7.12109375,0.734375
4148191,,,,,,,,0.515625,0.24609375,-0.7734375,0.15625,-0.2890625,-0.064453125,0.234375,-7.19921875,1.1171875
4148192,,,,,,,,0.5078125,0.21484375,-0.7109375,0.091796875,-0.265625,-0.033203125,0.2734375,-7.234375,1.234375
4148193,,,,,,,,0.5390625,0.22265625,-0.671875,0.07421875,-0.265625,-0.029296875,0.3125,-7.3125,1.26953125
4148194,,,,,,,,0.63671875,0.1171875,-0.6796875,0.0546875,-0.24609375,-0.01953125,0.38671875,-7.3515625,1.234375
4148195,,,,,,,,0.62109375,0.01953125,-0.765625,0.037109375,-0.263671875,-0.009765625,0.38671875,-7.46484375,1.15625
4148196,,,,,,,,0.56640625,-0.3515625,-0.8046875,0.02734375,-0.27734375,-0.001953125,0.34765625,-7.8515625,1.1171875
4148197,,,,,,,,0.4453125,-0.76171875,-0.6953125,0.015625,-0.2890625,0.00390625,0.234375,-8.265625,1.234375
4148198,,,,,,,,0.4375,-0.86328125,-0.58203125,0.017578125,-0.291015625,0.0078125,0.234375,-8.3828125,1.34765625
4148199,,,,,,,,0.23828125,-1.27734375,-0.50390625,0.009765625,-0.275390625,0.01953125,0.04296875,-8.80859375,1.42578125
4148200,36.01253533333333,129.31936233333332,68.72390527157019,15.016751516702914,1.1,43.0,0.0,0.078125,-1.7578125,-0.4375,0.203125,-0.279296875,-0.06640625,-0.109375,-9.30859375,1.5
4148201,,,,,,,,0.0234375,-2.27734375,-0.4375,0.009765625,-0.18359375,0.03515625,-0.1484375,-9.83984375,1.5
4148202,,,,,,,,0.12890625,-2.609375,-0.3515625,0.025390625,-0.123046875,0.037109375,-0.03515625,-10.19140625,1.578125
4148203,,,,,,,,0.23828125,-2.76171875,-0.3984375,0.02734375,-0.09765625,0.0390625,0.08203125,-10.33984375,1.5390625
4148204,,,,,,,,0.4296875,-2.82421875,-0.51953125,0.044921875,-0.03515625,0.001953125,0.2734375,-10.4140625,1.42578125
4148205,,,,,,,,0.57421875,-3.0,-0.7109375,0.060546875,0.04296875,-0.048828125,0.42578125,-10.609375,1.234375
4148206,,,,,,,,0.98828125,-3.7578125,-0.52734375,0.076171875,0.107421875,-0.08984375,0.84765625,-11.37890625,1.42578125
4148207,,,,,,,,1.46875,-3.3125,-0.34375,0.08203125,0.146484375,-0.0546875,1.34375,-10.953125,1.6171875
4148208,,,,,,,,1.5078125,-3.04296875,-0.4609375,0.080078125,0.169921875,-0.029296875,1.3828125,-10.68359375,1.5
4148209,,,,,,,,1.125,-2.0703125,-0.8046875,0.072265625,0.244140625,0.02734375,1.0,-9.73046875,1.15625
4148210,36.01253616666667,129.31936316666668,68.79902906423813,15.109218133069692,1.1,45.0,,0.47265625,-1.6796875,-0.66015625,0.064453125,0.2890625,0.060546875,0.34765625,-9.34375,1.30859375
4148211,,,,,,,,-0.015625,-2.46875,-1.05078125,0.08984375,0.205078125,0.12109375,-0.1484375,-10.15234375,0.92578125
4148212,,,,,,,,0.15234375,-3.6484375,-0.8671875,0.126953125,0.1875,0.1796875,0.00390625,-11.33984375,1.1171875
4148213,,,,,,,,0.97265625,-4.28515625,-0.26953125,0.177734375,0.349609375,0.109375,0.80859375,-11.984375,1.73046875
4148214,,,,,,,,2.51953125,-4.53515625,0.55859375,0.1875,0.58984375,-0.021484375,2.33984375,-12.25,2.57421875
4148215,,,,,,,,3.39453125,-4.8359375,0.50390625,0.171875,0.86328125,-0.169921875,3.22265625,-12.5625,2.53515625
4148216,,,,,,,,3.921875,-4.47265625,1.03125,0.1484375,0.953125,-0.26953125,3.7578125,-12.2109375,3.0703125
4148217,,,,,,,,4.03125,-4.23828125,1.29296875,0.109375,0.857421875,-0.265625,3.875,-11.984375,3.33984375
4148218,,,,,,,,3.79296875,-4.87109375,2.09765625,0.0859375,0.740234375,-0.1796875,3.64453125,-12.63671875,4.14453125
4148219,,,,,,,,2.61328125,-5.66796875,2.88671875,0.0859375,0.66796875,-0.0234375,2.45703125,-13.44140625,4.94921875
4148220,36.012536999999995,129.31936416666667,68.88917775309139,15.201684865900692,1.2000000000000002,47.0,,1.31640625,-5.8828125,2.84765625,0.09375,0.4296875,0.103515625,1.15234375,-13.67578125,4.91015625
4148221,,,,,,,,0.94921875,-5.25390625,2.140625,0.1171875,0.1484375,0.1328125,0.76953125,-13.05859375,4.21875
4148222,,,,,,,,1.44140625,-3.9453125,1.515625,0.140625,-0.02734375,0.095703125,1.26953125,-11.76171875,3.609375
4148223,,,,,,,,1.79296875,-3.27734375,1.27734375,0.1328125,-0.267578125,0.09765625,1.61328125,-11.1015625,3.37890625
4148224,,,,,,,,2.015625,-2.87890625,1.0,0.083984375,-0.447265625,0.046875,1.84375,-10.72265625,3.109375
4148225,,,,,,,,1.69140625,-2.87109375,1.17578125,0.025390625,-0.537109375,0.01171875,1.53515625,-10.72265625,3.30078125
4148226,,,,,,,,1.640625,-2.96875,1.09765625,-0.017578125,-0.5625,0.0234375,1.5,-10.8359375,3.22265625
4148227,,,,,,,,1.546875,-2.92578125,0.9140625,-0.130859375,-0.5625,0.0546875,1.421875,-10.80078125,3.03125
4148228,,,,,,,,1.578125,-2.59375,0.65625,-0.228515625,-0.41015625,0.09765625,1.4609375,-10.49609375,2.765625
4148229,,,,,,,,1.26171875,-1.765625,0.37109375,-0.294921875,-0.25390625,0.1171875,1.15234375,-9.69140625,2.45703125
4148230,36.0125375,129.31936499999998,68.96430182799742,15.257165072949128,1.1,50.0,,0.95703125,-1.17578125,0.1640625,0.09375,0.4296875,0.103515625,0.84765625,-9.11328125,2.2265625
4148231,,,,,,,,0.6875,-0.46484375,-0.078125,-0.361328125,-0.162109375,0.064453125,0.578125,-8.421875,1.9609375
4148232,,,,,,,,0.56640625,0.1484375,-0.30859375,-0.359375,-0.2109375,0.099609375,0.46484375,-7.85546875,1.69140625
4148233,,,,,,,,0.55859375,0.703125,-0.4765625,-0.361328125,-0.21875,0.09375,0.46484375,-7.3125,1.5
4148234,,,,,,,,0.63671875,1.18359375,-0.703125,-0.357421875,-0.19140625,0.052734375,0.54296875,-6.8515625,1.234375
4148235,,,,,,,,0.75,1.5859375,-0.875,-0.373046875,-0.1640625,0.037109375,0.65625,-6.47265625,1.0390625
4148236,,,,,,,,0.8203125,1.71484375,-0.94140625,-0.38671875,-0.16015625,0.03125,0.734375,-6.3515625,0.96484375
4148237,,,,,,,,1.1953125,2.11328125,-0.828125,-0.408203125,-0.14453125,0.05078125,1.1171875,-5.97265625,1.0390625
4148238,,,,,,,,1.4609375,2.20703125,-0.87109375,-0.41796875,-0.138671875,0.05078125,1.3828125,-5.89453125,0.96484375
4148239,,,,,,,,1.76171875,2.15234375,-1.0234375,-0.41796875,-0.1328125,0.05078125,1.69140625,-5.96875,0.7734375
4148240,36.012538166666666,129.31936583333334,69.03942576188388,15.331138484894424,1.1,51.0,,2.18359375,1.9765625,-1.3828125,-0.416015625,-0.12109375,0.04296875,2.11328125,-6.16796875,0.390625
4148241,,,,,,,,2.3515625,1.73046875,-1.53515625,-0.408203125,-0.12890625,-0.00390625,2.3046875,-6.43359375,0.19921875
4148242,,,,,,,,2.265625,1.5546875,-1.54296875,-0.3828125,-0.154296875,-0.05859375,2.2265625,-6.625,0.16015625
4148243,,,,,,,,2.15234375,1.5625,-1.48828125,-0.37109375,-0.171875,-0.078125,2.11328125,-6.62890625,0.19921875
4148244,,,,,,,,1.67578125,1.46484375,-1.265625,-0.322265625,-0.1796875,-0.080078125,1.65234375,-6.734375,0.390625
4148245,,,,,,,,1.46875,1.2890625,-1.08203125,-0.265625,-0.17578125,-0.03515625,1.4609375,-6.93359375,0.54296875
4148246,,,,,,,,1.34375,1.11328125,-0.8359375,-0.169921875,-0.150390625,0.107421875,1.34375,-7.1171875,0.7734375
4148247,,,,,,,,1.34375,0.70703125,-0.70703125,-0.1171875,-0.12890625,0.19921875,1.34375,-7.54296875,0.88671875
4148248,,,,,,,,1.31640625,0.63671875,-0.73046875,-0.076171875,-0.12109375,0.26171875,1.30859375,-7.62109375,0.84765625
4148249,,,,,,,,1.29296875,0.30078125,-0.8046875,-0.04296875,-0.12109375,0.27734375,1.26953125,-7.9609375,0.7734375
4148250,36.012539,129.31936666666667,69.11454954321934,15.423605102643393,1.2000000000000002,50.0,,1.26953125,-0.3046875,-0.84375,-0.02734375,-0.125,0.2734375,1.23046875,-8.578125,0.734375
4148251,,,,,,,,1.36328125,-1.015625,-0.68359375,-0.0234375,-0.1484375,0.2734375,1.30859375,-9.30859375,0.88671875
4148252,,,,,,,,1.40625,-1.3515625,-0.53125,-0.01953125,-0.158203125,0.2421875,1.34375,-9.6484375,1.0390625
4148253,,,,,,,,1.26171875,-1.7734375,-0.26171875,-0.029296875,-0.154296875,0.20703125,1.19140625,-10.0703125,1.30859375
4148254,,,,,,,,1.1171875,-1.98828125,-0.13671875,-0.033203125,-0.1484375,0.189453125,1.0390625,-10.30078125,1.42578125
4148255,,,,,,,,0.97265625,-2.05859375,0.0234375,-0.041015625,-0.158203125,0.201171875,0.88671875,-10.37890625,1.578125
4148256,,,,,,,,1.01953125,-2.09765625,0.09765625,-0.05078125,-0.158203125,0.212890625,0.92578125,-10.4140625,1.65234375
4148257,,,,,,,,1.1796875,-2.08203125,0.18359375,-0.072265625,-0.173828125,0.240234375,1.078125,-10.41796875,1.73046875
4148258,,,,,,,,1.38671875,-2.1484375,0.19140625,-0.091796875,-0.173828125,0.251953125,1.26953125,-10.49609375,1.73046875
4148259,,,,,,,,1.546875,-2.37890625,0.046875,-0.119140625,-0.16796875,0.21484375,1.421875,-10.72265625,1.578125
4148260,36.012539833333335,129.31936750000003,69.18967332852095,15.516071721998678,1.1,47.0,,1.44140625,-2.4765625,-0.09765625,-0.02734375,-0.125,0.2734375,1.30859375,-10.8359375,1.42578125
4148261,,,,,,,,1.36328125,-2.4609375,-0.08203125,-0.16015625,-0.15625,0.123046875,1.23046875,-10.83984375,1.42578125
4148262,,,,,,,,1.2578125,-1.98828125,0.19921875,-0.169921875,-0.109375,0.083984375,1.1171875,-10.37890625,1.69140625
4148263,,,,,,,,1.21875,-1.59765625,0.4140625,-0.15234375,-0.041015625,0.05859375,1.078125,-9.9921875,1.8828125
4148264,,,,,,,,1.28515625,-1.20703125,0.62109375,-0.134765625,0.01953125,0.025390625,1.15234375,-9.61328125,2.07421875
4148265,,,,,,,,1.66796875,-2.1171875,0.515625,-0.109375,0.076171875,0.017578125,1.53515625,-10.53125,1.9609375
4148266,,,,,,,,1.81640625,-2.75390625,0.33203125,-0.091796875,0.09765625,0.033203125,1.69140625,-11.1796875,1.76953125
4148267,,,,,,,,1.73828125,-4.31640625,0.03125,-0.087890625,0.16796875,0.0390625,1.61328125,-12.75390625,1.4609375
4148268,,,,,,,,1.15625,-4.15625,0.38671875,-0.08984375,0.2734375,0.025390625,1.0390625,-12.6015625,1.80859375
4148269,,,,,,,,-0.21484375,-2.4609375,1.2734375,-0.125,0.482421875,-0.05078125,-0.33984375,-10.9140625,2.6875
4148270,36.01254083333333,129.31936833333333,69.26479696140196,15.62703154676371,1.3,42.0,,-0.65234375,-3.51171875,2.37109375,-0.11328125,0.8125,-0.09375,-0.76171875,-11.98828125,3.76171875
4148271,,,,,,,,-1.45703125,-4.95703125,3.671875,-0.021484375,0.75,0.03515625,-1.56640625,-13.4375,5.0625
4148272,,,,,,,,-1.9453125,-4.875,3.94921875,0.021484375,0.64453125,0.17578125,-2.0625,-13.37109375,5.33203125
4148273,,,,,,,,-2.22265625,-3.984375,4.0234375,0.0,0.552734375,0.353515625,-2.37109375,-12.484375,5.40625
4148274,,,,,,,,-1.4609375,-3.59375,3.87109375,-0.060546875,0.693359375,0.275390625,-1.640625,-12.10546875,5.25390625
4148275,,,,,,,,0.8671875,-3.1953125,3.57421875,-0.0703125,0.576171875,0.146484375,0.65625,-11.71875,4.94921875
4148276,,,,,,,,1.2421875,-2.8828125,2.73828125,-0.099609375,-0.04296875,-0.083984375,1.0390625,-11.4140625,4.10546875
4148277,,,,,,,,1.3046875,-2.21484375,2.32421875,-0.119140625,-0.216796875,-0.189453125,1.1171875,-10.76171875,3.68359375
4148278,,,,,,,,0.7734375,-1.76953125,2.2578125,-0.087890625,-0.33203125,0.0078125,0.6171875,-10.33984375,3.609375
4148279,,,,,,,,0.54296875,-1.8828125,2.21875,-0.06640625,-0.33203125,0.0703125,0.38671875,-10.45703125,3.5703125
4148280,36.01254166666667,129.3193695,69.36997054169883,15.719498405728764,1.3,44.0,,0.0859375,-2.44140625,2.44921875,-0.0078125,-0.251953125,0.125,-0.0703125,-11.0234375,3.80078125
4148281,,,,,,,,-0.18359375,-2.3203125,2.36328125,0.087890625,-0.189453125,0.1171875,-0.33984375,-10.9140625,3.72265625
4148282,,,,,,,,-0.0625,-1.8515625,2.00390625,0.1796875,-0.12109375,0.06640625,-0.2265625,-10.453125,3.37890625
4148283,,,,,,,,0.0546875,-1.26953125,1.48046875,0.26171875,-0.013671875,0.02734375,-0.109375,-9.87890625,2.87890625
4148284,,,,,,,,0.23828125,-0.53515625,1.0078125,0.298828125,0.01953125,-0.0234375,0.08203125,-9.1484375,2.421875
4148285,,,,,,,,0.48828125,-0.06640625,0.69921875,0.30859375,-0.01953125,-0.04296875,0.34765625,-8.6875,2.15234375
4148286,,,,,,,,0.64453125,0.1640625,0.421875,0.3046875,-0.046875,-0.048828125,0.50390625,-8.4609375,1.8828125
4148287,,,,,,,,0.89453125,0.62890625,0.19140625,0.26953125,-0.05078125,-0.03515625,0.76953125,-8.0,1.69140625
4148288,,,,,,,,0.96484375,0.9375,0.0859375,0.2421875,-0.015625,-0.01171875,0.84765625,-7.6953125,1.6171875
4148289,,,,,,,,0.99609375,1.51953125,-0.20703125,0.21875,0.009765625,-0.0078125,0.88671875,-7.1171875,1.34765625
4148290,36.012542333333336,129.3193701666667,69.4300695664961,15.793471702173207,1.2000000000000002,44.0,,0.0859375,-2.44140625,2.44921875,-0.0078125,-0.251953125,0.125,0.578125,-6.81640625,1.234375
4148291,,,,,,,,0.40625,2.0703125,-0.4921875,0.232421875,-0.017578125,-0.046875,0.08203125,-6.43359375,0.92578125
4148292,,,,,,,,0.05078125,2.26953125,-0.78515625,0.24609375,-0.03515625,-0.056640625,-0.109375,-6.390625,0.8125
4148293,,,,,,,,-0.0234375,2.26953125,-0.828125,0.251953125,-0.056640625,-0.04296875,-0.453125,-6.43359375,0.65625
4148294,,,,,,,,-0.61328125,2.125,-1.05859375,0.234375,-0.091796875,-0.048828125,-0.72265625,-6.625,0.58203125
4148295,,,,,,,,-0.73828125,1.97265625,-1.11328125,0.21484375,-0.1171875,-0.033203125,-0.80078125,-6.7734375,0.62109375
4148296,,,,,,,,-0.70703125,1.81640625,-1.0703125,0.185546875,-0.125,-0.01953125,-0.68359375,-6.89453125,0.65625
4148297,,,,,,,,-0.5234375,1.671875,-1.16015625,0.142578125,-0.126953125,-0.013671875,-0.5703125,-7.0078125,0.58203125
4148298,,,,,,,,-0.4453125,1.55859375,-1.16796875,0.126953125,-0.12890625,-0.009765625,-0.4921875,-7.1171875,0.58203125
4148299,,,,,,,,-0.33984375,1.3671875,-1.0703125,0.083984375,-0.138671875,-0.013671875,-0.37890625,-7.3125,0.6953125
4148300,36.012543,129.31937066666666,69.47514368229689,15.867444880468597,1.2000000000000002,44.0,0.0,0.0859375,-2.44140625,2.44921875,0.044921875,-0.150390625,-0.041015625,0.578125,-6.81640625,1.234375
4148301,,,,,,,,-0.32421875,1.22265625,-0.96875,0.01171875,-0.169921875,-0.048828125,-0.33984375,-7.46484375,0.8125
4148302,,,,,,,,-0.24609375,1.19140625,-1.0078125,-0.017578125,-0.173828125,-0.052734375,-0.26171875,-7.5,0.7734375
4148303,,,,,,,,-0.1875,1.11328125,-1.078125,-0.033203125,-0.19921875,-0.052734375,-0.1875,-7.58203125,0.6953125
4148304,,,,,,,,-0.1640625,0.81640625,-1.0859375,-0.041015625,-0.236328125,-0.060546875,-0.1484375,-7.8828125,0.6953125
4148305,,,,,,,,-0.02734375,0.59375,-1.0,-0.05078125,-0.279296875,-0.08203125,0.00390625,-8.1171875,0.7734375
4148306,,,,,,,,0.109375,0.2109375,-0.88671875,-0.052734375,-0.287109375,-0.08984375,0.15625,-8.5,0.88671875
4148307,,,,,,,,0.29296875,-0.42578125,-0.609375,-0.05078125,-0.279296875,-0.09375,0.34765625,-9.15234375,1.15625
4148308,,,,,,,,0.30859375,-0.73046875,-0.37890625,-0.041015625,-0.23046875,-0.109375,0.38671875,-9.453125,1.38671875
4148309,,,,,,,,0.24609375,-1.26953125,-0.265625,-0.029296875,-0.189453125,-0.119140625,0.34765625,-9.99609375,1.5
4148310,36.01254383333333,129.31937150000002,69.5502674600675,15.959911502206651,1.1,44.0,,0.203125,-1.453125,-0.2578125,-0.00390625,-0.15234375,-0.107421875,0.3125,-10.1875,1.5
4148311,,,,,,,,0.1796875,-1.63671875,-0.2578125,0.017578125,-0.134765625,-0.09375,0.3125,-10.37890625,1.5
4148312,,,,,,,,0.32421875,-1.66796875,-0.265625,0.0546875,-0.1328125,-0.08203125,0.46484375,-10.41796875,1.5
4148313,,,,,,,,0.30859375,-1.703125,-0.2734375,0.072265625,-0.119140625,-0.083984375,0.46484375,-10.45703125,1.5
4148314,,,,,,,,0.4140625,-1.8203125,-0.38671875,0.087890625,-0.087890625,-0.080078125,0.578125,-10.5703125,1.38671875
4148315,,,,,,,,0.5234375,-2.00390625,-0.44140625,0.09375,-0.052734375,-0.06640625,0.6953125,-10.7578125,1.34765625
4148316,,,,,,,,0.74609375,-2.01171875,-0.25,0.099609375,-0.009765625,-0.029296875,0.92578125,-10.7578125,1.5390625
4148317,,,,,,,,0.4296875,-1.3046875,-0.265625,0.1015625,0.07421875,0.046875,0.6171875,-10.07421875,1.5390625
4148318,,,,,,,,0.09375,-0.69921875,-0.41796875,0.095703125,0.130859375,0.068359375,0.2734375,-9.45703125,1.38671875
4148319,,,,,,,,-0.28125,-0.234375,-0.47265625,0.0859375,0.21484375,0.11328125,-0.109375,-9.00390625,1.34765625
4148320,36.01254466666667,129.31937266666668,69.6554410348645,16.05237836328419,1.2000000000000002,44.0,,-0.80078125,0.03515625,-0.40234375,0.1015625,0.2421875,0.16796875,0.3125,-10.1875,1.5
4148321,,,,,,,,-1.20703125,-0.265625,-0.53515625,0.107421875,0.232421875,0.212890625,-1.06640625,-9.04296875,1.30859375
4148322,,,,,,,,-1.61328125,-1.52734375,-0.99609375,0.125,0.302734375,0.171875,-1.48828125,-10.30078125,0.84765625
4148323,,,,,,,,-1.30078125,-1.7578125,-0.43359375,0.138671875,0.419921875,0.0546875,-1.18359375,-10.53515625,1.42578125
4148324,,,,,,,,-0.6328125,-1.21484375,0.19921875,0.14453125,0.5703125,-0.099609375,-0.53125,-9.9921875,2.07421875
4148325,,,,,,,,0.32421875,-2.02734375,0.23046875,0.126953125,0.806640625,-0.267578125,0.42578125,-10.80078125,2.11328125
4148326,,,,,,,,0.578125,-2.9296875,0.22265625,0.107421875,0.916015625,-0.3515625,0.6953125,-11.72265625,2.11328125
4148327,,,,,,,,1.51953125,-5.50390625,0.828125,0.044921875,0.962890625,-0.44921875,1.65234375,-14.28125,2.7265625
4148328,,,,,,,,3.82421875,-8.0625,2.92578125,-0.033203125,0.7890625,-0.525390625,3.98828125,-16.8515625,4.83203125
4148329,,,,,,,,6.375,-6.20703125,3.86328125,-0.076171875,0.8671875,-0.67578125,6.59375,-15.01171875,5.75390625
4148330,36.012545333333335,129.31937366666668,69.74558985354537,16.126351900867128,1.1,48.0,,4.90234375,-3.91015625,2.94140625,0.1015625,0.2421875,0.16796875,0.3125,-10.1875,1.5
4148331,,,,,,,,2.39453125,-3.09765625,2.94140625,-0.072265625,0.859375,-0.7890625,2.72265625,-11.90625,4.83203125
4148332,,,,,,,,0.6640625,-3.28125,2.90625,-0.021484375,0.060546875,-0.447265625,1.0390625,-12.1015625,4.796875
4148333,,,,,,,,0.25,-2.859375,2.015625,0.083984375,-0.697265625,0.0234375,0.65625,-11.6796875,3.9140625
4148334,,,,,,,,0.203125,-1.89453125,1.39453125,0.138671875,-0.876953125,0.11328125,0.6171875,-10.72265625,3.30078125
4148335,,,,,,,,0.45703125,-1.58203125,1.00390625,0.150390625,-0.744140625,-0.08203125,0.88671875,-10.41796875,2.91796875
4148336,,,,,,,,0.65625,-1.49609375,0.4921875,0.125,-0.68359375,-0.224609375,1.1171875,-10.33984375,2.421875
4148337,,,,,,,,0.73046875,-1.80078125,0.64453125,0.037109375,-0.642578125,-0.16796875,1.23046875,-10.64453125,2.57421875
4148338,,,,,,,,0.77734375,-1.71875,0.7578125,-0.09375,-0.529296875,-0.0703125,1.30859375,-10.57421875,2.6875
4148339,,,,,,,,0.68359375,-1.12890625,0.5078125,-0.201171875,-0.294921875,-0.01953125,1.23046875,-9.9921875,2.421875
4148340,36.012546,129.31937449999998,69.82071376627647,16.200325319518896,1.1,50.0,,0.1484375,-0.19140625,0.14453125,-0.302734375,-0.080078125,0.01953125,0.6953125,-9.0703125,2.03515625
4148341,,,,,,,,-0.08203125,0.34375,-0.0234375,-0.341796875,0.033203125,0.048828125,0.46484375,-8.5390625,1.84375
4148342,,,,,,,,-0.19921875,0.75,-0.10546875,-0.337890625,0.001953125,0.080078125,0.234375,-7.92578125,1.5390625
4148343,,,,,,,,-0.3125,0.98046875,-0.2890625,-0.337890625,-0.03125,0.10546875,0.234375,-7.81640625,1.5
4148344,,,,,,,,-0.2265625,1.37890625,-0.41015625,-0.3125,-0.064453125,0.0859375,0.34765625,-7.43359375,1.30859375
4148345,,,,,,,,-0.14453125,1.6640625,-0.50390625,-0.291015625,-0.052734375,0.017578125,0.6171875,-7.01171875,1.1171875
4148346,,,,,,,,0.1953125,2.0546875,-0.671875,-0.29296875,-0.009765625,-0.04296875,0.84765625,-6.8515625,1.078125
4148347,,,,,,,,0.37890625,2.26171875,-0.671875,-0.322265625,0.0,-0.03125,1.19140625,-6.62890625,1.00390625
4148348,,,,,,,,0.63671875,2.3359375,-0.69140625,-0.32421875,-0.017578125,-0.0078125,1.34375,-6.55078125,0.88671875
4148349,,,,,,,,1.09765625,2.4765625,-0.78515625,-0.33203125,-0.044921875,0.041015625,1.65234375,-6.5078125,0.88671875
4148350,36.01254683333333,129.31937516666667,69.8808126369547,16.2927918248628,1.2000000000000002,49.0,,0.1484375,-0.19140625,0.14453125,-0.32421875,-0.08203125,0.0703125,0.6953125,-9.0703125,2.03515625
4148351,,,,,,,,1.55859375,2.56640625,-1.171875,-0.306640625,-0.10546875,0.060546875,2.11328125,-6.4296875,0.4296875
4148352,,,,,,,,1.625,2.62109375,-1.2578125,-0.27734375,-0.13671875,0.029296875,2.1875,-6.39453125,0.3125
4148353,,,,,,,,1.47265625,2.58203125,-1.35546875,-0.25390625,-0.15234375,0.017578125,2.03515625,-6.4296875,0.19921875
4148354,,,,,,,,1.16796875,2.4375,-1.265625,-0.201171875,-0.216796875,0.001953125,1.73046875,-6.5859375,0.2734375
4148355,,,,,,,,0.95703125,2.25390625,-0.98046875,-0.15625,-0.255859375,0.005859375,1.53515625,-6.77734375,0.54296875
4148356,,,,,,,,0.765625,2.03125,-0.7265625,-0.064453125,-0.265625,0.095703125,1.34375,-7.01171875,0.7734375
4148357,,,,,,,,0.73046875,1.87890625,-0.57421875,-0.017578125,-0.251953125,0.193359375,1.30859375,-7.15625,0.92578125
4148358,,,,,,,,0.69921875,1.765625,-0.53515625,-0.001953125,-0.25390625,0.240234375,1.26953125,-7.27734375,0.96484375
4148359,,,,,,,,0.76171875,1.625,-0.65234375,0.033203125,-0.26171875,0.33203125,1.30859375,-7.43359375,0.84765625
4148360,36.01254766666667,129.31937616666667,69.97096130446377,16.385258571078733,1.1,47.0,,0.78515625,1.16796875,-0.765625,-0.32421875,-0.08203125,0.0703125,1.30859375,-7.8828125,0.734375
4148361,,,,,,,,0.82421875,0.828125,-0.7265625,0.048828125,-0.310546875,0.4296875,1.30859375,-8.23828125,0.7734375
4148362,,,,,,,,0.74609375,0.21875,-0.46875,0.052734375,-0.31640625,0.421875,1.19140625,-8.84375,1.0390625
4148363,,,,,,,,0.6015625,-0.28125,-0.2734375,0.048828125,-0.302734375,0.41796875,1.0390625,-9.34765625,1.234375
4148364,,,,,,,,0.41796875,-0.85546875,0.18359375,0.05859375,-0.259765625,0.416015625,0.80859375,-9.91796875,1.69140625
4148365,,,,,,,,0.2109375,-1.0,0.3203125,0.052734375,-0.203125,0.41015625,0.578125,-10.07421875,1.84375
4148366,,,,,,,,0.13671875,-0.88671875,0.24609375,0.044921875,-0.12890625,0.388671875,0.46484375,-9.95703125,1.76953125
4148367,,,,,,,,0.390625,-0.6875,0.0859375,0.033203125,-0.060546875,0.337890625,0.6953125,-9.76953125,1.6171875
4148368,,,,,,,,0.55859375,-0.76953125,0.0078125,0.021484375,-0.052734375,0.31640625,0.84765625,-9.83984375,1.5390625
4148369,,,,,,,,0.92578125,-1.22265625,-0.0234375,0.005859375,-0.05859375,0.259765625,1.19140625,-10.296875,1.5
4148370,36.0125485,129.31937683333334,70.03106016777232,16.47772507664987,1.2000000000000002,42.0,,0.90234375,-1.8671875,-0.09765625,-0.32421875,-0.08203125,0.0703125,1.15234375,-10.953125,1.42578125
4148371,,,,,,,,0.796875,-2.171875,-0.0625,-0.052734375,-0.0625,0.1328125,1.0390625,-11.2578125,1.4609375
4148372,,,,,,,,0.61328125,-2.12890625,0.0625,-0.08203125,0.033203125,0.10546875,0.84765625,-11.22265625,1.578125
4148373,,,,,,,,0.66015625,-1.70703125,0.22265625,-0.0859375,0.150390625,0.1015625,0.88671875,-10.80078125,1.73046875
4148374,,,,,,,,0.859375,-0.94140625,0.34375,-0.052734375,0.2734375,0.0625,1.078125,-10.03125,1.84375
4148375,,,,,,,,1.2578125,-1.84375,0.0078125,-0.015625,0.275390625,0.015625,1.4609375,-10.953125,1.5
4148376,,,,,,,,1.43359375,-3.7578125,0.0078125,0.013671875,0.263671875,-0.041015625,1.65234375,-12.87109375,1.5
4148377,,,,,,,,1.00390625,-4.37109375,0.078125,0.01953125,0.27734375,-0.0703125,1.23046875,-13.4765625,1.578125
4148378,,,,,,,,-0.56640625,-3.71875,1.2265625,-0.013671875,0.416015625,-0.083984375,-0.33984375,-12.83203125,2.7265625
4148379,,,,,,,,-1.02734375,-3.484375,1.953125,-0.0703125,0.77734375,-0.1015625,-0.80078125,-12.6015625,3.453125
4148380,36.01254933333333,129.319378,70.136233731995,16.570191944030256,1.2000000000000002,42.0,,-1.4765625,-3.78125,2.8046875,-0.05078125,0.94140625,-0.078125,-1.2578125,-12.90625,4.296875
4148381,,,,,,,,-2.0234375,-2.86328125,3.3046875,0.03125,0.748046875,0.029296875,-1.796875,-11.98828125,4.796875
4148382,,,,,,,,-2.0390625,-2.1640625,3.140625,0.02734375,0.447265625,0.037109375,-1.8359375,-11.296875,4.640625
4148383,,,,,,,,-1.625,-2.125,3.140625,-0.00390625,0.40625,-0.015625,-1.4140625,-11.26171875,4.640625
4148384,,,,,,,,-0.51171875,-2.203125,3.21875,-0.0234375,0.431640625,-0.158203125,-0.30078125,-11.3359375,4.71875
4148385,,,,,,,,0.92578125,-2.38671875,2.94921875,-0.021484375,0.099609375,-0.240234375,1.15234375,-11.52734375,4.44921875
4148386,,,,,,,,1.1640625,-2.2265625,2.52734375,-0.10546875,-0.21875,-0.302734375,1.421875,-11.375,4.02734375
4148387,,,,,,,,0.671875,-1.796875,2.34375,-0.1328125,-0.21484375,-0.267578125,0.9609375,-10.95703125,3.8359375
4148388,,,,,,,,0.19921875,-1.75,2.31640625,-0.125,-0.18359375,-0.15234375,0.50390625,-10.9140625,3.80078125
4148389,,,,,,,,-0.30078125,-1.828125,2.32421875,-0.115234375,-0.17578125,0.15625,0.00390625,-10.9921875,3.80078125
4148390,36.01255033333334,129.31937916666666,70.24140714530667,16.68115201850245,1.3,43.0,,-0.765625,-2.04296875,2.21484375,-0.05078125,0.94140625,-0.078125,-1.2578125,-12.90625,4.296875
4148391,,,,,,,,-0.97265625,-1.95703125,2.1015625,0.033203125,-0.138671875,0.263671875,-0.72265625,-11.14453125,3.5703125
4148392,,,,,,,,-0.91796875,-1.53515625,1.93359375,0.1640625,-0.0546875,0.09375,-0.68359375,-10.72265625,3.41796875
4148393,,,,,,,,-0.60546875,-1.06640625,1.6484375,0.197265625,-0.02734375,0.052734375,-0.37890625,-10.26171875,3.1484375
4148394,,,,,,,,-0.078125,-0.5,1.04296875,0.248046875,0.0078125,-0.0078125,0.15625,-9.6875,2.57421875
4148395,,,,,,,,0.23828125,0.00390625,0.6640625,0.25390625,-0.021484375,-0.021484375,0.46484375,-9.1875,2.2265625
4148396,,,,,,,,0.3359375,0.6171875,0.48828125,0.2421875,-0.0625,-0.05078125,0.578125,-8.578125,2.07421875
4148397,,,,,,,,0.52734375,0.93359375,0.3515625,0.21484375,-0.0703125,-0.05859375,0.76953125,-8.265625,1.9609375
4148398,,,,,,,,0.66796875,1.27734375,0.14453125,0.208984375,-0.0703125,-0.03125,0.92578125,-7.92578125,1.76953125
4148399,,,,,,,,0.859375,1.58203125,-0.0625,0.19921875,-0.0703125,0.0234375,1.1171875,-7.6171875,1.578125
4148400,36.01255116666667,129.31938,70.31653090310213,16.773618646287566,1.3,43.0,0.0,0.67578125,2.00390625,-0.1796875,0.21484375,-0.109375,0.046875,0.92578125,-7.19921875,1.5
4148401,,,,,,,,0.13671875,2.46484375,-0.39453125,0.2421875,-0.126953125,0.0390625,0.38671875,-6.73828125,1.30859375
4148402,,,,,,,,-0.29296875,2.76171875,-0.5703125,0.26953125,-0.146484375,0.060546875,-0.03515625,-6.4296875,1.15625
4148403,,,,,,,,-0.40625,2.80859375,-0.703125,0.28515625,-0.15234375,0.078125,-0.1484375,-6.39453125,1.0390625
4148404,,,,,,,,-0.78125,2.88671875,-0.87890625,0.294921875,-0.185546875,0.10546875,-0.53125,-6.31640625,0.88671875
4148405,,,,,,,,-0.97265625,2.88671875,-1.0234375,0.294921875,-0.212890625,0.109375,-0.72265625,-6.31640625,0.7734375
4148406,,,,,,,,-1.1171875,2.6875,-1.171875,0.2890625,-0.228515625,0.095703125,-0.875,-6.5078125,0.65625
4148407,,,,,,,,-1.1953125,2.45703125,-1.23828125,0.26171875,-0.23828125,0.08203125,-0.953125,-6.734375,0.62109375
4148408,,,,,,,,-1.1953125,2.296875,-1.09375,0.25,-0.244140625,0.076171875,-0.953125,-6.89453125,0.7734375
4148409,,,,,,,,-1.07421875,2.1875,-1.0859375,0.197265625,-0.24609375,0.087890625,-0.83984375,-7.0078125,0.8125
4148410,36.012552,129.31938116666666,70.42170446057952,16.86608551682514,1.3,44.0,,-0.95703125,2.11328125,-0.95703125,0.21484375,-0.109375,0.046875,-0.72265625,-7.08203125,0.96484375
4148411,,,,,,,,-0.8046875,2.140625,-0.96484375,0.1015625,-0.19921875,0.052734375,-0.5703125,-7.05078125,0.96484375
4148412,,,,,,,,-0.8046875,2.140625,-1.05078125,0.068359375,-0.19921875,0.005859375,-0.5703125,-7.05078125,0.88671875
4148413,,,,,,,,-0.8125,2.06640625,-1.01953125,0.025390625,-0.23046875,-0.046875,-0.5703125,-7.1171875,0.92578125
4148414,,,,,,,,-0.59765625,1.72265625,-1.10546875,-0.01171875,-0.302734375,-0.083984375,-0.33984375,-7.46484375,0.84765625
4148415,,,,,,,,-0.34375,1.375,-0.98828125,-0.029296875,-0.33984375,-0.103515625,-0.0703125,-7.8125,0.96484375
4148416,,,,,,,,-0.109375,0.7265625,-0.7890625,-0.05078125,-0.3515625,-0.142578125,0.1953125,-8.4609375,1.15625
4148417,,,,,,,,-0.09375,0.49609375,-0.62890625,-0.05859375,-0.330078125,-0.173828125,0.234375,-8.69140625,1.30859375
4148418,,,,,,,,-0.0703125,0.07421875,-0.50390625,-0.05859375,-0.271484375,-0.197265625,0.2734375,-9.109375,1.42578125
4148419,,,,,,,,-0.171875,-0.38671875,-0.421875,-0.0546875,-0.234375,-0.1796875,0.1953125,-9.5703125,1.5
4148420,36.012553000000004,129.31938183333332,70.4818031693779,16.977045232100856,1.2000000000000002,43.0,,-0.1953125,-0.80078125,-0.49609375,-0.03515625,-0.205078125,-0.15625,0.1953125,-9.99609375,1.42578125
4148421,,,,,,,,-0.1796875,-1.18359375,-0.4609375,-0.017578125,-0.17578125,-0.138671875,0.234375,-10.375,1.4609375
4148422,,,,,,,,-0.04296875,-1.56640625,-0.19140625,0.009765625,-0.1328125,-0.123046875,0.38671875,-10.7578125,1.73046875
4148423,,,,,,,,0.05859375,-1.56640625,-0.11328125,0.029296875,-0.0859375,-0.1171875,0.50390625,-10.76171875,1.80859375
4148424,,,,,,,,0.1640625,-1.57421875,-0.3828125,0.04296875,-0.021484375,-0.119140625,0.6171875,-10.7578125,1.5390625
4148425,,,,,,,,0.15625,-1.7265625,-0.66015625,0.060546875,0.02734375,-0.11328125,0.6171875,-10.9140625,1.26953125
4148426,,,,,,,,0.1875,-1.8046875,-0.6953125,0.064453125,0.04296875,-0.111328125,0.65625,-10.9921875,1.234375
4148427,,,,,,,,0.484375,-1.45703125,-0.55078125,0.083984375,0.05078125,-0.046875,0.9609375,-10.640625,1.38671875
4148428,,,,,,,,0.4765625,-0.69140625,-0.4453125,0.091796875,0.0859375,-0.009765625,0.9609375,-9.875,1.5
4148429,,,,,,,,-0.09765625,0.1484375,-0.3828125,0.08984375,0.171875,0.013671875,0.38671875,-9.0390625,1.578125
4148430,36.01255366666667,129.31938283333332,70.5719519718851,17.051018778238095,1.1,46.0,,-0.5859375,0.6875,-0.31640625,0.103515625,0.2421875,0.01953125,-0.109375,-8.5,1.65234375
4148431,,,,,,,,-1.15234375,0.75390625,-0.58984375,0.11328125,0.25390625,0.05859375,-0.68359375,-8.421875,1.38671875
4148432,,,,,,,,-1.18359375,0.37109375,-0.828125,0.12890625,0.267578125,0.08984375,-0.72265625,-8.8046875,1.15625
4148433,,,,,,,,-0.96875,-0.73046875,-1.08203125,0.138671875,0.376953125,0.0859375,-0.53125,-9.91796875,0.92578125
4148434,,,,,,,,0.08203125,-0.85546875,0.625,0.126953125,0.482421875,0.013671875,0.50390625,-10.03125,2.6484375
4148435,,,,,,,,0.703125,-1.7734375,0.84765625,0.09375,0.7421875,-0.13671875,1.421875,-11.984375,2.7265625
4148436,,,,,,,,1.0078125,-2.80859375,0.6875,0.072265625,0.87109375,-0.203125,2.07421875,-14.20703125,2.7265625
4148437,,,,,,,,2.00390625,-5.91796875,1.09375,0.021484375,0.990234375,-0.310546875,2.87890625,-15.546875,3.9140625
4148438,,,,,,,,3.60546875,-6.109375,3.23046875,0.005859375,0.97265625,-0.341796875,4.37109375,-14.86328125,5.5234375
4148439,,,,,,,,3.94140625,-5.671875,3.4609375,0.001953125,1.0234375,-0.361328125,4.44921875,-14.40234375,5.59765625
4148440,36.0125545,129.31938433333335,70.70717532324947,17.143485892298795,1.3,49.0,,-0.5859375,0.6875,-0.31640625,0.0078125,1.15625,-0.42578125,2.91796875,-12.94921875,4.91015625
4148441,,,,,,,,1.87890625,-3.61328125,2.48828125,0.080078125,0.962890625,-0.486328125,1.26953125,-13.05859375,4.21875
4148442,,,,,,,,0.5078125,-4.0234375,2.01171875,0.1484375,0.32421875,-0.337890625,0.88671875,-13.37109375,4.02734375
4148443,,,,,,,,0.484375,-4.109375,1.8828125,0.216796875,-0.248046875,-0.09375,1.0,-13.2890625,3.9921875
4148444,,,,,,,,0.890625,-3.421875,1.484375,0.228515625,-0.443359375,-0.08984375,1.421875,-12.6015625,3.609375
4148445,,,,,,,,0.9140625,-2.76953125,1.3125,0.19140625,-0.419921875,-0.220703125,1.4609375,-11.94921875,3.453125
4148446,,,,,,,,0.65234375,-1.97265625,1.13671875,0.125,-0.4453125,-0.263671875,1.23046875,-11.14453125,3.30078125
4148447,,,,,,,,0.65234375,-1.3125,0.82421875,0.02734375,-0.529296875,-0.166015625,1.26953125,-10.4921875,2.99609375
4148448,,,,,,,,0.6953125,-1.08203125,0.5859375,-0.0703125,-0.546875,-0.00390625,1.34375,-10.26171875,2.765625
4148449,,,,,,,,0.4609375,-0.5,0.1796875,-0.14453125,-0.4921875,0.07421875,1.1171875,-9.69140625,2.34375
4148450,36.0125555,129.3193855,70.8123487229744,17.254445972972285,1.3,50.0,,0.25390625,-0.0625,-0.06640625,-0.185546875,-0.392578125,0.0546875,0.92578125,-9.26953125,2.07421875
4148451,,,,,,,,-0.09375,0.51953125,-0.35546875,-0.203125,-0.2890625,-0.01171875,0.578125,-8.69140625,1.76953125
4148452,,,,,,,,-0.25390625,0.79296875,-0.38671875,-0.203125,-0.23828125,-0.025390625,0.42578125,-8.42578125,1.73046875
4148453,,,,,,,,-0.53125,1.26171875,-0.5546875,-0.20703125,-0.173828125,-0.068359375,0.15625,-7.9609375,1.5390625
4148454,,,,,,,,-0.58203125,1.76953125,-0.80859375,-0.201171875,-0.140625,-0.099609375,0.12109375,-7.46484375,1.26953125
4148455,,,,,,,,-0.33203125,2.15234375,-1.015625,-0.21484375,-0.11328125,-0.109375,0.38671875,-7.08203125,1.0390625
4148456,,,,,,,,-0.17578125,2.3203125,-1.03515625,-0.21875,-0.09765625,-0.115234375,0.54296875,-6.9296875,1.00390625
4148457,,,,,,,,0.10546875,2.5859375,-1.05859375,-0.248046875,-0.07421875,-0.11328125,0.84765625,-6.66796875,0.96484375
4148458,,,,,,,,0.6640625,2.82421875,-0.9453125,-0.279296875,-0.0625,-0.10546875,1.421875,-6.43359375,1.0390625
4148459,,,,,,,,0.6953125,2.91015625,-0.859375,-0.296875,-0.05859375,-0.099609375,1.4609375,-6.35546875,1.1171875
4148460,36.012556499999995,129.31938616666667,70.8724474218504,17.365405691074553,1.4000000000000001,50.0,,0.76171875,3.0390625,-0.94921875,-0.185546875,-0.392578125,0.0546875,0.92578125,-9.26953125,2.07421875
4148461,,,,,,,,0.87109375,3.00390625,-1.1484375,-0.287109375,0.009765625,-0.107421875,1.65234375,-6.2734375,0.7734375
4148462,,,,,,,,1.0859375,2.89453125,-1.35546875,-0.26171875,-0.005859375,-0.099609375,1.8828125,-6.39453125,0.54296875
4148463,,,,,,,,1.13671875,2.6328125,-1.46875,-0.240234375,-0.095703125,-0.123046875,1.95703125,-6.66796875,0.390625
4148464,,,,,,,,1.0859375,2.44140625,-1.37109375,-0.21484375,-0.162109375,-0.150390625,1.921875,-6.85546875,0.46484375
4148465,,,,,,,,0.9921875,2.375,-1.125,-0.1796875,-0.189453125,-0.154296875,1.84375,-6.93359375,0.6953125
4148466,,,,,,,,0.8984375,2.4140625,-1.109375,-0.150390625,-0.20703125,-0.111328125,1.765625,-6.890625,0.6953125
4148467,,,,,,,,0.953125,2.3359375,-1.16796875,-0.1171875,-0.212890625,-0.037109375,1.84375,-6.96875,0.62109375
4148468,,,,,,,,1.06640625,1.953125,-1.23828125,-0.08203125,-0.24609375,0.037109375,1.95703125,-7.3515625,0.54296875
4148469,,,,,,,,0.953125,1.73046875,-1.14453125,-0.060546875,-0.279296875,0.099609375,1.84375,-7.58203125,0.62109375
4148470,36.01255716666667,129.31938716666667,70.96259621705646,17.43937924169836,1.2000000000000002,50.0,,0.83984375,1.42578125,-1.1015625,-0.041015625,-0.298828125,0.140625,1.73046875,-7.88671875,0.65625
4148471,,,,,,,,0.69921875,0.92578125,-0.86328125,-0.029296875,-0.2890625,0.1796875,1.57421875,-8.38671875,0.88671875
4148472,,,,,,,,0.59375,0.4375,-0.7109375,-0.021484375,-0.279296875,0.240234375,1.4609375,-8.88671875,1.0390625
4148473,,,,,,,,0.5625,0.12109375,-0.6328125,-0.021484375,-0.271484375,0.267578125,1.421875,-9.1875,1.1171875
4148474,,,,,,,,0.5546875,-0.29296875,-0.42578125,-0.00390625,-0.251953125,0.330078125,1.3828125,-9.609375,1.30859375
4148475,,,,,,,,0.42578125,-0.55859375,-0.2734375,0.0078125,-0.224609375,0.322265625,1.23046875,-9.87890625,1.4609375
4148476,,,,,,,,0.15234375,-0.75,-0.00390625,0.009765625,-0.203125,0.318359375,0.92578125,-10.0703125,1.73046875
4148477,,,,,,,,0.05859375,-0.7421875,0.1484375,0.0078125,-0.166015625,0.326171875,0.80859375,-10.07421875,1.8828125
4148478,,,,,,,,-0.078125,-0.70703125,0.2265625,0.001953125,-0.1484375,0.32421875,0.65625,-10.03125,1.9609375
4148479,,,,,,,,-0.0625,-0.78125,0.04296875,-0.013671875,-0.091796875,0.306640625,0.578125,-10.3359375,1.65234375
4148480,36.012558166666665,129.31938816666667,71.05274471211133,17.550339203018947,1.2000000000000002,45.0,,0.015625,-1.38671875,-0.1875,-0.0234375,-0.076171875,0.263671875,1.73046875,-7.88671875,0.65625
4148481,,,,,,,,0.15234375,-1.76953125,-0.33984375,-0.041015625,-0.044921875,0.205078125,0.80859375,-11.10546875,1.38671875
4148482,,,,,,,,0.19921875,-1.921875,-0.02734375,-0.08984375,0.0546875,0.076171875,0.88671875,-11.296875,1.84375
4148483,,,,,,,,0.24609375,-1.9609375,0.1328125,-0.091796875,0.095703125,0.03515625,0.88671875,-11.52734375,2.07421875
4148484,,,,,,,,0.3125,-2.796875,0.5625,-0.10546875,0.1796875,-0.05859375,1.0,-12.671875,2.34375
4148485,,,,,,,,0.3515625,-3.90625,0.53125,-0.10546875,0.263671875,-0.103515625,0.76953125,-14.28515625,2.421875
4148486,,,,,,,,-0.15234375,-5.01953125,1.15234375,-0.1171875,0.330078125,-0.11328125,0.04296875,-13.94140625,3.4921875
4148487,,,,,,,,-1.07421875,-4.12890625,2.35546875,-0.12890625,0.4296875,-0.138671875,-0.953125,-13.3671875,4.06640625
4148488,,,,,,,,-1.6171875,-4.015625,2.39453125,-0.142578125,0.48046875,-0.150390625,-1.03125,-13.48046875,3.8359375
4148489,,,,,,,,-1.81640625,-4.08984375,2.171875,-0.169921875,0.599609375,-0.205078125,-1.2578125,-12.83203125,4.14453125
4148490,36.01255916666666,129.31938933333333,71.15791809998225,17.661299288156997,1.3,45.0,,0.015625,-1.38671875,-0.1875,-0.0234375,-0.076171875,0.263671875,-1.8359375,-10.4921875,5.1015625
4148491,,,,,,,,-2.55859375,-0.78125,3.5390625,-0.13671875,0.419921875,-0.125,-1.22265625,-10.23046875,4.6796875
4148492,,,,,,,,-1.2265625,-1.125,2.81640625,-0.17578125,0.439453125,-0.310546875,0.34765625,-10.8359375,4.41015625
4148493,,,,,,,,-0.37109375,-1.46875,2.78515625,-0.16796875,0.30859375,-0.328125,1.23046875,-11.2578125,4.41015625
4148494,,,,,,,,1.66796875,-2.3515625,2.83984375,-0.203125,-0.0078125,-0.29296875,2.45703125,-11.72265625,4.41015625
4148495,,,,,,,,1.453125,-2.3046875,2.51953125,-0.193359375,-0.060546875,-0.384765625,2.2265625,-11.68359375,4.10546875
4148496,,,,,,,,0.78515625,-2.10546875,2.45703125,-0.125,0.0546875,-0.357421875,1.61328125,-11.484375,4.02734375
4148497,,,,,,,,-0.234375,-1.453125,1.81640625,-0.0390625,0.029296875,-0.099609375,0.6171875,-10.8359375,3.37890625
4148498,,,,,,,,-0.47265625,-1.26171875,1.73828125,0.0,-0.00390625,0.029296875,0.38671875,-10.64453125,3.30078125
4148499,,,,,,,,-0.73046875,-1.02734375,1.81640625,0.06640625,-0.01953125,0.12109375,0.12109375,-10.41796875,3.37890625
4148500,36.01256,129.31939016666666,71.23304184170354,17.753765925487443,1.3,44.0,0.0,-0.640625,-0.98046875,1.78515625,-0.0234375,-0.076171875,0.263671875,0.1953125,-10.37890625,3.37890625
4148501,,,,,,,,-0.515625,-0.71875,1.29296875,0.271484375,-0.099609375,0.16796875,0.3125,-10.11328125,2.91796875
4148502,,,,,,,,-0.38671875,-0.296875,0.96484375,0.27734375,-0.064453125,0.259765625,0.42578125,-9.69140625,2.61328125
4148503,,,,,,,,-0.25390625,0.0078125,0.83203125,0.275390625,-0.041015625,0.28125,0.54296875,-9.3828125,2.49609375
4148504,,,,,,,,-0.140625,0.515625,0.5546875,0.26171875,-0.033203125,0.279296875,0.6171875,-8.8828125,2.265625
4148505,,,,,,,,-0.1171875,1.05078125,0.265625,0.267578125,-0.02734375,0.271484375,0.6171875,-8.34765625,2.0
4148506,,,,,,,,-0.0546875,1.39453125,0.0859375,0.26953125,-0.0390625,0.287109375,0.65625,-8.00390625,1.84375
4148507,,,,,,,,-0.03125,1.93359375,-0.1796875,0.267578125,-0.052734375,0.291015625,0.65625,-7.4609375,1.6171875
4148508,,,,,,,,-0.015625,2.125,-0.3046875,0.26953125,-0.064453125,0.2890625,0.65625,-7.2734375,1.5
4148509,,,,,,,,-0.10546875,2.66015625,-0.40234375,0.28125,-0.080078125,0.275390625,0.54296875,-6.73828125,1.42578125
4148510,36.012561,129.31939083333333,71.29314053468848,17.86472564688397,1.3,44.0,,-0.19921875,2.8125,-0.51953125,-0.0234375,-0.076171875,0.263671875,0.42578125,-6.5859375,1.34765625
4148511,,,,,,,,-0.4140625,2.8046875,-0.54296875,0.3046875,-0.12109375,0.234375,0.1953125,-6.58984375,1.34765625
4148512,,,,,,,,-0.83984375,2.765625,-0.65234375,0.318359375,-0.134765625,0.21484375,-0.26171875,-6.62890625,1.26953125
4148513,,,,,,,,-0.98828125,2.765625,-0.703125,0.322265625,-0.146484375,0.21484375,-0.41796875,-6.62890625,1.234375
4148514,,,,,,,,-1.125,2.7265625,-0.890625,0.32421875,-0.158203125,0.189453125,-0.5703125,-6.66796875,1.078125
4148515,,,,,,,,-1.26953125,2.64453125,-0.9609375,0.3203125,-0.140625,0.173828125,-0.72265625,-6.734375,1.0390625
4148516,,,,,,,,-1.17578125,2.63671875,-1.11328125,0.28125,-0.154296875,0.1640625,-0.64453125,-6.73828125,0.92578125
4148517,,,,,,,,-1.19921875,2.4765625,-1.18359375,0.236328125,-0.173828125,0.158203125,-0.68359375,-6.890625,0.88671875
4148518,,,,,,,,-1.19140625,2.359375,-1.23046875,0.21875,-0.18359375,0.154296875,-0.68359375,-7.01171875,0.84765625
4148519,,,,,,,,-1.26171875,2.16796875,-1.21484375,0.16796875,-0.1953125,0.140625,-0.76171875,-7.1953125,0.88671875
4148520,36.01256183333333,129.31939183333333,71.38328916880036,17.957192407083983,1.2000000000000002,42.0,,-1.24609375,2.0859375,-1.19140625,-0.0234375,-0.076171875,0.263671875,0.42578125,-6.5859375,1.34765625
4148521,,,,,,,,-1.046875,1.9609375,-1.23828125,0.041015625,-0.203125,0.130859375,-0.5703125,-7.39453125,0.88671875
4148522,,,,,,,,-0.921875,1.9609375,-1.3515625,0.00390625,-0.1875,0.1171875,-0.453125,-7.39453125,0.7734375
4148523,,,,,,,,-0.6953125,1.73828125,-1.390625,-0.03125,-0.17578125,0.0703125,-0.2265625,-7.6171875,0.734375
4148524,,,,,,,,-0.6484375,1.31640625,-1.390625,-0.052734375,-0.1875,0.017578125,-0.1875,-8.04296875,0.734375
4148525,,,,,,,,-0.6171875,0.7421875,-1.10546875,-0.0703125,-0.185546875,-0.0390625,-0.1484375,-8.62109375,1.00390625
4148526,,,,,,,,-0.625,0.359375,-0.953125,-0.078125,-0.171875,-0.046875,-0.1484375,-9.0,1.15625
4148527,,,,,,,,-0.59375,0.09375,-0.75390625,-0.083984375,-0.14453125,-0.068359375,-0.109375,-9.265625,1.34765625
4148528,,,,,,,,-0.6015625,-0.17578125,-0.66015625,-0.083984375,-0.11328125,-0.095703125,-0.109375,-9.53515625,1.42578125
4148529,,,,,,,,-0.6171875,-0.3359375,-0.65234375,-0.08203125,-0.087890625,-0.119140625,-0.109375,-9.6875,1.42578125
4148530,36.01256266666667,129.3193926666667,71.45841290862427,18.049659045168756,1.1,45.0,,-0.51171875,-0.26171875,-0.64453125,-0.072265625,-0.083984375,-0.138671875,0.00390625,-9.61328125,1.42578125
4148531,,,,,,,,-0.48828125,-0.22265625,-0.64453125,-0.0625,-0.095703125,-0.150390625,0.04296875,-9.5703125,1.42578125
4148532,,,,,,,,-0.45703125,-0.22265625,-0.6015625,-0.052734375,-0.11328125,-0.15234375,0.08203125,-9.5703125,1.4609375
4148533,,,,,,,,-0.43359375,-0.375,-0.5625,-0.037109375,-0.111328125,-0.166015625,0.12109375,-9.7265625,1.5
4148534,,,,,,,,-0.3046875,-0.52734375,-0.74609375,-0.009765625,-0.107421875,-0.173828125,0.2734375,-9.875,1.30859375
4148535,,,,,,,,-0.015625,-0.796875,-0.9765625,0.015625,-0.033203125,-0.18359375,0.578125,-10.1484375,1.078125
4148536,,,,,,,,0.015625,-0.8828125,-0.9765625,0.033203125,0.01171875,-0.19140625,0.6171875,-10.23046875,1.078125
4148537,,,,,,,,0.0703125,-0.3828125,-0.72265625,0.052734375,0.1171875,-0.189453125,0.6953125,-9.73046875,1.34765625
4148538,,,,,,,,-0.25390625,0.26953125,-0.5703125,0.06640625,0.212890625,-0.16796875,0.38671875,-9.0703125,1.5
4148539,,,,,,,,-0.4140625,0.34375,-0.4609375,0.068359375,0.26171875,-0.15234375,0.234375,-9.00390625,1.6171875
4148540,36.012563500000006,129.31939383333332,71.56358643637219,18.14212593020698,1.2000000000000002,48.0,,-0.875,-0.7734375,-0.69921875,-0.072265625,-0.083984375,-0.138671875,0.00390625,-9.61328125,1.42578125
4148541,,,,,,,,-0.7578125,-2.765625,-0.32421875,0.087890625,0.365234375,-0.0859375,-0.109375,-12.10546875,1.76953125
4148542,,,,,,,,-0.30078125,-3.5390625,0.578125,0.107421875,0.419921875,-0.080078125,0.34765625,-12.8671875,2.6875
4148543,,,,,,,,1.30859375,-3.08203125,1.90234375,0.103515625,0.5703125,-0.1640625,1.95703125,-12.40625,4.02734375
4148544,,,,,,,,2.375,-3.6640625,1.62890625,0.087890625,0.814453125,-0.30078125,3.03125,-12.984375,3.76171875
4148545,,,,,,,,3.26171875,-3.86328125,2.75390625,0.072265625,0.857421875,-0.53125,3.94921875,-13.17578125,4.91015625
4148546,,,,,,,,3.38671875,-3.6328125,3.16796875,0.072265625,0.63671875,-0.49609375,4.10546875,-12.94921875,5.33203125
4148547,,,,,,,,2.2109375,-3.515625,3.2265625,0.095703125,0.544921875,-0.345703125,2.953125,-12.828125,5.40625
4148548,,,,,,,,0.85546875,-3.40234375,3.328125,0.123046875,0.4921875,-0.265625,1.61328125,-12.71484375,5.5234375
4148549,,,,,,,,-0.66796875,-3.71484375,2.4609375,0.17578125,0.0546875,-0.208984375,0.12109375,-13.01953125,4.6796875
4148550,36.0125645,129.3193945,71.62368511963035,18.25308565327417,1.2000000000000002,48.0,,-0.33984375,-3.2578125,1.71875,-0.072265625,-0.083984375,-0.138671875,0.00390625,-9.61328125,1.42578125
4148551,,,,,,,,0.296875,-2.30078125,1.6640625,0.162109375,-0.279296875,-0.142578125,1.1171875,-11.60546875,3.9140625
4148552,,,,,,,,0.80859375,-1.76953125,1.3125,0.087890625,-0.384765625,-0.2265625,1.65234375,-11.0625,3.5703125
4148553,,,,,,,,0.74609375,-1.65625,1.10546875,0.04296875,-0.373046875,-0.279296875,1.61328125,-10.953125,3.37890625
4148554,,,,,,,,0.5234375,-1.609375,0.99609375,-0.048828125,-0.345703125,-0.283203125,1.421875,-10.91796875,3.26171875
4148555,,,,,,,,0.3984375,-1.53125,0.67578125,-0.189453125,-0.298828125,-0.244140625,1.34375,-10.8359375,2.91796875
4148556,,,,,,,,0.21484375,-0.796875,0.1171875,-0.25,-0.158203125,-0.234375,1.19140625,-10.11328125,2.34375
4148557,,,,,,,,-0.0078125,-0.21484375,-0.08984375,-0.28515625,-0.064453125,-0.255859375,1.0,-9.53125,2.11328125
4148558,,,,,,,,-0.20703125,0.24609375,-0.265625,-0.298828125,-0.03125,-0.283203125,0.80859375,-9.0703125,1.921875
4148559,,,,,,,,-0.29296875,0.71875,-0.41796875,-0.3203125,0.01171875,-0.310546875,0.76953125,-8.6171875,1.73046875
4148560,36.0125655,129.31939533333335,71.69880870320802,18.36404549966229,1.2000000000000002,48.0,,-0.31640625,1.37109375,-0.6640625,-0.322265625,-0.001953125,-0.279296875,0.76953125,-7.9609375,1.4609375
4148561,,,,,,,,-0.33984375,1.9140625,-0.9765625,-0.32421875,-0.005859375,-0.2421875,0.76953125,-7.4296875,1.1171875
4148562,,,,,,,,-0.32421875,2.23828125,-1.0234375,-0.341796875,-0.0078125,-0.23046875,0.80859375,-7.1171875,1.0390625
4148563,,,,,,,,-0.26171875,2.3125,-1.04296875,-0.34765625,0.005859375,-0.22265625,0.88671875,-7.046875,1.00390625
4148564,,,,,,,,-0.125,2.55078125,-1.05078125,-0.3671875,0.01171875,-0.19140625,1.0390625,-6.8125,0.96484375
4148565,,,,,,,,0.01171875,2.7890625,-1.08984375,-0.392578125,0.00390625,-0.146484375,1.19140625,-6.58984375,0.88671875
4148566,,,,,,,,0.11328125,3.09765625,-1.1328125,-0.40625,-0.0078125,-0.1171875,1.30859375,-6.27734375,0.8125
4148567,,,,,,,,0.37109375,3.21875,-1.28515625,-0.4140625,-0.017578125,-0.0859375,1.57421875,-6.16796875,0.62109375
4148568,,,,,,,,0.44921875,3.2265625,-1.33984375,-0.412109375,-0.0234375,-0.072265625,1.65234375,-6.1640625,0.54296875
4148569,,,,,,,,0.5859375,3.234375,-1.421875,-0.39453125,-0.05859375,-0.060546875,1.8046875,-6.1640625,0.4296875
4148570,36.01256633333333,129.31939616666665,71.77393243179893,18.45651214087362,1.2000000000000002,49.0,,0.88671875,2.97265625,-1.61328125,-0.376953125,-0.091796875,-0.083984375,2.11328125,-6.4296875,0.19921875
4148571,,,,,,,,0.953125,2.71484375,-1.65234375,-0.349609375,-0.109375,-0.12109375,2.1875,-6.6953125,0.12109375
4148572,,,,,,,,0.82421875,2.53125,-1.58203125,-0.302734375,-0.130859375,-0.1328125,2.07421875,-6.890625,0.16015625
4148573,,,,,,,,0.73046875,2.375,-1.3984375,-0.26171875,-0.146484375,-0.103515625,1.99609375,-7.05078125,0.3125
4148574,,,,,,,,0.6015625,2.21484375,-1.14453125,-0.21484375,-0.134765625,-0.05078125,1.8828125,-7.1953125,0.54296875
4148575,,,,,,,,0.5234375,2.0703125,-0.82421875,-0.16015625,-0.134765625,0.025390625,1.8046875,-7.35546875,0.84765625
4148576,,,,,,,,0.45703125,1.91796875,-0.80859375,-0.111328125,-0.140625,0.126953125,1.73046875,-7.5,0.84765625
4148577,,,,,,,,0.27734375,1.6171875,-0.80078125,-0.07421875,-0.1640625,0.251953125,1.53515625,-7.8125,0.84765625
4148578,,,,,,,,0.109375,1.46484375,-0.79296875,-0.025390625,-0.185546875,0.34375,1.34375,-7.96484375,0.84765625
4148579,,,,,,,,0.06640625,1.203125,-0.8203125,-0.001953125,-0.23046875,0.416015625,1.26953125,-8.234375,0.8125
4148580,36.012567,129.31939716666665,71.8640812059182,18.53048570020322,1.2000000000000002,49.0,,0.00390625,0.4765625,-0.59375,-0.376953125,-0.091796875,-0.083984375,2.11328125,-6.4296875,0.19921875
4148581,,,,,,,,0.0,0.171875,-0.390625,0.04296875,-0.3046875,0.47265625,1.1171875,-9.265625,1.234375
4148582,,,,,,,,-0.078125,-0.12890625,-0.015625,0.0546875,-0.302734375,0.47265625,1.0,-9.57421875,1.6171875
4148583,,,,,,,,-0.14453125,-0.2734375,0.09765625,0.048828125,-0.2734375,0.484375,0.88671875,-9.73046875,1.73046875
4148584,,,,,,,,-0.18359375,-0.3125,0.09765625,0.041015625,-0.2421875,0.50390625,0.80859375,-9.76953125,1.73046875
4148585,,,,,,,,-0.13671875,-0.3046875,0.05859375,0.037109375,-0.201171875,0.525390625,0.80859375,-9.76953125,1.69140625
4148586,,,,,,,,0.01953125,-0.38671875,-0.1796875,0.013671875,-0.173828125,0.501953125,0.92578125,-9.8359375,1.4609375
4148587,,,,,,,,0.1015625,-0.80078125,-0.4375,-0.01171875,-0.158203125,0.4375,0.9609375,-10.26171875,1.1953125
4148588,,,,,,,,0.1328125,-1.22265625,-0.515625,-0.03125,-0.111328125,0.373046875,0.9609375,-10.68359375,1.1171875
4148589,,,,,,,,-0.02734375,-2.171875,-0.19921875,-0.0546875,-0.056640625,0.310546875,0.76953125,-11.64453125,1.42578125
4148590,36.01256816666667,129.31939833333334,71.96925442471094,18.65993900087527,1.3,44.0,,-0.25390625,-2.13671875,0.234375,-0.076171875,0.07421875,0.224609375,0.50390625,-11.60546875,1.84375
4148591,,,,,,,,-0.35546875,-1.70703125,0.6953125,-0.07421875,0.173828125,0.171875,0.38671875,-11.18359375,2.3046875
4148592,,,,,,,,-0.078125,-2.3203125,0.43359375,-0.0703125,0.220703125,0.16015625,0.65625,-11.80078125,2.03515625
4148593,,,,,,,,0.3671875,-4.04296875,0.21484375,-0.0625,0.2890625,0.15234375,1.078125,-13.515625,1.80859375
4148594,,,,,,,,-0.1171875,-4.88671875,0.40625,-0.056640625,0.267578125,0.14453125,0.578125,-14.359375,2.0
4148595,,,,,,,,-1.7109375,-3.30859375,1.9765625,-0.07421875,0.23828125,0.087890625,-1.03125,-12.7890625,3.5703125
4148596,,,,,,,,-1.96875,-2.88671875,2.09765625,-0.08984375,0.294921875,0.03125,-1.296875,-12.3671875,3.68359375
4148597,,,,,,,,-1.9296875,-3.18359375,1.9140625,-0.13671875,0.5703125,0.005859375,-1.2578125,-12.671875,3.4921875
4148598,,,,,,,,-1.87890625,-2.91015625,2.265625,-0.119140625,0.57421875,0.05078125,-1.22265625,-12.40625,3.8359375
4148599,,,,,,,,-2.67578125,-0.80078125,3.15625,-0.099609375,0.474609375,0.087890625,-2.02734375,-10.30078125,4.71875
4148600,36.012569,129.31939933333334,72.05940304589143,18.752405766938242,1.2000000000000002,43.0,0.0,-0.25390625,-2.13671875,0.234375,-0.076171875,0.07421875,0.224609375,-1.56640625,-10.03125,4.640625
4148601,,,,,,,,-0.75,-1.4140625,2.828125,-0.13671875,0.40234375,-0.259765625,0.734375,-11.41796875,4.48828125
4148602,,,,,,,,0.765625,-2.33203125,3.140625,-0.119140625,0.109375,-0.1796875,1.84375,-12.02734375,4.640625
4148603,,,,,,,,1.25,-2.515625,3.1171875,-0.1015625,-0.171875,-0.287109375,1.421875,-11.796875,4.296875
4148604,,,,,,,,0.25,-1.8984375,2.7421875,-0.03125,0.03515625,-0.33984375,0.6953125,-11.22265625,4.296875
4148605,,,,,,,,-0.27734375,-1.51171875,2.66796875,0.046875,0.056640625,-0.091796875,0.08203125,-10.7578125,3.875
4148606,,,,,,,,-0.67578125,-1.25390625,2.359375,0.0703125,-0.001953125,0.068359375,-0.109375,-10.640625,3.72265625
4148607,,,,,,,,-0.9296875,-1.09375,2.19921875,0.109375,-0.07421875,0.205078125,-0.1875,-10.53515625,3.64453125
4148608,,,,,,,,-0.796875,-1.015625,2.0703125,0.16796875,-0.07421875,0.14453125,-0.0703125,-10.5703125,3.609375
4148609,,,,,,,,-0.67578125,-1.015625,1.96875,0.232421875,-0.087890625,0.09765625,0.12109375,-10.37890625,3.37890625
4148610,36.01257016666667,129.31940033333333,72.1495513616507,18.88185894753759,1.3,41.0,,-0.25390625,-2.13671875,0.234375,-0.076171875,0.07421875,0.224609375,0.234375,-9.99609375,3.109375
4148611,,,,,,,,-0.33984375,0.01953125,1.23046875,0.28515625,-0.0234375,0.1875,0.34765625,-9.49609375,2.83984375
4148612,,,,,,,,-0.28515625,0.36328125,1.015625,0.291015625,0.01953125,0.21875,0.50390625,-8.92578125,2.53515625
4148613,,,,,,,,-0.078125,0.9375,0.6015625,0.306640625,0.013671875,0.21875,0.578125,-8.578125,2.265625
4148614,,,,,,,,0.0234375,1.28125,0.2578125,0.328125,-0.00390625,0.2265625,0.6171875,-8.04296875,1.80859375
4148615,,,,,,,,0.09375,1.96484375,-0.2109375,0.349609375,-0.001953125,0.220703125,0.6953125,-7.54296875,1.5390625
4148616,,,,,,,,0.17578125,2.15625,-0.37890625,0.353515625,0.009765625,0.224609375,0.76953125,-7.3515625,1.38671875
4148617,,,,,,,,0.171875,2.578125,-0.49609375,0.357421875,0.01171875,0.22265625,0.734375,-6.9296875,1.30859375
4148618,,,,,,,,0.1484375,2.76171875,-0.57421875,0.36328125,0.029296875,0.2421875,0.6953125,-6.625,1.234375
4148619,,,,,,,,0.0546875,3.10546875,-0.84375,0.373046875,0.025390625,0.25,0.46484375,-6.3515625,1.078125
4148620,36.012571,129.319401,72.20965018485103,18.974325468236316,1.2000000000000002,43.0,,-0.25390625,-2.13671875,0.234375,0.384765625,0.0078125,0.251953125,0.234375,-9.99609375,3.109375
4148621,,,,,,,,-0.5390625,3.21484375,-1.1484375,0.396484375,-0.01953125,0.25,-0.0703125,-6.27734375,0.8125
4148622,,,,,,,,-0.890625,3.015625,-1.3203125,0.40234375,-0.0390625,0.2421875,-0.453125,-6.47265625,0.6953125
4148623,,,,,,,,-1.0390625,2.8515625,-1.375,0.40234375,-0.041015625,0.24609375,-0.609375,-6.625,0.65625
4148624,,,,,,,,-1.265625,2.60546875,-1.51171875,0.375,-0.041015625,0.240234375,-0.875,-6.85546875,0.58203125
4148625,,,,,,,,-1.2421875,2.4453125,-1.62890625,0.353515625,-0.03125,0.228515625,-0.875,-7.01171875,0.50390625
4148626,,,,,,,,-1.2578125,2.0546875,-1.69140625,0.28125,-0.02734375,0.208984375,-0.875,-7.4296875,0.50390625
4148627,,,,,,,,-1.08984375,1.78125,-1.60546875,0.224609375,-0.03125,0.20703125,-0.72265625,-7.7734375,0.65625
4148628,,,,,,,,-1.03515625,1.6640625,-1.546875,0.19921875,-0.041015625,0.203125,-0.609375,-7.9609375,0.8125
4148629,,,,,,,,-0.828125,1.42578125,-1.4140625,0.1484375,-0.029296875,0.1796875,-0.453125,-8.04296875,0.8125
4148630,36.01257183333333,129.31940183333333,72.2847739046689,19.066792114506427,1.1,43.0,,-0.66015625,1.38671875,-1.421875,0.09765625,-0.017578125,0.14453125,-0.41796875,-8.04296875,0.7734375
4148631,,,,,,,,-0.71875,1.38671875,-1.46875,0.05859375,-0.0234375,0.11328125,-0.453125,-8.1953125,0.6953125
4148632,,,,,,,,-0.66796875,1.15234375,-1.5546875,0.03515625,-0.05078125,0.064453125,-0.37890625,-8.46484375,0.734375
4148633,,,,,,,,-0.62890625,0.9609375,-1.515625,0.021484375,-0.1015625,0.033203125,-0.26171875,-8.84765625,0.734375
4148634,,,,,,,,-0.4296875,0.33984375,-1.484375,0.015625,-0.166015625,0.021484375,0.00390625,-9.38671875,1.00390625
4148635,,,,,,,,-0.16015625,-0.15234375,-1.109375,0.00390625,-0.20703125,0.0,0.08203125,-9.61328125,1.30859375
4148636,,,,,,,,-0.20703125,-0.19921875,-0.83203125,-0.015625,-0.197265625,-0.048828125,-0.03515625,-9.609375,1.4609375
4148637,,,,,,,,-0.4453125,-0.12109375,-0.83203125,-0.02734375,-0.169921875,-0.09765625,-0.26171875,-9.4921875,1.30859375
4148638,,,,,,,,-0.52734375,-0.08203125,-0.94140625,-0.029296875,-0.171875,-0.11328125,-0.33984375,-9.49609375,1.1953125
4148639,,,,,,,,-0.54296875,-0.19921875,-1.24609375,-0.033203125,-0.22265625,-0.08203125,-0.26171875,-9.6875,0.96484375
4148640,36.01257283333334,129.31940233333336,72.32984767988769,19.177751719547253,1.1,43.0,,-0.4375,-0.359375,-1.23828125,-0.033203125,-0.29296875,-0.0546875,-0.03515625,-9.91796875,1.00390625
4148641,,,,,,,,-0.26171875,-0.62890625,-1.1640625,-0.017578125,-0.279296875,-0.08984375,0.08203125,-10.11328125,1.078125
4148642,,,,,,,,-0.23046875,-0.703125,-1.15625,-0.013671875,-0.248046875,-0.115234375,0.1953125,-10.26171875,1.078125
4148643,,,,,,,,-0.0625,-1.01171875,-1.15625,-0.00390625,-0.14453125,-0.16796875,0.34765625,-10.53515625,1.0390625
4148644,,,,,,,,0.08203125,-1.203125,-1.1953125,0.0078125,-0.04296875,-0.201171875,0.6953125,-10.796875,1.0390625
4148645,,,,,,,,0.39453125,-1.40234375,-1.22265625,0.015625,0.087890625,-0.193359375,0.92578125,-10.53125,1.1171875
4148646,,,,,,,,0.54296875,-1.1328125,-1.1171875,0.01953125,0.115234375,-0.185546875,0.9609375,-10.37890625,1.1953125
4148647,,,,,,,,0.52734375,-0.7890625,-1.0390625,0.01953125,0.185546875,-0.162109375,0.76953125,-9.8046875,1.078125
4148648,,,,,,,,0.13671875,-0.09765625,-0.96484375,0.013671875,0.26953125,-0.126953125,0.38671875,-9.45703125,1.30859375
4148649,,,,,,,,-0.01953125,-0.05859375,-0.92578125,0.017578125,0.294921875,-0.109375,0.234375,-9.65234375,1.1953125
4148650,36.01257366666667,129.3194036666667,72.4500460825453,19.2702187383173,1.2000000000000002,47.0,,-0.4375,-0.359375,-1.23828125,0.044921875,0.298828125,-0.033203125,-0.0703125,-11.18359375,1.078125
4148651,,,,,,,,-0.27734375,-2.48046875,-0.6640625,0.064453125,0.33203125,-0.015625,0.12109375,-11.8671875,1.578125
4148652,,,,,,,,0.49609375,-1.9140625,0.58984375,0.072265625,0.404296875,-0.064453125,0.88671875,-11.296875,2.83984375
4148653,,,,,,,,1.18359375,-1.26171875,0.58203125,0.068359375,0.59765625,-0.1484375,1.57421875,-10.640625,2.83984375
4148654,,,,,,,,1.25390625,-2.60546875,0.5390625,0.05859375,0.802734375,-0.26171875,1.65234375,-11.984375,2.8046875
4148655,,,,,,,,1.70703125,-3.41015625,1.37890625,0.03515625,0.732421875,-0.3125,2.11328125,-12.7890625,3.64453125
4148656,,,,,,,,2.04296875,-3.515625,1.76171875,0.021484375,0.62109375,-0.29296875,2.45703125,-12.90625,4.02734375
4148657,,,,,,,,3.18359375,-4.09765625,2.59765625,0.005859375,0.4375,-0.197265625,3.60546875,-13.4765625,4.87109375
4148658,,,,,,,,2.44921875,-4.25,3.01171875,-0.013671875,0.5625,-0.16796875,2.87890625,-13.6328125,5.29296875
4148659,,,,,,,,0.76171875,-3.828125,2.8984375,0.001953125,0.615234375,-0.248046875,1.19140625,-13.2109375,5.1796875
4148660,36.0125745,129.31940483333335,72.55521958740852,19.36268563380667,1.3,52.0,,0.171875,-3.6015625,2.515625,0.044921875,0.298828125,-0.033203125,0.6171875,-12.98828125,4.796875
4148661,,,,,,,,0.37890625,-2.7890625,1.5859375,0.076171875,0.056640625,-0.23046875,0.84765625,-12.18359375,3.875
4148662,,,,,,,,0.640625,-2.48046875,1.43359375,0.08984375,-0.068359375,-0.173828125,1.1171875,-11.87109375,3.72265625
4148663,,,,,,,,0.96875,-2.03125,1.41796875,0.09765625,-0.3359375,-0.107421875,1.4609375,-11.4140625,3.72265625
4148664,,,,,,,,1.13671875,-1.53125,1.2265625,0.05859375,-0.490234375,-0.1796875,1.65234375,-10.91796875,3.53125
4148665,,,,,,,,0.8515625,-1.29296875,0.84375,-0.02734375,-0.498046875,-0.27734375,1.421875,-10.68359375,3.1484375
4148666,,,,,,,,0.734375,-1.1796875,0.62109375,-0.11328125,-0.48046875,-0.220703125,1.34375,-10.57421875,2.91796875
4148667,,,,,,,,0.4765625,-0.671875,0.23046875,-0.232421875,-0.34375,-0.15234375,1.1171875,-10.07421875,2.49609375
4148668,,,,,,,,0.25390625,0.1015625,-0.09765625,-0.283203125,-0.2421875,-0.126953125,0.92578125,-9.3046875,2.15234375
4148669,,,,,,,,0.12890625,0.4140625,-0.234375,-0.306640625,-0.1953125,-0.123046875,0.80859375,-9.00390625,2.0
4148670,36.012575500000004,129.31940600000001,72.66039293687639,19.473645737611832,1.4000000000000001,52.0,,-0.078125,1.10546875,-0.50390625,0.044921875,0.298828125,-0.033203125,0.6171875,-8.30859375,1.69140625
4148671,,,,,,,,-0.19921875,1.46484375,-0.5859375,-0.33984375,-0.123046875,-0.08203125,0.50390625,-7.96484375,1.578125
4148672,,,,,,,,-0.33203125,1.89453125,-0.71484375,-0.33203125,-0.1171875,-0.072265625,0.38671875,-7.54296875,1.42578125
4148673,,,,,,,,-0.4140625,2.171875,-0.8828125,-0.33203125,-0.126953125,-0.076171875,0.3125,-7.27734375,1.234375
4148674,,,,,,,,-0.421875,2.40625,-0.96875,-0.3203125,-0.125,-0.09375,0.3125,-7.05078125,1.1171875
4148675,,,,,,,,-0.125,2.64453125,-1.05078125,-0.330078125,-0.099609375,-0.095703125,0.6171875,-6.8125,1.00390625
4148676,,,,,,,,0.203125,2.9609375,-1.09765625,-0.3359375,-0.087890625,-0.078125,0.9609375,-6.51171875,0.92578125
4148677,,,,,,,,0.47265625,3.12109375,-1.06640625,-0.353515625,-0.07421875,-0.037109375,1.421875,-6.24609375,0.88671875
4148678,,,,,,,,0.65625,3.2421875,-1.08203125,-0.35546875,-0.06640625,-0.017578125,1.5,-6.2421875,0.84765625
4148679,,,,,,,,0.76953125,3.28125,-1.08984375,-0.34765625,-0.0625,-0.005859375,1.61328125,-6.203125,0.8125
4148680,36.01257616666667,129.31940600000001,72.66039232491894,19.54761856017866,1.1,51.0,,-0.078125,1.10546875,-0.50390625,0.044921875,0.298828125,-0.033203125,1.8046875,-6.51171875,0.46484375
4148681,,,,,,,,0.95703125,2.8359375,-1.5859375,-0.2734375,-0.091796875,-0.041015625,1.765625,-6.77734375,0.2734375
4148682,,,,,,,,0.94140625,2.6171875,-1.5234375,-0.232421875,-0.115234375,-0.095703125,1.65234375,-6.96875,0.23828125
4148683,,,,,,,,0.77734375,2.43359375,-1.4140625,-0.1953125,-0.134765625,-0.134765625,1.4609375,-7.23828125,0.54296875
4148684,,,,,,,,0.5703125,2.2421875,-1.09375,-0.140625,-0.14453125,-0.1328125,1.30859375,-7.31640625,0.734375
4148685,,,,,,,,0.35546875,2.1171875,-0.7265625,-0.05859375,-0.150390625,-0.01953125,1.19140625,-7.39453125,1.0390625
4148686,,,,,,,,0.39453125,2.0859375,-0.7265625,-0.017578125,-0.166015625,0.06640625,1.23046875,-7.43359375,1.0390625
4148687,,,,,,,,0.5078125,1.859375,-0.984375,0.009765625,-0.1953125,0.126953125,1.34375,-7.65625,0.7734375
4148688,,,,,,,,0.5625,1.65625,-1.0546875,0.021484375,-0.23046875,0.166015625,1.3828125,-7.8515625,0.6953125
4148689,,,,,,,,0.5390625,1.16015625,-1.0546875,0.017578125,-0.283203125,0.15234375,1.34375,-8.34375,0.6953125
4148690,36.012576833333334,129.31940699999998,72.75054108027757,19.621592128155548,1.1,53.0,,0.51171875,0.35546875,-0.671875,0.01953125,-0.29296875,0.138671875,1.30859375,-9.1484375,1.078125
4148691,,,,,,,,0.40234375,0.05078125,-0.515625,0.01171875,-0.291015625,0.177734375,1.19140625,-9.45703125,1.234375
4148692,,,,,,,,0.296875,-0.140625,-0.31640625,0.017578125,-0.263671875,0.220703125,1.078125,-9.6484375,1.42578125
4148693,,,,,,,,0.2734375,-0.33203125,-0.1640625,0.013671875,-0.23046875,0.267578125,1.0390625,-9.8359375,1.578125
4148694,,,,,,,,0.3515625,-0.6015625,-0.08984375,0.021484375,-0.201171875,0.318359375,1.078125,-10.109375,1.65234375
4148695,,,,,,,,0.4140625,-0.91015625,-0.00390625,0.021484375,-0.19140625,0.322265625,1.1171875,-10.41796875,1.73046875
4148696,,,,,,,,0.390625,-0.9453125,-0.00390625,0.017578125,-0.169921875,0.306640625,1.078125,-10.45703125,1.73046875
4148697,,,,,,,,0.296875,-1.1015625,-0.08203125,0.0,-0.125,0.255859375,0.9609375,-10.609375,1.65234375
4148698,,,,,,,,0.3125,-1.25390625,-0.234375,0.00390625,-0.080078125,0.212890625,0.9609375,-10.7578125,1.5
4148699,,,,,,,,0.328125,-1.3671875,-0.234375,-0.00390625,-0.05078125,0.177734375,0.9609375,-10.875,1.5
4148700,36.012578,129.31940783333332,72.825664479873,19.751045189926394,1.2000000000000002,45.0,0.0,0.19140625,-1.3671875,0.00390625,-0.015625,-0.017578125,0.140625,0.80859375,-10.87890625,1.73046875
4148701,,,,,,,,0.16015625,-1.328125,0.1953125,-0.017578125,0.01953125,0.0859375,0.76953125,-10.83984375,1.921875
4148702,,,,,,,,0.28515625,-1.55859375,0.5390625,-0.021484375,0.09765625,0.0234375,0.88671875,-11.0625,2.265625
4148703,,,,,,,,0.70703125,-3.12890625,0.34765625,-0.01171875,0.166015625,0.0078125,1.30859375,-12.6328125,2.07421875
4148704,,,,,,,,0.5234375,-4.85546875,0.46484375,-0.00390625,0.228515625,0.001953125,1.1171875,-14.36328125,2.19140625
4148705,,,,,,,,-0.28125,-4.08984375,1.46875,0.005859375,0.296875,-0.033203125,0.3125,-13.59375,3.1875
4148706,,,,,,,,-0.78125,-3.359375,1.92578125,0.001953125,0.328125,-0.044921875,-0.1875,-12.8671875,3.64453125
4148707,,,,,,,,-1.24609375,-2.59375,2.1484375,-0.021484375,0.61328125,-0.10546875,-0.64453125,-12.1015625,3.875
4148708,,,,,,,,-1.32421875,-2.78515625,2.140625,-0.001953125,0.70703125,-0.056640625,-0.72265625,-12.2890625,3.875
4148709,,,,,,,,-1.69140625,-1.328125,2.67578125,0.041015625,0.494140625,0.052734375,-1.10546875,-10.83984375,4.41015625
4148710,36.012578833333336,129.31940883333334,72.91581308363776,19.843511966466327,1.2000000000000002,43.0,,-1.80078125,-0.71875,3.12890625,0.0078125,0.337890625,-0.01953125,-1.22265625,-10.2265625,4.87109375
4148711,,,,,,,,-0.6875,-0.90234375,2.86328125,-0.01171875,0.400390625,-0.171875,-0.109375,-10.41796875,4.60546875
4148712,,,,,,,,0.29296875,-1.3984375,2.82421875,-0.03125,0.24609375,-0.19140625,0.88671875,-10.91796875,4.56640625
4148713,,,,,,,,0.91796875,-1.7421875,2.4765625,-0.0390625,-0.03125,-0.158203125,1.53515625,-11.26171875,4.21875
4148714,,,,,,,,0.8671875,-1.70703125,2.29296875,-0.0546875,-0.1171875,-0.224609375,1.5,-11.22265625,4.02734375
4148715,,,,,,,,0.50390625,-1.4375,2.41015625,-0.01953125,-0.08203125,-0.1796875,1.15234375,-10.95703125,4.14453125
4148716,,,,,,,,0.03125,-1.12890625,2.1015625,0.02734375,-0.111328125,-0.0234375,0.6953125,-10.64453125,3.8359375
4148717,,,,,,,,-0.0859375,-0.89453125,1.90234375,0.060546875,-0.12109375,0.09375,0.578125,-10.41796875,3.64453125
4148718,,,,,,,,-0.19140625,-0.85546875,1.89453125,0.107421875,-0.109375,0.107421875,0.46484375,-10.375,3.64453125
4148719,,,,,,,,-0.26171875,-1.046875,1.765625,0.154296875,-0.154296875,0.08203125,0.38671875,-10.57421875,3.53125
4148720,36.012579833333334,129.3194093333333,72.9608868420894,19.954471574239864,1.3,42.0,,-0.29296875,-0.39453125,1.09765625,0.1953125,-0.1484375,0.07421875,0.34765625,-9.91796875,2.87890625
4148721,,,,,,,,-0.12890625,-0.00390625,0.73046875,0.2109375,-0.072265625,0.14453125,0.50390625,-9.53515625,2.53515625
4148722,,,,,,,,0.109375,0.29296875,0.5234375,0.212890625,-0.05859375,0.166015625,0.734375,-9.23046875,2.34375
4148723,,,,,,,,0.27734375,0.6796875,0.19921875,0.2109375,-0.05078125,0.181640625,0.88671875,-8.84375,2.03515625
4148724,,,,,,,,0.28515625,0.90625,0.0234375,0.20703125,-0.05078125,0.181640625,0.88671875,-8.6171875,1.8828125
4148725,,,,,,,,0.30078125,1.3203125,-0.23828125,0.201171875,-0.005859375,0.16015625,0.88671875,-8.19921875,1.65234375
4148726,,,,,,,,0.28515625,1.8203125,-0.375,0.197265625,0.056640625,0.177734375,0.84765625,-7.6953125,1.5390625
4148727,,,,,,,,0.25390625,1.97265625,-0.46875,0.19140625,0.0625,0.181640625,0.80859375,-7.5390625,1.4609375
4148728,,,,,,,,0.1171875,2.39453125,-0.7109375,0.1953125,0.068359375,0.19140625,0.65625,-7.1171875,1.234375
4148729,,,,,,,,0.0546875,2.5078125,-0.765625,0.189453125,0.068359375,0.197265625,0.578125,-7.0078125,1.1953125
4148730,36.012580666666665,129.31941033333334,73.051035441761,20.04693835157535,1.2000000000000002,44.0,,-0.07421875,2.76953125,-0.90625,0.1953125,-0.1484375,0.07421875,0.34765625,-9.91796875,2.87890625
4148731,,,,,,,,-0.2109375,2.84375,-0.99609375,0.197265625,0.048828125,0.1875,0.2734375,-6.6640625,1.00390625
4148732,,,,,,,,-0.45703125,2.80078125,-1.09765625,0.189453125,0.033203125,0.17578125,0.00390625,-6.6953125,0.92578125
4148733,,,,,,,,-0.79296875,2.72265625,-1.15234375,0.169921875,0.02734375,0.171875,-0.33984375,-6.77734375,0.88671875
4148734,,,,,,,,-0.9296875,2.72265625,-1.2421875,0.162109375,0.021484375,0.1640625,-0.4921875,-6.7734375,0.8125
4148735,,,,,,,,-1.26171875,2.72265625,-1.3359375,0.13671875,0.017578125,0.13671875,-0.83984375,-6.7734375,0.734375
4148736,,,,,,,,-1.2890625,2.72265625,-1.4296875,0.091796875,0.0,0.134765625,-0.875,-6.77734375,0.65625
4148737,,,,,,,,-1.2734375,2.63671875,-1.50390625,0.0546875,-0.03515625,0.130859375,-0.875,-6.85546875,0.58203125
4148738,,,,,,,,-1.2578125,2.33203125,-1.4375,0.009765625,-0.076171875,0.130859375,-0.875,-7.16015625,0.65625
4148739,,,,,,,,-1.05859375,2.1796875,-1.328125,-0.0390625,-0.119140625,0.12109375,-0.68359375,-7.3125,0.7734375
4148740,36.0125815,129.319411,73.1111342498375,20.139404880186223,1.1,44.0,,-0.890625,2.0625,-1.2734375,-0.08203125,-0.154296875,0.091796875,-0.53125,-7.4296875,0.8125
4148741,,,,,,,,-0.73046875,1.94921875,-1.265625,-0.109375,-0.1484375,0.060546875,-0.37890625,-7.54296875,0.8125
4148742,,,,,,,,-0.69140625,1.8359375,-1.296875,-0.125,-0.150390625,0.017578125,-0.33984375,-7.65625,0.7734375
4148743,,,,,,,,-0.69140625,1.796875,-1.28125,-0.1328125,-0.154296875,-0.005859375,-0.33984375,-7.69921875,0.7734375
4148744,,,,,,,,-0.73828125,1.265625,-1.234375,-0.138671875,-0.177734375,-0.04296875,-0.37890625,-8.234375,0.8125
4148745,,,,,,,,-0.71484375,0.83984375,-1.09765625,-0.142578125,-0.20703125,-0.078125,-0.33984375,-8.6484375,0.92578125
4148746,,,,,,,,-0.72265625,-0.08203125,-0.890625,-0.140625,-0.20703125,-0.095703125,-0.33984375,-9.57421875,1.1171875
4148747,,,,,,,,-0.66015625,-0.34765625,-0.72265625,-0.130859375,-0.1953125,-0.1171875,-0.26171875,-9.8359375,1.26953125
4148748,,,,,,,,-0.66796875,-0.42578125,-0.63671875,-0.12890625,-0.193359375,-0.130859375,-0.26171875,-9.91796875,1.34765625
4148749,,,,,,,,-0.6484375,-0.6953125,-0.58984375,-0.107421875,-0.166015625,-0.166015625,-0.2265625,-10.1875,1.38671875
4148750,36.0125825,129.3194118333333,73.18625779199297,20.250364739617304,1.1,43.0,,-0.36328125,-1.1171875,-0.46875,-0.08203125,-0.154296875,0.091796875,0.08203125,-10.61328125,1.5
4148751,,,,,,,,-0.234375,-1.19140625,-0.4921875,-0.064453125,-0.134765625,-0.21875,0.234375,-10.68359375,1.4609375
4148752,,,,,,,,-0.25,-1.19140625,-0.484375,-0.0390625,-0.1328125,-0.20703125,0.234375,-10.68359375,1.4609375
4148753,,,,,,,,-0.28125,-1.390625,-0.63671875,0.001953125,-0.115234375,-0.197265625,0.234375,-10.875,1.30859375
4148754,,,,,,,,-0.15234375,-1.53515625,-0.67578125,0.029296875,-0.087890625,-0.177734375,0.38671875,-11.0234375,1.26953125
4148755,,,,,,,,0.1875,-1.390625,-0.59765625,0.048828125,-0.06640625,-0.138671875,0.734375,-10.87890625,1.34765625
4148756,,,,,,,,0.171875,-0.89453125,-0.52734375,0.052734375,-0.041015625,-0.1171875,0.734375,-10.375,1.42578125
4148757,,,,,,,,-0.18359375,-0.44140625,-0.71875,0.06640625,0.013671875,-0.0859375,0.38671875,-9.91796875,1.234375
4148758,,,,,,,,-0.8046875,-0.06640625,-0.69140625,0.076171875,0.095703125,-0.080078125,-0.2265625,-9.53125,1.26953125
4148759,,,,,,,,-0.99609375,-0.296875,-0.7734375,0.091796875,0.154296875,-0.05078125,-0.41796875,-9.76953125,1.1953125
4148760,36.012583166666666,129.319413,73.29143143339482,20.324338438338433,1.2000000000000002,49.0,,-0.95703125,-1.5234375,-1.05859375,-0.08203125,-0.154296875,0.091796875,0.08203125,-10.61328125,1.5
4148761,,,,,,,,-0.55859375,-2.1796875,-0.7578125,0.126953125,0.244140625,0.009765625,0.00390625,-11.640625,1.234375
4148762,,,,,,,,-0.09765625,-2.10546875,0.14453125,0.13671875,0.369140625,-0.060546875,0.46484375,-11.56640625,2.15234375
4148763,,,,,,,,0.69921875,-1.03125,1.015625,0.130859375,0.541015625,-0.185546875,1.26953125,-10.49609375,3.03125
4148764,,,,,,,,0.8359375,-1.61328125,0.46484375,0.099609375,0.826171875,-0.349609375,1.421875,-11.06640625,2.49609375
4148765,,,,,,,,1.51171875,-2.6484375,1.140625,0.078125,0.787109375,-0.416015625,2.11328125,-12.1015625,3.1875
4148766,,,,,,,,2.19140625,-2.88671875,1.7890625,0.0703125,0.685546875,-0.42578125,2.80078125,-12.33203125,3.8359375
4148767,,,,,,,,2.55078125,-3.078125,2.05078125,0.041015625,0.505859375,-0.328125,3.52734375,-12.828125,4.44921875
4148768,,,,,,,,3.02734375,-3.8515625,2.80859375,0.02734375,0.603515625,-0.306640625,3.68359375,-13.29296875,4.87109375
4148769,,,,,,,,2.359375,-3.8515625,3.03125,0.05859375,0.576171875,-0.373046875,3.03125,-13.29296875,5.1015625
4148770,36.01258383333333,129.31941433333336,73.41162996722156,20.398312264318808,1.3,53.0,,1.02734375,-3.58203125,2.36328125,0.1015625,0.38671875,-0.408203125,1.421875,-12.9453125,4.21875
4148771,,,,,,,,0.44921875,-2.86328125,1.66015625,0.12109375,0.173828125,-0.349609375,1.19140625,-12.2890625,3.76171875
4148772,,,,,,,,0.609375,-2.28125,1.4921875,0.125,-0.12890625,-0.2421875,1.3828125,-11.72265625,3.609375
4148773,,,,,,,,0.6796875,-2.05859375,1.52734375,0.111328125,-0.2421875,-0.220703125,1.4609375,-11.484375,3.64453125
4148774,,,,,,,,0.72265625,-1.59765625,1.13671875,0.06640625,-0.37109375,-0.2109375,1.53515625,-11.02734375,3.26171875
4148775,,,,,,,,0.65625,-1.26171875,0.75390625,0.01171875,-0.39453125,-0.224609375,1.5,-10.68359375,2.87890625
4148776,,,,,,,,0.5546875,-1.0625,0.640625,-0.060546875,-0.41796875,-0.17578125,1.421875,-10.4921875,2.765625
4148777,,,,,,,,0.4921875,-0.60546875,0.2265625,-0.1328125,-0.373046875,-0.09375,1.3828125,-10.03125,2.34375
4148778,,,,,,,,0.41015625,-0.328125,0.15625,-0.1640625,-0.32421875,-0.060546875,1.30859375,-9.76953125,2.265625
4148779,,,,,,,,0.09375,0.36328125,-0.04296875,-0.23046875,-0.181640625,-0.01171875,1.0,-9.07421875,2.03515625
4148780,36.01258466666666,129.31941533333332,73.50177855264775,20.490779047692655,1.3,52.0,,-0.3046875,1.18359375,-0.40234375,0.1015625,0.38671875,-0.408203125,0.6171875,-8.265625,1.65234375
4148781,,,,,,,,-0.45703125,1.87890625,-0.68359375,-0.271484375,-0.103515625,-0.0078125,0.46484375,-7.578125,1.34765625
4148782,,,,,,,,-0.49609375,2.26953125,-0.84375,-0.287109375,-0.1015625,0.03515625,0.42578125,-7.19921875,1.15625
4148783,,,,,,,,-0.49609375,2.61328125,-1.01953125,-0.2890625,-0.11328125,0.056640625,0.42578125,-6.8515625,0.96484375
4148784,,,,,,,,-0.41015625,2.890625,-1.11328125,-0.291015625,-0.111328125,0.08203125,0.50390625,-6.58984375,0.84765625
4148785,,,,,,,,-0.37109375,3.03125,-1.29296875,-0.326171875,-0.0859375,0.076171875,0.54296875,-6.47265625,0.62109375
4148786,,,,,,,,-0.2890625,3.2578125,-1.2265625,-0.341796875,-0.060546875,0.06640625,0.6171875,-6.24609375,0.65625
4148787,,,,,,,,-0.09765625,3.3828125,-1.15625,-0.376953125,-0.021484375,0.06640625,0.84765625,-6.20703125,0.62109375
4148788,,,,,,,,-0.05078125,3.3125,-1.20703125,-0.380859375,-0.0078125,0.07421875,1.1171875,-6.27734375,0.58203125
4148789,,,,,,,,0.30078125,3.20703125,-1.21484375,-0.373046875,0.00390625,0.064453125,1.23046875,-6.31640625,0.54296875
4148790,36.01258566666667,129.31941633333332,73.59192698421909,20.60173903628938,1.3,52.0,,-0.3046875,1.18359375,-0.40234375,-0.35546875,0.005859375,0.015625,0.6171875,-8.265625,1.65234375
4148791,,,,,,,,0.578125,2.953125,-1.375,-0.3359375,-0.005859375,-0.0390625,1.5,-6.58984375,0.2734375
4148792,,,,,,,,0.64453125,2.8671875,-1.45703125,-0.30859375,-0.013671875,-0.09375,1.53515625,-6.73828125,0.23828125
4148793,,,,,,,,0.63671875,2.76171875,-1.390625,-0.287109375,-0.05078125,-0.095703125,1.5,-6.85546875,0.2734375
4148794,,,,,,,,0.5078125,2.53125,-1.28125,-0.244140625,-0.08203125,-0.064453125,1.421875,-7.12109375,0.4296875
4148795,,,,,,,,0.4609375,2.38671875,-1.13671875,-0.201171875,-0.09765625,-0.025390625,1.3828125,-7.1953125,0.46484375
4148796,,,,,,,,0.34765625,2.08203125,-1.07421875,-0.16015625,-0.09765625,0.0234375,1.26953125,-7.46484375,0.50390625
4148797,,,,,,,,0.34765625,1.61328125,-1.05859375,-0.1171875,-0.095703125,0.087890625,1.26953125,-7.921875,0.50390625
4148798,,,,,,,,0.4375,1.27734375,-1.04296875,-0.0859375,-0.09765625,0.140625,1.34375,-8.26953125,0.50390625
4148799,,,,,,,,0.484375,0.703125,-0.890625,-0.05078125,-0.111328125,0.189453125,1.3828125,-8.84765625,0.65625
4148800,36.01258633333334,129.31941733333332,73.68207572294769,20.675712615517657,1.3,52.0,0.0,0.4609375,0.1640625,-0.68359375,-0.033203125,-0.123046875,0.21875,1.34375,-9.3828125,0.84765625
4148801,,,,,,,,0.40234375,-0.1015625,-0.56640625,-0.013671875,-0.12109375,0.23828125,1.26953125,-9.65234375,0.96484375
4148802,,,,,,,,0.37890625,-0.2578125,-0.453125,-0.001953125,-0.11328125,0.25390625,1.23046875,-9.80859375,1.078125
4148803,,,,,,,,0.32421875,-0.6796875,-0.14453125,0.0,-0.126953125,0.29296875,1.15234375,-10.2265625,1.38671875
4148804,,,,,,,,0.34765625,-0.90625,0.0859375,0.009765625,-0.134765625,0.34375,1.15234375,-10.453125,1.6171875
4148805,,,,,,,,0.3046875,-0.86328125,0.24609375,0.01953125,-0.125,0.369140625,1.078125,-10.4140625,1.76953125
4148806,,,,,,,,0.203125,-0.79296875,0.20703125,0.017578125,-0.115234375,0.365234375,0.9609375,-10.33984375,1.73046875
4148807,,,,,,,,0.13671875,-0.6328125,-0.21484375,0.021484375,-0.09375,0.314453125,0.84765625,-10.1875,1.30859375
4148808,,,,,,,,0.23828125,-0.78515625,-0.4453125,0.0234375,-0.1328125,0.2734375,0.92578125,-10.3359375,1.078125
4148809,,,,,,,,0.21484375,-1.08984375,-0.4921875,0.029296875,-0.134765625,0.25390625,0.88671875,-10.640625,1.0390625
4148810,36.0125875,129.31941833333335,73.77222399522611,20.805165810186505,1.4000000000000001,47.0,,-0.09765625,-0.82421875,0.015625,0.044921875,-0.10546875,0.125,0.54296875,-10.37890625,1.5390625
4148811,,,,,,,,-0.08984375,-0.1796875,0.19921875,0.04296875,-0.0078125,0.06640625,0.54296875,-9.73046875,1.73046875
4148812,,,,,,,,0.22265625,0.84765625,0.046875,0.052734375,0.103515625,0.04296875,0.84765625,-8.6875,1.578125
4148813,,,,,,,,0.56640625,1.23828125,-0.23046875,0.0703125,0.173828125,0.0390625,1.19140625,-8.30859375,1.30859375
4148814,,,,,,,,1.265625,0.08203125,-0.62109375,0.107421875,0.220703125,-0.017578125,1.99609375,-10.3359375,0.734375
4148815,,,,,,,,1.53125,-1.7578125,-0.8984375,0.115234375,0.310546875,-0.048828125,1.8828125,-12.8671875,1.00390625
4148816,,,,,,,,0.8046875,-3.63671875,-0.0703125,0.119140625,0.494140625,-0.064453125,0.2734375,-12.41015625,2.61328125
4148817,,,,,,,,-1.45703125,-1.875,1.75390625,0.111328125,0.802734375,-0.09765625,-1.22265625,-11.30078125,3.37890625
4148818,,,,,,,,-1.9140625,-2.03515625,1.8515625,0.103515625,1.134765625,-0.12890625,-1.18359375,-12.06640625,3.41796875
4148819,,,,,,,,-1.44140625,-4.1015625,1.79296875,0.220703125,1.05859375,0.072265625,-0.72265625,-14.4765625,3.64453125
4148820,36.0125885,129.3194195,73.87739731241184,20.916125928078287,1.3,44.0,,-0.09765625,-0.82421875,0.015625,0.205078125,0.7578125,0.171875,-1.10546875,-15.51171875,4.87109375
4148821,,,,,,,,-2.234375,-5.375,3.5,0.142578125,0.666015625,0.001953125,-1.7578125,-14.3984375,5.0625
4148822,,,,,,,,-1.9140625,-4.07421875,3.0234375,0.09375,0.70703125,-0.103515625,-0.953125,-13.3671875,4.60546875
4148823,,,,,,,,-1.4921875,-3.84375,2.90234375,0.056640625,0.6640625,-0.064453125,-0.53125,-13.13671875,4.52734375
4148824,,,,,,,,-0.71875,-3.34375,2.625,0.001953125,0.345703125,0.076171875,0.2734375,-12.25,3.875
4148825,,,,,,,,-0.28125,-2.45703125,1.890625,-0.037109375,-0.1015625,0.11328125,0.12109375,-11.76171875,3.33984375
4148826,,,,,,,,-0.54296875,-2.07421875,1.55078125,-0.06640625,-0.384765625,0.03515625,-0.30078125,-11.5234375,3.41796875
4148827,,,,,,,,-0.86328125,-1.95703125,1.75,-0.029296875,-0.546875,0.005859375,-0.30078125,-11.30078125,3.453125
4148828,,,,,,,,-0.82421875,-1.7578125,1.7578125,-0.013671875,-0.568359375,0.017578125,-0.1875,-10.99609375,3.109375
4148829,,,,,,,,-0.6484375,-1.2890625,1.18359375,0.056640625,-0.466796875,-0.017578125,-0.03515625,-10.68359375,2.6875
4148830,36.01258966666667,129.31941999999998,73.92247089988457,21.04557874787219,1.3,41.0,,-0.2265625,-0.609375,0.6796875,0.103515625,-0.36328125,-0.06640625,-1.10546875,-15.51171875,4.87109375
4148831,,,,,,,,0.1328125,-0.06640625,0.47265625,0.130859375,-0.326171875,-0.09765625,0.6953125,-9.609375,2.19140625
4148832,,,,,,,,0.4140625,0.625,0.1484375,0.146484375,-0.259765625,-0.103515625,1.0,-8.921875,1.8828125
4148833,,,,,,,,0.55859375,1.0859375,-0.08984375,0.13671875,-0.23046875,-0.08984375,1.15234375,-8.46484375,1.65234375
4148834,,,,,,,,0.515625,1.58203125,-0.36328125,0.138671875,-0.19921875,-0.0625,1.1171875,-7.96484375,1.38671875
4148835,,,,,,,,0.515625,2.1953125,-0.53125,0.140625,-0.1953125,-0.029296875,1.1171875,-7.35546875,1.234375
4148836,,,,,,,,0.421875,2.80859375,-0.7109375,0.16015625,-0.19140625,-0.005859375,1.0390625,-6.734375,1.078125
4148837,,,,,,,,0.30859375,2.9609375,-0.79296875,0.1875,-0.185546875,0.015625,0.92578125,-6.5859375,1.00390625
4148838,,,,,,,,0.19140625,3.0390625,-0.84765625,0.201171875,-0.17578125,0.03125,0.80859375,-6.5078125,0.96484375
4148839,,,,,,,,-0.19140625,3.23046875,-0.98046875,0.22265625,-0.15234375,0.048828125,0.42578125,-6.3125,0.84765625
4148840,36.0125905,129.31942083333334,73.99759458434269,21.138045408135994,1.2000000000000002,44.0,,-0.52734375,3.296875,-1.01171875,0.26171875,-0.146484375,0.0703125,0.08203125,-6.24609375,0.84765625
4148841,,,,,,,,-0.91015625,3.40625,-1.234375,0.27734375,-0.1484375,0.08203125,-0.30078125,-6.125,0.65625
4148842,,,,,,,,-1.24609375,3.4453125,-1.33203125,0.271484375,-0.171875,0.09375,-0.64453125,-6.08984375,0.58203125
4148843,,,,,,,,-1.46875,3.359375,-1.48046875,0.2578125,-0.189453125,0.115234375,-0.875,-6.16796875,0.46484375
4148844,,,,,,,,-1.4609375,3.23828125,-1.5390625,0.234375,-0.22265625,0.119140625,-0.875,-6.27734375,0.4296875
4148845,,,,,,,,-1.33984375,3.08203125,-1.51953125,0.20703125,-0.22265625,0.119140625,-0.76171875,-6.43359375,0.46484375
4148846,,,,,,,,-1.29296875,2.8515625,-1.48828125,0.1875,-0.228515625,0.12109375,-0.72265625,-6.6640625,0.50390625
4148847,,,,,,,,-1.20703125,2.73046875,-1.38671875,0.150390625,-0.21875,0.1171875,-0.64453125,-6.7734375,0.62109375
4148848,,,,,,,,-1.0546875,2.65234375,-1.2890625,0.12109375,-0.193359375,0.09765625,-0.4921875,-6.8515625,0.734375
4148849,,,,,,,,-1.0078125,2.4921875,-1.2578125,0.08984375,-0.16015625,0.0625,-0.453125,-7.0078125,0.7734375
4148850,36.01259133333333,129.3194213333333,74.04266848054411,21.230511815966917,1.1,43.0,,-0.88671875,2.29296875,-1.296875,0.26171875,-0.146484375,0.0703125,-0.33984375,-7.19921875,0.734375
4148851,,,,,,,,-0.7421875,1.60546875,-1.265625,0.0234375,-0.115234375,-0.03125,-0.1875,-7.8828125,0.7734375
4148852,,,,,,,,-0.7109375,1.18359375,-1.19140625,0.01953125,-0.140625,-0.056640625,-0.1484375,-8.3046875,0.84765625
4148853,,,,,,,,-0.6328125,0.5703125,-0.921875,0.015625,-0.150390625,-0.064453125,-0.0703125,-8.921875,1.1171875
4148854,,,,,,,,-0.6875,0.1015625,-0.73046875,0.00390625,-0.146484375,-0.095703125,-0.109375,-9.3828125,1.30859375
4148855,,,,,,,,-0.703125,-0.28125,-0.69140625,-0.005859375,-0.11328125,-0.12109375,-0.109375,-9.765625,1.34765625
4148856,,,,,,,,-0.63671875,-0.48046875,-0.73046875,-0.015625,-0.099609375,-0.138671875,-0.03515625,-9.953125,1.30859375
4148857,,,,,,,,-0.52734375,-0.671875,-0.8359375,-0.0078125,-0.099609375,-0.130859375,0.08203125,-10.1484375,1.1953125
4148858,,,,,,,,-0.3125,-0.82421875,-0.90625,0.0,-0.115234375,-0.14453125,0.3125,-10.296875,1.1171875
4148859,,,,,,,,0.09375,-0.9765625,-0.7890625,0.005859375,-0.125,-0.142578125,0.734375,-10.453125,1.234375
4148860,36.012592000000005,129.319422,74.1027674260101,21.304485147445327,1.1,43.0,,0.3828125,-1.18359375,-0.8671875,0.01953125,-0.123046875,-0.1328125,1.0390625,-10.64453125,1.15625
4148861,,,,,,,,0.51171875,-1.60546875,-0.828125,0.025390625,-0.03125,-0.140625,1.19140625,-11.0625,1.1953125
4148862,,,,,,,,0.65625,-1.76171875,-0.72265625,0.029296875,0.0,-0.134765625,1.34375,-11.21875,1.30859375
4148863,,,,,,,,0.765625,-1.18359375,-0.53125,0.04296875,0.05078125,-0.076171875,1.4609375,-10.64453125,1.5
4148864,,,,,,,,0.390625,-0.38671875,-0.796875,0.060546875,0.123046875,-0.0078125,1.078125,-9.8359375,1.234375
4148865,,,,,,,,0.046875,-0.04296875,-0.921875,0.0703125,0.21484375,0.0390625,0.734375,-9.4921875,1.1171875
4148866,,,,,,,,-0.3671875,0.1875,-0.77734375,0.076171875,0.234375,0.072265625,0.3125,-9.26953125,1.26953125
4148867,,,,,,,,-0.8828125,-0.54296875,-0.90625,0.11328125,0.203125,0.19140625,-0.2265625,-9.9921875,1.15625
4148868,,,,,,,,-0.94140625,-1.4609375,-1.06640625,0.12890625,0.2421875,0.23046875,-0.30078125,-10.9140625,1.00390625
4148869,,,,,,,,-0.84375,-1.8046875,-0.9921875,0.140625,0.3046875,0.228515625,-0.2265625,-11.2578125,1.078125
4148870,36.012593,129.31942316666667,74.20794073284803,21.41544526796912,1.2000000000000002,45.0,,-0.54296875,-1.73828125,0.02734375,0.166015625,0.455078125,0.18359375,0.04296875,-11.1796875,2.11328125
4148871,,,,,,,,0.1796875,-1.546875,0.3046875,0.169921875,0.791015625,-0.005859375,0.734375,-10.99609375,2.421875
4148872,,,,,,,,0.8359375,-3.125,0.1328125,0.134765625,0.970703125,-0.1484375,1.3828125,-12.56640625,2.265625
4148873,,,,,,,,1.3828125,-4.703125,1.3828125,0.09765625,0.896484375,-0.212890625,1.921875,-14.13671875,3.53125
4148874,,,,,,,,2.33984375,-5.125,2.5234375,0.0625,0.724609375,-0.248046875,2.87890625,-14.5546875,4.6796875
4148875,,,,,,,,2.63671875,-5.0078125,2.78515625,0.0390625,0.751953125,-0.265625,3.18359375,-14.4375,4.94921875
4148876,,,,,,,,2.3984375,-4.7421875,2.77734375,0.04296875,0.80078125,-0.2734375,2.953125,-14.17578125,4.94921875
4148877,,,,,,,,0.515625,-4.01171875,2.26953125,0.056640625,0.69140625,-0.337890625,1.078125,-13.44140625,4.44921875
4148878,,,,,,,,0.03125,-3.5546875,1.83984375,0.076171875,0.322265625,-0.4140625,0.6171875,-12.984375,4.02734375
4148879,,,,,,,,0.109375,-2.7109375,1.2890625,0.09375,-0.111328125,-0.33984375,0.734375,-12.140625,3.4921875
4148880,36.012593833333334,129.3194245,74.32813908469274,21.507912312706885,1.3,48.0,,0.57421875,-1.90625,0.5625,0.08203125,-0.447265625,-0.171875,1.23046875,-11.3359375,2.765625
4148881,,,,,,,,0.88671875,-1.53125,0.36328125,0.048828125,-0.626953125,-0.1640625,1.57421875,-10.953125,2.57421875
4148882,,,,,,,,0.703125,-1.25390625,0.4453125,-0.015625,-0.677734375,-0.2578125,1.421875,-10.68359375,2.6484375
4148883,,,,,,,,0.57421875,-1.33203125,0.4453125,-0.052734375,-0.69140625,-0.27734375,1.30859375,-10.76171875,2.6484375
4148884,,,,,,,,0.44921875,-1.33203125,0.4609375,-0.119140625,-0.658203125,-0.255859375,1.23046875,-10.7578125,2.6484375
4148885,,,,,,,,0.2265625,-0.86328125,0.1796875,-0.193359375,-0.49609375,-0.234375,1.0390625,-10.30078125,2.34375
4148886,,,,,,,,-0.1640625,-0.05078125,-0.08984375,-0.265625,-0.287109375,-0.208984375,0.6953125,-9.49609375,2.03515625
4148887,,,,,,,,-0.34765625,0.953125,-0.44921875,-0.29296875,-0.189453125,-0.22265625,0.54296875,-8.5,1.65234375
4148888,,,,,,,,-0.39453125,1.2265625,-0.5,-0.306640625,-0.16796875,-0.21875,0.50390625,-8.234375,1.578125
4148889,,,,,,,,-0.3515625,1.734375,-0.65234375,-0.314453125,-0.166015625,-0.154296875,0.578125,-7.73828125,1.38671875
4148890,36.01259466666667,129.3194255,74.41828765198271,21.60037910464465,1.4000000000000001,49.0,,-0.2890625,2.4296875,-0.921875,0.08203125,-0.447265625,-0.171875,0.65625,-7.046875,1.078125
4148891,,,,,,,,-0.265625,2.78515625,-0.96484375,-0.322265625,-0.162109375,-0.169921875,0.6953125,-6.69921875,1.00390625
4148892,,,,,,,,-0.21484375,3.0234375,-1.08984375,-0.3359375,-0.134765625,-0.189453125,0.76953125,-6.46875,0.84765625
4148893,,,,,,,,0.13671875,3.296875,-1.15625,-0.361328125,-0.09765625,-0.162109375,1.15234375,-6.20703125,0.734375
4148894,,,,,,,,0.359375,3.44921875,-1.1953125,-0.380859375,-0.099609375,-0.123046875,1.3828125,-6.046875,0.65625
4148895,,,,,,,,0.53515625,3.45703125,-1.23046875,-0.390625,-0.10546875,-0.103515625,1.57421875,-6.046875,0.58203125
4148896,,,,,,,,0.64453125,3.4296875,-1.21484375,-0.37890625,-0.091796875,-0.099609375,1.69140625,-6.08984375,0.58203125
4148897,,,,,,,,0.828125,3.23828125,-1.29296875,-0.365234375,-0.095703125,-0.095703125,1.8828125,-6.27734375,0.46484375
4148898,,,,,,,,0.8203125,3.015625,-1.40625,-0.337890625,-0.1015625,-0.091796875,1.8828125,-6.5078125,0.3125
4148899,,,,,,,,0.6875,2.859375,-1.375,-0.3046875,-0.111328125,-0.099609375,1.765625,-6.66796875,0.3125
4148900,36.01259533333334,129.31942633333335,74.49341148571527,21.674352564186485,1.3,51.0,0.0,0.48046875,2.79296875,-1.19140625,0.08203125,-0.447265625,-0.171875,1.57421875,-6.734375,0.46484375
4148901,,,,,,,,0.3515625,2.79296875,-1.05078125,-0.21875,-0.142578125,-0.138671875,1.4609375,-6.73828125,0.58203125
4148902,,,,,,,,0.3046875,2.80078125,-0.8828125,-0.19140625,-0.146484375,-0.119140625,1.421875,-6.73828125,0.734375
4148903,,,,,,,,0.25,2.71484375,-0.7890625,-0.142578125,-0.166015625,-0.0703125,1.3828125,-6.8125,0.8125
4148904,,,,,,,,0.44140625,1.91796875,-0.890625,-0.07421875,-0.201171875,0.037109375,1.57421875,-7.6171875,0.6953125
4148905,,,,,,,,0.59765625,1.10546875,-0.7578125,-0.041015625,-0.224609375,0.1015625,1.73046875,-8.421875,0.8125
4148906,,,,,,,,0.671875,0.4921875,-0.59765625,-0.033203125,-0.236328125,0.11328125,1.8046875,-9.04296875,0.96484375
4148907,,,,,,,,0.796875,-0.00390625,-0.3671875,-0.025390625,-0.228515625,0.142578125,1.921875,-9.53125,1.1953125
4148908,,,,,,,,0.7734375,-0.5703125,0.0234375,-0.021484375,-0.2109375,0.17578125,1.8828125,-10.109375,1.578125
4148909,,,,,,,,0.60546875,-0.5703125,0.14453125,-0.021484375,-0.185546875,0.21484375,1.69140625,-10.109375,1.69140625
4148910,36.01259616666667,129.319427,74.55351026248752,21.76681910148121,1.1,47.0,,0.11328125,-0.2734375,0.3046875,0.08203125,-0.447265625,-0.171875,1.19140625,-9.80859375,1.84375
4148911,,,,,,,,-0.12890625,0.00390625,0.11328125,0.0,-0.189453125,0.34765625,0.92578125,-9.53125,1.65234375
4148912,,,,,,,,-0.22265625,0.2734375,-0.18359375,0.0,-0.201171875,0.37890625,0.80859375,-9.26953125,1.34765625
4148913,,,,,,,,-0.15234375,0.15625,-0.296875,0.009765625,-0.248046875,0.39453125,0.84765625,-9.53515625,1.234375
4148914,,,,,,,,-0.2578125,-0.37109375,-0.26171875,0.01171875,-0.26953125,0.28515625,0.578125,-10.41796875,1.38671875
4148915,,,,,,,,-0.47265625,-1.10546875,-0.13671875,0.009765625,-0.18359375,0.220703125,0.42578125,-10.8359375,1.578125
4148916,,,,,,,,-0.49609375,-1.296875,0.0546875,-0.013671875,-0.064453125,0.203125,0.38671875,-10.796875,1.65234375
4148917,,,,,,,,-0.55078125,-0.90625,0.20703125,-0.025390625,0.06640625,0.1796875,0.34765625,-10.1875,1.76953125
4148918,,,,,,,,-0.41796875,-0.33203125,0.12890625,-0.0234375,0.162109375,0.12109375,0.76953125,-9.42578125,1.34765625
4148919,,,,,,,,-0.10546875,0.125,-0.17578125,-0.017578125,0.203125,0.08203125,0.92578125,-9.265625,1.30859375
4148920,36.012597166666666,129.31942766666668,74.61360888871576,21.877778846320137,1.3,42.0,,0.11328125,-0.2734375,0.3046875,0.00390625,0.216796875,0.013671875,1.19140625,-9.61328125,1.30859375
4148921,,,,,,,,0.640625,-1.3671875,-0.24609375,0.021484375,0.193359375,-0.046875,1.73046875,-11.71875,1.34765625
4148922,,,,,,,,1.09765625,-3.08984375,-0.12890625,0.015625,0.263671875,-0.109375,1.61328125,-14.0546875,1.6171875
4148923,,,,,,,,0.25,-4.77734375,0.63671875,0.005859375,0.43359375,-0.125,0.42578125,-14.2421875,2.87890625
4148924,,,,,,,,-1.97265625,-3.97265625,2.390625,-0.025390625,0.728515625,-0.146484375,-1.4140625,-13.48046875,3.9921875
4148925,,,,,,,,-2.40234375,-4.09375,2.421875,-0.041015625,1.001953125,-0.095703125,-1.18359375,-13.79296875,3.64453125
4148926,,,,,,,,-2.05078125,-4.25,2.11328125,-0.017578125,1.041015625,-0.05078125,-1.03125,-13.37109375,3.953125
4148927,,,,,,,,-2.234375,-3.0625,2.91015625,0.068359375,0.91015625,0.03125,-1.56640625,-12.5625,4.44921875
4148928,,,,,,,,-2.41015625,-2.984375,2.89453125,0.06640625,0.560546875,-0.015625,-1.296875,-12.52734375,4.56640625
4148929,,,,,,,,-1.296875,-2.984375,3.0703125,0.03125,0.404296875,-0.263671875,0.04296875,-12.48828125,4.83203125
4148930,36.012598000000004,129.31942866666668,74.70375744621376,21.970245641820544,1.2000000000000002,41.0,,0.11328125,-0.2734375,0.3046875,0.017578125,0.04296875,-0.134765625,1.19140625,-9.61328125,1.30859375
4148931,,,,,,,,0.27734375,-2.82421875,2.87109375,-0.025390625,-0.150390625,-0.083984375,1.15234375,-12.0625,4.06640625
4148932,,,,,,,,0.1171875,-1.8671875,2.11328125,-0.0078125,-0.216796875,-0.080078125,1.0,-11.41796875,3.68359375
4148933,,,,,,,,-0.43359375,-1.09765625,2.0,0.025390625,-0.341796875,0.083984375,0.46484375,-10.640625,3.5703125
4148934,,,,,,,,-0.88671875,-1.0546875,1.69140625,0.03515625,-0.4140625,0.248046875,0.00390625,-10.61328125,3.26171875
4148935,,,,,,,,-1.12890625,-1.359375,1.80078125,0.06640625,-0.373046875,0.298828125,-0.26171875,-10.9140625,3.37890625
4148936,,,,,,,,-0.96875,-1.47265625,1.875,0.099609375,-0.361328125,0.298828125,-0.109375,-11.02734375,3.453125
4148937,,,,,,,,-0.71484375,-1.3203125,1.79296875,0.1796875,-0.298828125,0.255859375,0.12109375,-10.87890625,3.37890625
4148938,,,,,,,,-0.578125,-0.546875,1.26953125,0.234375,-0.166015625,0.1953125,0.234375,-10.109375,2.87890625
4148939,,,,,,,,-0.36328125,0.02734375,0.81640625,0.2734375,-0.0703125,0.1796875,0.42578125,-9.53125,2.45703125
4148940,36.01259883333333,129.31942949999998,74.77888111200735,22.062712307454724,1.3,41.0,,-0.23046875,0.48828125,0.6015625,0.017578125,0.04296875,-0.134765625,1.19140625,-9.61328125,1.30859375
4148941,,,,,,,,-0.171875,1.29296875,0.171875,0.29296875,-0.115234375,0.216796875,0.578125,-8.265625,1.8828125
4148942,,,,,,,,-0.109375,1.63671875,-0.01171875,0.29296875,-0.109375,0.234375,0.6171875,-7.921875,1.73046875
4148943,,,,,,,,-0.0078125,2.05078125,-0.2265625,0.28125,-0.099609375,0.26953125,0.6953125,-7.50390625,1.5390625
4148944,,,,,,,,0.0546875,2.28125,-0.2578125,0.271484375,-0.091796875,0.298828125,0.734375,-7.2734375,1.5390625
4148945,,,,,,,,0.0078125,2.6640625,-0.39453125,0.27734375,-0.08984375,0.31640625,0.65625,-6.890625,1.42578125
4148946,,,,,,,,-0.12109375,2.9296875,-0.48828125,0.28125,-0.0859375,0.322265625,0.50390625,-6.62890625,1.34765625
4148947,,,,,,,,-0.328125,3.12109375,-0.671875,0.29296875,-0.09375,0.314453125,0.2734375,-6.43359375,1.1953125
4148948,,,,,,,,-0.71875,3.26953125,-0.8515625,0.3046875,-0.10546875,0.3046875,-0.1484375,-6.27734375,1.0390625
4148949,,,,,,,,-0.96484375,3.23046875,-1.07421875,0.310546875,-0.13671875,0.291015625,-0.41796875,-6.3125,0.84765625
4148950,36.01259983333333,129.31943033333334,74.85400462080331,22.17367218237083,1.3,40.0,,-1.16796875,3.22265625,-1.1796875,0.017578125,0.04296875,-0.134765625,1.19140625,-9.61328125,1.30859375
4148951,,,,,,,,-1.375,3.03125,-1.2890625,0.30859375,-0.208984375,0.279296875,-0.875,-6.51171875,0.6953125
4148952,,,,,,,,-1.4296875,2.75390625,-1.3203125,0.28515625,-0.220703125,0.279296875,-0.953125,-6.7734375,0.6953125
4148953,,,,,,,,-1.3671875,2.59375,-1.34375,0.2578125,-0.212890625,0.271484375,-0.9140625,-6.9296875,0.6953125
4148954,,,,,,,,-1.23046875,2.28515625,-1.40625,0.22265625,-0.1953125,0.26171875,-0.80078125,-7.23828125,0.65625
4148955,,,,,,,,-0.890625,1.97265625,-1.24609375,0.15234375,-0.16796875,0.236328125,-0.4921875,-7.5390625,0.84765625
4148956,,,,,,,,-0.76171875,1.88671875,-1.17578125,0.10546875,-0.1640625,0.203125,-0.37890625,-7.6171875,0.92578125
4148957,,,,,,,,-0.69921875,1.7734375,-1.22265625,0.060546875,-0.169921875,0.15625,-0.33984375,-7.73828125,0.88671875
4148958,,,,,,,,-0.73828125,1.734375,-1.18359375,0.033203125,-0.16796875,0.10546875,-0.37890625,-7.7734375,0.92578125
4148959,,,,,,,,-0.8828125,1.54296875,-1.22265625,0.009765625,-0.181640625,0.05859375,-0.53125,-7.9609375,0.88671875
4148960,36.01260066666667,129.31943133333334,74.94415317542264,22.266138980513702,1.3,45.0,,-1.16796875,3.22265625,-1.1796875,0.017578125,0.04296875,-0.134765625,-0.41796875,-8.1953125,0.92578125
4148961,,,,,,,,-0.60546875,1.11328125,-1.10546875,-0.01953125,-0.287109375,0.013671875,-0.2265625,-8.46484375,1.0390625
4148962,,,,,,,,-0.4609375,0.9140625,-1.03125,-0.037109375,-0.298828125,-0.017578125,-0.03515625,-8.76953125,1.1953125
4148963,,,,,,,,-0.27734375,0.609375,-0.80078125,-0.0546875,-0.294921875,-0.046875,0.08203125,-8.9609375,1.30859375
4148964,,,,,,,,-0.24609375,0.41796875,-0.79296875,-0.064453125,-0.275390625,-0.076171875,0.15625,-9.265625,1.234375
4148965,,,,,,,,-0.25390625,0.1484375,-0.82421875,-0.072265625,-0.25390625,-0.078125,0.15625,-9.421875,1.26953125
4148966,,,,,,,,-0.26953125,-0.12109375,-0.81640625,-0.06640625,-0.22265625,-0.08203125,0.12109375,-9.9140625,1.1953125
4148967,,,,,,,,-0.2421875,-0.609375,-0.8828125,-0.046875,-0.197265625,-0.083984375,0.15625,-10.2578125,1.26953125
4148968,,,,,,,,-0.2109375,-1.19921875,-0.68359375,-0.015625,-0.1484375,-0.1015625,0.234375,-10.8359375,1.4609375
4148969,,,,,,,,-0.1875,-1.46875,-0.453125,0.013671875,-0.083984375,-0.126953125,0.2734375,-11.1015625,1.578125
4148970,36.012601499999995,129.31943216666664,75.0192768362722,22.35860564881433,1.2000000000000002,43.0,,-1.16796875,3.22265625,-1.1796875,0.033203125,0.00390625,-0.16015625,0.46484375,-11.484375,1.6171875
4148971,,,,,,,,0.1328125,-2.00390625,-0.37109375,0.041015625,0.095703125,-0.173828125,0.6171875,-11.3359375,1.80859375
4148972,,,,,,,,0.1640625,-1.8515625,-0.26171875,0.041015625,0.138671875,-0.162109375,0.6171875,-10.8359375,1.8828125
4148973,,,,,,,,-0.00390625,-0.94140625,-0.26953125,0.03125,0.203125,-0.078125,0.15625,-9.6875,1.69140625
4148974,,,,,,,,-0.578125,0.36328125,-0.5,0.009765625,0.23828125,0.03125,-0.37890625,-8.84765625,1.4609375
4148975,,,,,,,,-1.0234375,0.59375,-0.578125,0.01171875,0.185546875,0.10546875,-0.76171875,-9.00390625,1.42578125
4148976,,,,,,,,-1.20703125,0.4765625,-0.65234375,0.04296875,0.169921875,0.1328125,-0.953125,-9.6484375,0.88671875
4148977,,,,,,,,-1.3828125,-0.7109375,-1.2734375,0.0625,0.26171875,0.0546875,-0.83984375,-10.15234375,0.96484375
4148978,,,,,,,,-1.08984375,0.01171875,-0.6328125,0.0859375,0.41796875,-0.0703125,-0.4921875,-9.0390625,1.76953125
4148979,,,,,,,,-0.78515625,0.69921875,-0.2109375,0.0859375,0.5078125,-0.140625,-0.37890625,-8.765625,1.8828125
4148980,36.01260216666667,129.3194335,75.13947532717728,22.432579500842852,1.2000000000000002,48.0,,-0.44921875,-0.41015625,-0.53125,0.033203125,0.00390625,-0.16015625,-0.03515625,-9.875,1.578125
4148981,,,,,,,,-0.03515625,-3.0234375,-0.5390625,0.03515625,0.896484375,-0.359375,0.38671875,-12.484375,1.578125
4148982,,,,,,,,2.40234375,-8.15625,2.140625,-0.017578125,0.826171875,-0.41796875,2.83984375,-17.6171875,4.2578125
4148983,,,,,,,,3.49609375,-8.1953125,3.328125,-0.05078125,0.751953125,-0.45703125,3.94921875,-17.65625,5.4453125
4148984,,,,,,,,5.86328125,-7.24609375,4.515625,-0.05859375,0.9453125,-0.58203125,6.36328125,-16.6953125,6.6328125
4148985,,,,,,,,3.71875,-2.87890625,2.2578125,-0.0625,1.3515625,-0.76953125,4.2578125,-12.33203125,4.375
4148986,,,,,,,,0.60546875,-2.76171875,2.1015625,-0.009765625,0.99609375,-1.060546875,1.23046875,-12.21484375,4.21875
4148987,,,,,,,,-0.23828125,-3.33984375,2.32421875,0.06640625,-0.04296875,-0.591796875,0.46484375,-12.7890625,4.44921875
4148988,,,,,,,,-0.03125,-3.30859375,1.78125,0.11328125,-0.513671875,-0.203125,0.6953125,-12.75390625,3.9140625
4148989,,,,,,,,0.6875,-2.38671875,0.59375,0.15625,-0.861328125,0.16796875,1.421875,-11.828125,2.7265625
