time,latitude,longitude,enu_x,enu_y,speed,course,ecg,accX,accY,accZ,gyrX,gyrY,gyrZ,eulR,eulP,eulY
4125200,36.01307166666666,129.32012083333333,137.10130899743078,74.52869054394336,1.3,233.0,0.0,-1.3671875,-3.15234375,-0.53125,0.05859375,-0.07421875,0.201171875,0.2734375,-9.3828125,1.00390625
4125201,,,,,,,,-1.6953125,-3.70703125,-0.2421875,0.041015625,0.46484375,0.0625,-0.53125,-10.03515625,1.0390625
4125202,,,,,,,,-1.41015625,-5.75,-0.44140625,0.04296875,0.529296875,0.087890625,-0.26171875,-12.10546875,0.84765625
4125203,,,,,,,,-0.66015625,-7.15234375,-0.1796875,0.037109375,0.55859375,0.0859375,0.46484375,-13.51953125,1.1171875
4125204,,,,,,,,1.078125,-8.0078125,1.65234375,0.0234375,0.607421875,0.033203125,2.1875,-14.3984375,2.95703125
4125205,,,,,,,,3.2109375,-8.62890625,2.47265625,-0.017578125,0.873046875,-0.1953125,4.296875,-15.046875,3.80078125
4125206,,,,,,,,2.7890625,-7.38671875,2.72265625,-0.00390625,0.986328125,-0.3203125,3.875,-13.8203125,4.06640625
4125207,,,,,,,,2.08984375,-6.67578125,2.5546875,0.029296875,0.908203125,-0.36328125,3.18359375,-13.13671875,3.9140625
4125208,,,,,,,,1.01171875,-6.69140625,2.5078125,0.05859375,0.732421875,-0.212890625,2.11328125,-13.17578125,3.875
4125209,,,,,,,,-0.1328125,-7.31640625,3.17578125,0.1015625,0.279296875,0.029296875,0.46484375,-14.1328125,4.796875
4125210,36.013071,129.32011966666667,136.99613654459583,74.45471607407372,1.3,234.0,,-1.3671875,-3.15234375,-0.53125,0.1328125,-0.046875,0.037109375,-0.0703125,-14.3203125,4.21875
4125211,,,,,,,,-1.03515625,-7.6171875,2.421875,0.125,-0.138671875,-0.025390625,0.3125,-13.7890625,3.5703125
4125212,,,,,,,,0.08203125,-6.015625,1.57421875,0.09375,-0.19140625,-0.0546875,1.15234375,-12.6015625,2.99609375
4125213,,,,,,,,0.19140625,-5.421875,1.296875,0.06640625,-0.25390625,-0.099609375,1.26953125,-12.02734375,2.7265625
4125214,,,,,,,,-0.0859375,-5.0546875,1.09765625,0.0078125,-0.349609375,-0.267578125,1.0,-11.68359375,2.53515625
4125215,,,,,,,,-0.21484375,-4.96484375,1.01953125,-0.08984375,-0.41015625,-0.390625,0.92578125,-11.56640625,2.3046875
4125216,,,,,,,,-0.1328125,-4.75,0.60546875,-0.158203125,-0.375,-0.3515625,1.0390625,-11.30078125,1.8828125
4125217,,,,,,,,-0.09375,-4.2578125,0.23828125,-0.2265625,-0.244140625,-0.38671875,1.078125,-10.68359375,1.5390625
4125218,,,,,,,,-0.140625,-3.7421875,0.09375,-0.248046875,-0.19140625,-0.419921875,1.0390625,-10.453125,1.5
4125219,,,,,,,,-0.2109375,-3.10546875,-0.04296875,-0.298828125,-0.138671875,-0.4921875,1.0,-9.83984375,1.34765625
4125220,36.01307033333333,129.32011833333334,136.87593928809952,74.38074137273496,1.3,235.0,,-0.35546875,-2.2421875,-0.2578125,-0.34765625,-0.14453125,-0.494140625,0.88671875,-8.6484375,1.00390625
4125221,,,,,,,,-0.46484375,-1.22265625,-0.5390625,-0.369140625,-0.173828125,-0.439453125,0.76953125,-7.46484375,0.58203125
4125222,,,,,,,,-0.45703125,-0.546875,-0.82421875,-0.380859375,-0.21484375,-0.408203125,0.88671875,-7.15625,0.50390625
4125223,,,,,,,,-0.52734375,0.12890625,-0.90625,-0.3828125,-0.24609375,-0.375,0.84765625,-6.4296875,0.3515625
4125224,,,,,,,,-0.55078125,0.57421875,-0.84375,-0.390625,-0.259765625,-0.341796875,0.84765625,-6.125,0.390625
4125225,,,,,,,,-0.53515625,1.0546875,-0.74609375,-0.40234375,-0.259765625,-0.30859375,0.84765625,-5.62890625,0.50390625
4125226,,,,,,,,-0.54296875,1.25390625,-0.73046875,-0.40234375,-0.25390625,-0.291015625,0.88671875,-5.546875,0.54296875
4125227,,,,,,,,-0.453125,1.5078125,-0.69921875,-0.38671875,-0.232421875,-0.26171875,1.1171875,-5.1640625,0.58203125
4125228,,,,,,,,-0.23828125,1.84765625,-0.63671875,-0.375,-0.22265625,-0.234375,1.26953125,-5.0546875,0.58203125
4125229,,,,,,,,0.015625,1.86328125,-0.64453125,-0.365234375,-0.22265625,-0.2265625,1.53515625,-5.12890625,0.4296875
4125230,36.01306983333333,129.32011733333331,136.7857913441885,74.32526034687277,1.3,236.0,,-0.35546875,-2.2421875,-0.2578125,-0.33984375,-0.236328125,-0.232421875,1.765625,-5.28515625,0.3515625
4125231,,,,,,,,0.359375,1.44140625,-0.86328125,-0.314453125,-0.265625,-0.24609375,1.8828125,-5.70703125,0.2734375
4125232,,,,,,,,0.3984375,1.296875,-0.8125,-0.306640625,-0.26953125,-0.24609375,1.8828125,-5.86328125,0.19921875
4125233,,,,,,,,0.2890625,0.8984375,-0.75,-0.28515625,-0.26953125,-0.255859375,1.765625,-6.20703125,0.3515625
4125234,,,,,,,,0.19921875,0.65234375,-0.56640625,-0.2421875,-0.224609375,-0.2265625,1.57421875,-6.6953125,0.65625
4125235,,,,,,,,-0.0546875,0.015625,-0.2421875,-0.1875,-0.14453125,-0.095703125,1.4609375,-7.35546875,0.92578125
4125236,,,,,,,,-0.109375,-0.265625,-0.06640625,-0.177734375,-0.126953125,-0.0546875,1.421875,-7.734375,0.96484375
4125237,,,,,,,,-0.1875,-0.78515625,-0.01171875,-0.146484375,-0.099609375,0.01953125,1.34375,-8.04296875,0.92578125
4125238,,,,,,,,-0.25390625,-1.26171875,-0.07421875,-0.119140625,-0.0859375,0.076171875,1.26953125,-8.50390625,0.92578125
4125239,,,,,,,,-0.29296875,-1.3671875,-0.03515625,-0.11328125,-0.076171875,0.083984375,1.26953125,-8.62109375,0.92578125
4125240,36.013069,129.32011616666665,136.6806191738458,74.23279267463117,1.4000000000000001,234.0,,-0.35546875,-2.2421875,-0.2578125,-0.09765625,-0.0859375,0.11328125,1.23046875,-8.92578125,1.0390625
4125241,,,,,,,,-0.35546875,-1.98046875,0.1640625,-0.08984375,-0.09375,0.1328125,1.19140625,-9.15234375,1.1171875
4125242,,,,,,,,-0.34765625,-2.1953125,0.1796875,-0.083984375,-0.09765625,0.150390625,1.19140625,-9.3828125,1.1171875
4125243,,,,,,,,-0.37109375,-2.4765625,0.2265625,-0.0703125,-0.099609375,0.173828125,1.15234375,-9.69140625,1.15625
4125244,,,,,,,,-0.36328125,-2.61328125,0.234375,-0.0625,-0.091796875,0.20703125,1.15234375,-9.8359375,1.15625
4125245,,,,,,,,-0.33984375,-2.73828125,0.08203125,-0.056640625,-0.052734375,0.21484375,1.15234375,-9.99609375,1.00390625
4125246,,,,,,,,-0.32421875,-2.76953125,0.05078125,-0.0625,-0.041015625,0.212890625,1.15234375,-10.03515625,0.96484375
4125247,,,,,,,,-0.30859375,-2.8203125,-0.1796875,-0.064453125,-0.01171875,0.208984375,1.15234375,-10.109375,0.734375
4125248,,,,,,,,-0.328125,-2.84375,-0.40234375,-0.072265625,0.013671875,0.201171875,1.1171875,-10.15234375,0.50390625
4125249,,,,,,,,-0.390625,-2.93359375,-0.40234375,-0.072265625,0.05078125,0.197265625,1.0390625,-10.26171875,0.50390625
4125250,36.0130685,129.32011516666668,136.59047122911818,74.17731165163953,1.2000000000000002,233.0,,-0.4140625,-3.03515625,-0.32421875,-0.09765625,-0.0859375,0.11328125,1.23046875,-8.92578125,1.0390625
4125251,,,,,,,,-0.390625,-3.01171875,-0.28515625,-0.0625,0.173828125,0.169921875,1.0,-10.37890625,0.62109375
4125252,,,,,,,,-0.34375,-2.87109375,-0.1640625,-0.056640625,0.24609375,0.150390625,1.0390625,-10.2578125,0.734375
4125253,,,,,,,,0.0546875,-3.23828125,0.296875,-0.04296875,0.310546875,0.130859375,1.421875,-10.64453125,1.1953125
4125254,,,,,,,,0.26171875,-4.296875,0.328125,-0.021484375,0.361328125,0.130859375,1.61328125,-11.71875,1.234375
4125255,,,,,,,,-0.06640625,-6.45703125,0.2109375,-0.00390625,0.41796875,0.1171875,1.26953125,-13.8984375,1.1171875
4125256,,,,,,,,-0.7421875,-7.0625,0.51171875,0.013671875,0.46484375,0.11328125,0.578125,-14.515625,1.42578125
4125257,,,,,,,,-1.453125,-6.50390625,1.3046875,0.00390625,0.5546875,0.146484375,-0.1484375,-13.9765625,2.2265625
4125258,,,,,,,,-3.109375,-6.35546875,2.28515625,-0.01171875,0.78125,0.193359375,-1.8359375,-13.86328125,3.22265625
4125259,,,,,,,,-3.95703125,-5.6875,2.69140625,0.005859375,0.76171875,0.2421875,-2.71484375,-13.21484375,3.64453125
4125260,36.01306733333333,129.32011416666668,136.5003244307254,74.04785779953187,1.3,226.0,,-3.6953125,-4.1328125,3.18359375,0.005859375,0.58984375,0.37890625,-2.484375,-11.6796875,4.14453125
4125261,,,,,,,,-2.77734375,-3.6953125,2.8671875,-0.048828125,0.5,0.40625,-1.60546875,-11.26171875,3.8359375
4125262,,,,,,,,-1.2109375,-3.75,2.5625,-0.08203125,0.41796875,0.248046875,-0.0703125,-11.33984375,3.53125
4125263,,,,,,,,-0.4609375,-4.0390625,2.72265625,-0.099609375,0.068359375,0.09375,0.65625,-11.640625,3.68359375
4125264,,,,,,,,-0.23046875,-4.125,2.72265625,-0.119140625,-0.14453125,-0.015625,0.88671875,-11.7578125,3.68359375
4125265,,,,,,,,-0.65234375,-3.9921875,2.5390625,-0.099609375,-0.109375,-0.01953125,0.46484375,-11.64453125,3.4921875
4125266,,,,,,,,-1.296875,-3.75,2.43359375,-0.052734375,-0.056640625,0.1015625,-0.1875,-11.4140625,3.37890625
4125267,,,,,,,,-1.6640625,-3.578125,2.1640625,0.005859375,-0.064453125,0.21875,-0.5703125,-11.26171875,3.109375
4125268,,,,,,,,-1.640625,-3.51953125,2.0859375,0.056640625,-0.064453125,0.244140625,-0.5703125,-11.22265625,3.03125
4125269,,,,,,,,-1.34765625,-3.41796875,1.765625,0.12109375,-0.044921875,0.201171875,-0.30078125,-11.140625,2.7265625
4125270,36.01306666666667,129.32011300000002,136.39515196672602,73.97388333704814,1.3,227.0,,-1.140625,-3.09375,1.3671875,0.1796875,-0.021484375,0.169921875,-0.109375,-10.83984375,2.34375
4125271,,,,,,,,-1.203125,-2.54296875,1.0078125,0.21484375,-0.01171875,0.166015625,-0.1875,-10.30078125,2.0
4125272,,,,,,,,-1.234375,-2.26953125,0.9609375,0.23046875,-0.009765625,0.150390625,-0.2265625,-10.03125,1.9609375
4125273,,,,,,,,-1.09375,-1.546875,0.69921875,0.240234375,-0.009765625,0.13671875,-0.109375,-9.34765625,1.73046875
4125274,,,,,,,,-1.046875,-1.31640625,0.53125,0.24609375,-0.037109375,0.15625,-0.0703125,-9.109375,1.578125
4125275,,,,,,,,-0.83984375,-0.6484375,0.31640625,0.25,-0.0703125,0.166015625,0.12109375,-8.46484375,1.38671875
4125276,,,,,,,,-0.7421875,0.0625,0.0546875,0.251953125,-0.140625,0.1484375,0.1953125,-7.77734375,1.15625
4125277,,,,,,,,-0.6953125,0.4140625,-0.03125,0.2578125,-0.154296875,0.14453125,0.234375,-7.4296875,1.078125
4125278,,,,,,,,-0.6875,0.8125,-0.24609375,0.265625,-0.181640625,0.146484375,0.234375,-7.05078125,0.88671875
4125279,,,,,,,,-0.7109375,1.08203125,-0.30078125,0.2734375,-0.1875,0.1328125,0.1953125,-6.7734375,0.84765625
4125280,36.013066,129.32011233333333,136.33505390601505,73.8999095767755,1.1,225.0,,-0.80859375,1.296875,-0.484375,0.1796875,-0.021484375,0.169921875,-0.109375,-10.83984375,2.34375
4125281,,,,,,,,-0.953125,1.58203125,-0.66015625,0.306640625,-0.232421875,0.06640625,-0.0703125,-6.3125,0.54296875
4125282,,,,,,,,-1.22265625,1.62890625,-0.796875,0.3203125,-0.236328125,0.041015625,-0.33984375,-6.2734375,0.4296875
4125283,,,,,,,,-1.484375,1.55859375,-0.9140625,0.32421875,-0.2421875,0.025390625,-0.609375,-6.35546875,0.3515625
4125284,,,,,,,,-1.62890625,1.453125,-0.890625,0.310546875,-0.2421875,0.015625,-0.76171875,-6.47265625,0.390625
4125285,,,,,,,,-1.7890625,1.19921875,-0.921875,0.298828125,-0.224609375,0.017578125,-0.9140625,-6.73828125,0.390625
4125286,,,,,,,,-1.78125,1.015625,-0.96875,0.28125,-0.208984375,0.015625,-0.9140625,-6.9296875,0.3515625
4125287,,,,,,,,-1.8203125,0.79296875,-1.0078125,0.22265625,-0.173828125,0.0078125,-0.953125,-7.15625,0.3515625
4125288,,,,,,,,-1.734375,0.33984375,-1.0234375,0.171875,-0.140625,0.0,-0.875,-7.6171875,0.3515625
4125289,,,,,,,,-1.58203125,0.08203125,-0.9921875,0.115234375,-0.111328125,-0.009765625,-0.72265625,-7.8828125,0.390625
4125290,36.01306533333333,129.32011150000002,136.2599310445247,73.82593558100919,1.2000000000000002,225.0,,-1.4609375,0.05859375,-1.0078125,0.064453125,-0.09765625,-0.0234375,-0.609375,-7.921875,0.390625
4125291,,,,,,,,-1.23046875,0.06640625,-1.046875,0.013671875,-0.07421875,-0.044921875,-0.37890625,-7.921875,0.3515625
4125292,,,,,,,,-1.0390625,0.03515625,-1.078125,-0.025390625,-0.056640625,-0.05859375,-0.1875,-7.96484375,0.3125
4125293,,,,,,,,-0.9296875,0.01171875,-1.0859375,-0.05859375,-0.064453125,-0.0859375,-0.0703125,-8.0,0.3125
4125294,,,,,,,,-0.77734375,-0.09375,-1.15234375,-0.076171875,-0.07421875,-0.115234375,0.08203125,-8.12109375,0.23828125
4125295,,,,,,,,-0.671875,-0.203125,-1.1171875,-0.083984375,-0.09375,-0.130859375,0.1953125,-8.234375,0.2734375
4125296,,,,,,,,-0.6796875,-0.22265625,-1.109375,-0.08984375,-0.107421875,-0.130859375,0.1953125,-8.26953125,0.2734375
4125297,,,,,,,,-0.71875,-0.40625,-1.0234375,-0.0859375,-0.099609375,-0.12890625,0.15625,-8.4609375,0.3515625
4125298,,,,,,,,-0.76171875,-0.66796875,-0.9453125,-0.0703125,-0.09375,-0.109375,0.12109375,-8.7265625,0.4296875
4125299,,,,,,,,-0.84765625,-0.890625,-0.82421875,-0.046875,-0.078125,-0.1015625,0.04296875,-8.96484375,0.54296875
4125300,36.013064666666665,129.32011083333333,136.19983298194728,73.75196182085926,1.1,226.0,0.0,-0.92578125,-1.265625,-0.73828125,-0.0234375,-0.06640625,-0.08984375,-0.03515625,-9.34375,0.62109375
4125301,,,,,,,,-1.0859375,-1.7109375,-0.7109375,0.009765625,-0.033203125,-0.083984375,-0.1875,-9.8046875,0.65625
4125302,,,,,,,,-1.16015625,-2.19921875,-0.7109375,0.046875,-0.005859375,-0.06640625,-0.26171875,-10.30078125,0.65625
4125303,,,,,,,,-1.0859375,-2.53515625,-0.640625,0.09765625,0.05078125,-0.06640625,-0.1875,-10.64453125,0.734375
4125304,,,,,,,,-1.0859375,-2.796875,-0.80078125,0.119140625,0.0859375,-0.064453125,-0.1875,-10.91796875,0.58203125
4125305,,,,,,,,-0.90234375,-2.94140625,-0.89453125,0.134765625,0.11328125,-0.076171875,0.00390625,-11.0625,0.50390625
4125306,,,,,,,,-0.703125,-2.8203125,-1.0625,0.142578125,0.14453125,-0.08984375,0.1953125,-10.953125,0.3515625
4125307,,,,,,,,-0.47265625,-2.4765625,-1.1484375,0.140625,0.177734375,-0.083984375,0.42578125,-10.609375,0.2734375
4125308,,,,,,,,-0.5859375,-1.80859375,-1.31640625,0.130859375,0.220703125,-0.0546875,0.3125,-9.953125,0.12109375
4125309,,,,,,,,-1.0,-1.5703125,-1.4453125,0.130859375,0.251953125,-0.048828125,-0.109375,-9.73046875,0.0078125
4125310,36.013064166666666,129.32010966666667,136.0946602251764,73.69648056952217,1.2000000000000002,231.0,,-1.60546875,-1.984375,-1.4921875,-0.0234375,-0.06640625,-0.08984375,-0.72265625,-10.15234375,-0.03125
4125311,,,,,,,,-1.72265625,-2.85546875,-1.66015625,0.138671875,0.318359375,0.03125,-0.83984375,-11.0234375,-0.18359375
4125312,,,,,,,,-0.9296875,-4.19140625,-1.26171875,0.1484375,0.3828125,0.03515625,-0.0703125,-12.3671875,0.23828125
4125313,,,,,,,,-0.73046875,-4.10546875,-0.87890625,0.150390625,0.419921875,0.03125,0.12109375,-12.29296875,0.62109375
4125314,,,,,,,,-0.234375,-3.76171875,-0.13671875,0.146484375,0.55859375,-0.025390625,0.6171875,-11.94921875,1.38671875
4125315,,,,,,,,0.77734375,-4.40625,0.19140625,0.12109375,0.75,-0.142578125,1.61328125,-12.60546875,1.73046875
4125316,,,,,,,,1.54296875,-5.23046875,0.55859375,0.091796875,0.880859375,-0.236328125,2.37890625,-13.44140625,2.11328125
4125317,,,,,,,,2.609375,-4.9921875,1.9609375,0.046875,0.80859375,-0.380859375,3.453125,-13.21484375,3.53125
4125318,,,,,,,,2.5625,-5.03125,2.3828125,0.04296875,0.76171875,-0.400390625,3.4140625,-13.25390625,3.953125
4125319,,,,,,,,1.58203125,-5.1328125,2.55859375,0.03515625,0.84375,-0.37890625,2.45703125,-13.3671875,4.14453125
4125320,36.0130635,129.32010833333334,135.9744629511992,73.62250588017568,1.3,233.0,,-0.1953125,-5.16015625,2.19140625,0.072265625,0.68359375,-0.34765625,-0.72265625,-10.15234375,-0.03125
4125321,,,,,,,,-0.94140625,-4.76953125,1.453125,0.130859375,0.28515625,-0.236328125,-0.03515625,-13.015625,3.0703125
4125322,,,,,,,,-0.79296875,-4.265625,1.0546875,0.171875,-0.025390625,-0.134765625,0.12109375,-12.5234375,2.6875
4125323,,,,,,,,-0.15234375,-3.4921875,0.55078125,0.189453125,-0.24609375,-0.119140625,0.76953125,-11.76171875,2.19140625
4125324,,,,,,,,0.21484375,-3.0234375,0.15234375,0.162109375,-0.40625,-0.1875,1.15234375,-11.30078125,1.80859375
4125325,,,,,,,,0.0,-2.7109375,0.03515625,0.11328125,-0.458984375,-0.279296875,0.9609375,-10.99609375,1.69140625
4125326,,,,,,,,0.0234375,-2.6640625,-0.01953125,0.080078125,-0.46484375,-0.3125,1.0,-10.953125,1.65234375
4125327,,,,,,,,0.13671875,-2.5703125,-0.23828125,0.009765625,-0.400390625,-0.33203125,1.15234375,-10.875,1.42578125
4125328,,,,,,,,0.10546875,-2.45703125,-0.30859375,-0.072265625,-0.259765625,-0.326171875,1.15234375,-10.76171875,1.34765625
4125329,,,,,,,,-0.078125,-1.94140625,-0.4921875,-0.14453125,-0.12890625,-0.33203125,1.0,-10.2578125,1.15625
4125330,36.013062833333336,129.320107,135.85426567542072,73.54853119131994,1.4000000000000001,234.0,,-0.33203125,-1.3984375,-0.62890625,0.072265625,0.68359375,-0.34765625,-0.72265625,-10.15234375,-0.03125
4125331,,,,,,,,-0.58203125,-0.6171875,-0.8359375,-0.265625,-0.029296875,-0.359375,0.54296875,-8.9609375,0.7734375
4125332,,,,,,,,-0.73046875,-0.07421875,-1.00390625,-0.291015625,-0.03515625,-0.314453125,0.42578125,-8.42578125,0.58203125
4125333,,,,,,,,-0.63671875,0.5625,-1.2421875,-0.279296875,-0.138671875,-0.21484375,0.54296875,-7.81640625,0.3125
4125334,,,,,,,,-0.546875,1.4609375,-1.484375,-0.2734375,-0.21484375,-0.20703125,0.65625,-6.9296875,0.046875
4125335,,,,,,,,-0.5234375,1.78125,-1.4921875,-0.28125,-0.271484375,-0.21875,0.6953125,-6.62890625,0.0078125
4125336,,,,,,,,-0.41796875,1.9453125,-1.5625,-0.283203125,-0.28515625,-0.21484375,0.80859375,-6.47265625,-0.0703125
4125337,,,,,,,,-0.28125,2.2578125,-1.4921875,-0.296875,-0.306640625,-0.19140625,0.9609375,-6.1640625,-0.03125
4125338,,,,,,,,-0.11328125,2.3046875,-1.34765625,-0.3125,-0.306640625,-0.1640625,1.15234375,-6.125,0.08203125
4125339,,,,,,,,0.0625,2.28125,-1.23828125,-0.302734375,-0.302734375,-0.123046875,1.34375,-6.1640625,0.16015625
4125340,36.01306233333333,129.32010616666668,135.77914251863712,73.49305040829131,1.2000000000000002,235.0,,0.28515625,2.2109375,-1.12890625,0.072265625,0.68359375,-0.34765625,-0.72265625,-10.15234375,-0.03125
4125341,,,,,,,,0.41796875,2.04296875,-1.16796875,-0.2421875,-0.232421875,-0.12109375,1.73046875,-6.4296875,0.16015625
4125342,,,,,,,,0.4453125,1.70703125,-1.2578125,-0.2109375,-0.220703125,-0.146484375,1.765625,-6.77734375,0.046875
4125343,,,,,,,,0.39453125,1.53125,-1.3125,-0.16796875,-0.212890625,-0.171875,1.73046875,-6.97265625,-0.03125
4125344,,,,,,,,0.33984375,1.34765625,-1.34375,-0.13671875,-0.2109375,-0.166015625,1.69140625,-7.16015625,-0.0703125
4125345,,,,,,,,0.16796875,1.1171875,-1.2421875,-0.08984375,-0.216796875,-0.142578125,1.53515625,-7.39453125,0.0078125
4125346,,,,,,,,0.09375,1.125,-1.16796875,-0.07421875,-0.224609375,-0.123046875,1.4609375,-7.39453125,0.08203125
4125347,,,,,,,,-0.03125,1.05859375,-1.04296875,-0.041015625,-0.23046875,-0.080078125,1.34375,-7.4609375,0.19921875
4125348,,,,,,,,-0.19140625,0.828125,-0.921875,-0.001953125,-0.224609375,0.005859375,1.19140625,-7.69921875,0.3125
4125349,,,,,,,,-0.34375,0.60546875,-0.9140625,0.029296875,-0.251953125,0.095703125,1.0390625,-7.921875,0.3125
4125350,36.013061666666665,129.32010516666665,135.68899484238622,73.41907618805651,1.3,233.0,,-0.328125,0.0859375,-0.90625,0.072265625,0.68359375,-0.34765625,1.0390625,-8.4609375,0.3125
4125351,,,,,,,,-0.28125,-0.22265625,-0.828125,0.064453125,-0.333984375,0.236328125,1.078125,-8.765625,0.390625
4125352,,,,,,,,-0.19921875,-0.40625,-0.8359375,0.07421875,-0.353515625,0.248046875,1.15234375,-8.96484375,0.390625
4125353,,,,,,,,-0.12890625,-0.88671875,-0.796875,0.0859375,-0.416015625,0.23828125,1.19140625,-9.45703125,0.4296875
4125354,,,,,,,,-0.1875,-1.1171875,-0.71484375,0.08984375,-0.43359375,0.236328125,1.1171875,-9.6875,0.50390625
4125355,,,,,,,,-0.2890625,-1.26171875,-0.4921875,0.087890625,-0.45703125,0.25390625,1.0,-9.8359375,0.734375
4125356,,,,,,,,-0.2734375,-1.44921875,-0.30078125,0.0859375,-0.439453125,0.265625,1.0,-10.03125,0.92578125
4125357,,,,,,,,-0.10546875,-1.70703125,-0.140625,0.076171875,-0.421875,0.2890625,1.15234375,-10.30078125,1.078125
4125358,,,,,,,,0.234375,-2.11328125,-0.1015625,0.0546875,-0.34375,0.294921875,1.4609375,-10.71875,1.1171875
4125359,,,,,,,,0.34765625,-2.3671875,-0.21484375,0.037109375,-0.26171875,0.25,1.53515625,-10.99609375,1.00390625
4125360,36.013060833333334,129.32010416666665,135.5988474540313,73.32660876021082,1.3,231.0,,0.2109375,-2.55078125,-0.29296875,0.009765625,-0.22265625,0.19140625,1.3828125,-11.18359375,0.92578125
4125361,,,,,,,,-0.1171875,-2.234375,-0.20703125,-0.015625,-0.173828125,0.154296875,1.0390625,-10.87890625,1.00390625
4125362,,,,,,,,-0.22265625,-1.84375,-0.125,-0.0546875,-0.091796875,0.1328125,1.0,-10.07421875,1.0390625
4125363,,,,,,,,-0.140625,-1.4140625,-0.1640625,-0.060546875,-0.05078125,0.142578125,1.0390625,-9.87890625,0.96484375
4125364,,,,,,,,0.09765625,-1.1015625,-0.23046875,-0.072265625,-0.0078125,0.189453125,1.53515625,-9.953125,0.92578125
4125365,,,,,,,,0.62890625,-2.1953125,-0.21484375,-0.08984375,0.01953125,0.1953125,1.8046875,-11.5234375,0.92578125
4125366,,,,,,,,0.61328125,-3.4921875,-0.32421875,-0.107421875,0.078125,0.201171875,1.26953125,-13.17578125,0.6953125
4125367,,,,,,,,-0.0703125,-4.625,-0.23828125,-0.12890625,0.23046875,0.197265625,0.50390625,-13.09375,1.26953125
4125368,,,,,,,,-0.55859375,-4.39453125,0.11328125,-0.142578125,0.34375,0.193359375,0.08203125,-12.52734375,1.73046875
4125369,,,,,,,,-1.71484375,-3.15234375,1.84765625,-0.169921875,0.583984375,0.177734375,-0.68359375,-11.8671875,2.99609375
4125370,36.01306,129.32010333333335,135.52372486688122,73.23414156541668,1.2000000000000002,226.0,,-1.9609375,-3.91015625,2.3203125,-0.130859375,0.7265625,0.16796875,-0.953125,-12.63671875,3.453125
4125371,,,,,,,,-2.625,-4.05078125,3.1640625,-0.056640625,0.654296875,0.326171875,-1.640625,-12.79296875,4.296875
4125372,,,,,,,,-2.78125,-3.54296875,3.27734375,-0.05078125,0.419921875,0.517578125,-1.8359375,-12.29296875,4.41015625
4125373,,,,,,,,-2.7109375,-3.265625,3.27734375,-0.064453125,0.373046875,0.513671875,-1.796875,-12.0234375,4.41015625
4125374,,,,,,,,-2.01953125,-2.9921875,3.0859375,-0.091796875,0.423828125,0.326171875,-1.14453125,-11.7578125,4.21875
4125375,,,,,,,,-0.6328125,-3.3984375,3.40234375,-0.08984375,0.25390625,0.203125,0.1953125,-12.18359375,4.52734375
4125376,,,,,,,,-0.02734375,-3.375,3.33203125,-0.10546875,-0.111328125,0.158203125,0.76953125,-12.18359375,4.44921875
4125377,,,,,,,,-0.0546875,-2.9453125,2.8046875,-0.10546875,-0.3046875,0.1015625,0.734375,-11.76171875,3.9140625
4125378,,,,,,,,-0.36328125,-2.5625,2.890625,-0.087890625,-0.318359375,0.109375,0.42578125,-11.37890625,3.9921875
4125379,,,,,,,,-0.76171875,-2.0390625,2.63671875,-0.017578125,-0.314453125,0.28515625,0.00390625,-10.87890625,3.72265625
4125380,36.01305916666667,129.3201021666667,135.4185526700513,73.14167390762105,1.4000000000000001,227.0,,-1.11328125,-1.7265625,2.40625,-0.130859375,0.7265625,0.16796875,-0.953125,-12.63671875,3.453125
4125381,,,,,,,,-1.01171875,-1.78515625,2.1015625,0.095703125,-0.291015625,0.32421875,-0.30078125,-10.640625,3.1875
4125382,,,,,,,,-0.8671875,-1.703125,1.89453125,0.1796875,-0.26953125,0.271484375,-0.1875,-10.57421875,2.99609375
4125383,,,,,,,,-0.64453125,-1.234375,1.515625,0.2734375,-0.15234375,0.20703125,0.00390625,-10.109375,2.6484375
4125384,,,,,,,,-0.4375,-0.4609375,1.1015625,0.29296875,-0.07421875,0.158203125,0.1953125,-9.34765625,2.265625
4125385,,,,,,,,-0.26953125,0.3515625,0.53515625,0.296875,-0.041015625,0.134765625,0.34765625,-8.54296875,1.73046875
4125386,,,,,,,,-0.26171875,0.58203125,0.4140625,0.29296875,-0.044921875,0.13671875,0.34765625,-8.30859375,1.6171875
4125387,,,,,,,,-0.3203125,1.046875,0.15234375,0.29296875,-0.083984375,0.17578125,0.2734375,-7.8515625,1.38671875
4125388,,,,,,,,-0.19140625,1.5546875,-0.0625,0.298828125,-0.12890625,0.203125,0.38671875,-7.35546875,1.1953125
4125389,,,,,,,,-0.03515625,2.13671875,-0.33984375,0.330078125,-0.171875,0.220703125,0.50390625,-6.7734375,0.96484375
4125390,36.01305850000001,129.32010133333333,135.3434297924525,73.06769992115379,1.3,227.0,,-0.13671875,2.453125,-0.5234375,0.359375,-0.173828125,0.19921875,-0.953125,-12.63671875,3.453125
4125391,,,,,,,,-0.3125,2.6796875,-0.7109375,0.3828125,-0.166015625,0.150390625,0.1953125,-6.2421875,0.65625
4125392,,,,,,,,-0.46484375,2.7109375,-0.734375,0.390625,-0.16796875,0.142578125,0.04296875,-6.203125,0.65625
4125393,,,,,,,,-0.79296875,2.7578125,-0.91796875,0.41015625,-0.173828125,0.1171875,-0.30078125,-6.16796875,0.50390625
4125394,,,,,,,,-1.046875,2.60546875,-0.96484375,0.416015625,-0.19921875,0.140625,-0.5703125,-6.3125,0.50390625
4125395,,,,,,,,-1.078125,2.48046875,-0.99609375,0.4140625,-0.20703125,0.1484375,-0.609375,-6.4296875,0.50390625
4125396,,,,,,,,-1.13671875,2.453125,-1.03515625,0.396484375,-0.21484375,0.138671875,-0.68359375,-6.47265625,0.50390625
4125397,,,,,,,,-1.08984375,2.375,-1.06640625,0.361328125,-0.197265625,0.111328125,-0.64453125,-6.546875,0.50390625
4125398,,,,,,,,-1.16015625,2.14453125,-1.09765625,0.32421875,-0.181640625,0.08203125,-0.72265625,-6.77734375,0.50390625
4125399,,,,,,,,-1.15234375,1.90625,-1.15234375,0.296875,-0.189453125,0.078125,-0.72265625,-7.0078125,0.46484375
4125400,36.01305766666667,129.3201005,135.26830719803218,72.9752327287079,1.3,226.0,0.0,-1.06640625,1.67578125,-1.18359375,0.359375,-0.173828125,0.19921875,-0.953125,-12.63671875,3.453125
4125401,,,,,,,,-0.83984375,1.41796875,-1.16796875,0.1796875,-0.20703125,0.046875,-0.41796875,-7.50390625,0.50390625
4125402,,,,,,,,-0.6015625,1.30078125,-1.0234375,0.138671875,-0.203125,0.0234375,-0.1875,-7.6171875,0.65625
4125403,,,,,,,,-0.484375,1.2265625,-1.046875,0.10546875,-0.1875,-0.001953125,-0.0703125,-7.69921875,0.65625
4125404,,,,,,,,-0.41015625,0.95703125,-1.0078125,0.08203125,-0.1796875,-0.025390625,0.00390625,-7.9609375,0.6953125
4125405,,,,,,,,-0.33203125,0.65234375,-0.96875,0.0703125,-0.177734375,-0.048828125,0.08203125,-8.26953125,0.734375
4125406,,,,,,,,-0.265625,0.12109375,-0.83203125,0.064453125,-0.189453125,-0.046875,0.15625,-8.80859375,0.88671875
4125407,,,,,,,,-0.1953125,-0.22265625,-0.6796875,0.0625,-0.19140625,-0.04296875,0.234375,-9.1484375,1.0390625
4125408,,,,,,,,-0.1171875,-0.53515625,-0.45703125,0.06640625,-0.173828125,-0.048828125,0.3125,-9.45703125,1.26953125
4125409,,,,,,,,-0.1640625,-0.64453125,-0.42578125,0.068359375,-0.146484375,-0.064453125,0.2734375,-9.57421875,1.30859375
4125410,36.013057333333336,129.32009950000003,135.17815894734085,72.93824492728038,1.2000000000000002,228.0,,-0.25,-0.91015625,-0.5,0.08203125,-0.12109375,-0.068359375,0.1953125,-9.83984375,1.234375
4125411,,,,,,,,-0.171875,-1.140625,-0.546875,0.099609375,-0.125,-0.048828125,0.2734375,-10.0703125,1.1953125
4125412,,,,,,,,0.08984375,-1.40234375,-0.6015625,0.111328125,-0.14453125,-0.025390625,0.54296875,-10.33984375,1.15625
4125413,,,,,,,,0.1640625,-1.48046875,-0.5625,0.1171875,-0.146484375,-0.015625,0.6171875,-10.41796875,1.1953125
4125414,,,,,,,,0.35546875,-1.5625,-0.578125,0.12890625,-0.115234375,0.0078125,0.88671875,-10.609375,1.1953125
4125415,,,,,,,,0.515625,-1.71484375,-0.625,0.13671875,-0.03515625,0.001953125,1.078125,-10.7578125,1.1171875
4125416,,,,,,,,0.70703125,-1.86328125,-0.71875,0.123046875,0.02734375,0.015625,1.23046875,-10.76171875,1.1171875
4125417,,,,,,,,0.82421875,-1.6015625,-0.7265625,0.123046875,0.099609375,0.056640625,1.19140625,-10.296875,1.078125
4125418,,,,,,,,0.75390625,-1.36328125,-0.7265625,0.125,0.125,0.083984375,1.0,-10.03515625,1.00390625
4125419,,,,,,,,0.38671875,-0.828125,-0.90234375,0.119140625,0.25390625,0.12890625,0.65625,-9.61328125,0.8125
4125420,36.01305683333333,129.3200985,135.0880109757315,72.88276391790855,1.3,231.0,,-0.25,-0.91015625,-0.5,0.12109375,0.314453125,0.162109375,0.1953125,-9.83984375,1.234375
4125421,,,,,,,,-0.828125,-0.359375,-1.1953125,0.125,0.341796875,0.1953125,-0.453125,-9.30859375,0.65625
4125422,,,,,,,,-1.390625,-1.08984375,-1.28515625,0.125,0.388671875,0.22265625,-1.03125,-10.03125,0.58203125
4125423,,,,,,,,-1.48828125,-1.77734375,-1.4375,0.119140625,0.4375,0.212890625,-1.14453125,-10.72265625,0.4296875
4125424,,,,,,,,-1.171875,-2.49609375,-1.1484375,0.10546875,0.56640625,0.15234375,-0.875,-11.44921875,0.734375
4125425,,,,,,,,-0.66015625,-2.27734375,-0.54296875,0.091796875,0.7109375,0.052734375,-0.37890625,-11.22265625,1.34765625
4125426,,,,,,,,0.3203125,-2.7265625,-0.0625,0.06640625,0.892578125,-0.099609375,0.578125,-11.68359375,1.84375
4125427,,,,,,,,1.6328125,-5.140625,0.390625,-0.009765625,1.068359375,-0.28125,1.8828125,-14.09375,2.3046875
4125428,,,,,,,,2.58984375,-6.2890625,1.35546875,-0.048828125,1.0390625,-0.333984375,2.83984375,-15.2421875,3.26171875
4125429,,,,,,,,4.48046875,-6.08984375,2.46875,-0.12109375,0.8828125,-0.46484375,4.75390625,-15.05078125,4.375
4125430,36.013056166666665,129.32009716666667,134.9678136815869,72.80878924229296,1.3,233.0,,4.609375,-5.046875,2.66796875,0.12109375,0.314453125,0.162109375,0.1953125,-9.83984375,1.234375
4125431,,,,,,,,2.92578125,-3.5859375,2.57421875,-0.1796875,0.9296875,-0.62890625,3.26171875,-12.5625,4.44921875
4125432,,,,,,,,0.96875,-3.578125,2.66015625,-0.169921875,0.701171875,-0.646484375,1.34375,-12.56640625,4.52734375
4125433,,,,,,,,0.296875,-3.37890625,2.0625,-0.0546875,-0.251953125,-0.193359375,0.734375,-12.3671875,3.9140625
4125434,,,,,,,,0.74609375,-2.375,1.3046875,0.021484375,-0.662109375,-0.041015625,1.19140625,-11.375,3.1484375
4125435,,,,,,,,1.3984375,-1.41015625,0.72265625,0.025390625,-0.76953125,-0.21875,1.8828125,-10.41796875,2.57421875
4125436,,,,,,,,1.55078125,-1.2109375,0.73046875,-0.005859375,-0.75,-0.30078125,2.07421875,-10.23046875,2.57421875
4125437,,,,,,,,1.50390625,-1.35546875,0.76953125,-0.072265625,-0.75,-0.26171875,2.07421875,-10.37890625,2.61328125
4125438,,,,,,,,1.43359375,-1.5,0.8203125,-0.146484375,-0.708984375,-0.185546875,2.03515625,-10.53515625,2.6484375
4125439,,,,,,,,1.265625,-1.30078125,0.69140625,-0.216796875,-0.53125,-0.130859375,1.8828125,-10.3359375,2.49609375
4125440,36.013055333333334,129.3200958333333,134.84761666803385,72.71632136079178,1.4000000000000001,234.0,,0.703125,-0.6796875,0.4453125,0.12109375,0.314453125,0.162109375,1.34375,-9.73046875,2.2265625
4125441,,,,,,,,0.3828125,-0.05078125,0.1640625,-0.29296875,-0.16796875,-0.099609375,1.0390625,-9.11328125,1.921875
4125442,,,,,,,,0.10546875,0.64453125,-0.1875,-0.306640625,-0.099609375,-0.083984375,0.76953125,-8.421875,1.5390625
4125443,,,,,,,,0.09765625,0.9296875,-0.2421875,-0.30859375,-0.12890625,-0.0234375,0.76953125,-8.16015625,1.4609375
4125444,,,,,,,,0.17578125,1.12109375,-0.29296875,-0.2890625,-0.185546875,0.041015625,0.84765625,-7.9609375,1.38671875
4125445,,,,,,,,0.3125,1.60546875,-0.33203125,-0.2734375,-0.208984375,0.0,1.0,-7.5,1.30859375
4125446,,,,,,,,0.23828125,1.95703125,-0.30078125,-0.271484375,-0.1796875,-0.02734375,0.92578125,-7.15625,1.30859375
4125447,,,,,,,,0.34375,2.38671875,-0.390625,-0.28515625,-0.162109375,-0.001953125,1.0390625,-6.73828125,1.1953125
4125448,,,,,,,,0.57421875,2.546875,-0.4453125,-0.294921875,-0.166015625,0.0625,1.26953125,-6.58984375,1.1171875
4125449,,,,,,,,1.1640625,2.6015625,-0.56640625,-0.306640625,-0.1953125,0.12890625,1.84375,-6.55078125,0.96484375
4125450,36.01305483333333,129.320095,134.77249350267618,72.66084058631068,1.3,236.0,,1.43359375,2.88671875,-0.65234375,-0.306640625,-0.228515625,0.177734375,2.11328125,-6.27734375,0.84765625
4125451,,,,,,,,1.41015625,2.85546875,-0.6953125,-0.279296875,-0.23828125,0.171875,2.07421875,-6.3125,0.7734375
4125452,,,,,,,,1.30859375,2.77734375,-0.75,-0.251953125,-0.234375,0.1484375,1.95703125,-6.39453125,0.6953125
4125453,,,,,,,,1.1171875,2.515625,-0.81640625,-0.224609375,-0.2265625,0.150390625,1.765625,-6.66796875,0.62109375
4125454,,,,,,,,0.90234375,2.41015625,-0.71875,-0.181640625,-0.236328125,0.169921875,1.53515625,-6.77734375,0.6953125
4125455,,,,,,,,0.7109375,2.41015625,-0.5859375,-0.146484375,-0.24609375,0.19921875,1.34375,-6.77734375,0.8125
4125456,,,,,,,,0.46875,2.38671875,-0.49609375,-0.08984375,-0.236328125,0.21484375,1.078125,-6.8125,0.88671875
4125457,,,,,,,,0.55859375,2.234375,-0.44921875,-0.0625,-0.23046875,0.251953125,1.15234375,-6.97265625,0.92578125
4125458,,,,,,,,0.64453125,2.04296875,-0.41015625,-0.048828125,-0.236328125,0.291015625,1.23046875,-7.15625,0.96484375
4125459,,,,,,,,0.71484375,1.8515625,-0.36328125,-0.03515625,-0.251953125,0.359375,1.26953125,-7.3515625,1.00390625
4125460,36.01305416666666,129.32009416666668,134.6973706149937,72.58686660557885,1.3,232.0,,0.72265625,1.5546875,-0.34765625,-0.03125,-0.2421875,0.396484375,1.23046875,-7.65625,1.00390625
4125461,,,,,,,,0.67578125,1.1484375,-0.3125,-0.029296875,-0.212890625,0.40234375,1.15234375,-8.08203125,1.0390625
4125462,,,,,,,,0.65625,1.0625,-0.3125,-0.02734375,-0.20703125,0.40625,1.1171875,-8.16015625,1.0390625
4125463,,,,,,,,0.5546875,0.6484375,-0.265625,-0.033203125,-0.203125,0.41796875,0.9609375,-8.58203125,1.078125
4125464,,,,,,,,0.47265625,0.1875,-0.21875,-0.021484375,-0.177734375,0.41015625,0.84765625,-9.0390625,1.1171875
4125465,,,,,,,,0.51171875,-0.37890625,-0.02734375,-0.02734375,-0.146484375,0.396484375,0.84765625,-9.61328125,1.30859375
4125466,,,,,,,,0.57421875,-0.53125,0.01171875,-0.033203125,-0.09375,0.380859375,0.88671875,-9.765625,1.34765625
4125467,,,,,,,,0.375,-0.8359375,0.01171875,-0.05078125,-0.02734375,0.345703125,0.65625,-10.0703125,1.34765625
4125468,,,,,,,,0.20703125,-1.02734375,-0.01953125,-0.0703125,0.03515625,0.287109375,0.46484375,-10.26171875,1.30859375
4125469,,,,,,,,0.22265625,-1.296875,-0.09375,-0.07421875,0.05859375,0.25390625,0.46484375,-10.53515625,1.234375
4125470,36.0130535,129.32009366666668,134.65229733695674,72.51289308647215,1.1,229.0,,0.31640625,-1.78515625,-0.00390625,-0.03125,-0.2421875,0.396484375,0.54296875,-11.0234375,1.30859375
4125471,,,,,,,,0.109375,-2.0078125,0.2734375,-0.10546875,0.10546875,0.17578125,0.3125,-11.26171875,1.578125
4125472,,,,,,,,-0.10546875,-1.81640625,0.39453125,-0.11328125,0.142578125,0.0859375,0.08203125,-11.0625,1.69140625
4125473,,,,,,,,-0.17578125,-1.05078125,0.2890625,-0.12109375,0.19140625,-0.005859375,0.00390625,-10.296875,1.578125
4125474,,,,,,,,0.046875,-0.46875,0.08203125,-0.123046875,0.234375,-0.064453125,0.234375,-9.7265625,1.34765625
4125475,,,,,,,,0.69140625,0.48828125,-0.140625,-0.12109375,0.240234375,-0.09375,0.88671875,-8.76953125,1.1171875
4125476,,,,,,,,0.95703125,0.60546875,-0.1328125,-0.11328125,0.220703125,-0.119140625,1.15234375,-8.6484375,1.1171875
4125477,,,,,,,,1.35546875,-0.30859375,-0.27734375,-0.119140625,0.208984375,-0.244140625,1.57421875,-9.57421875,0.96484375
4125478,,,,,,,,1.02734375,-2.68359375,-0.30859375,-0.109375,0.265625,-0.3203125,1.26953125,-11.9453125,0.92578125
4125479,,,,,,,,0.4609375,-2.72265625,0.47265625,-0.09765625,0.392578125,-0.314453125,0.734375,-11.984375,1.69140625
4125480,36.01305283333333,129.32009283333335,134.5771744473426,72.43891910737831,1.1,226.0,,-0.140625,-2.18359375,1.4375,-0.072265625,0.62890625,-0.271484375,0.15625,-11.44921875,2.6484375
4125481,,,,,,,,-0.421875,-3.36328125,1.8984375,-0.0625,0.95703125,-0.28125,-0.109375,-12.63671875,3.109375
4125482,,,,,,,,-0.58984375,-5.1640625,1.59375,-0.00390625,1.169921875,-0.296875,-0.26171875,-14.4375,2.8046875
4125483,,,,,,,,-1.52734375,-6.046875,3.0078125,0.0703125,1.0703125,-0.189453125,-1.18359375,-15.32421875,4.21875
4125484,,,,,,,,-2.71484375,-4.54296875,4.10546875,0.078125,0.83984375,-0.06640625,-2.37109375,-13.82421875,5.33203125
4125485,,,,,,,,-2.28515625,-3.51171875,3.59765625,0.052734375,0.87890625,-0.1171875,-1.94921875,-12.7890625,4.83203125
4125486,,,,,,,,-0.98828125,-2.92578125,3.0078125,0.03515625,0.998046875,-0.158203125,-0.64453125,-12.21484375,4.2578125
4125487,,,,,,,,0.50390625,-2.890625,2.81640625,-0.005859375,0.6328125,-0.068359375,0.84765625,-12.1796875,4.06640625
4125488,,,,,,,,1.38671875,-2.890625,2.16015625,-0.04296875,-0.0390625,-0.15625,1.73046875,-12.1796875,3.41796875
4125489,,,,,,,,0.82421875,-2.30859375,2.2421875,-0.080078125,-0.40234375,-0.26171875,1.19140625,-11.6015625,3.4921875
4125490,36.01305216666666,129.32009183333332,134.4870267499088,72.36494489799621,1.2000000000000002,225.0,,0.171875,-1.80078125,2.328125,-0.04296875,-0.435546875,-0.166015625,0.578125,-11.1015625,3.5703125
4125491,,,,,,,,-0.140625,-1.265625,1.9453125,0.009765625,-0.384765625,0.021484375,0.2734375,-10.57421875,3.1875
4125492,,,,,,,,-0.171875,-0.796875,1.4765625,0.12890625,-0.34375,0.1640625,0.234375,-10.109375,2.7265625
4125493,,,,,,,,-0.05859375,-0.68359375,1.23828125,0.162109375,-0.373046875,0.142578125,0.34765625,-9.99609375,2.49609375
4125494,,,,,,,,0.02734375,-0.51953125,1.1484375,0.234375,-0.41015625,0.08984375,0.42578125,-9.83984375,2.421875
4125495,,,,,,,,0.02734375,-0.1015625,0.84765625,0.287109375,-0.34765625,0.08203125,0.42578125,-9.421875,2.15234375
4125496,,,,,,,,0.2578125,0.484375,0.43359375,0.30859375,-0.234375,0.09375,0.65625,-8.84765625,1.76953125
4125497,,,,,,,,0.37890625,0.859375,0.2109375,0.314453125,-0.126953125,0.138671875,0.76953125,-8.46484375,1.578125
4125498,,,,,,,,0.39453125,1.25,-0.12890625,0.31640625,-0.09375,0.1640625,0.76953125,-8.08203125,1.26953125
4125499,,,,,,,,0.2578125,1.85546875,-0.54296875,0.322265625,-0.109375,0.1796875,0.6171875,-7.46484375,0.88671875
4125500,36.01305133333334,129.320091,134.41190414268743,72.2724777129027,1.1,225.0,0.0,0.08203125,2.23828125,-0.61328125,-0.04296875,-0.435546875,-0.166015625,0.42578125,-7.08203125,0.84765625
4125501,,,,,,,,-0.09375,2.3984375,-0.71875,0.333984375,-0.076171875,0.193359375,0.234375,-6.9296875,0.7734375
4125502,,,,,,,,-0.421875,2.58203125,-0.7578125,0.33984375,-0.046875,0.22265625,-0.109375,-6.73828125,0.7734375
4125503,,,,,,,,-0.55859375,2.65625,-0.828125,0.34765625,-0.021484375,0.234375,-0.26171875,-6.66796875,0.734375
4125504,,,,,,,,-0.69140625,2.734375,-0.8984375,0.353515625,-0.001953125,0.220703125,-0.41796875,-6.5859375,0.6953125
4125505,,,,,,,,-0.78125,2.6875,-1.05078125,0.34375,0.001953125,0.203125,-0.53125,-6.62890625,0.58203125
4125506,,,,,,,,-0.91796875,2.54296875,-1.390625,0.314453125,-0.01953125,0.154296875,-0.875,-6.85546875,0.16015625
4125507,,,,,,,,-1.171875,2.34375,-1.53515625,0.298828125,-0.064453125,0.142578125,-0.875,-7.1171875,0.12109375
4125508,,,,,,,,-1.09375,2.19140625,-1.58203125,0.26953125,-0.087890625,0.14453125,-0.875,-7.234375,0.16015625
4125509,,,,,,,,-0.734375,1.79296875,-1.51171875,0.232421875,-0.080078125,0.169921875,-0.453125,-7.6171875,0.23828125
4125510,36.013050666666665,129.3200901666667,134.33678125140582,72.19850373553697,1.2000000000000002,224.0,,-0.48828125,1.609375,-1.4609375,0.201171875,-0.076171875,0.17578125,-0.2265625,-7.8125,0.3515625
4125511,,,,,,,,-0.2421875,1.4453125,-1.28515625,0.1796875,-0.078125,0.125,-0.0703125,-7.8515625,0.58203125
4125512,,,,,,,,-0.3125,1.41015625,-1.23046875,0.15234375,-0.076171875,0.046875,-0.30078125,-7.81640625,0.54296875
4125513,,,,,,,,-0.45703125,1.5234375,-1.27734375,0.1328125,-0.087890625,-0.017578125,-0.26171875,-7.73828125,0.54296875
4125514,,,,,,,,-0.3515625,1.59375,-1.33203125,0.12890625,-0.1328125,-0.01953125,-0.1875,-7.6953125,0.50390625
4125515,,,,,,,,-0.12890625,1.515625,-1.34765625,0.119140625,-0.20703125,-0.025390625,0.04296875,-7.7734375,0.50390625
4125516,,,,,,,,-0.08984375,1.4375,-1.30859375,0.12109375,-0.25,-0.0390625,0.08203125,-7.85546875,0.54296875
4125517,,,,,,,,-0.0234375,1.23828125,-1.35546875,0.11328125,-0.29296875,-0.072265625,0.15625,-8.0390625,0.50390625
4125518,,,,,,,,0.078125,0.89453125,-1.29296875,0.111328125,-0.314453125,-0.1015625,0.2734375,-8.3828125,0.58203125
4125519,,,,,,,,0.22265625,0.3984375,-1.1875,0.1015625,-0.314453125,-0.1015625,0.42578125,-8.8828125,0.6953125
4125520,36.013050166666666,129.32008933333333,134.26165807163807,72.1430229653585,1.2000000000000002,226.0,,-0.48828125,1.609375,-1.4609375,0.109375,-0.287109375,-0.099609375,-0.2265625,-7.8125,0.3515625
4125521,,,,,,,,0.26953125,-0.64453125,-0.89453125,0.11328125,-0.263671875,-0.1015625,0.50390625,-9.9140625,1.00390625
4125522,,,,,,,,0.28515625,-1.10546875,-0.7578125,0.1171875,-0.228515625,-0.103515625,0.54296875,-10.37890625,1.15625
4125523,,,,,,,,0.3515625,-1.14453125,-0.6875,0.125,-0.208984375,-0.1015625,0.6171875,-10.4140625,1.234375
4125524,,,,,,,,0.3828125,-1.2265625,-0.66015625,0.130859375,-0.185546875,-0.083984375,0.65625,-10.4921875,1.26953125
4125525,,,,,,,,0.3671875,-1.34375,-0.90625,0.1484375,-0.16796875,-0.05078125,0.65625,-10.609375,1.0390625
4125526,,,,,,,,0.3203125,-1.45703125,-1.02734375,0.14453125,-0.16015625,-0.033203125,0.6171875,-10.71875,0.92578125
4125527,,,,,,,,0.6953125,-1.46484375,-0.9375,0.1328125,-0.16015625,0.0,1.0,-10.71875,1.0390625
4125528,,,,,,,,0.8125,-1.3515625,-0.8671875,0.130859375,-0.138671875,0.01171875,1.1171875,-10.609375,1.1171875
4125529,,,,,,,,0.96484375,-0.8125,-1.10546875,0.119140625,-0.03125,0.041015625,1.26953125,-10.0703125,0.88671875
4125530,36.0130495,129.320088,134.14146076092865,72.06904830173899,1.3,228.0,,0.62109375,-0.27734375,-1.38671875,0.109375,-0.287109375,-0.099609375,-0.2265625,-7.8125,0.3515625
4125531,,,,,,,,0.16796875,-0.09375,-1.359375,0.103515625,0.11328125,0.048828125,0.46484375,-9.34375,0.65625
4125532,,,,,,,,-0.0546875,-0.28515625,-1.17578125,0.111328125,0.150390625,0.08203125,0.234375,-9.53515625,0.84765625
4125533,,,,,,,,-0.16015625,-0.62890625,-1.21875,0.107421875,0.185546875,0.095703125,0.12109375,-9.875,0.8125
4125534,,,,,,,,-0.22265625,-1.81640625,-1.41796875,0.107421875,0.30078125,0.099609375,0.04296875,-11.0625,0.62109375
4125535,,,,,,,,0.484375,-1.43359375,-0.01171875,0.103515625,0.517578125,0.03125,0.734375,-10.68359375,2.03515625
4125536,,,,,,,,0.8828125,-1.08984375,0.28125,0.078125,0.68359375,-0.041015625,1.1171875,-10.3359375,2.34375
4125537,,,,,,,,1.234375,-2.24609375,-0.26171875,0.044921875,0.892578125,-0.13671875,1.4609375,-11.48828125,1.80859375
4125538,,,,,,,,1.42578125,-3.01171875,-0.30078125,0.03125,0.927734375,-0.177734375,1.65234375,-12.25390625,1.76953125
4125539,,,,,,,,2.3828125,-4.8125,0.83984375,0.0078125,0.822265625,-0.23046875,2.609375,-14.05859375,2.91796875
4125540,36.01304883333333,129.32008666666667,134.0212634482876,71.99507363825083,1.4000000000000001,231.0,,3.984375,-4.7578125,2.03515625,-0.03515625,0.646484375,-0.212890625,4.21875,-14.01953125,4.10546875
4125541,,,,,,,,3.515625,-4.22265625,2.33984375,-0.046875,0.8125,-0.23046875,3.7578125,-13.48046875,4.41015625
4125542,,,,,,,,1.625,-4.0703125,2.234375,-0.02734375,0.857421875,-0.32421875,1.8828125,-13.33203125,4.296875
4125543,,,,,,,,1.234375,-4.1015625,2.03515625,-0.0078125,0.736328125,-0.3671875,1.5,-13.37109375,4.10546875
4125544,,,,,,,,0.828125,-4.1015625,1.84375,0.052734375,0.328125,-0.314453125,1.1171875,-13.3671875,3.9140625
4125545,,,,,,,,0.796875,-3.71875,1.4921875,0.08984375,-0.21875,-0.076171875,1.1171875,-12.98828125,3.5703125
4125546,,,,,,,,1.171875,-2.60546875,1.1015625,0.076171875,-0.400390625,-0.107421875,1.5,-11.87109375,3.1875
4125547,,,,,,,,1.25390625,-1.79296875,0.83203125,0.01171875,-0.439453125,-0.185546875,1.61328125,-11.0625,2.91796875
4125548,,,,,,,,1.27734375,-1.10546875,0.640625,-0.021484375,-0.47265625,-0.1875,1.65234375,-10.375,2.7265625
4125549,,,,,,,,1.25390625,-0.796875,0.41796875,-0.09765625,-0.529296875,-0.134765625,1.65234375,-10.07421875,2.49609375
4125550,36.013048000000005,129.3200855,133.91609122304223,71.90260599854714,1.4000000000000001,233.0,,1.15234375,-0.62890625,-0.02734375,-0.03515625,0.646484375,-0.212890625,1.57421875,-9.91796875,2.03515625
4125551,,,,,,,,1.0078125,-0.390625,-0.03125,-0.275390625,-0.51171875,-0.0546875,1.4609375,-9.69140625,2.0
4125552,,,,,,,,0.609375,0.23046875,-0.15625,-0.32421875,-0.38671875,-0.115234375,1.078125,-9.07421875,1.84375
4125553,,,,,,,,0.0859375,1.27734375,-0.62109375,-0.337890625,-0.255859375,-0.1640625,0.578125,-8.0390625,1.34765625
4125554,,,,,,,,-0.05078125,1.5078125,-0.66796875,-0.34375,-0.201171875,-0.13671875,0.46484375,-7.39453125,1.078125
4125555,,,,,,,,-0.08203125,2.60546875,-0.96484375,-0.349609375,-0.25390625,-0.1171875,0.54296875,-6.66796875,0.84765625
4125556,,,,,,,,0.171875,2.8828125,-1.078125,-0.357421875,-0.259765625,-0.138671875,0.80859375,-6.31640625,0.65625
4125557,,,,,,,,0.30078125,3.125,-1.125,-0.384765625,-0.240234375,-0.16796875,1.0,-6.125,0.62109375
4125558,,,,,,,,0.69921875,3.35546875,-1.16015625,-0.400390625,-0.203125,-0.162109375,1.421875,-5.96875,0.65625
4125559,,,,,,,,0.94921875,3.40234375,-1.046875,-0.416015625,-0.173828125,-0.154296875,1.73046875,-5.93359375,0.65625
4125560,36.0130475,129.32008433333334,133.8109184298033,71.84712477528716,1.3,233.0,,1.1953125,3.44921875,-1.0390625,-0.4140625,-0.140625,-0.15234375,1.921875,-6.046875,0.62109375
4125561,,,,,,,,1.33203125,3.265625,-1.11328125,-0.404296875,-0.111328125,-0.15234375,2.07421875,-6.24609375,0.50390625
4125562,,,,,,,,1.46875,2.96484375,-1.3125,-0.38671875,-0.09765625,-0.169921875,2.1875,-6.51171875,0.2734375
4125563,,,,,,,,1.4921875,2.8984375,-1.328125,-0.375,-0.103515625,-0.181640625,2.11328125,-6.55078125,0.16015625
4125564,,,,,,,,1.4296875,2.62890625,-1.40234375,-0.357421875,-0.119140625,-0.185546875,2.1484375,-6.7734375,0.16015625
4125565,,,,,,,,1.37109375,2.4453125,-1.29296875,-0.330078125,-0.146484375,-0.150390625,2.11328125,-6.96875,0.23828125
4125566,,,,,,,,1.0,2.22265625,-1.1328125,-0.279296875,-0.150390625,-0.123046875,1.765625,-7.19921875,0.3515625
4125567,,,,,,,,0.6015625,2.1015625,-0.91015625,-0.23046875,-0.16015625,-0.060546875,1.3828125,-7.3125,0.54296875
4125568,,,,,,,,0.5546875,2.0703125,-0.85546875,-0.205078125,-0.15625,-0.009765625,1.34375,-7.3515625,0.58203125
4125569,,,,,,,,0.5625,1.80078125,-0.7578125,-0.15625,-0.15234375,0.091796875,1.34375,-7.6171875,0.65625
4125570,36.013047,129.32008333333334,133.7207704401572,71.79164378036695,1.3,235.0,,0.6015625,1.2734375,-0.703125,-0.4140625,-0.140625,-0.15234375,1.921875,-6.046875,0.62109375
4125571,,,,,,,,0.55078125,0.62109375,-0.65625,-0.08984375,-0.216796875,0.2734375,1.30859375,-8.8046875,0.734375
4125572,,,,,,,,0.56640625,0.4296875,-0.5703125,-0.078125,-0.21875,0.28515625,1.30859375,-9.0,0.8125
4125573,,,,,,,,0.48046875,-0.40234375,-0.25,-0.08203125,-0.220703125,0.30078125,1.19140625,-9.83984375,1.1171875
4125574,,,,,,,,0.44921875,-0.48046875,-0.1640625,-0.076171875,-0.21875,0.310546875,1.15234375,-9.91796875,1.1953125
4125575,,,,,,,,0.40625,-0.7109375,0.265625,-0.072265625,-0.205078125,0.310546875,1.078125,-10.1484375,1.6171875
4125576,,,,,,,,0.46875,-0.671875,0.35546875,-0.064453125,-0.193359375,0.291015625,1.1171875,-10.11328125,1.69140625
4125577,,,,,,,,0.484375,-0.7109375,0.203125,-0.064453125,-0.19921875,0.279296875,1.1171875,-10.1484375,1.5390625
4125578,,,,,,,,0.58203125,-0.78125,0.01953125,-0.064453125,-0.232421875,0.2578125,1.19140625,-10.23046875,1.34765625
4125579,,,,,,,,0.55078125,-0.89453125,-0.05078125,-0.0703125,-0.244140625,0.232421875,1.15234375,-10.3359375,1.26953125
4125580,36.01304616666666,129.32008249999998,133.64564781607257,71.69917660165974,1.3,229.0,,0.484375,-1.046875,-0.1171875,-0.078125,-0.267578125,0.1640625,1.078125,-10.49609375,1.1953125
4125581,,,,,,,,0.375,-1.0,-0.1015625,-0.095703125,-0.255859375,0.078125,0.9609375,-10.45703125,1.1953125
4125582,,,,,,,,0.26171875,-1.1171875,-0.125,-0.103515625,-0.234375,0.029296875,0.84765625,-10.5703125,1.15625
4125583,,,,,,,,0.29296875,-1.1171875,0.11328125,-0.103515625,-0.16796875,0.0078125,0.88671875,-10.57421875,1.38671875
4125584,,,,,,,,0.3984375,-0.765625,0.28125,-0.099609375,-0.103515625,0.00390625,1.0,-10.23046875,1.5390625
4125585,,,,,,,,0.58984375,-0.41796875,0.296875,-0.08984375,-0.02734375,-0.017578125,1.19140625,-9.87890625,1.5390625
4125586,,,,,,,,0.859375,-0.6875,0.15234375,-0.08203125,0.072265625,-0.064453125,1.4609375,-10.15234375,1.38671875
4125587,,,,,,,,1.3046875,-1.9140625,0.16015625,-0.0625,0.140625,-0.08984375,1.921875,-11.375,1.38671875
4125588,,,,,,,,0.90234375,-4.7109375,0.734375,-0.041015625,0.234375,-0.10546875,1.53515625,-14.171875,1.9609375
4125589,,,,,,,,-0.17578125,-3.94140625,2.08203125,-0.0234375,0.33984375,-0.095703125,0.46484375,-13.3984375,3.30078125
4125590,36.01304533333334,129.32008150000001,133.5555003910507,71.60670919614242,1.3,227.0,,-1.79296875,-1.68359375,2.46484375,-0.017578125,0.740234375,-0.111328125,-1.14453125,-11.14453125,3.68359375
4125591,,,,,,,,-1.9140625,-1.33984375,2.2734375,0.017578125,0.9296875,-0.041015625,-1.2578125,-10.80078125,3.4921875
4125592,,,,,,,,-1.74609375,-1.56640625,2.94921875,0.078125,0.748046875,0.091796875,-1.10546875,-11.0234375,4.18359375
4125593,,,,,,,,-1.6640625,-1.72265625,3.0625,0.095703125,0.513671875,0.169921875,-1.03125,-11.1796875,4.296875
4125594,,,,,,,,-1.29296875,-2.171875,3.27734375,0.05859375,0.185546875,0.134765625,-0.68359375,-11.64453125,4.52734375
4125595,,,,,,,,-0.22265625,-2.6328125,3.19140625,0.01953125,0.216796875,-0.0078125,0.38671875,-12.10546875,4.44921875
4125596,,,,,,,,0.3984375,-2.59375,2.9609375,-0.005859375,0.216796875,0.0,1.0,-12.06640625,4.21875
4125597,,,,,,,,0.28515625,-2.2421875,2.54296875,-0.009765625,0.083984375,0.068359375,0.88671875,-11.71875,3.80078125
4125598,,,,,,,,0.015625,-2.203125,2.578125,0.03125,0.00390625,0.08203125,0.6171875,-11.6796875,3.8359375
4125599,,,,,,,,-0.6953125,-2.00390625,2.609375,0.080078125,-0.05859375,0.13671875,-0.109375,-11.48828125,3.875
4125600,36.0130445,129.32008033333335,133.45032815418116,71.51424156225374,1.4000000000000001,227.0,0.0,-1.0703125,-1.9296875,2.6328125,-0.017578125,0.740234375,-0.111328125,-1.14453125,-11.14453125,3.68359375
4125601,,,,,,,,-1.0078125,-1.8125,2.38671875,0.16796875,-0.04296875,0.271484375,-0.453125,-11.30078125,3.68359375
4125602,,,,,,,,-0.765625,-1.73046875,2.11328125,0.197265625,-0.021484375,0.263671875,-0.2265625,-11.21875,3.41796875
4125603,,,,,,,,-0.47265625,-1.19921875,1.7421875,0.259765625,0.0,0.244140625,0.04296875,-10.6796875,3.0703125
4125604,,,,,,,,-0.1796875,-0.65625,1.3671875,0.29296875,0.01171875,0.21875,0.3125,-10.15234375,2.7265625
4125605,,,,,,,,0.07421875,-0.2421875,1.015625,0.30078125,0.0234375,0.197265625,0.54296875,-9.73046875,2.421875
4125606,,,,,,,,0.234375,0.1875,0.65234375,0.306640625,0.025390625,0.203125,0.6953125,-9.3046875,2.07421875
4125607,,,,,,,,0.41796875,0.8671875,0.23046875,0.314453125,-0.0078125,0.212890625,0.84765625,-8.62109375,1.69140625
4125608,,,,,,,,0.39453125,1.44921875,0.0,0.318359375,-0.0234375,0.19140625,0.80859375,-8.04296875,1.5
4125609,,,,,,,,0.41015625,1.86328125,-0.12890625,0.3203125,-0.025390625,0.181640625,0.80859375,-7.62109375,1.38671875
4125610,36.01304366666667,129.32007933333335,133.36018072028338,71.42177415766619,1.3,227.0,,0.34375,2.21875,-0.27734375,-0.017578125,0.740234375,-0.111328125,-1.14453125,-11.14453125,3.68359375
4125611,,,,,,,,0.21875,2.66015625,-0.5234375,0.330078125,-0.0390625,0.212890625,0.578125,-6.81640625,1.078125
4125612,,,,,,,,-0.03125,3.0078125,-0.66015625,0.341796875,-0.04296875,0.203125,0.3125,-6.47265625,0.96484375
4125613,,,,,,,,-0.32421875,3.12890625,-0.890625,0.3515625,-0.060546875,0.1875,0.00390625,-6.3515625,0.7734375
4125614,,,,,,,,-0.5,3.16015625,-1.0078125,0.3515625,-0.0703125,0.1796875,-0.1875,-6.3125,0.6953125
4125615,,,,,,,,-0.67578125,3.19140625,-1.15234375,0.3359375,-0.083984375,0.1640625,-0.37890625,-6.27734375,0.58203125
4125616,,,,,,,,-0.70703125,3.18359375,-1.24609375,0.330078125,-0.0859375,0.16015625,-0.41796875,-6.27734375,0.50390625
4125617,,,,,,,,-0.7734375,3.21875,-1.31640625,0.306640625,-0.087890625,0.162109375,-0.4921875,-6.24609375,0.46484375
4125618,,,,,,,,-0.796875,2.9453125,-1.33984375,0.263671875,-0.09765625,0.162109375,-0.53125,-6.51171875,0.46484375
4125619,,,,,,,,-0.828125,2.859375,-1.40625,0.236328125,-0.09375,0.15234375,-0.5703125,-6.7734375,0.4296875
4125620,36.013043,129.32007866666666,133.30008261393002,71.34780041777731,1.2000000000000002,225.0,,-0.8203125,2.36328125,-1.38671875,-0.017578125,0.740234375,-0.111328125,-0.5703125,-7.08203125,0.46484375
4125621,,,,,,,,-0.7265625,2.0546875,-1.28515625,0.138671875,-0.111328125,0.1328125,-0.4921875,-7.390625,0.58203125
4125622,,,,,,,,-0.7109375,1.85546875,-1.1875,0.09375,-0.111328125,0.12890625,-0.4921875,-7.578125,0.6953125
4125623,,,,,,,,-0.62890625,1.89453125,-1.1953125,0.048828125,-0.09765625,0.0859375,-0.41796875,-7.54296875,0.6953125
4125624,,,,,,,,-0.46484375,1.78125,-1.27734375,0.017578125,-0.078125,0.052734375,-0.26171875,-7.66015625,0.62109375
4125625,,,,,,,,-0.3515625,1.5859375,-1.27734375,-0.015625,-0.0859375,0.01171875,-0.1484375,-7.85546875,0.62109375
4125626,,,,,,,,-0.359375,1.12890625,-1.27734375,-0.052734375,-0.13671875,-0.041015625,-0.1484375,-8.3046875,0.62109375
4125627,,,,,,,,-0.296875,0.8984375,-1.1171875,-0.0625,-0.171875,-0.064453125,-0.0703125,-8.54296875,0.7734375
4125628,,,,,,,,-0.11328125,0.46875,-0.91015625,-0.080078125,-0.181640625,-0.09375,0.12109375,-8.96484375,0.96484375
4125629,,,,,,,,-0.0546875,0.27734375,-0.87109375,-0.083984375,-0.1640625,-0.107421875,0.1953125,-9.1484375,1.00390625
4125630,36.01304266666667,129.32007783333333,133.22495914450602,71.31081286372935,1.1,228.0,,-0.109375,0.0078125,-0.86328125,-0.078125,-0.150390625,-0.119140625,0.15625,-9.42578125,1.00390625
4125631,,,,,,,,-0.19921875,-0.18359375,-0.88671875,-0.060546875,-0.15234375,-0.126953125,0.08203125,-9.609375,0.96484375
4125632,,,,,,,,-0.359375,-0.40234375,-0.7734375,-0.033203125,-0.158203125,-0.14453125,-0.0703125,-9.8359375,1.078125
4125633,,,,,,,,-0.453125,-0.91015625,-0.7265625,-0.005859375,-0.142578125,-0.15234375,-0.1484375,-10.33984375,1.1171875
4125634,,,,,,,,-0.25390625,-1.0703125,-0.765625,0.033203125,-0.11328125,-0.1484375,0.08203125,-10.49609375,1.078125
4125635,,,,,,,,-0.15625,-1.03125,-0.8125,0.044921875,-0.064453125,-0.1640625,0.1953125,-10.45703125,1.0390625
4125636,,,,,,,,-0.01171875,-1.03125,-0.8125,0.0546875,-0.029296875,-0.185546875,0.34765625,-10.45703125,1.0390625
4125637,,,,,,,,0.203125,-0.95703125,-0.89453125,0.046875,0.029296875,-0.216796875,0.578125,-10.37890625,0.96484375
4125638,,,,,,,,0.48828125,-0.6953125,-0.8203125,0.04296875,0.076171875,-0.2109375,0.88671875,-10.11328125,1.0390625
4125639,,,,,,,,0.51171875,-0.3515625,-0.85546875,0.048828125,0.115234375,-0.189453125,0.92578125,-9.76953125,1.00390625
4125640,36.013042000000006,129.32007666666667,133.11978661997367,71.23683844118662,1.2000000000000002,231.0,,0.45703125,-0.08984375,-0.98046875,0.05859375,0.171875,-0.17578125,0.15625,-9.42578125,1.00390625
4125641,,,,,,,,-0.01953125,0.3671875,-0.91015625,0.064453125,0.22265625,-0.162109375,0.42578125,-9.0390625,0.96484375
4125642,,,,,,,,-0.37109375,0.140625,-0.91796875,0.08203125,0.2578125,-0.154296875,0.08203125,-9.265625,0.96484375
4125643,,,,,,,,-0.6015625,-0.2421875,-1.00390625,0.087890625,0.283203125,-0.15234375,-0.1484375,-9.6484375,0.88671875
4125644,,,,,,,,-0.6171875,-2.359375,-0.75,0.107421875,0.392578125,-0.166015625,-0.1484375,-11.76171875,1.15625
4125645,,,,,,,,0.33984375,-3.46875,0.69921875,0.109375,0.48828125,-0.1875,0.80859375,-12.87109375,2.61328125
4125646,,,,,,,,2.1328125,-5.39453125,0.95703125,0.099609375,0.6484375,-0.25390625,2.609375,-14.78515625,2.87890625
4125647,,,,,,,,3.45703125,-5.9296875,1.1796875,0.0703125,0.912109375,-0.392578125,3.94921875,-15.3203125,3.109375
4125648,,,,,,,,4.66796875,-4.58984375,1.77734375,0.05859375,1.0078125,-0.466796875,5.17578125,-13.98046875,3.72265625
4125649,,,,,,,,4.63671875,-3.515625,1.6640625,0.025390625,1.03515625,-0.560546875,5.17578125,-12.90625,3.609375
4125650,36.0130415,129.32007533333334,132.99958900719815,71.18135699949158,1.3,236.0,,3.80078125,-3.01953125,1.80859375,0.05859375,0.171875,-0.17578125,0.15625,-9.42578125,1.00390625
4125651,,,,,,,,1.953125,-3.5234375,2.71875,0.021484375,0.794921875,-0.3984375,2.5703125,-12.91015625,4.6796875
4125652,,,,,,,,0.29296875,-4.86328125,2.86328125,0.05859375,0.25,-0.126953125,0.92578125,-14.24609375,4.83203125
4125653,,,,,,,,0.24609375,-4.359375,2.12890625,0.109375,-0.03125,0.001953125,0.88671875,-13.75,4.10546875
4125654,,,,,,,,0.66015625,-3.1796875,1.43359375,0.171875,-0.140625,-0.095703125,1.30859375,-12.5625,3.41796875
4125655,,,,,,,,1.25,-1.578125,0.94921875,0.1640625,-0.244140625,-0.21875,1.921875,-10.95703125,2.95703125
4125656,,,,,,,,1.31640625,-1.1875,0.86328125,0.126953125,-0.310546875,-0.25390625,1.99609375,-10.57421875,2.87890625
4125657,,,,,,,,1.546875,-0.3828125,0.625,0.046875,-0.5078125,-0.2578125,2.265625,-9.765625,2.6484375
4125658,,,,,,,,1.62890625,-0.6796875,0.671875,-0.068359375,-0.6953125,-0.16015625,2.37890625,-10.07421875,2.6875
4125659,,,,,,,,1.63671875,-1.29296875,0.6875,-0.189453125,-0.744140625,-0.05859375,2.41796875,-10.68359375,2.6875
4125660,36.013040833333335,129.32007416666664,132.89441647755712,71.10738257938623,1.3,239.0,,1.3984375,-1.1796875,0.4140625,0.05859375,0.171875,-0.17578125,0.15625,-9.42578125,1.00390625
4125661,,,,,,,,0.65625,-0.3203125,-0.015625,-0.35546875,-0.265625,-0.03125,1.4609375,-9.7265625,1.921875
4125662,,,,,,,,0.3046875,0.33984375,-0.16796875,-0.396484375,-0.060546875,-0.0546875,1.1171875,-9.0703125,1.73046875
4125663,,,,,,,,0.02734375,0.8046875,-0.34375,-0.40234375,-0.01953125,-0.05078125,0.84765625,-8.6171875,1.5390625
4125664,,,,,,,,-0.1328125,1.16015625,-0.390625,-0.3984375,-0.052734375,-0.005859375,0.6953125,-8.26953125,1.4609375
4125665,,,,,,,,-0.25,1.640625,-0.44140625,-0.380859375,-0.169921875,0.0859375,0.578125,-7.8125,1.34765625
4125666,,,,,,,,-0.36328125,2.22265625,-0.640625,-0.365234375,-0.1953125,0.08984375,0.46484375,-7.23828125,1.1171875
4125667,,,,,,,,-0.43359375,2.4609375,-0.73828125,-0.375,-0.171875,0.064453125,0.38671875,-7.01171875,0.96484375
4125668,,,,,,,,-0.43359375,2.69921875,-0.8671875,-0.3828125,-0.166015625,0.0703125,0.38671875,-6.7734375,0.8125
4125669,,,,,,,,-0.26953125,3.015625,-0.9921875,-0.400390625,-0.16015625,0.08984375,0.54296875,-6.46875,0.65625
4125670,36.01304016666666,129.32007333333334,132.81929356280068,71.03340861506136,1.1,236.0,,-0.04296875,3.06640625,-0.9453125,0.05859375,0.171875,-0.17578125,0.15625,-9.42578125,1.00390625
4125671,,,,,,,,0.2734375,3.14453125,-0.98046875,-0.421875,-0.150390625,0.146484375,1.078125,-6.3515625,0.58203125
4125672,,,,,,,,0.47265625,3.15234375,-0.94140625,-0.421875,-0.138671875,0.126953125,1.26953125,-6.3515625,0.58203125
4125673,,,,,,,,0.51953125,3.046875,-0.90234375,-0.41015625,-0.12890625,0.095703125,1.30859375,-6.46875,0.58203125
4125674,,,,,,,,0.52734375,2.9765625,-0.86328125,-0.373046875,-0.123046875,0.056640625,1.30859375,-6.55078125,0.58203125
4125675,,,,,,,,0.41015625,2.75390625,-0.88671875,-0.32421875,-0.14453125,0.0390625,1.19140625,-6.7734375,0.50390625
4125676,,,,,,,,0.41015625,2.72265625,-0.83203125,-0.310546875,-0.162109375,0.03125,1.19140625,-6.81640625,0.54296875
4125677,,,,,,,,0.2578125,2.5703125,-0.72265625,-0.267578125,-0.185546875,0.017578125,1.0390625,-6.96875,0.62109375
4125678,,,,,,,,0.2109375,2.37890625,-0.6640625,-0.23828125,-0.208984375,0.013671875,1.0,-7.15625,0.65625
4125679,,,,,,,,0.2890625,2.1171875,-0.53125,-0.1953125,-0.21875,0.021484375,1.078125,-7.4296875,0.7734375
4125680,36.0130395,129.32007266666668,132.75919545464944,70.95943487767117,1.1,230.0,,0.39453125,1.7734375,-0.5,-0.14453125,-0.224609375,0.078125,1.19140625,-7.77734375,0.7734375
4125681,,,,,,,,0.48046875,1.3515625,-0.4375,-0.1328125,-0.2265625,0.103515625,1.26953125,-8.19921875,0.8125
4125682,,,,,,,,0.41015625,1.0078125,-0.4296875,-0.125,-0.232421875,0.12109375,1.19140625,-8.54296875,0.8125
4125683,,,,,,,,0.265625,0.9296875,-0.421875,-0.123046875,-0.234375,0.126953125,1.0390625,-8.6171875,0.8125
4125684,,,,,,,,0.12109375,0.6640625,-0.109375,-0.109375,-0.248046875,0.15234375,0.88671875,-8.8828125,1.1171875
4125685,,,,,,,,0.2734375,0.32421875,0.05859375,-0.09375,-0.25390625,0.16015625,1.0390625,-9.23046875,1.26953125
4125686,,,,,,,,0.56640625,-0.29296875,0.16015625,-0.072265625,-0.263671875,0.17578125,1.30859375,-9.83984375,1.34765625
4125687,,,,,,,,0.57421875,-0.59375,0.24609375,-0.0625,-0.25,0.150390625,1.30859375,-10.1484375,1.42578125
4125688,,,,,,,,0.50390625,-0.78515625,0.24609375,-0.0625,-0.2421875,0.12109375,1.23046875,-10.33984375,1.42578125
4125689,,,,,,,,0.47265625,-1.015625,0.328125,-0.06640625,-0.19921875,0.078125,1.19140625,-10.5703125,1.5
4125690,36.013039000000006,129.32007183333332,132.68407225379826,70.90395412272646,1.2000000000000002,229.0,,0.55078125,-1.12890625,0.48828125,-0.072265625,-0.181640625,0.072265625,1.26953125,-10.68359375,1.65234375
4125691,,,,,,,,0.51171875,-1.25390625,0.3125,-0.060546875,-0.158203125,0.0703125,1.23046875,-10.796875,1.4609375
4125692,,,,,,,,0.40625,-1.3984375,0.359375,-0.052734375,-0.14453125,0.05078125,1.1171875,-10.953125,1.5
4125693,,,,,,,,0.2890625,-1.51953125,0.28515625,-0.048828125,-0.138671875,0.04296875,1.0,-11.0625,1.42578125
4125694,,,,,,,,-0.0546875,-1.28125,0.59765625,-0.041015625,-0.10546875,0.017578125,0.578125,-10.5703125,1.73046875
4125695,,,,,,,,-0.0546875,-0.78515625,0.60546875,-0.041015625,-0.046875,0.005859375,0.6953125,-10.03515625,1.65234375
4125696,,,,,,,,0.3671875,0.32421875,0.14453125,-0.048828125,0.013671875,-0.001953125,1.078125,-9.23046875,1.26953125
4125697,,,,,,,,0.93359375,0.5546875,0.1171875,-0.04296875,0.041015625,-0.0078125,1.65234375,-9.00390625,1.234375
4125698,,,,,,,,1.125,0.25,0.0390625,-0.041015625,0.05078125,-0.01171875,1.84375,-9.3046875,1.15625
4125699,,,,,,,,1.66015625,-1.51171875,-0.22265625,-0.052734375,0.10546875,-0.013671875,2.37890625,-11.06640625,0.88671875
4125700,36.013038,129.320071,132.6089498968522,70.79299374481897,1.2000000000000002,224.0,0.0,1.5859375,-2.5859375,-0.25390625,-0.072265625,-0.181640625,0.072265625,2.3046875,-12.14453125,0.84765625
4125701,,,,,,,,0.328125,-1.97265625,0.359375,-0.076171875,0.458984375,0.046875,1.0390625,-11.52734375,1.4609375
4125702,,,,,,,,-1.05078125,-0.6328125,1.125,-0.099609375,0.765625,0.0234375,-0.33984375,-10.19140625,2.2265625
4125703,,,,,,,,-1.3125,-2.234375,1.7109375,-0.080078125,1.041015625,0.01953125,-0.609375,-11.80078125,2.8046875
4125704,,,,,,,,-1.37109375,-3.7734375,2.0859375,0.03515625,1.052734375,0.10546875,-0.68359375,-13.328125,3.1875
4125705,,,,,,,,-2.453125,-4.8359375,3.06640625,0.130859375,0.837890625,0.349609375,-1.796875,-14.40234375,4.18359375
4125706,,,,,,,,-2.88671875,-4.68359375,3.36328125,0.1328125,0.763671875,0.43359375,-2.25390625,-14.2421875,4.48828125
4125707,,,,,,,,-3.30078125,-3.91796875,3.42578125,0.072265625,0.8671875,0.318359375,-2.71484375,-13.4765625,4.56640625
4125708,,,,,,,,-3.0703125,-2.609375,2.99609375,0.03515625,0.974609375,0.1796875,-2.5234375,-12.1796875,4.14453125
4125709,,,,,,,,-1.71484375,-1.99609375,2.59765625,-0.00390625,0.716796875,0.216796875,-1.18359375,-11.56640625,3.76171875
4125710,36.01303716666666,129.32006983333335,132.5037776398153,70.70052612240119,1.2000000000000002,226.0,,-0.7265625,-1.8046875,2.55859375,-0.072265625,-0.181640625,0.072265625,2.3046875,-12.14453125,0.84765625
4125711,,,,,,,,-0.2109375,-1.44921875,2.13671875,-0.0703125,-0.130859375,0.10546875,0.2734375,-11.0234375,3.30078125
4125712,,,,,,,,-0.48046875,-1.06640625,1.921875,-0.125,-0.3203125,0.046875,0.00390625,-10.640625,3.0703125
4125713,,,,,,,,-0.85546875,-0.90625,1.82421875,-0.125,-0.34375,0.046875,-0.37890625,-10.4921875,2.95703125
4125714,,,,,,,,-1.015625,-0.9375,1.6796875,-0.06640625,-0.359375,0.06640625,-0.53125,-10.53125,2.8046875
4125715,,,,,,,,-0.81640625,-0.73828125,1.53125,0.044921875,-0.298828125,-0.029296875,-0.33984375,-10.33984375,2.6484375
4125716,,,,,,,,-0.44140625,-0.171875,1.1640625,0.123046875,-0.248046875,-0.119140625,0.04296875,-9.765625,2.3046875
4125717,,,,,,,,-0.3515625,0.2109375,1.00390625,0.16796875,-0.177734375,-0.177734375,0.15625,-9.38671875,2.15234375
4125718,,,,,,,,-0.15234375,0.90234375,0.6640625,0.189453125,-0.12109375,-0.201171875,0.38671875,-8.6875,1.84375
4125719,,,,,,,,-0.01171875,1.32421875,0.3046875,0.185546875,-0.12890625,-0.171875,0.54296875,-8.26953125,1.5
4125720,36.0130365,129.320069,132.42865471467678,70.62655216196868,1.3,225.0,,0.0078125,1.70703125,0.16796875,0.171875,-0.150390625,-0.123046875,0.578125,-7.88671875,1.38671875
4125721,,,,,,,,-0.04296875,2.08203125,-0.015625,0.1640625,-0.162109375,-0.064453125,0.54296875,-7.50390625,1.234375
4125722,,,,,,,,-0.12890625,2.2734375,-0.0625,0.1640625,-0.154296875,-0.052734375,0.46484375,-7.31640625,1.1953125
4125723,,,,,,,,-0.2890625,2.39453125,-0.15625,0.1796875,-0.138671875,-0.041015625,0.3125,-7.1953125,1.1171875
4125724,,,,,,,,-0.4453125,2.43359375,-0.2421875,0.1796875,-0.1328125,-0.037109375,0.15625,-7.15625,1.0390625
4125725,,,,,,,,-0.63671875,2.50390625,-0.29296875,0.19921875,-0.1171875,-0.02734375,-0.03515625,-7.08203125,1.00390625
4125726,,,,,,,,-0.94921875,2.6953125,-0.43359375,0.212890625,-0.111328125,-0.029296875,-0.33984375,-6.89453125,0.88671875
4125727,,,,,,,,-1.0625,2.6875,-0.6015625,0.21875,-0.107421875,-0.02734375,-0.453125,-6.89453125,0.734375
4125728,,,,,,,,-1.21875,2.609375,-0.73046875,0.21484375,-0.11328125,-0.02734375,-0.609375,-6.97265625,0.62109375
4125729,,,,,,,,-1.30078125,2.5703125,-0.82421875,0.212890625,-0.123046875,-0.025390625,-0.68359375,-7.01171875,0.54296875
4125730,36.01303566666666,129.320068,132.33850726123265,70.53408476751403,1.3,225.0,,-1.26953125,2.41015625,-0.88671875,0.171875,-0.150390625,-0.123046875,0.578125,-7.88671875,1.38671875
4125731,,,,,,,,-1.1953125,2.37890625,-0.90234375,0.1796875,-0.169921875,-0.001953125,-0.5703125,-7.1953125,0.50390625
4125732,,,,,,,,-1.0703125,2.21875,-0.92578125,0.16796875,-0.1640625,0.015625,-0.453125,-7.35546875,0.50390625
4125733,,,,,,,,-0.8515625,2.01953125,-0.86328125,0.115234375,-0.1484375,0.001953125,-0.2265625,-7.54296875,0.58203125
4125734,,,,,,,,-0.88671875,2.05859375,-0.83984375,0.095703125,-0.134765625,-0.009765625,-0.26171875,-7.50390625,0.62109375
4125735,,,,,,,,-1.00390625,1.93359375,-0.8125,0.087890625,-0.14453125,-0.021484375,-0.37890625,-7.65625,0.65625
4125736,,,,,,,,-1.04296875,1.859375,-0.78125,0.083984375,-0.1640625,-0.025390625,-0.41796875,-7.6953125,0.6953125
4125737,,,,,,,,-0.859375,1.78125,-0.90234375,0.091796875,-0.177734375,-0.033203125,-0.2265625,-7.77734375,0.58203125
4125738,,,,,,,,-0.51171875,1.66015625,-0.91796875,0.09375,-0.216796875,-0.037109375,0.12109375,-7.8828125,0.58203125
4125739,,,,,,,,-0.375,1.50390625,-0.88671875,0.095703125,-0.23828125,-0.04296875,0.2734375,-8.0390625,0.62109375
4125740,36.01303516666667,129.3200671666667,132.26338406166457,70.47860401566221,1.1,227.0,,-0.26953125,1.15234375,-0.703125,0.103515625,-0.251953125,-0.0390625,0.38671875,-8.38671875,0.8125
4125741,,,,,,,,-0.19140625,0.80859375,-0.59765625,0.099609375,-0.236328125,-0.033203125,0.46484375,-8.7265625,0.92578125
4125742,,,,,,,,-0.27734375,0.1484375,-0.421875,0.111328125,-0.1953125,-0.009765625,0.38671875,-9.3828125,1.1171875
4125743,,,,,,,,-0.27734375,-0.08203125,-0.3828125,0.109375,-0.1796875,-0.005859375,0.38671875,-9.61328125,1.15625
4125744,,,,,,,,-0.31640625,-0.6171875,-0.359375,0.12890625,-0.154296875,0.02734375,0.34765625,-10.1484375,1.1953125
4125745,,,,,,,,-0.31640625,-0.96875,-0.21484375,0.150390625,-0.109375,0.04296875,0.34765625,-10.4921875,1.34765625
4125746,,,,,,,,-0.421875,-1.12890625,-0.19140625,0.173828125,-0.076171875,0.06640625,0.234375,-10.640625,1.38671875
4125747,,,,,,,,-0.59765625,-1.17578125,-0.33984375,0.19921875,-0.056640625,0.1015625,0.04296875,-10.6796875,1.26953125
4125748,,,,,,,,-0.58984375,-1.20703125,-0.4609375,0.20703125,-0.052734375,0.10546875,0.04296875,-10.72265625,1.15625
4125749,,,,,,,,-0.23828125,-1.40625,-0.59375,0.205078125,-0.046875,0.12890625,0.38671875,-10.91796875,1.0390625
4125750,36.0130345,129.32006616666666,132.1732363242563,70.40462983093177,1.2000000000000002,229.0,,0.15234375,-1.25390625,-0.5,0.20703125,-0.048828125,0.154296875,0.76953125,-10.7578125,1.15625
4125751,,,,,,,,0.09375,-1.0703125,-0.4765625,0.20703125,-0.044921875,0.166015625,0.6953125,-10.57421875,1.1953125
4125752,,,,,,,,-0.2734375,-0.6171875,-0.5703125,0.19921875,0.017578125,0.142578125,0.3125,-10.11328125,1.1171875
4125753,,,,,,,,-0.4140625,-0.42578125,-0.625,0.201171875,0.060546875,0.12109375,0.15625,-9.9140625,1.078125
4125754,,,,,,,,-0.58984375,0.0625,-0.6953125,0.212890625,0.13671875,0.140625,-0.03515625,-9.421875,1.0390625
4125755,,,,,,,,-0.765625,-0.05078125,-0.79296875,0.232421875,0.150390625,0.166015625,-0.2265625,-9.53515625,0.96484375
4125756,,,,,,,,-0.7421875,-1.3984375,-1.4296875,0.248046875,0.21875,0.12109375,-0.2265625,-10.87890625,0.3515625
4125757,,,,,,,,0.04296875,-1.66796875,0.078125,0.2578125,0.3203125,0.044921875,0.54296875,-11.140625,1.8828125
4125758,,,,,,,,0.2421875,-1.515625,0.4765625,0.251953125,0.451171875,-0.01953125,0.734375,-10.99609375,2.3046875
4125759,,,,,,,,0.6328125,-1.90625,0.53125,0.234375,0.689453125,-0.099609375,1.1171875,-11.375,2.3828125
4125760,36.01303383333333,129.320065,132.0680637801467,70.33065542028355,1.3,230.0,,0.8671875,-3.0234375,0.0390625,0.20703125,-0.048828125,0.154296875,1.34375,-12.484375,1.921875
4125761,,,,,,,,1.7421875,-3.8671875,1.01171875,0.177734375,0.8828125,-0.208984375,2.2265625,-13.33203125,2.91796875
4125762,,,,,,,,2.23828125,-3.7578125,1.921875,0.166015625,0.802734375,-0.197265625,2.72265625,-13.2109375,3.8359375
4125763,,,,,,,,2.42578125,-3.765625,2.3125,0.1328125,0.7421875,-0.19921875,2.91796875,-13.2109375,4.2578125
4125764,,,,,,,,1.57421875,-3.8828125,2.49609375,0.130859375,0.763671875,-0.234375,2.07421875,-13.328125,4.44921875
4125765,,,,,,,,0.65234375,-4.08203125,2.40625,0.162109375,0.48046875,-0.224609375,1.15234375,-13.51953125,4.375
4125766,,,,,,,,0.33984375,-4.03515625,2.3125,0.18359375,0.29296875,-0.197265625,0.84765625,-13.4765625,4.296875
4125767,,,,,,,,0.0546875,-3.5078125,1.9453125,0.21875,-0.05078125,-0.12890625,0.578125,-12.94921875,3.953125
4125768,,,,,,,,0.38671875,-2.81640625,1.61328125,0.248046875,-0.328125,-0.05859375,0.92578125,-12.25,3.64453125
4125769,,,,,,,,0.796875,-2.16796875,1.22265625,0.25,-0.44140625,-0.052734375,1.34375,-11.6015625,3.26171875
4125770,36.013033166666666,129.32006366666667,131.9478664260593,70.25668078540927,1.3,234.0,,0.859375,-1.4375,1.16015625,0.20703125,-0.048828125,0.154296875,1.421875,-10.87890625,3.22265625
4125771,,,,,,,,0.75,-0.98828125,1.18359375,0.16015625,-0.662109375,-0.212890625,1.34375,-10.4140625,3.26171875
4125772,,,,,,,,0.71875,-0.48046875,0.91015625,0.08203125,-0.755859375,-0.208984375,1.34375,-9.9140625,2.99609375
4125773,,,,,,,,0.61328125,-0.21875,0.52734375,0.015625,-0.732421875,-0.140625,1.26953125,-9.6484375,2.61328125
4125774,,,,,,,,0.3203125,0.0859375,0.11328125,-0.048828125,-0.568359375,-0.138671875,1.0,-9.34375,2.19140625
4125775,,,,,,,,-0.109375,0.78515625,-0.33203125,-0.11328125,-0.376953125,-0.21875,0.6171875,-8.65234375,1.73046875
4125776,,,,,,,,-0.28515625,1.203125,-0.66015625,-0.1484375,-0.29296875,-0.26953125,0.46484375,-8.23828125,1.38671875
4125777,,,,,,,,-0.39453125,1.48046875,-0.72265625,-0.177734375,-0.216796875,-0.29296875,0.38671875,-7.96484375,1.30859375
4125778,,,,,,,,-0.43359375,1.75,-0.78125,-0.197265625,-0.154296875,-0.333984375,0.38671875,-7.6953125,1.234375
4125779,,,,,,,,-0.38671875,2.1796875,-1.03515625,-0.2265625,-0.1015625,-0.373046875,0.46484375,-7.2734375,0.96484375
4125780,36.01303233333333,129.32006266666667,131.85771896397253,70.16421339674947,1.3,233.0,,-0.3359375,2.37890625,-1.03515625,0.20703125,-0.048828125,0.154296875,1.421875,-10.87890625,3.22265625
4125781,,,,,,,,-0.01953125,2.64453125,-1.05078125,-0.306640625,0.0078125,-0.396484375,0.92578125,-6.8125,0.88671875
4125782,,,,,,,,0.23046875,2.84375,-1.04296875,-0.365234375,0.044921875,-0.380859375,1.23046875,-6.62890625,0.84765625
4125783,,,,,,,,0.61328125,3.0,-1.15625,-0.375,0.05859375,-0.380859375,1.65234375,-6.46875,0.6953125
4125784,,,,,,,,1.04296875,2.8828125,-1.31640625,-0.380859375,0.048828125,-0.37109375,2.11328125,-6.5859375,0.50390625
4125785,,,,,,,,1.30859375,2.77734375,-1.4296875,-0.3671875,0.015625,-0.37890625,2.41796875,-6.6953125,0.3515625
4125786,,,,,,,,1.29296875,2.69921875,-1.4140625,-0.36328125,-0.005859375,-0.392578125,2.41796875,-6.77734375,0.3515625
4125787,,,,,,,,1.3671875,2.46875,-1.3828125,-0.345703125,-0.044921875,-0.396484375,2.53125,-7.01171875,0.3515625
4125788,,,,,,,,1.40625,2.35546875,-1.3515625,-0.3203125,-0.07421875,-0.380859375,2.609375,-7.1171875,0.3515625
4125789,,,,,,,,1.2890625,2.27734375,-1.28125,-0.28515625,-0.09765625,-0.3203125,2.53125,-7.1953125,0.390625
4125790,36.013031833333336,129.32006166666667,131.76757094722154,70.10873242301122,1.2000000000000002,236.0,,1.17578125,2.203125,-1.2109375,0.20703125,-0.048828125,0.154296875,2.45703125,-7.2734375,0.4296875
4125791,,,,,,,,1.08203125,2.125,-1.16015625,-0.185546875,-0.138671875,-0.16015625,2.37890625,-7.3515625,0.46484375
4125792,,,,,,,,0.921875,2.046875,-0.98046875,-0.13671875,-0.162109375,-0.048828125,2.2265625,-7.43359375,0.62109375
4125793,,,,,,,,0.80078125,2.046875,-0.97265625,-0.111328125,-0.173828125,0.0078125,2.11328125,-7.43359375,0.62109375
4125794,,,,,,,,0.68359375,1.6640625,-0.96484375,-0.076171875,-0.193359375,0.123046875,1.99609375,-7.8125,0.62109375
4125795,,,,,,,,0.4765625,1.17578125,-0.875,-0.03515625,-0.228515625,0.279296875,1.765625,-8.3046875,0.6953125
4125796,,,,,,,,0.31640625,0.79296875,-0.72265625,-0.025390625,-0.248046875,0.357421875,1.57421875,-8.69140625,0.84765625
4125797,,,,,,,,0.1953125,0.21875,-0.5234375,-0.01953125,-0.248046875,0.40625,1.421875,-9.26953125,1.0390625
4125798,,,,,,,,0.25,-0.01171875,-0.3984375,-0.01171875,-0.2421875,0.4296875,1.4609375,-9.4921875,1.15625
4125799,,,,,,,,0.1796875,-0.42578125,-0.16015625,-0.005859375,-0.21484375,0.482421875,1.34375,-9.91796875,1.38671875
4125800,36.013031,129.32006083333332,131.6924482877772,70.01626526168772,1.3,232.0,0.0,0.11328125,-0.50390625,-0.0078125,0.20703125,-0.048828125,0.154296875,1.23046875,-9.99609375,1.5390625
4125801,,,,,,,,-0.23046875,-0.37890625,0.0,-0.013671875,-0.193359375,0.4921875,0.84765625,-9.87890625,1.5390625
4125802,,,,,,,,-0.4140625,-0.265625,-0.0390625,-0.017578125,-0.185546875,0.48828125,0.6171875,-9.765625,1.5
4125803,,,,,,,,-0.44140625,-0.5625,-0.296875,-0.033203125,-0.205078125,0.486328125,0.54296875,-10.0703125,1.234375
4125804,,,,,,,,-0.34375,-1.1015625,-0.55859375,-0.046875,-0.197265625,0.44921875,0.578125,-10.61328125,0.96484375
4125805,,,,,,,,-0.50390625,-1.20703125,-0.3125,-0.060546875,-0.15234375,0.34765625,0.38671875,-10.71875,1.1953125
4125806,,,,,,,,-0.53515625,-1.12890625,-0.12109375,-0.07421875,-0.12109375,0.294921875,0.34765625,-10.64453125,1.38671875
4125807,,,,,,,,-0.5859375,-0.89453125,0.1171875,-0.09375,-0.037109375,0.185546875,0.2734375,-10.4140625,1.6171875
4125808,,,,,,,,0.00390625,-0.625,0.0546875,-0.111328125,0.044921875,0.123046875,0.84765625,-10.15234375,1.5390625
4125809,,,,,,,,0.43359375,-1.3515625,-0.05078125,-0.125,0.123046875,0.111328125,1.26953125,-10.875,1.42578125
4125810,36.01303016666667,129.32005983333332,131.60230082038612,69.9237978754912,1.3,229.0,,0.5625,-3.3359375,-0.4296875,-0.13671875,0.166015625,0.099609375,1.3828125,-12.87109375,1.0390625
4125811,,,,,,,,0.1484375,-4.21875,-0.21875,-0.15625,0.21484375,0.02734375,0.9609375,-13.75390625,1.234375
4125812,,,,,,,,-0.83984375,-3.56640625,1.08984375,-0.16015625,0.24609375,-0.013671875,-0.03515625,-13.09765625,2.53515625
4125813,,,,,,,,-1.8046875,-2.45703125,1.99609375,-0.18359375,0.494140625,-0.10546875,-0.9921875,-11.984375,3.41796875
4125814,,,,,,,,-2.00390625,-2.44921875,1.703125,-0.193359375,0.6953125,-0.158203125,-1.18359375,-11.98828125,3.109375
4125815,,,,,,,,-1.66015625,-1.875,2.09375,-0.15234375,0.7421875,-0.0703125,-0.83984375,-11.41796875,3.4921875
4125816,,,,,,,,-1.84375,-1.13671875,2.5625,-0.13671875,0.55078125,0.04296875,-1.03125,-10.68359375,3.953125
4125817,,,,,,,,-1.87890625,-1.0625,2.5703125,-0.166015625,0.45703125,-0.115234375,-1.06640625,-10.61328125,3.953125
4125818,,,,,,,,-0.47265625,-2.01953125,2.2421875,-0.19140625,0.546875,-0.2890625,0.34765625,-11.5625,3.609375
4125819,,,,,,,,-0.09375,-2.36328125,2.25,-0.19140625,0.474609375,-0.267578125,0.734375,-11.90625,3.609375
4125820,36.01302933333333,129.32005883333335,131.51215335594563,69.8313304902828,1.3,228.0,,0.4921875,-3.0546875,2.6171875,-0.13671875,0.166015625,0.099609375,1.34375,-12.60546875,3.953125
4125821,,,,,,,,0.31640625,-3.16015625,2.6640625,-0.1328125,0.11328125,-0.25,1.19140625,-12.71484375,3.9921875
4125822,,,,,,,,-0.2421875,-2.85546875,2.44921875,-0.064453125,0.126953125,-0.21875,0.65625,-12.41015625,3.76171875
4125823,,,,,,,,-1.046875,-1.97265625,1.8671875,-0.00390625,0.0859375,-0.05859375,-0.1484375,-11.5234375,3.1875
4125824,,,,,,,,-1.27734375,-1.0546875,1.59765625,0.029296875,0.013671875,0.076171875,-0.37890625,-10.609375,2.91796875
4125825,,,,,,,,-1.0390625,-0.890625,1.51171875,0.05859375,-0.09765625,0.1171875,-0.1484375,-10.45703125,2.83984375
4125826,,,,,,,,-0.83984375,-0.9375,1.3984375,0.078125,-0.158203125,0.123046875,0.04296875,-10.49609375,2.7265625
4125827,,,,,,,,-0.48828125,-0.921875,1.078125,0.1328125,-0.23046875,0.138671875,0.38671875,-10.4921875,2.421875
4125828,,,,,,,,-0.44140625,-0.69921875,0.875,0.171875,-0.212890625,0.14453125,0.42578125,-10.2578125,2.2265625
4125829,,,,,,,,-0.30859375,-0.43359375,0.70703125,0.181640625,-0.13671875,0.13671875,0.54296875,-9.9921875,2.07421875
4125830,36.013028500000004,129.32005783333335,131.42200588492113,69.7388631064527,1.3,227.0,,-0.00390625,0.140625,0.53125,-0.13671875,0.166015625,0.099609375,1.34375,-12.60546875,3.953125
4125831,,,,,,,,0.1328125,0.6015625,0.35546875,0.208984375,-0.03125,0.169921875,0.9609375,-8.96484375,1.76953125
4125832,,,,,,,,0.1875,1.29296875,0.0625,0.228515625,-0.044921875,0.181640625,1.0,-8.265625,1.5
4125833,,,,,,,,0.1640625,1.71875,-0.07421875,0.2421875,-0.0859375,0.193359375,0.9609375,-7.8515625,1.38671875
4125834,,,,,,,,-0.03125,2.59375,-0.3828125,0.28125,-0.146484375,0.228515625,0.734375,-6.97265625,1.1171875
4125835,,,,,,,,-0.28515625,3.0625,-0.55859375,0.30859375,-0.171875,0.232421875,0.46484375,-6.51171875,0.96484375
4125836,,,,,,,,-0.38671875,3.21484375,-0.62109375,0.33203125,-0.177734375,0.236328125,0.34765625,-6.3515625,0.92578125
4125837,,,,,,,,-0.62109375,3.28515625,-0.9375,0.36328125,-0.197265625,0.236328125,0.08203125,-6.27734375,0.65625
4125838,,,,,,,,-0.90625,3.16015625,-1.01171875,0.375,-0.208984375,0.236328125,-0.2265625,-6.39453125,0.62109375
4125839,,,,,,,,-0.92578125,3.046875,-1.04296875,0.369140625,-0.197265625,0.23828125,-0.26171875,-6.5078125,0.62109375
4125840,36.013027666666666,129.320057,131.3468832183712,69.64639594808322,1.2000000000000002,226.0,,-1.1328125,2.80859375,-1.0,0.3515625,-0.1796875,0.251953125,-0.4921875,-6.734375,0.6953125
4125841,,,,,,,,-1.234375,2.73046875,-0.953125,0.32421875,-0.16015625,0.263671875,-0.609375,-6.8125,0.7734375
4125842,,,,,,,,-1.24609375,2.76171875,-1.0625,0.28125,-0.130859375,0.267578125,-0.68359375,-6.81640625,0.62109375
4125843,,,,,,,,-1.26953125,2.72265625,-1.15234375,0.2578125,-0.13671875,0.271484375,-0.72265625,-6.89453125,0.58203125
4125844,,,,,,,,-1.19140625,2.6015625,-1.22265625,0.185546875,-0.16015625,0.271484375,-0.68359375,-6.97265625,0.62109375
4125845,,,,,,,,-1.20703125,2.5625,-1.171875,0.138671875,-0.20703125,0.267578125,-0.68359375,-7.05078125,0.734375
4125846,,,,,,,,-1.15234375,2.484375,-1.0625,0.1015625,-0.220703125,0.248046875,-0.5703125,-7.1171875,0.7734375
4125847,,,,,,,,-1.046875,2.31640625,-1.1171875,0.076171875,-0.21875,0.22265625,-0.4921875,-7.1953125,0.734375
4125848,,,,,,,,-0.9609375,2.31640625,-1.1171875,0.056640625,-0.20703125,0.20703125,-0.33984375,-7.23828125,0.6953125
4125849,,,,,,,,-0.75390625,2.203125,-1.125,0.021484375,-0.201171875,0.17578125,-0.26171875,-7.4296875,0.734375
4125850,36.013027,129.32005616666666,131.271760276438,69.572421996413,1.3,227.0,,-0.671875,1.859375,-1.125,0.001953125,-0.197265625,0.1484375,-0.2265625,-7.65625,0.734375
4125851,,,,,,,,-0.65625,1.359375,-0.96484375,-0.015625,-0.18359375,0.119140625,-0.2265625,-8.15625,0.88671875
4125852,,,,,,,,-0.5625,0.9296875,-0.93359375,-0.0234375,-0.154296875,0.109375,-0.1484375,-8.578125,0.92578125
4125853,,,,,,,,-0.5546875,0.39453125,-0.88671875,-0.02734375,-0.123046875,0.09375,-0.1484375,-9.109375,0.96484375
4125854,,,,,,,,-0.5546875,-0.75390625,-0.6953125,-0.025390625,-0.080078125,0.064453125,-0.1484375,-10.26171875,1.15625
4125855,,,,,,,,-0.5,-1.25390625,-0.53515625,-0.0078125,-0.03125,0.029296875,-0.109375,-10.76171875,1.30859375
4125856,,,,,,,,-0.37890625,-1.52734375,-0.19140625,0.013671875,0.025390625,0.0,0.00390625,-11.0234375,1.65234375
4125857,,,,,,,,-0.30078125,-1.51953125,-0.2734375,0.03515625,0.056640625,-0.025390625,0.08203125,-11.0234375,1.578125
4125858,,,,,,,,-0.26953125,-1.34375,-0.734375,0.072265625,0.078125,-0.060546875,0.12109375,-10.83984375,1.1171875
4125859,,,,,,,,0.07421875,-1.421875,-0.85546875,0.080078125,0.03125,-0.064453125,0.46484375,-10.9140625,1.00390625
4125860,36.01302633333333,129.3200551666667,131.18161252872292,69.49844782196679,1.3,228.0,,0.2578125,-1.53515625,-0.90234375,0.001953125,-0.197265625,0.1484375,0.65625,-11.0234375,0.96484375
4125861,,,,,,,,0.44921875,-1.26953125,-0.7578125,0.111328125,-0.009765625,-0.021484375,0.84765625,-10.76171875,1.1171875
4125862,,,,,,,,0.45703125,-1.046875,-0.87890625,0.11328125,0.0078125,-0.01171875,0.84765625,-10.53125,1.00390625
4125863,,,,,,,,0.41796875,-1.015625,-0.88671875,0.130859375,0.076171875,-0.00390625,0.80859375,-10.49609375,1.00390625
4125864,,,,,,,,0.34375,-1.359375,-0.8203125,0.130859375,0.11328125,0.005859375,0.734375,-10.8359375,1.078125
4125865,,,,,,,,0.3125,-3.23828125,-0.421875,0.1640625,0.224609375,0.0390625,0.6953125,-12.7109375,1.5
4125866,,,,,,,,0.82421875,-5.62109375,0.59765625,0.185546875,0.271484375,0.072265625,1.19140625,-15.08984375,2.53515625
4125867,,,,,,,,1.16796875,-6.15625,1.203125,0.185546875,0.32421875,0.07421875,1.53515625,-15.62890625,3.1484375
4125868,,,,,,,,2.96484375,-5.8984375,1.8984375,0.201171875,0.615234375,0.03515625,3.30078125,-15.359375,3.875
4125869,,,,,,,,3.69921875,-3.40625,1.8515625,0.19921875,0.71875,0.00390625,4.02734375,-12.87109375,3.8359375
4125870,36.013025666666664,129.320054,131.07643996290554,69.42447342399906,1.3,232.0,,3.0546875,-1.30078125,1.41015625,0.001953125,-0.197265625,0.1484375,0.65625,-11.0234375,0.96484375
4125871,,,,,,,,1.5625,-0.1875,2.11328125,0.189453125,0.736328125,-0.173828125,1.8828125,-9.65234375,4.14453125
4125872,,,,,,,,0.4140625,-0.38671875,2.6640625,0.197265625,0.392578125,-0.03515625,0.734375,-9.83984375,4.71875
4125873,,,,,,,,-0.828125,-1.73046875,2.45703125,0.2578125,-0.041015625,0.306640625,-0.53125,-11.18359375,4.52734375
4125874,,,,,,,,-1.06640625,-2.41796875,2.35546875,0.2578125,-0.1875,0.455078125,-0.80078125,-11.8671875,4.44921875
4125875,,,,,,,,0.0546875,-2.34375,1.66796875,0.169921875,-0.123046875,0.220703125,0.2734375,-11.796875,3.80078125
4125876,,,,,,,,0.8671875,-1.77734375,1.3515625,0.076171875,-0.021484375,-0.021484375,1.078125,-11.22265625,3.4921875
4125877,,,,,,,,1.38671875,-1.1640625,1.15234375,0.00390625,-0.0703125,-0.212890625,1.61328125,-10.61328125,3.30078125
4125878,,,,,,,,1.44140625,-1.0078125,1.19921875,-0.048828125,-0.12890625,-0.310546875,1.69140625,-10.45703125,3.33984375
4125879,,,,,,,,1.03125,-1.0390625,1.08984375,-0.15234375,-0.169921875,-0.416015625,1.34375,-10.4921875,3.22265625
4125880,36.013025,129.32005283333334,130.97126739813797,69.35049902727249,1.3,234.0,,0.95703125,-0.91796875,0.9140625,0.001953125,-0.197265625,0.1484375,1.30859375,-10.37890625,3.03125
4125881,,,,,,,,0.87890625,-0.71875,0.59375,-0.244140625,-0.078125,-0.431640625,1.26953125,-10.19140625,2.6875
4125882,,,,,,,,0.83203125,-0.48828125,0.3515625,-0.263671875,-0.01171875,-0.529296875,1.26953125,-9.95703125,2.421875
4125883,,,,,,,,0.73828125,-0.25,0.1796875,-0.28515625,0.01171875,-0.60546875,1.23046875,-9.7265625,2.2265625
4125884,,,,,,,,0.75390625,0.140625,-0.0546875,-0.3203125,0.0078125,-0.611328125,1.30859375,-9.34765625,1.9609375
4125885,,,,,,,,0.69140625,0.5234375,-0.26171875,-0.34765625,0.021484375,-0.576171875,1.30859375,-8.9609375,1.73046875
4125886,,,,,,,,0.703125,0.72265625,-0.359375,-0.3515625,0.017578125,-0.552734375,1.34375,-8.765625,1.6171875
4125887,,,,,,,,0.61328125,1.34375,-0.51171875,-0.37890625,0.001953125,-0.48046875,1.30859375,-8.00390625,1.30859375
4125888,,,,,,,,0.49609375,1.92578125,-0.828125,-0.384765625,-0.0078125,-0.435546875,1.1171875,-7.3125,0.96484375
4125889,,,,,,,,0.3359375,2.38671875,-0.90234375,-0.388671875,-0.033203125,-0.380859375,1.1171875,-6.93359375,0.88671875
4125890,36.013024333333334,129.32005166666667,130.86609483071828,69.27652463215423,1.3,235.0,,0.37890625,2.77734375,-1.0546875,-0.3984375,-0.06640625,-0.314453125,1.23046875,-6.6640625,0.734375
4125891,,,,,,,,0.45703125,2.9375,-1.140625,-0.408203125,-0.09375,-0.26171875,1.3828125,-6.546875,0.65625
4125892,,,,,,,,0.69921875,3.0625,-1.13671875,-0.404296875,-0.111328125,-0.228515625,1.69140625,-6.51171875,0.58203125
4125893,,,,,,,,0.83203125,3.0625,-1.0625,-0.408203125,-0.115234375,-0.197265625,1.84375,-6.47265625,0.65625
4125894,,,,,,,,1.07421875,3.0703125,-1.0234375,-0.39453125,-0.08984375,-0.181640625,1.99609375,-6.46875,0.58203125
4125895,,,,,,,,1.08984375,3.0703125,-1.13671875,-0.37890625,-0.068359375,-0.171875,2.11328125,-6.625,0.3515625
4125896,,,,,,,,1.16015625,2.921875,-1.265625,-0.365234375,-0.05859375,-0.173828125,2.1875,-6.66796875,0.390625
4125897,,,,,,,,1.2578125,2.80859375,-1.3125,-0.3125,-0.046875,-0.201171875,2.2265625,-6.8125,0.23828125
4125898,,,,,,,,1.2265625,2.6640625,-1.37890625,-0.2734375,-0.076171875,-0.201171875,2.2265625,-6.89453125,0.16015625
4125899,,,,,,,,0.96484375,2.46484375,-1.29296875,-0.228515625,-0.09375,-0.185546875,1.99609375,-7.078125,0.19921875
4125900,36.01302366666666,129.32005083333334,130.79097188135353,69.20255068461115,1.2000000000000002,235.0,0.0,0.7109375,2.28125,-1.23828125,-0.177734375,-0.09765625,-0.140625,1.765625,-7.2734375,0.23828125
4125901,,,,,,,,0.54296875,2.1640625,-1.0234375,-0.10546875,-0.111328125,-0.015625,1.61328125,-7.390625,0.4296875
4125902,,,,,,,,0.54296875,2.125,-1.0234375,-0.08984375,-0.130859375,0.0390625,1.61328125,-7.4296875,0.4296875
4125903,,,,,,,,0.359375,1.8515625,-1.015625,-0.0546875,-0.16015625,0.16015625,1.421875,-7.6953125,0.4296875
4125904,,,,,,,,0.375,1.734375,-1.0078125,-0.029296875,-0.1953125,0.25390625,1.421875,-7.8125,0.4296875
4125905,,,,,,,,0.24609375,1.359375,-1.0,-0.009765625,-0.224609375,0.322265625,1.26953125,-8.1953125,0.4296875
4125906,,,,,,,,0.125,0.703125,-0.83984375,0.0,-0.275390625,0.37890625,1.1171875,-8.84375,0.58203125
4125907,,,,,,,,0.1484375,0.515625,-0.7265625,-0.00390625,-0.29296875,0.392578125,1.1171875,-9.0390625,0.6953125
4125908,,,,,,,,0.21484375,0.09765625,-0.45703125,-0.00390625,-0.291015625,0.4296875,1.15234375,-9.45703125,0.96484375
4125909,,,,,,,,0.26953125,-0.05859375,-0.34375,-0.015625,-0.291015625,0.451171875,1.19140625,-9.61328125,1.078125
4125910,36.013023,129.32004966666668,130.68579931341225,69.12857629182193,1.3,232.0,,0.203125,-0.40234375,0.01953125,-0.177734375,-0.09765625,-0.140625,1.765625,-7.2734375,0.23828125
4125911,,,,,,,,0.2421875,-0.546875,0.28515625,-0.048828125,-0.23828125,0.484375,1.078125,-10.11328125,1.69140625
4125912,,,,,,,,0.34375,-0.5390625,0.26171875,-0.095703125,-0.201171875,0.462890625,1.1171875,-10.109375,1.65234375
4125913,,,,,,,,0.49609375,-0.37890625,-0.02734375,-0.115234375,-0.181640625,0.443359375,1.23046875,-9.953125,1.34765625
4125914,,,,,,,,0.56640625,-0.42578125,-0.25,-0.119140625,-0.1640625,0.37890625,1.26953125,-9.9921875,1.1171875
4125915,,,,,,,,0.51953125,-0.69140625,-0.3125,-0.119140625,-0.1640625,0.2890625,1.19140625,-10.26171875,1.0390625
4125916,,,,,,,,0.52734375,-0.80078125,-0.1875,-0.12109375,-0.15234375,0.2421875,1.19140625,-10.37890625,1.15625
4125917,,,,,,,,0.28515625,-0.9140625,0.05078125,-0.12890625,-0.130859375,0.1796875,0.92578125,-10.49609375,1.38671875
4125918,,,,,,,,0.1015625,-0.72265625,0.11328125,-0.150390625,-0.044921875,0.142578125,0.734375,-10.30078125,1.42578125
4125919,,,,,,,,0.22265625,-1.14453125,0.203125,-0.1640625,0.072265625,0.1328125,0.84765625,-10.72265625,1.5
4125920,36.01302233333333,129.32004883333332,130.6106763597245,69.05460234636065,1.2000000000000002,229.0,,0.62109375,-3.3984375,0.2578125,-0.177734375,-0.09765625,-0.140625,1.23046875,-12.984375,1.5390625
4125921,,,,,,,,0.484375,-5.19921875,0.6953125,-0.17578125,0.248046875,0.158203125,1.078125,-14.78125,1.9609375
4125922,,,,,,,,-1.453125,-5.234375,3.1171875,-0.177734375,0.302734375,0.15625,-0.875,-14.82421875,4.375
4125923,,,,,,,,-3.0859375,-4.5390625,4.13671875,-0.208984375,0.50390625,0.083984375,-2.5234375,-14.1328125,5.37109375
4125924,,,,,,,,-3.375,-3.7734375,3.20703125,-0.232421875,0.912109375,0.08984375,-2.828125,-13.3671875,4.41015625
4125925,,,,,,,,-3.8828125,-1.6953125,3.5703125,-0.15625,0.828125,0.236328125,-3.3671875,-11.296875,4.7578125
4125926,,,,,,,,-3.46875,-1.0078125,3.65234375,-0.130859375,0.369140625,0.248046875,-2.984375,-10.61328125,4.83203125
4125927,,,,,,,,-2.04296875,-1.15234375,3.39453125,-0.177734375,0.25390625,-0.103515625,-1.56640625,-10.7578125,4.56640625
4125928,,,,,,,,0.96875,-2.109375,3.0625,-0.177734375,0.119140625,-0.25390625,1.4609375,-11.72265625,4.21875
4125929,,,,,,,,1.7578125,-2.68359375,2.8515625,-0.23046875,-0.212890625,-0.28125,2.265625,-12.29296875,3.9921875
4125930,36.013021333333334,129.32004766666665,130.50550433531393,68.94364154163748,1.4000000000000001,227.0,,0.0703125,-2.109375,2.91015625,-0.19921875,-0.259765625,-0.388671875,0.6171875,-11.72265625,4.02734375
4125931,,,,,,,,-0.50390625,-1.83203125,2.91796875,-0.072265625,-0.078125,-0.150390625,-0.41796875,-11.22265625,3.875
4125932,,,,,,,,-1.74609375,-1.21875,2.54296875,-0.005859375,-0.041015625,0.208984375,-1.296875,-10.6796875,3.64453125
4125933,,,,,,,,-1.875,-1.06640625,2.54296875,0.068359375,-0.046875,0.369140625,-1.10546875,-10.6796875,3.64453125
4125934,,,,,,,,-1.125,-1.2109375,2.34375,0.154296875,-0.1171875,0.21484375,-0.33984375,-10.8359375,3.41796875
4125935,,,,,,,,-0.75,-1.25,2.20703125,0.248046875,-0.134765625,-0.01171875,-0.03515625,-10.8359375,3.33984375
4125936,,,,,,,,-0.48046875,-1.09765625,2.08203125,0.283203125,-0.095703125,-0.072265625,0.04296875,-10.72265625,3.22265625
4125937,,,,,,,,-0.2578125,-0.75390625,1.82421875,0.3203125,-0.001953125,-0.1015625,0.38671875,-10.1875,2.87890625
4125938,,,,,,,,-0.00390625,-0.140625,1.4453125,0.328125,0.0390625,-0.0546875,0.54296875,-9.765625,2.6484375
4125939,,,,,,,,0.1875,0.43359375,0.95703125,0.33203125,0.017578125,0.0,0.734375,-9.1875,2.19140625
4125940,36.01302066666666,129.32004666666666,130.4153565702759,68.86966737389004,1.3,227.0,,0.30078125,1.0390625,0.5703125,0.345703125,-0.044921875,0.0078125,0.84765625,-8.578125,1.84375
4125941,,,,,,,,0.22265625,1.390625,0.37890625,0.365234375,-0.09765625,0.0234375,0.76953125,-8.234375,1.69140625
4125942,,,,,,,,0.22265625,1.73046875,0.234375,0.380859375,-0.107421875,0.03125,0.76953125,-7.8828125,1.578125
4125943,,,,,,,,0.1875,2.1796875,0.1875,0.39453125,-0.119140625,0.04296875,0.734375,-7.4296875,1.578125
4125944,,,,,,,,0.1953125,2.6796875,0.0234375,0.396484375,-0.12109375,0.05859375,0.734375,-6.9296875,1.4609375
4125945,,,,,,,,0.046875,3.16796875,-0.234375,0.404296875,-0.109375,0.083984375,0.578125,-6.4296875,1.234375
4125946,,,,,,,,-0.02734375,3.28515625,-0.296875,0.416015625,-0.11328125,0.091796875,0.50390625,-6.31640625,1.1953125
4125947,,,,,,,,-0.39453125,3.69921875,-0.78125,0.4375,-0.154296875,0.10546875,0.12109375,-5.89453125,0.7734375
4125948,,,,,,,,-0.6640625,3.64453125,-0.9453125,0.443359375,-0.1875,0.1015625,-0.1484375,-5.93359375,0.65625
4125949,,,,,,,,-0.80859375,3.56640625,-1.00390625,0.4375,-0.19921875,0.1015625,-0.30078125,-6.01171875,0.62109375
4125950,36.01302,129.32004583333335,130.34023361819715,68.79569343147853,1.3,228.0,,-0.9921875,3.29296875,-1.0234375,0.345703125,-0.044921875,0.0078125,-0.4921875,-6.27734375,0.65625
4125951,,,,,,,,-1.13671875,2.9375,-1.0703125,0.388671875,-0.154296875,0.10546875,-0.64453125,-6.625,0.65625
4125952,,,,,,,,-1.20703125,2.69921875,-1.1015625,0.357421875,-0.1171875,0.099609375,-0.72265625,-6.85546875,0.65625
4125953,,,,,,,,-1.16015625,2.5,-1.1015625,0.326171875,-0.099609375,0.09375,-0.68359375,-7.046875,0.6953125
4125954,,,,,,,,-1.0,2.2265625,-1.171875,0.2890625,-0.076171875,0.0859375,-0.53125,-7.3125,0.65625
4125955,,,,,,,,-0.87890625,2.1875,-1.15625,0.236328125,-0.0859375,0.080078125,-0.41796875,-7.3515625,0.6953125
4125956,,,,,,,,-0.83203125,2.1796875,-1.1015625,0.189453125,-0.1015625,0.0703125,-0.37890625,-7.35546875,0.7734375
4125957,,,,,,,,-0.6328125,2.171875,-1.125,0.14453125,-0.1015625,0.0390625,-0.1875,-7.35546875,0.7734375
4125958,,,,,,,,-0.48046875,2.01171875,-1.171875,0.119140625,-0.103515625,0.0078125,-0.03515625,-7.5,0.734375
4125959,,,,,,,,-0.40234375,1.7421875,-1.140625,0.103515625,-0.12109375,-0.01171875,0.04296875,-7.77734375,0.7734375
4125960,36.01301933333333,129.32004483333333,130.25008584775532,68.72171926633331,1.2000000000000002,227.0,,-0.37109375,1.51171875,-1.1484375,0.345703125,-0.044921875,0.0078125,0.08203125,-8.0,0.7734375
4125961,,,,,,,,-0.265625,1.12109375,-1.08984375,0.08984375,-0.16015625,-0.056640625,0.1953125,-8.38671875,0.84765625
4125962,,,,,,,,-0.15625,0.76953125,-0.828125,0.076171875,-0.134765625,-0.05078125,0.3125,-8.7265625,1.1171875
4125963,,,,,,,,-0.15625,0.6171875,-0.75,0.08203125,-0.119140625,-0.044921875,0.3125,-8.88671875,1.1953125
4125964,,,,,,,,-0.203125,-0.08203125,-0.62109375,0.08203125,-0.103515625,-0.041015625,0.2734375,-9.5703125,1.34765625
4125965,,,,,,,,-0.2109375,-0.43359375,-0.54296875,0.087890625,-0.078125,-0.03125,0.2734375,-9.9140625,1.42578125
4125966,,,,,,,,-0.09765625,-0.85546875,-0.515625,0.1015625,-0.04296875,-0.015625,0.38671875,-10.33984375,1.4609375
4125967,,,,,,,,0.05078125,-1.24609375,-0.4453125,0.10546875,-0.009765625,-0.009765625,0.54296875,-10.72265625,1.5390625
4125968,,,,,,,,0.0859375,-1.32421875,-0.375,0.1171875,0.0078125,-0.013671875,0.578125,-10.80078125,1.6171875
4125969,,,,,,,,0.2109375,-1.3671875,-0.515625,0.1328125,0.037109375,-0.03125,0.6953125,-10.83984375,1.5
4125970,36.013019,129.32004383333333,130.15993752942884,68.68473151658878,1.2000000000000002,232.0,,0.171875,-1.30078125,-0.796875,0.15625,0.09765625,-0.033203125,0.65625,-10.7578125,1.234375
4125971,,,,,,,,0.203125,-1.1171875,-0.890625,0.162109375,0.1171875,-0.025390625,0.6953125,-10.5703125,1.15625
4125972,,,,,,,,0.4765625,-0.6171875,-1.14453125,0.17578125,0.140625,0.009765625,0.9609375,-10.07421875,0.92578125
4125973,,,,,,,,0.44140625,-0.46484375,-1.23046875,0.185546875,0.169921875,0.015625,0.92578125,-9.91796875,0.84765625
4125974,,,,,,,,0.29296875,-0.09765625,-1.359375,0.181640625,0.26171875,0.017578125,0.76953125,-9.53125,0.734375
4125975,,,,,,,,-0.04296875,0.31640625,-1.26953125,0.1875,0.34765625,0.013671875,0.42578125,-9.11328125,0.84765625
4125976,,,,,,,,-0.36328125,0.0078125,-1.4375,0.177734375,0.435546875,0.009765625,0.08203125,-9.421875,0.6953125
4125977,,,,,,,,-0.47265625,-1.0625,-1.91015625,0.181640625,0.5390625,0.015625,-0.03515625,-10.49609375,0.23828125
4125978,,,,,,,,-0.31640625,-1.76171875,-1.30859375,0.17578125,0.59765625,0.0,0.12109375,-11.18359375,0.84765625
4125979,,,,,,,,0.234375,-1.72265625,0.203125,0.15234375,0.71875,-0.046875,0.65625,-11.14453125,2.3828125
4125980,36.013018333333335,129.32004266666667,130.0547649479318,68.61075713049922,1.3,232.0,,0.74609375,-2.57421875,0.00390625,0.15625,0.09765625,-0.033203125,0.65625,-10.7578125,1.234375
4125981,,,,,,,,1.55859375,-5.0625,-0.08984375,0.091796875,1.107421875,-0.193359375,1.95703125,-14.48046875,2.11328125
4125982,,,,,,,,3.0546875,-5.8359375,1.19921875,0.078125,1.181640625,-0.29296875,3.453125,-15.24609375,3.41796875
4125983,,,,,,,,4.1875,-5.38671875,1.640625,0.048828125,1.041015625,-0.3515625,4.6015625,-14.78125,3.875
4125984,,,,,,,,4.2265625,-4.6171875,2.20703125,0.025390625,1.14453125,-0.349609375,4.640625,-14.015625,4.44921875
4125985,,,,,,,,1.796875,-4.45703125,2.0,0.060546875,1.048828125,-0.3984375,2.2265625,-13.86328125,4.2578125
4125986,,,,,,,,0.47265625,-4.45703125,1.6484375,0.123046875,0.677734375,-0.435546875,0.92578125,-13.86328125,3.9140625
4125987,,,,,,,,0.06640625,-4.19921875,1.10546875,0.171875,0.220703125,-0.2734375,0.54296875,-13.59375,3.37890625
4125988,,,,,,,,0.69921875,-3.59375,0.66015625,0.197265625,-0.1875,-0.08984375,1.19140625,-12.984375,2.95703125
4125989,,,,,,,,1.06640625,-3.01171875,0.68359375,0.1640625,-0.40625,-0.056640625,1.57421875,-12.40625,2.99609375
4125990,36.013017500000004,129.32004116666667,129.91954301636588,68.51828909488536,1.4000000000000001,234.0,,1.12890625,-2.2890625,0.63671875,0.080078125,-0.533203125,-0.115234375,1.65234375,-11.68359375,2.95703125
4125991,,,,,,,,0.828125,-1.24609375,0.20703125,-0.00390625,-0.615234375,-0.1484375,1.3828125,-10.64453125,2.53515625
4125992,,,,,,,,0.68359375,-0.51953125,-0.16796875,-0.08203125,-0.625,-0.123046875,1.26953125,-9.9140625,2.15234375
4125993,,,,,,,,0.58203125,0.1328125,-0.53515625,-0.158203125,-0.603515625,-0.09375,1.19140625,-9.26953125,1.76953125
4125994,,,,,,,,0.59765625,0.875,-0.93359375,-0.2265625,-0.578125,-0.078125,1.23046875,-8.54296875,1.34765625
4125995,,,,,,,,0.3359375,1.3046875,-1.078125,-0.267578125,-0.45703125,-0.138671875,1.0,-8.12109375,1.15625
4125996,,,,,,,,0.19921875,1.65625,-1.1328125,-0.287109375,-0.345703125,-0.19921875,0.88671875,-7.77734375,1.078125
4125997,,,,,,,,0.16796875,1.7421875,-1.140625,-0.30078125,-0.236328125,-0.21875,0.88671875,-7.6953125,1.0390625
4125998,,,,,,,,0.10546875,1.94140625,-1.19140625,-0.310546875,-0.1484375,-0.224609375,0.84765625,-7.5,0.96484375
4125999,,,,,,,,0.2734375,2.3984375,-1.3515625,-0.3203125,-0.08984375,-0.2265625,1.0390625,-7.046875,0.7734375
4126000,36.01301683333334,129.32004033333334,129.84442005292377,68.444315156371,1.2000000000000002,233.0,0.0,0.39453125,2.59765625,-1.390625,0.080078125,-0.533203125,-0.115234375,1.19140625,-6.85546875,0.6953125
4126001,,,,,,,,0.5546875,3.0,-1.3046875,-0.349609375,-0.03515625,-0.177734375,1.3828125,-6.47265625,0.734375
4126002,,,,,,,,0.6640625,3.12109375,-1.3671875,-0.34765625,-0.03125,-0.15625,1.5,-6.35546875,0.65625
4126003,,,,,,,,0.9140625,3.3125,-1.3359375,-0.34375,-0.025390625,-0.109375,1.765625,-6.1640625,0.65625
4126004,,,,,,,,1.0625,3.359375,-1.3125,-0.330078125,-0.015625,-0.091796875,1.921875,-6.125,0.65625
4126005,,,,,,,,1.4375,3.13671875,-1.39453125,-0.310546875,-0.005859375,-0.052734375,2.3046875,-6.35546875,0.54296875
4126006,,,,,,,,1.51171875,2.9921875,-1.43359375,-0.27734375,-0.05078125,0.005859375,2.37890625,-6.5078125,0.46484375
4126007,,,,,,,,1.58984375,2.80078125,-1.453125,-0.25390625,-0.078125,0.02734375,2.45703125,-6.69921875,0.4296875
4126008,,,,,,,,1.49609375,2.6171875,-1.5859375,-0.216796875,-0.12109375,0.0546875,2.37890625,-6.890625,0.2734375
4126009,,,,,,,,1.50390625,2.53125,-1.64453125,-0.203125,-0.13671875,0.0546875,2.37890625,-6.97265625,0.19921875
4126010,36.01301633333333,129.32003916666665,129.73924719188503,68.38883398117491,1.3,235.0,,1.390625,2.5390625,-1.70703125,0.080078125,-0.533203125,-0.115234375,1.19140625,-6.85546875,0.6953125
4126011,,,,,,,,1.20703125,2.5,-1.73046875,-0.10546875,-0.21484375,0.115234375,2.07421875,-7.01171875,0.08203125
4126012,,,,,,,,0.87109375,2.34765625,-1.64453125,-0.072265625,-0.251953125,0.177734375,1.73046875,-7.15625,0.16015625
4126013,,,,,,,,0.53125,2.01171875,-1.359375,-0.029296875,-0.291015625,0.248046875,1.3828125,-7.5,0.4296875
4126014,,,,,,,,0.49609375,1.55078125,-1.24609375,0.005859375,-0.306640625,0.3671875,1.30859375,-7.96484375,0.54296875
4126015,,,,,,,,0.578125,0.78515625,-1.15234375,0.015625,-0.294921875,0.48046875,1.34375,-8.7265625,0.62109375
4126016,,,,,,,,0.54296875,0.32421875,-0.92578125,0.01953125,-0.306640625,0.5078125,1.26953125,-9.1875,0.84765625
4126017,,,,,,,,0.54296875,0.02734375,-0.5703125,0.01171875,-0.328125,0.49609375,1.23046875,-9.4921875,1.1953125
4126018,,,,,,,,0.61328125,-0.08984375,-0.42578125,0.013671875,-0.345703125,0.501953125,1.26953125,-9.61328125,1.34765625
4126019,,,,,,,,0.7734375,-0.171875,-0.3046875,0.013671875,-0.353515625,0.49609375,1.3828125,-9.69140625,1.4609375
4126020,36.013015333333335,129.32003816666665,129.64909996039347,68.27787340859668,1.4000000000000001,231.0,,0.8046875,-0.08984375,-0.41015625,0.080078125,-0.533203125,-0.115234375,1.19140625,-6.85546875,0.6953125
4126021,,,,,,,,0.73046875,0.21875,-0.48828125,-0.005859375,-0.353515625,0.40234375,1.26953125,-9.3046875,1.26953125
4126022,,,,,,,,0.63671875,0.33203125,-0.5625,-0.02734375,-0.365234375,0.330078125,1.15234375,-9.1875,1.1953125
4126023,,,,,,,,0.578125,0.33203125,-0.5546875,-0.041015625,-0.365234375,0.302734375,1.078125,-9.1875,1.1953125
4126024,,,,,,,,0.59375,0.2578125,-0.703125,-0.068359375,-0.34375,0.26171875,1.078125,-9.265625,1.0390625
4126025,,,,,,,,0.69140625,-0.546875,-0.83984375,-0.11328125,-0.244140625,0.236328125,1.15234375,-10.0703125,0.88671875
4126026,,,,,,,,0.5546875,-0.9609375,-0.69921875,-0.146484375,-0.126953125,0.1796875,1.0,-10.49609375,1.00390625
4126027,,,,,,,,0.45703125,-0.921875,-0.41796875,-0.19140625,0.064453125,0.099609375,0.88671875,-10.30078125,1.38671875
4126028,,,,,,,,0.45703125,-0.76953125,-0.29296875,-0.205078125,0.142578125,0.07421875,0.88671875,-10.15234375,1.42578125
4126029,,,,,,,,0.73046875,-0.30859375,0.08203125,-0.212890625,0.267578125,0.037109375,1.26953125,-9.875,1.80859375
4126030,36.013014500000004,129.32003716666668,129.55895245597517,68.1854060433953,1.3,228.0,,0.8046875,-0.08984375,-0.41015625,0.080078125,-0.533203125,-0.115234375,1.69140625,-11.22265625,1.5
4126031,,,,,,,,1.046875,-2.87109375,-0.30859375,-0.201171875,0.419921875,-0.03515625,1.15234375,-12.91015625,1.5390625
4126032,,,,,,,,-0.37109375,-3.51171875,1.1796875,-0.19140625,0.474609375,-0.025390625,-0.609375,-12.6015625,3.609375
4126033,,,,,,,,-1.58984375,-2.4765625,2.6875,-0.177734375,0.640625,-0.025390625,-1.52734375,-11.6796875,4.640625
4126034,,,,,,,,-2.01171875,-2.32421875,2.51953125,-0.166015625,0.8203125,0.009765625,-1.4140625,-12.2890625,3.33984375
4126035,,,,,,,,-1.57421875,-3.12890625,1.41796875,-0.15234375,0.857421875,0.099609375,-1.375,-13.05859375,3.72265625
4126036,,,,,,,,-1.7578125,-3.51171875,2.19140625,-0.15234375,0.765625,0.123046875,-1.640625,-13.17578125,4.375
4126037,,,,,,,,-2.1953125,-3.8203125,3.35546875,-0.177734375,0.517578125,0.001953125,-1.94921875,-13.5546875,5.140625
4126038,,,,,,,,-1.65625,-3.83984375,3.5625,-0.20703125,0.50390625,-0.16015625,-1.296875,-13.40234375,5.0625
4126039,,,,,,,,-0.8984375,-3.48828125,3.09765625,-0.2265625,0.52734375,-0.119140625,-0.53125,-13.05859375,4.56640625
4126040,36.013013666666666,129.32003600000002,129.4537801354238,68.092938457172,1.4000000000000001,227.0,,0.09765625,-3.14453125,2.921875,0.080078125,-0.533203125,-0.115234375,0.46484375,-12.71484375,4.375
4126041,,,,,,,,0.12109375,-2.80078125,2.71484375,-0.21875,0.130859375,-0.2109375,0.50390625,-12.37109375,4.14453125
4126042,,,,,,,,-0.2109375,-2.32421875,2.73046875,-0.173828125,-0.06640625,-0.197265625,0.1953125,-11.91015625,4.14453125
4126043,,,,,,,,-0.68359375,-1.55859375,2.0859375,-0.109375,-0.1484375,-0.115234375,-0.26171875,-11.140625,3.4921875
4126044,,,,,,,,-0.6640625,-1.21484375,1.60546875,-0.044921875,-0.158203125,-0.0703125,-0.2265625,-10.80078125,2.99609375
4126045,,,,,,,,-0.296875,-0.9375,1.296875,0.03515625,-0.18359375,-0.078125,0.15625,-10.53125,2.6875
4126046,,,,,,,,-0.1875,-0.9375,1.13671875,0.06640625,-0.201171875,-0.068359375,0.2734375,-10.53125,2.53515625
4126047,,,,,,,,0.33984375,-0.640625,0.9375,0.103515625,-0.201171875,-0.07421875,0.80859375,-10.23046875,2.34375
4126048,,,,,,,,0.29296875,-0.44140625,0.8125,0.1484375,-0.08203125,-0.076171875,0.80859375,-9.57421875,2.11328125
4126049,,,,,,,,0.25,0.5546875,0.37890625,0.16796875,-0.0234375,-0.07421875,0.734375,-9.04296875,1.80859375
4126050,36.01301283333333,129.32003483333335,129.3486078131707,68.00047087318382,1.4000000000000001,228.0,,0.203125,1.1015625,0.20703125,0.19140625,-0.009765625,-0.060546875,0.6953125,-8.5,1.65234375
4126051,,,,,,,,0.26171875,1.8203125,-0.015625,0.212890625,-0.037109375,-0.037109375,0.76953125,-7.7734375,1.4609375
4126052,,,,,,,,0.2265625,2.43359375,-0.2734375,0.244140625,-0.091796875,-0.0078125,0.734375,-7.15625,1.234375
4126053,,,,,,,,0.1484375,2.77734375,-0.3984375,0.255859375,-0.115234375,0.001953125,0.65625,-6.81640625,1.1171875
4126054,,,,,,,,0.02734375,3.078125,-0.57421875,0.271484375,-0.140625,0.00390625,0.54296875,-6.51171875,0.96484375
4126055,,,,,,,,-0.28125,3.421875,-0.73046875,0.29296875,-0.162109375,0.009765625,0.234375,-6.1640625,0.84765625
4126056,,,,,,,,-0.625,3.4140625,-0.8359375,0.302734375,-0.177734375,0.01953125,-0.109375,-6.1640625,0.7734375
4126057,,,,,,,,-0.82421875,3.40625,-0.984375,0.3046875,-0.185546875,0.005859375,-0.30078125,-6.1640625,0.65625
4126058,,,,,,,,-0.86328125,3.40625,-1.0,0.302734375,-0.193359375,0.0,-0.33984375,-6.16796875,0.65625
4126059,,,,,,,,-0.984375,3.328125,-1.10546875,0.279296875,-0.1953125,-0.01953125,-0.453125,-6.24609375,0.58203125
4126060,36.013012,129.320034,129.27348511237608,67.90800373343059,1.3,228.0,,-1.22265625,3.1015625,-1.16796875,0.19140625,-0.009765625,-0.060546875,-0.68359375,-6.47265625,0.54296875
4126061,,,,,,,,-1.38671875,2.890625,-1.18359375,0.2265625,-0.173828125,-0.052734375,-0.83984375,-6.6640625,0.54296875
4126062,,,,,,,,-1.34765625,2.65625,-1.20703125,0.201171875,-0.169921875,-0.06640625,-0.80078125,-6.890625,0.54296875
4126063,,,,,,,,-1.171875,2.34765625,-1.109375,0.166015625,-0.1640625,-0.07421875,-0.609375,-7.1953125,0.65625
4126064,,,,,,,,-0.91015625,2.15625,-1.0859375,0.126953125,-0.142578125,-0.10546875,-0.33984375,-7.39453125,0.6953125
4126065,,,,,,,,-0.7734375,2.07421875,-0.9765625,0.08203125,-0.138671875,-0.13671875,-0.1875,-7.46484375,0.8125
4126066,,,,,,,,-0.671875,2.03515625,-1.0234375,0.0546875,-0.130859375,-0.16015625,-0.0703125,-7.5,0.7734375
4126067,,,,,,,,-0.53515625,2.02734375,-1.140625,0.03125,-0.142578125,-0.1875,0.08203125,-7.50390625,0.65625
4126068,,,,,,,,-0.453125,1.98046875,-1.22265625,0.0078125,-0.171875,-0.1953125,0.1953125,-7.5390625,0.58203125
4126069,,,,,,,,-0.4375,1.75,-1.21484375,0.001953125,-0.193359375,-0.193359375,0.234375,-7.77734375,0.58203125
4126070,36.01301133333333,129.320033,129.183337326385,67.83402957863964,1.2000000000000002,227.0,,-0.5390625,1.2890625,-1.109375,-0.005859375,-0.212890625,-0.193359375,0.15625,-8.234375,0.6953125
4126071,,,,,,,,-0.5625,0.9375,-0.984375,-0.00390625,-0.20703125,-0.171875,0.15625,-8.578125,0.8125
4126072,,,,,,,,-0.5703125,0.70703125,-0.91015625,0.001953125,-0.193359375,-0.1640625,0.15625,-8.80859375,0.88671875
4126073,,,,,,,,-0.59375,0.40234375,-0.90234375,0.01953125,-0.12109375,-0.12890625,0.15625,-9.11328125,0.88671875
4126074,,,,,,,,-0.67578125,0.00390625,-0.78515625,0.046875,-0.076171875,-0.123046875,0.08203125,-9.4921875,1.00390625
4126075,,,,,,,,-0.76953125,-0.3046875,-0.7578125,0.078125,-0.04296875,-0.103515625,0.00390625,-9.80859375,1.0390625
4126076,,,,,,,,-0.76953125,-0.83984375,-0.6875,0.08984375,-0.029296875,-0.09765625,0.00390625,-10.33984375,1.1171875
4126077,,,,,,,,-0.70703125,-1.0,-0.6953125,0.130859375,0.009765625,-0.064453125,0.234375,-10.68359375,1.1171875
4126078,,,,,,,,-0.4765625,-1.23828125,-0.7421875,0.154296875,0.05078125,-0.044921875,0.46484375,-10.796875,1.078125
4126079,,,,,,,,-0.33203125,-1.31640625,-0.75,0.16015625,0.07421875,-0.041015625,0.578125,-10.83984375,1.00390625
4126080,36.01301083333333,129.32003166666667,129.0631396416204,67.77854819096434,1.3,230.0,,0.08984375,-1.46875,-0.91796875,0.17578125,0.11328125,-0.04296875,0.15625,-8.234375,0.6953125
4126081,,,,,,,,0.3203125,-1.5234375,-0.94140625,0.185546875,0.146484375,-0.041015625,1.1171875,-10.9921875,0.92578125
4126082,,,,,,,,0.35546875,-1.0234375,-0.84375,0.1953125,0.1484375,-0.01953125,1.15234375,-10.4921875,1.0390625
4126083,,,,,,,,0.35546875,-0.765625,-0.89453125,0.203125,0.158203125,-0.0078125,1.15234375,-10.2265625,1.00390625
4126084,,,,,,,,0.01171875,-0.07421875,-1.2578125,0.21875,0.18359375,-0.005859375,0.80859375,-9.53125,0.65625
4126085,,,,,,,,-0.36328125,-0.03515625,-1.31640625,0.23046875,0.21484375,-0.0078125,0.42578125,-9.49609375,0.62109375
4126086,,,,,,,,-0.46875,-1.1640625,-1.41015625,0.232421875,0.20703125,-0.005859375,0.3125,-10.609375,0.54296875
4126087,,,,,,,,-0.23828125,-2.3515625,-1.3203125,0.23828125,0.23046875,0.01171875,0.54296875,-11.796875,0.65625
4126088,,,,,,,,0.15234375,-3.4296875,-0.890625,0.2265625,0.314453125,0.0,0.92578125,-12.87109375,1.1171875
4126089,,,,,,,,1.23046875,-3.97265625,0.7734375,0.208984375,0.466796875,-0.037109375,1.99609375,-13.40234375,2.8046875
4126090,36.01301016666666,129.3200305,128.95796704012068,67.70457381808143,1.3,232.0,,2.04296875,-4.47265625,0.625,0.1484375,0.8203125,-0.12890625,0.15625,-8.234375,0.6953125
4126091,,,,,,,,3.0859375,-3.8671875,1.26171875,0.11328125,0.900390625,-0.19140625,3.8359375,-13.2890625,3.33984375
4126092,,,,,,,,3.125,-2.3359375,1.16796875,0.083984375,0.806640625,-0.27734375,3.875,-11.76171875,3.26171875
4126093,,,,,,,,2.50390625,-2.3359375,1.3515625,0.083984375,0.744140625,-0.30078125,3.26171875,-11.76171875,3.453125
4126094,,,,,,,,1.0234375,-3.33984375,2.03515625,0.0703125,0.56640625,-0.2578125,1.8046875,-12.75390625,4.14453125
4126095,,,,,,,,0.05078125,-3.9140625,2.44921875,0.08203125,0.234375,-0.150390625,0.84765625,-13.328125,4.56640625
4126096,,,,,,,,-0.2265625,-3.953125,1.96484375,0.08984375,0.013671875,-0.05859375,0.578125,-13.37109375,4.10546875
4126097,,,,,,,,0.33984375,-2.83984375,1.4609375,0.083984375,-0.0546875,-0.052734375,1.15234375,-12.25,3.609375
4126098,,,,,,,,0.45703125,-2.41796875,1.421875,0.05859375,-0.12890625,-0.05859375,1.26953125,-11.83203125,3.5703125
4126099,,,,,,,,0.6640625,-1.61328125,1.23828125,-0.009765625,-0.30078125,-0.1171875,1.5,-11.02734375,3.37890625
4126100,36.013009333333336,129.32002916666667,128.8377698955484,67.6121060202971,1.4000000000000001,234.0,0.0,0.76171875,-0.95703125,0.81640625,-0.09375,-0.466796875,-0.169921875,1.61328125,-10.375,2.95703125
4126101,,,,,,,,0.69140625,-0.99609375,0.71484375,-0.16015625,-0.572265625,-0.181640625,1.57421875,-10.41796875,2.83984375
4126102,,,,,,,,0.62109375,-1.1484375,0.703125,-0.244140625,-0.61328125,-0.1875,1.53515625,-10.5703125,2.8046875
4126103,,,,,,,,0.5390625,-1.0234375,0.6015625,-0.283203125,-0.587890625,-0.197265625,1.4609375,-10.453125,2.6875
4126104,,,,,,,,0.27734375,-0.55859375,0.25,-0.3203125,-0.4296875,-0.234375,1.23046875,-9.9921875,2.3046875
4126105,,,,,,,,0.0703125,0.0625,0.0078125,-0.361328125,-0.228515625,-0.287109375,1.078125,-9.38671875,2.0
4126106,,,,,,,,-0.11328125,0.5703125,-0.078125,-0.369140625,-0.1796875,-0.283203125,0.92578125,-8.88671875,1.8828125
4126107,,,,,,,,-0.18359375,1.0,-0.3046875,-0.375,-0.1953125,-0.248046875,0.88671875,-8.4609375,1.6171875
4126108,,,,,,,,-0.23046875,1.19140625,-0.3671875,-0.375,-0.19921875,-0.236328125,0.84765625,-8.26953125,1.5390625
4126109,,,,,,,,-0.33984375,1.58984375,-0.44921875,-0.369140625,-0.1953125,-0.234375,0.76953125,-7.8828125,1.42578125
4126110,36.013008666666664,129.32002816666667,128.74762210248605,67.53813187058982,1.3,234.0,,-0.4765625,2.046875,-0.6796875,-0.09375,-0.466796875,-0.169921875,0.65625,-7.4296875,1.15625
4126111,,,,,,,,-0.4296875,2.4375,-0.7109375,-0.36328125,-0.166015625,-0.185546875,0.734375,-7.046875,1.078125
4126112,,,,,,,,-0.32421875,2.59375,-0.6953125,-0.373046875,-0.169921875,-0.1640625,0.84765625,-6.89453125,1.078125
4126113,,,,,,,,-0.1484375,3.03125,-0.81640625,-0.384765625,-0.18359375,-0.099609375,1.0390625,-6.47265625,0.92578125
4126114,,,,,,,,0.10546875,3.3046875,-0.81640625,-0.39453125,-0.181640625,-0.06640625,1.30859375,-6.203125,0.88671875
4126115,,,,,,,,0.32421875,3.50390625,-0.71484375,-0.39453125,-0.166015625,-0.041015625,1.53515625,-6.01171875,0.92578125
4126116,,,,,,,,0.47265625,3.47265625,-0.75390625,-0.384765625,-0.169921875,-0.01953125,1.69140625,-6.046875,0.84765625
4126117,,,,,,,,0.703125,3.3203125,-0.8671875,-0.369140625,-0.166015625,-0.015625,1.921875,-6.20703125,0.6953125
4126118,,,,,,,,0.73046875,3.03125,-1.1953125,-0.330078125,-0.16015625,-0.05859375,1.95703125,-6.5078125,0.3125
4126119,,,,,,,,0.72265625,2.9140625,-1.21875,-0.31640625,-0.158203125,-0.08984375,1.95703125,-6.62890625,0.2734375
4126120,36.013008166666665,129.32002733333331,128.6724988494186,67.48265114870438,1.2000000000000002,232.0,,0.515625,2.83984375,-1.109375,-0.09375,-0.466796875,-0.169921875,0.65625,-7.4296875,1.15625
4126121,,,,,,,,0.34765625,2.80078125,-0.96484375,-0.21484375,-0.140625,-0.15234375,1.61328125,-6.73828125,0.46484375
4126122,,,,,,,,0.25390625,2.76171875,-0.79296875,-0.166015625,-0.1328125,-0.103515625,1.53515625,-6.77734375,0.62109375
4126123,,,,,,,,0.28515625,2.53125,-0.703125,-0.123046875,-0.1328125,-0.0234375,1.57421875,-7.01171875,0.6953125
4126124,,,,,,,,0.40234375,2.2265625,-0.6875,-0.095703125,-0.15234375,0.0859375,1.69140625,-7.31640625,0.6953125
4126125,,,,,,,,0.30859375,1.57421875,-0.7109375,-0.07421875,-0.18359375,0.208984375,1.57421875,-7.96484375,0.65625
4126126,,,,,,,,0.1328125,1.3828125,-0.6640625,-0.06640625,-0.203125,0.244140625,1.3828125,-8.15625,0.6953125
4126127,,,,,,,,0.03515625,1.0078125,-0.41796875,-0.052734375,-0.203125,0.251953125,1.26953125,-8.54296875,0.92578125
4126128,,,,,,,,0.10546875,0.546875,-0.171875,-0.033203125,-0.224609375,0.306640625,1.30859375,-9.00390625,1.15625
4126129,,,,,,,,0.13671875,0.1640625,-0.05859375,-0.021484375,-0.232421875,0.34765625,1.30859375,-9.38671875,1.26953125
4126130,36.0130075,129.3200265,128.597375868921,67.40867722237684,1.2000000000000002,229.0,,-0.26171875,-0.32421875,0.1328125,-0.09375,-0.466796875,-0.169921875,0.88671875,-9.87890625,1.4609375
4126131,,,,,,,,-0.40625,-0.515625,0.1484375,-0.03515625,-0.2109375,0.390625,0.6953125,-10.0703125,1.4609375
4126132,,,,,,,,-0.484375,-0.82421875,0.11328125,-0.046875,-0.193359375,0.3984375,0.578125,-10.375,1.42578125
4126133,,,,,,,,-0.40625,-1.16015625,0.08203125,-0.0703125,-0.171875,0.373046875,0.6171875,-10.72265625,1.38671875
4126134,,,,,,,,-0.3828125,-1.50390625,0.05078125,-0.08203125,-0.15234375,0.306640625,0.6171875,-11.06640625,1.34765625
4126135,,,,,,,,-0.51171875,-2.00390625,0.15234375,-0.087890625,-0.12109375,0.220703125,0.46484375,-11.56640625,1.42578125
4126136,,,,,,,,-0.58203125,-2.078125,0.1875,-0.095703125,-0.109375,0.171875,0.38671875,-11.640625,1.4609375
4126137,,,,,,,,-0.7265625,-1.57421875,0.2421875,-0.10546875,-0.052734375,0.0859375,0.234375,-11.14453125,1.5
4126138,,,,,,,,-0.6796875,-0.76953125,0.01953125,-0.107421875,0.025390625,0.0078125,0.2734375,-10.3359375,1.26953125
4126139,,,,,,,,-0.375,-0.38671875,-0.0859375,-0.107421875,0.0859375,-0.04296875,0.578125,-9.953125,1.15625
4126140,36.013006499999996,129.32002583333332,128.5372782368508,67.29771709985255,1.2000000000000002,223.0,,-0.11328125,-0.921875,-0.23046875,-0.095703125,0.115234375,-0.095703125,0.84765625,-10.4921875,1.00390625
4126141,,,,,,,,0.4140625,-2.6171875,-0.0625,-0.08984375,0.115234375,-0.126953125,1.3828125,-12.18359375,1.15625
4126142,,,,,,,,0.21484375,-3.49609375,0.2890625,-0.103515625,0.1796875,-0.16796875,1.19140625,-13.05859375,1.5
4126143,,,,,,,,0.0078125,-3.6875,0.48046875,-0.115234375,0.236328125,-0.169921875,1.0,-13.25,1.69140625
4126144,,,,,,,,-1.33984375,-2.8828125,1.4453125,-0.138671875,0.41015625,-0.16015625,-0.33984375,-12.44921875,2.6484375
4126145,,,,,,,,-1.84765625,-2.69140625,1.5703125,-0.18359375,0.732421875,-0.1953125,-0.83984375,-12.25,2.765625
4126146,,,,,,,,-1.77734375,-3.19140625,1.81640625,-0.142578125,0.939453125,-0.109375,-0.76171875,-12.75390625,2.99609375
4126147,,,,,,,,-2.08984375,-2.29296875,2.7421875,-0.076171875,0.751953125,-0.06640625,-1.06640625,-11.8671875,3.9140625
4126148,,,,,,,,-2.390625,-2.109375,2.734375,-0.060546875,0.625,-0.072265625,-1.375,-11.68359375,3.9140625
4126149,,,,,,,,-2.12890625,-2.1484375,2.88671875,-0.064453125,0.58984375,-0.185546875,-1.10546875,-11.71875,4.06640625
4126150,36.013005666666665,129.32002483333332,128.4471307101036,67.20524974603295,1.3,222.0,,-0.92578125,-2.53125,3.00390625,-0.095703125,0.115234375,-0.095703125,0.84765625,-10.4921875,1.00390625
4126151,,,,,,,,-0.046875,-2.72265625,2.89453125,-0.046875,0.109375,-0.13671875,1.0,-12.29296875,4.06640625
4126152,,,,,,,,0.0078125,-2.02734375,2.47265625,-0.060546875,-0.048828125,-0.189453125,1.078125,-11.60546875,3.64453125
4126153,,,,,,,,-0.19921875,-1.8046875,2.3671875,-0.0390625,-0.119140625,-0.173828125,0.88671875,-11.375,3.53125
4126154,,,,,,,,-0.90625,-1.19140625,2.05859375,0.0,-0.201171875,-0.052734375,0.1953125,-10.76171875,3.22265625
4126155,,,,,,,,-1.203125,-0.9921875,2.05859375,0.02734375,-0.267578125,0.08984375,-0.109375,-10.5703125,3.22265625
4126156,,,,,,,,-1.203125,-1.3359375,2.20703125,0.07421875,-0.298828125,0.158203125,-0.109375,-10.91796875,3.37890625
4126157,,,,,,,,-1.10546875,-1.375,2.04296875,0.15625,-0.302734375,0.15234375,-0.03515625,-10.953125,3.22265625
4126158,,,,,,,,-0.98828125,-1.2890625,1.8359375,0.205078125,-0.279296875,0.13671875,0.08203125,-10.875,3.03125
4126159,,,,,,,,-0.90625,-0.5625,1.35546875,0.26953125,-0.19140625,0.09375,0.15625,-10.15234375,2.57421875
4126160,36.013005,129.32002383333332,128.3569829097401,67.13127560081223,1.3,225.0,,-0.63671875,0.1640625,1.0078125,-0.095703125,0.115234375,-0.095703125,0.42578125,-9.42578125,2.265625
4126161,,,,,,,,-0.3984375,0.5390625,0.73828125,0.32421875,-0.115234375,0.0234375,0.65625,-9.04296875,2.03515625
4126162,,,,,,,,-0.12109375,1.078125,0.37109375,0.322265625,-0.166015625,0.044921875,0.92578125,-8.5,1.69140625
4126163,,,,,,,,-0.16015625,1.61328125,0.109375,0.302734375,-0.1796875,0.060546875,0.88671875,-7.96484375,1.4609375
4126164,,,,,,,,-0.23828125,2.11328125,0.04296875,0.294921875,-0.17578125,0.08203125,0.80859375,-7.4609375,1.42578125
4126165,,,,,,,,-0.10546875,2.44921875,-0.02734375,0.2890625,-0.1640625,0.107421875,0.92578125,-7.12109375,1.38671875
4126166,,,,,,,,-0.0625,2.9140625,-0.203125,0.29296875,-0.162109375,0.134765625,0.9609375,-6.66796875,1.234375
4126167,,,,,,,,-0.23828125,3.109375,-0.50390625,0.302734375,-0.1640625,0.158203125,0.76953125,-6.46875,0.96484375
4126168,,,,,,,,-0.61328125,3.1015625,-0.61328125,0.318359375,-0.17578125,0.162109375,0.38671875,-6.47265625,0.88671875
4126169,,,,,,,,-1.2109375,3.09375,-0.63671875,0.33203125,-0.193359375,0.142578125,-0.2265625,-6.46875,0.88671875
4126170,36.01300416666666,129.32002300000002,128.28186019329675,67.0388084685389,1.3,225.0,,-1.69921875,2.9765625,-0.66796875,0.33203125,-0.22265625,0.14453125,-0.72265625,-6.5859375,0.88671875
4126171,,,,,,,,-1.875,2.9765625,-0.8125,0.328125,-0.236328125,0.18359375,-0.9140625,-6.5859375,0.7734375
4126172,,,,,,,,-1.9296875,3.015625,-0.9296875,0.302734375,-0.224609375,0.224609375,-0.9921875,-6.546875,0.6953125
4126173,,,,,,,,-1.921875,3.0078125,-0.984375,0.29296875,-0.212890625,0.21875,-0.9921875,-6.55078125,0.65625
4126174,,,,,,,,-1.98046875,2.9609375,-1.11328125,0.26171875,-0.21484375,0.1875,-1.06640625,-6.5859375,0.54296875
4126175,,,,,,,,-1.8515625,2.8828125,-1.22265625,0.1796875,-0.224609375,0.154296875,-0.875,-6.7734375,0.58203125
4126176,,,,,,,,-1.64453125,2.6484375,-1.15234375,0.1171875,-0.2421875,0.16015625,-0.64453125,-7.078125,0.62109375
4126177,,,,,,,,-1.4375,2.33984375,-1.015625,0.03515625,-0.21875,0.140625,-0.453125,-7.35546875,0.8125
4126178,,,,,,,,-1.3125,2.1875,-0.90625,0.005859375,-0.20703125,0.119140625,-0.37890625,-7.3515625,0.88671875
4126179,,,,,,,,-1.15234375,2.109375,-0.83203125,-0.033203125,-0.181640625,0.05078125,-0.33984375,-7.50390625,0.96484375
4126180,36.01300333333334,129.32002233333333,128.22176228689304,66.94634155696839,1.2000000000000002,222.0,,-1.078125,1.8828125,-0.78515625,-0.060546875,-0.1484375,-0.013671875,-0.2265625,-7.7734375,0.92578125
4126181,,,,,,,,-1.078125,1.64453125,-0.77734375,-0.060546875,-0.138671875,-0.068359375,-0.2265625,-8.1953125,0.92578125
4126182,,,,,,,,-1.078125,1.15234375,-0.76953125,-0.0546875,-0.158203125,-0.0859375,-0.2265625,-8.5390625,1.00390625
4126183,,,,,,,,-1.046875,0.73046875,-0.609375,-0.056640625,-0.1875,-0.083984375,-0.1875,-8.8046875,1.078125
4126184,,,,,,,,-1.0546875,0.45703125,-0.41796875,-0.044921875,-0.19140625,-0.083984375,-0.1875,-9.07421875,1.26953125
4126185,,,,,,,,-1.0,0.30078125,-0.4765625,-0.0390625,-0.18359375,-0.091796875,-0.109375,-9.23046875,1.1953125
4126186,,,,,,,,-1.0,0.1015625,-0.59375,-0.025390625,-0.18359375,-0.09375,-0.109375,-9.42578125,1.078125
4126187,,,,,,,,-0.96875,-0.32421875,-0.66796875,-0.00390625,-0.177734375,-0.111328125,-0.0703125,-9.83984375,1.00390625
4126188,,,,,,,,-0.984375,-0.59375,-0.6328125,0.0234375,-0.19140625,-0.1171875,-0.0703125,-10.109375,1.0390625
