time,latitude,longitude,enu_x,enu_y,speed,course,ecg,accX,accY,accZ,gyrX,gyrY,gyrZ,eulR,eulP,eulY
4060900,36.0130805,129.32013583333335,138.45352564172268,75.50885173309356,1.1,228.0,0.0,-2.5546875,-2.0,-0.515625,0.23828125,-0.15234375,0.1953125,1.26953125,-7.85546875,1.234375
4060901,,,,,,,,-2.53125,-2.07421875,-0.65625,0.294921875,-0.099609375,0.3203125,-0.609375,-6.69921875,0.3125
4060902,,,,,,,,-2.453125,-2.13671875,-0.6015625,0.23828125,-0.08203125,0.310546875,-0.5703125,-6.81640625,0.390625
4060903,,,,,,,,-2.390625,-2.2109375,-0.54296875,0.1953125,-0.07421875,0.302734375,-0.53125,-6.9296875,0.46484375
4060904,,,,,,,,-2.21484375,-2.37109375,-0.625,0.154296875,-0.064453125,0.283203125,-0.37890625,-7.1171875,0.390625
4060905,,,,,,,,-2.0234375,-2.84375,-0.79296875,0.119140625,-0.0390625,0.22265625,-0.2265625,-7.66015625,0.23828125
4060906,,,,,,,,-1.8828125,-3.08203125,-0.734375,0.10546875,-0.02734375,0.1796875,-0.109375,-7.92578125,0.3125
4060907,,,,,,,,-1.79296875,-3.43359375,-0.47265625,0.08984375,0.0,0.125,-0.03515625,-8.30859375,0.58203125
4060908,,,,,,,,-1.84375,-3.9765625,-0.21484375,0.078125,0.037109375,0.080078125,-0.109375,-8.88671875,0.84765625
4060909,,,,,,,,-1.98046875,-4.59765625,0.0859375,0.072265625,0.064453125,0.05078125,-0.26171875,-9.53125,1.15625
4060910,36.01307966666666,129.32013466666666,138.34835350018662,75.41638403856494,1.3,228.0,,-1.97265625,-5.02734375,0.23046875,0.23828125,-0.15234375,0.1953125,1.26953125,-7.85546875,1.234375
4060911,,,,,,,,-1.7890625,-5.40234375,0.29296875,0.0859375,0.0625,0.041015625,-0.109375,-10.4140625,1.38671875
4060912,,,,,,,,-1.67578125,-5.5078125,0.20703125,0.08984375,0.06640625,0.02734375,0.00390625,-10.53515625,1.30859375
4060913,,,,,,,,-1.54296875,-5.28515625,-0.0390625,0.095703125,0.0546875,-0.017578125,0.12109375,-10.33984375,1.078125
4060914,,,,,,,,-1.5,-5.18359375,-0.11328125,0.095703125,0.0546875,-0.046875,0.15625,-10.26171875,1.00390625
4060915,,,,,,,,-1.19140625,-5.16015625,-0.62109375,0.10546875,0.03125,-0.080078125,0.46484375,-10.2578125,0.50390625
4060916,,,,,,,,-0.83203125,-5.29296875,-0.8203125,0.10546875,0.015625,-0.09765625,0.80859375,-10.41796875,0.3125
4060917,,,,,,,,-0.6796875,-5.390625,-0.8671875,0.107421875,0.01171875,-0.09375,0.9609375,-10.53125,0.2734375
4060918,,,,,,,,-0.25,-5.51171875,-0.8359375,0.103515625,0.0234375,-0.083984375,1.3828125,-10.6796875,0.3125
4060919,,,,,,,,-0.2109375,-5.45703125,-0.91796875,0.103515625,0.05078125,-0.091796875,1.421875,-10.64453125,0.23828125
4060920,36.01307933333333,129.3201335,138.24318048573647,75.379395969476,1.3,233.0,,-0.46484375,-4.9375,-1.15625,0.23828125,-0.15234375,0.1953125,1.15234375,-10.15234375,0.0078125
4060921,,,,,,,,-1.22265625,-4.4140625,-1.39453125,0.095703125,0.275390625,-0.052734375,0.38671875,-9.65234375,-0.22265625
4060922,,,,,,,,-1.671875,-4.03125,-1.34375,0.0859375,0.341796875,-0.009765625,-0.0703125,-9.30859375,-0.1484375
4060923,,,,,,,,-2.23046875,-3.7421875,-0.96484375,0.068359375,0.380859375,0.041015625,-0.64453125,-9.04296875,0.23828125
4060924,,,,,,,,-2.36328125,-4.09375,-0.71484375,0.064453125,0.421875,0.0859375,-0.80078125,-9.421875,0.50390625
4060925,,,,,,,,-2.16015625,-5.33984375,-0.34765625,0.03515625,0.5546875,0.08203125,-0.64453125,-10.71875,0.88671875
4060926,,,,,,,,-0.73046875,-6.53515625,0.94140625,-0.00390625,0.625,0.00390625,0.76953125,-11.94921875,2.19140625
4060927,,,,,,,,0.89453125,-9.796875,1.5390625,-0.03515625,0.765625,-0.130859375,2.37890625,-15.24609375,2.8046875
4060928,,,,,,,,3.23828125,-12.41015625,2.6328125,-0.08203125,0.859375,-0.361328125,4.71484375,-17.88671875,3.9140625
4060929,,,,,,,,4.3515625,-11.53515625,3.046875,-0.1171875,0.859375,-0.45703125,5.828125,-17.0390625,4.3359375
4060930,36.01307883333333,129.32013233333333,138.13800776143995,75.32391469335506,1.3,237.0,,2.46484375,-7.3359375,1.69140625,-0.162109375,0.978515625,-0.5390625,3.94921875,-12.87109375,2.99609375
4060931,,,,,,,,1.69140625,-7.19921875,1.796875,-0.060546875,0.791015625,-0.61328125,1.765625,-12.984375,3.72265625
4060932,,,,,,,,0.265625,-7.4140625,2.41015625,-0.00390625,0.5,-0.55859375,1.23046875,-13.44140625,4.18359375
4060933,,,,,,,,-0.70703125,-8.34765625,3.08984375,0.0625,-0.193359375,-0.318359375,0.80859375,-13.9375,4.41015625
4060934,,,,,,,,-0.21484375,-8.0546875,2.47265625,0.125,-0.484375,-0.166015625,1.30859375,-13.67578125,3.80078125
4060935,,,,,,,,0.87890625,-6.55859375,1.046875,0.12890625,-0.40234375,-0.291015625,2.41796875,-12.21484375,2.3828125
4060936,,,,,,,,0.86328125,-5.43359375,0.46484375,0.08984375,-0.376953125,-0.384765625,2.41796875,-11.1015625,1.80859375
4060937,,,,,,,,0.609375,-4.4140625,0.1953125,0.01171875,-0.515625,-0.498046875,2.1875,-10.109375,1.5390625
4060938,,,,,,,,0.12109375,-4.4296875,0.1640625,-0.05859375,-0.6796875,-0.486328125,1.73046875,-10.15234375,1.5
4060939,,,,,,,,-0.04296875,-4.453125,0.2109375,-0.091796875,-0.705078125,-0.42578125,1.57421875,-10.1875,1.5390625
4060940,36.01307833333333,129.32013133333334,138.0478598351745,75.26843365535301,1.3,239.0,,-0.45703125,-4.12109375,0.12109375,-0.162109375,0.978515625,-0.5390625,3.94921875,-12.87109375,2.99609375
4060941,,,,,,,,-0.59375,-3.66015625,0.06640625,-0.212890625,-0.34765625,-0.314453125,1.078125,-9.45703125,1.34765625
4060942,,,,,,,,-0.6875,-2.7109375,-0.0703125,-0.251953125,-0.22265625,-0.35546875,1.0,-8.5390625,1.1953125
4060943,,,,,,,,-0.6640625,-2.12890625,-0.2265625,-0.265625,-0.212890625,-0.365234375,1.0390625,-7.9609375,1.0390625
4060944,,,,,,,,-0.6875,-1.4375,-0.34765625,-0.30859375,-0.2578125,-0.345703125,1.0390625,-7.3125,0.88671875
4060945,,,,,,,,-0.51171875,-1.0625,-0.5234375,-0.32421875,-0.291015625,-0.337890625,1.23046875,-6.97265625,0.6953125
4060946,,,,,,,,-0.4375,-0.71875,-0.3671875,-0.328125,-0.291015625,-0.341796875,1.34375,-6.6640625,0.8125
4060947,,,,,,,,-0.3359375,-0.45703125,-0.23046875,-0.330078125,-0.267578125,-0.3203125,1.4609375,-6.4296875,0.92578125
4060948,,,,,,,,-0.3046875,-0.2578125,-0.26171875,-0.328125,-0.255859375,-0.31640625,1.5,-6.2421875,0.88671875
4060949,,,,,,,,-0.16796875,-0.2265625,-0.3125,-0.32421875,-0.228515625,-0.298828125,1.65234375,-6.2421875,0.8125
4060950,36.01307766666666,129.32013049999998,137.9727369979756,75.19445964480529,1.2000000000000002,235.0,,0.078125,-0.00390625,-0.55859375,-0.294921875,-0.248046875,-0.28515625,1.921875,-6.046875,0.54296875
4060951,,,,,,,,0.3359375,0.14453125,-0.8046875,-0.27734375,-0.3046875,-0.287109375,2.1875,-5.9296875,0.2734375
4060952,,,,,,,,0.3515625,0.12109375,-0.81640625,-0.263671875,-0.359375,-0.29296875,2.2265625,-5.96875,0.23828125
4060953,,,,,,,,0.2890625,-0.0625,-0.7109375,-0.21875,-0.3828125,-0.265625,2.1875,-6.203125,0.3125
4060954,,,,,,,,0.12890625,-0.25390625,-0.65625,-0.208984375,-0.380859375,-0.240234375,2.03515625,-6.39453125,0.3515625
4060955,,,,,,,,-0.0390625,-0.4609375,-0.53515625,-0.17578125,-0.341796875,-0.1640625,1.8828125,-6.625,0.46484375
4060956,,,,,,,,-0.20703125,-0.58984375,-0.2890625,-0.146484375,-0.291015625,-0.0703125,1.73046875,-6.7734375,0.6953125
4060957,,,,,,,,-0.1640625,-0.61328125,-0.234375,-0.13671875,-0.271484375,-0.03515625,1.765625,-6.8125,0.734375
4060958,,,,,,,,-0.046875,-0.6640625,-0.37890625,-0.11328125,-0.24609375,0.0625,1.8828125,-6.89453125,0.58203125
4060959,,,,,,,,-0.0078125,-0.765625,-0.49609375,-0.111328125,-0.23046875,0.099609375,1.921875,-7.01171875,0.46484375
4060960,36.01307716666667,129.3201293333333,137.86756426971968,75.13897837410728,1.2000000000000002,237.0,,0.15234375,-1.23828125,-0.74609375,-0.294921875,-0.248046875,-0.28515625,1.921875,-6.046875,0.54296875
4060961,,,,,,,,0.19921875,-1.90625,-0.890625,-0.08984375,-0.216796875,0.1640625,2.11328125,-8.1953125,0.046875
4060962,,,,,,,,0.25,-2.41015625,-0.69140625,-0.087890625,-0.228515625,0.16796875,2.1484375,-8.73046875,0.23828125
4060963,,,,,,,,0.10546875,-3.11328125,-0.45703125,-0.091796875,-0.1953125,0.1796875,1.99609375,-9.45703125,0.46484375
4060964,,,,,,,,0.0078125,-3.55078125,-0.06640625,-0.08984375,-0.146484375,0.216796875,1.8828125,-9.91796875,0.84765625
4060965,,,,,,,,-0.078125,-3.62890625,0.1796875,-0.07421875,-0.0625,0.30859375,1.765625,-10.03515625,1.078125
4060966,,,,,,,,-0.0625,-3.640625,0.21875,-0.072265625,-0.046875,0.32421875,1.765625,-10.0703125,1.1171875
4060967,,,,,,,,0.0,-3.6953125,0.07421875,-0.0625,-0.044921875,0.365234375,1.8046875,-10.1484375,0.96484375
4060968,,,,,,,,0.1015625,-3.5859375,-0.26171875,-0.06640625,-0.078125,0.3828125,1.8828125,-10.0703125,0.62109375
4060969,,,,,,,,0.171875,-3.79296875,-0.6015625,-0.076171875,-0.119140625,0.384765625,1.921875,-10.296875,0.2734375
4060970,36.01307633333333,129.32012833333334,137.77741692176468,75.04651092255786,1.4000000000000001,232.0,,0.0390625,-4.0234375,-0.71484375,-0.294921875,-0.248046875,-0.28515625,1.765625,-10.57421875,0.16015625
4060971,,,,,,,,-0.38671875,-4.40625,-0.66015625,-0.109375,-0.154296875,0.322265625,1.30859375,-10.9921875,0.19921875
4060972,,,,,,,,-0.7109375,-4.53515625,-0.61328125,-0.107421875,-0.12109375,0.322265625,0.9609375,-11.140625,0.23828125
4060973,,,,,,,,-0.921875,-4.59765625,-0.4140625,-0.099609375,-0.08984375,0.337890625,0.734375,-11.21875,0.4296875
4060974,,,,,,,,-1.07421875,-4.328125,0.12890625,-0.087890625,-0.0078125,0.388671875,0.54296875,-10.9921875,0.96484375
4060975,,,,,,,,-1.05078125,-3.875,0.28125,-0.078125,0.044921875,0.365234375,0.54296875,-10.5703125,1.1171875
4060976,,,,,,,,-0.828125,-3.58203125,0.328125,-0.078125,0.08203125,0.302734375,0.734375,-10.30078125,1.15625
4060977,,,,,,,,-0.39453125,-4.5078125,0.375,-0.07421875,0.095703125,0.236328125,1.15234375,-11.26171875,1.1953125
4060978,,,,,,,,-0.22265625,-5.0390625,0.48828125,-0.0703125,0.09765625,0.185546875,1.30859375,-11.80078125,1.30859375
4060979,,,,,,,,-0.63671875,-6.80859375,0.83203125,-0.07421875,0.107421875,0.091796875,0.88671875,-13.59375,1.65234375
4060980,36.013075666666666,129.32012716666668,137.6722444805848,74.97253644586492,1.3,233.0,,-2.84375,-5.703125,2.640625,-0.08984375,0.267578125,0.0,-1.3359375,-12.52734375,3.453125
4060981,,,,,,,,-3.6015625,-5.11328125,2.94921875,-0.107421875,0.484375,-0.056640625,-2.1015625,-11.94921875,3.76171875
4060982,,,,,,,,-3.6015625,-5.2890625,3.140625,-0.091796875,0.54296875,-0.0390625,-2.1015625,-12.14453125,3.953125
4060983,,,,,,,,-3.5546875,-5.2265625,3.62890625,-0.046875,0.478515625,0.03515625,-2.0625,-12.10546875,4.44921875
4060984,,,,,,,,-2.66796875,-4.7734375,3.859375,-0.0390625,0.12890625,-0.03125,-1.18359375,-11.6796875,4.6796875
4060985,,,,,,,,-1.01171875,-4.63671875,3.74609375,-0.095703125,0.09765625,-0.212890625,0.46484375,-11.56640625,4.56640625
4060986,,,,,,,,-0.56640625,-4.7421875,3.515625,-0.1171875,0.06640625,-0.2421875,0.92578125,-11.6796875,4.3359375
4060987,,,,,,,,-0.23828125,-4.60546875,2.91015625,-0.119140625,-0.208984375,-0.326171875,1.26953125,-11.5625,3.72265625
4060988,,,,,,,,-0.8359375,-4.54296875,2.88671875,-0.08984375,-0.298828125,-0.3125,0.6953125,-11.52734375,3.68359375
4060989,,,,,,,,-1.19140625,-4.57421875,2.92578125,-0.0703125,-0.3046875,-0.25390625,0.34765625,-11.56640625,3.72265625
4060990,36.013074833333334,129.32012633333335,137.5971219296453,74.88006923294616,1.3,229.0,,-1.46484375,-4.55078125,3.1171875,-0.08984375,0.267578125,0.0,0.08203125,-11.5625,3.9140625
4060991,,,,,,,,-1.6640625,-4.6875,3.0859375,0.03125,-0.169921875,-0.029296875,-0.109375,-11.71875,3.875
4060992,,,,,,,,-1.54296875,-4.45703125,2.57421875,0.119140625,-0.091796875,-0.123046875,0.00390625,-11.5234375,3.37890625
4060993,,,,,,,,-1.359375,-3.94921875,2.2578125,0.142578125,-0.078125,-0.1484375,0.1953125,-11.0234375,3.0703125
4060994,,,,,,,,-1.05859375,-3.4375,1.953125,0.173828125,-0.064453125,-0.181640625,0.50390625,-10.53125,2.765625
4060995,,,,,,,,-0.578125,-2.2578125,1.4609375,0.185546875,-0.091796875,-0.201171875,1.0,-9.3828125,2.3046875
4060996,,,,,,,,-0.2421875,-1.59765625,1.140625,0.181640625,-0.123046875,-0.197265625,1.34375,-8.73046875,2.0
4060997,,,,,,,,-0.1796875,-1.11328125,0.89453125,0.17578125,-0.15625,-0.189453125,1.421875,-8.26953125,1.76953125
4060998,,,,,,,,-0.140625,-0.953125,0.76953125,0.171875,-0.171875,-0.173828125,1.4609375,-8.12109375,1.65234375
4060999,,,,,,,,-0.234375,-0.32421875,0.53515625,0.171875,-0.1875,-0.13671875,1.3828125,-7.5,1.42578125
4061000,36.013073999999996,129.3201255,137.5219993724821,74.78760201972557,1.3,228.0,0.0,-0.30859375,0.07421875,0.48046875,-0.08984375,0.267578125,0.0,0.08203125,-11.5625,3.9140625
4061001,,,,,,,,-0.5078125,0.7109375,0.15625,0.212890625,-0.20703125,-0.0703125,1.1171875,-6.51171875,1.078125
4061002,,,,,,,,-0.85546875,1.33984375,-0.125,0.25,-0.205078125,-0.06640625,0.76953125,-5.89453125,0.8125
4061003,,,,,,,,-0.96875,1.375,-0.1796875,0.263671875,-0.201171875,-0.068359375,0.65625,-5.86328125,0.7734375
4061004,,,,,,,,-1.359375,1.5234375,-0.35546875,0.294921875,-0.203125,-0.103515625,0.2734375,-5.7421875,0.62109375
4061005,,,,,,,,-1.75,1.33984375,-0.37890625,0.3046875,-0.203125,-0.091796875,-0.109375,-5.9296875,0.62109375
4061006,,,,,,,,-1.8359375,1.1328125,-0.3046875,0.296875,-0.185546875,-0.052734375,-0.1875,-6.16796875,0.734375
4061007,,,,,,,,-1.75,1.03515625,-0.17578125,0.28125,-0.173828125,-0.015625,-0.109375,-6.2734375,0.88671875
4061008,,,,,,,,-1.7109375,0.91796875,-0.06640625,0.267578125,-0.16015625,-0.00390625,-0.0703125,-6.39453125,1.00390625
4061009,,,,,,,,-1.828125,0.8515625,-0.0078125,0.232421875,-0.14453125,0.02734375,-0.1875,-6.47265625,1.078125
4061010,36.013073,129.3201245,137.4318523043672,74.67664136665911,1.3,226.0,,-2.125,0.7109375,-0.0625,0.185546875,-0.154296875,0.03125,-0.4921875,-6.625,1.0390625
4061011,,,,,,,,-2.1640625,0.734375,-0.19921875,0.12890625,-0.20703125,0.076171875,-0.53125,-6.625,0.92578125
4061012,,,,,,,,-2.03515625,0.7578125,-0.3203125,0.095703125,-0.24609375,0.091796875,-0.41796875,-6.625,0.8125
4061013,,,,,,,,-1.84375,0.60546875,-0.4375,0.080078125,-0.251953125,0.095703125,-0.2265625,-6.77734375,0.6953125
4061014,,,,,,,,-1.75,0.4375,-0.484375,0.060546875,-0.279296875,0.078125,-0.1484375,-6.96875,0.65625
4061015,,,,,,,,-1.7109375,-0.16796875,-0.40625,0.046875,-0.283203125,0.041015625,-0.109375,-7.58203125,0.734375
4061016,,,,,,,,-1.58984375,-0.62109375,-0.25390625,0.037109375,-0.28125,0.0,0.00390625,-8.04296875,0.88671875
4061017,,,,,,,,-1.51171875,-1.25390625,-0.14453125,0.03125,-0.232421875,-0.013671875,0.08203125,-8.69140625,1.00390625
4061018,,,,,,,,-1.46484375,-1.515625,-0.03125,0.029296875,-0.20703125,-0.0234375,0.12109375,-8.9609375,1.1171875
4061019,,,,,,,,-1.3984375,-1.8828125,0.0859375,0.021484375,-0.150390625,-0.04296875,0.1953125,-9.34375,1.234375
4061020,36.013072333333334,129.32012350000002,137.34170465833637,74.60266712834293,1.3,228.0,,-1.4375,-2.37109375,0.19921875,0.185546875,-0.154296875,0.03125,-0.4921875,-6.625,1.0390625
4061021,,,,,,,,-1.50390625,-2.47265625,0.23828125,0.01953125,-0.099609375,-0.068359375,0.08203125,-9.953125,1.38671875
4061022,,,,,,,,-1.47265625,-2.6484375,0.15234375,0.025390625,-0.091796875,-0.0625,0.12109375,-10.15234375,1.30859375
4061023,,,,,,,,-1.12890625,-2.83203125,0.10546875,0.0390625,-0.12109375,-0.05078125,0.46484375,-10.33984375,1.26953125
4061024,,,,,,,,-0.67578125,-3.046875,0.0703125,0.05859375,-0.14453125,-0.04296875,0.92578125,-10.57421875,1.234375
4061025,,,,,,,,-0.44140625,-3.23046875,-0.0078125,0.080078125,-0.140625,-0.052734375,1.15234375,-10.7578125,1.15625
4061026,,,,,,,,-0.09375,-3.48046875,-0.0234375,0.095703125,-0.1015625,-0.056640625,1.5,-11.02734375,1.15625
4061027,,,,,,,,-0.02734375,-3.51171875,-0.03125,0.103515625,-0.041015625,-0.033203125,1.57421875,-11.06640625,1.15625
4061028,,,,,,,,-0.80859375,-2.484375,-0.27734375,0.095703125,0.111328125,0.103515625,0.76953125,-10.07421875,0.92578125
4061029,,,,,,,,-1.42578125,-1.6953125,-0.30078125,0.08203125,0.212890625,0.25,0.12109375,-9.30859375,0.92578125
4061030,36.01307166666666,129.32012233333336,137.23653221008524,74.52869265560366,1.3,230.0,,-1.94140625,-1.375,-0.31640625,0.185546875,-0.154296875,0.03125,-0.41796875,-9.00390625,0.92578125
4061031,,,,,,,,-2.19140625,-1.96484375,-0.5703125,0.115234375,0.375,0.337890625,-0.72265625,-9.61328125,0.6953125
4061032,,,,,,,,-2.13671875,-2.453125,-0.68359375,0.119140625,0.427734375,0.32421875,-0.68359375,-10.109375,0.58203125
4061033,,,,,,,,-1.53125,-3.1640625,-0.171875,0.123046875,0.568359375,0.25,-0.109375,-10.83984375,1.1171875
4061034,,,,,,,,-0.265625,-2.9296875,1.0703125,0.103515625,0.728515625,0.138671875,1.1171875,-10.609375,2.3828125
4061035,,,,,,,,0.28515625,-3.82421875,1.16796875,0.068359375,0.962890625,0.0078125,1.65234375,-11.52734375,2.49609375
4061036,,,,,,,,0.4453125,-4.70703125,1.0859375,0.046875,1.08203125,-0.068359375,1.8046875,-12.41015625,2.421875
4061037,,,,,,,,1.14453125,-8.25390625,2.1015625,0.005859375,1.158203125,-0.1875,2.49609375,-15.97265625,3.453125
4061038,,,,,,,,2.76171875,-9.9296875,3.7265625,-0.03515625,0.98828125,-0.1875,4.10546875,-17.65625,5.1015625
4061039,,,,,,,,3.5625,-8.6953125,4.0703125,-0.064453125,0.93359375,-0.185546875,4.90625,-16.4296875,5.4453125
4061040,36.013071,129.32012116666667,137.13135975590538,74.45471818390435,1.4000000000000001,233.0,,3.11328125,-6.53515625,3.44921875,-0.109375,1.0703125,-0.212890625,4.44921875,-14.28515625,4.83203125
4061041,,,,,,,,1.04296875,-5.5703125,3.703125,-0.107421875,1.09765625,-0.353515625,2.37890625,-13.328125,5.1015625
4061042,,,,,,,,0.37890625,-5.70703125,3.96484375,-0.064453125,0.685546875,-0.40625,1.73046875,-13.48046875,5.37109375
4061043,,,,,,,,-0.6796875,-5.453125,3.03515625,0.060546875,-0.419921875,-0.01171875,0.6953125,-13.25,4.44921875
4061044,,,,,,,,-0.265625,-4.53515625,2.23046875,0.08203125,-0.6015625,0.1171875,1.1171875,-12.328125,3.64453125
4061045,,,,,,,,0.1328125,-3.515625,1.42578125,0.078125,-0.6640625,0.103515625,1.5,-11.3359375,2.83984375
4061046,,,,,,,,0.22265625,-2.49609375,1.16015625,-0.001953125,-0.703125,-0.19140625,1.61328125,-10.33984375,2.57421875
4061047,,,,,,,,0.25390625,-2.34375,1.16015625,-0.037109375,-0.734375,-0.19921875,1.65234375,-10.1875,2.57421875
4061048,,,,,,,,-0.0703125,-2.16796875,1.17578125,-0.13671875,-0.75,-0.099609375,1.34375,-10.03515625,2.57421875
4061049,,,,,,,,-0.16015625,-2.08984375,1.03125,-0.1953125,-0.71484375,-0.056640625,1.26953125,-9.95703125,2.421875
4061050,36.013070166666665,129.3201198333333,137.01116278510594,74.36225027336468,1.5,233.0,,-0.4453125,-1.63671875,0.72265625,-0.109375,1.0703125,-0.212890625,1.0,-9.53515625,2.07421875
4061051,,,,,,,,-0.875,-0.73046875,0.44921875,-0.314453125,-0.349609375,-0.134765625,0.578125,-8.6484375,1.76953125
4061052,,,,,,,,-1.1484375,-0.1796875,0.2734375,-0.34375,-0.265625,-0.18359375,0.3125,-8.1171875,1.578125
4061053,,,,,,,,-1.3203125,0.36328125,0.06640625,-0.34765625,-0.248046875,-0.185546875,0.15625,-7.58203125,1.34765625
4061054,,,,,,,,-1.2890625,1.11328125,-0.21875,-0.37109375,-0.248046875,-0.17578125,0.1953125,-6.8515625,1.0390625
4061055,,,,,,,,-0.9296875,1.75,-0.36328125,-0.37890625,-0.27734375,-0.1640625,0.578125,-6.2421875,0.84765625
4061056,,,,,,,,-0.58984375,1.95703125,-0.29296875,-0.392578125,-0.29296875,-0.177734375,0.92578125,-6.05078125,0.88671875
4061057,,,,,,,,-0.26171875,2.1640625,-0.22265625,-0.39453125,-0.265625,-0.1796875,1.26953125,-5.86328125,0.92578125
4061058,,,,,,,,-0.1171875,2.28125,-0.16796875,-0.400390625,-0.240234375,-0.169921875,1.421875,-5.74609375,0.96484375
4061059,,,,,,,,0.01953125,2.5625,-0.09765625,-0.408203125,-0.189453125,-0.1484375,1.57421875,-5.4765625,1.00390625
4061060,36.013069333333334,129.320119,136.93604022339656,74.269783066398,1.2000000000000002,230.0,,0.12890625,2.7734375,0.046875,-0.109375,1.0703125,-0.212890625,1.0,-9.53515625,2.07421875
4061061,,,,,,,,0.2734375,2.81640625,0.078125,-0.359375,-0.111328125,-0.05078125,1.84375,-5.24609375,1.1171875
4061062,,,,,,,,0.46484375,2.6484375,-0.16796875,-0.314453125,-0.08984375,-0.0078125,2.03515625,-5.44140625,0.84765625
4061063,,,,,,,,0.51171875,2.3125,-0.3359375,-0.2734375,-0.08984375,0.03125,2.07421875,-5.78125,0.65625
4061064,,,,,,,,0.51171875,2.10546875,-0.42578125,-0.20703125,-0.119140625,0.001953125,2.07421875,-6.01171875,0.54296875
4061065,,,,,,,,0.3203125,1.515625,-0.28125,-0.111328125,-0.158203125,0.03515625,1.8828125,-6.62890625,0.65625
4061066,,,,,,,,0.2109375,1.41015625,-0.125,-0.08984375,-0.16015625,0.072265625,1.765625,-6.734375,0.8125
4061067,,,,,,,,0.14453125,1.234375,-0.15625,-0.0390625,-0.150390625,0.18359375,1.69140625,-6.93359375,0.7734375
4061068,,,,,,,,0.28125,0.66796875,-0.265625,0.0078125,-0.150390625,0.30859375,1.8046875,-7.50390625,0.65625
4061069,,,,,,,,0.34375,0.25390625,-0.42578125,0.048828125,-0.1484375,0.419921875,1.84375,-7.921875,0.50390625
4061070,36.01306866666666,129.320118,136.8458925672478,74.19580883206424,1.3,230.0,,0.27734375,-0.6484375,-0.47265625,-0.109375,1.0703125,-0.212890625,1.0,-9.53515625,2.07421875
4061071,,,,,,,,0.16796875,-1.203125,-0.25,0.080078125,-0.193359375,0.580078125,1.57421875,-9.421875,0.6953125
4061072,,,,,,,,-0.09765625,-1.84375,0.125,0.09375,-0.1953125,0.619140625,1.26953125,-10.07421875,1.078125
4061073,,,,,,,,-0.2421875,-2.08984375,0.578125,0.095703125,-0.17578125,0.73046875,1.0390625,-10.3359375,1.5390625
4061074,,,,,,,,-0.33203125,-2.02734375,0.68359375,0.10546875,-0.158203125,0.798828125,0.88671875,-10.296875,1.65234375
4061075,,,,,,,,-0.33984375,-1.8984375,0.67578125,0.103515625,-0.15234375,0.83984375,0.80859375,-10.19140625,1.65234375
4061076,,,,,,,,-0.26953125,-1.890625,0.6015625,0.1015625,-0.154296875,0.841796875,0.84765625,-10.1875,1.578125
4061077,,,,,,,,-0.19140625,-2.10546875,0.44140625,0.083984375,-0.17578125,0.798828125,0.84765625,-10.41796875,1.42578125
4061078,,,,,,,,-0.16796875,-2.35546875,0.34765625,0.056640625,-0.18359375,0.71484375,0.80859375,-10.6796875,1.34765625
4061079,,,,,,,,-0.16015625,-2.80078125,0.1953125,0.02734375,-0.189453125,0.6328125,0.76953125,-11.140625,1.1953125
4061080,36.01306783333334,129.320117,136.75574519725902,74.10334139399174,1.3,230.0,,-0.41015625,-3.015625,0.1953125,-0.109375,1.0703125,-0.212890625,1.0,-9.53515625,2.07421875
4061081,,,,,,,,-0.74609375,-2.80859375,0.5390625,-0.046875,-0.0703125,0.45703125,0.08203125,-11.1796875,1.5390625
4061082,,,,,,,,-0.8671875,-2.2265625,0.66015625,-0.0859375,0.017578125,0.3671875,-0.0703125,-10.609375,1.65234375
4061083,,,,,,,,-0.53125,-1.86328125,0.78515625,-0.09765625,0.115234375,0.2890625,0.234375,-10.2578125,1.76953125
4061084,,,,,,,,0.14453125,-2.9609375,0.70703125,-0.10546875,0.19140625,0.220703125,0.88671875,-11.375,1.69140625
4061085,,,,,,,,0.43359375,-4.4921875,0.5546875,-0.107421875,0.24609375,0.154296875,1.15234375,-12.91015625,1.5390625
4061086,,,,,,,,0.40625,-5.01171875,0.640625,-0.11328125,0.279296875,0.103515625,1.1171875,-13.44140625,1.6171875
4061087,,,,,,,,-0.99609375,-4.515625,2.171875,-0.130859375,0.34765625,-0.005859375,-0.30078125,-12.9453125,3.1484375
4061088,,,,,,,,-2.5390625,-2.46875,3.4140625,-0.142578125,0.486328125,-0.0625,-1.8359375,-10.9140625,4.375
4061089,,,,,,,,-2.796875,-2.1484375,3.2578125,-0.1640625,0.833984375,-0.1875,-2.1015625,-10.609375,4.21875
4061090,36.01306683333333,129.32011599999998,136.66559811280575,73.99238074736719,1.4000000000000001,227.0,,-2.5,-2.7890625,3.11328125,-0.109375,1.0703125,-0.212890625,1.0,-9.53515625,2.07421875
4061091,,,,,,,,-2.4921875,-3.234375,3.95703125,-0.076171875,0.455078125,-0.01171875,-1.796875,-11.72265625,4.91015625
4061092,,,,,,,,-1.6953125,-4.0625,4.2265625,-0.130859375,0.388671875,-0.291015625,-0.9921875,-12.56640625,5.1796875
4061093,,,,,,,,-1.203125,-4.328125,4.26171875,-0.15625,0.40625,-0.330078125,-0.4921875,-12.83203125,5.21484375
4061094,,,,,,,,0.0,-4.66796875,4.078125,-0.166015625,0.310546875,-0.326171875,0.734375,-13.171875,5.0234375
4061095,,,,,,,,0.05078125,-4.3828125,3.8671875,-0.15625,0.173828125,-0.30859375,0.80859375,-12.91015625,4.796875
4061096,,,,,,,,-0.5390625,-3.2734375,3.7109375,-0.1015625,0.080078125,-0.27734375,0.234375,-11.80078125,4.640625
4061097,,,,,,,,-0.859375,-2.56640625,3.56640625,-0.021484375,-0.015625,-0.138671875,-0.0703125,-11.10546875,4.48828125
4061098,,,,,,,,-0.984375,-2.25390625,3.20703125,0.009765625,-0.0546875,-0.05859375,-0.1875,-10.796875,4.14453125
4061099,,,,,,,,-0.71484375,-2.46484375,2.73828125,0.12109375,-0.11328125,0.01953125,0.08203125,-11.02734375,3.68359375
4061100,36.01306616666667,129.32011533333335,136.60550005654818,73.91840698424217,1.2000000000000002,226.0,0.0,-0.546875,-2.421875,2.30078125,-0.109375,1.0703125,-0.212890625,0.234375,-10.9921875,3.26171875
4061101,,,,,,,,-0.546875,-1.9453125,1.97265625,0.25390625,-0.091796875,0.0234375,0.234375,-10.53125,2.95703125
4061102,,,,,,,,-0.37890625,-1.2109375,1.42578125,0.275390625,0.08984375,0.064453125,0.38671875,-9.80859375,2.45703125
4061103,,,,,,,,-0.1796875,-0.7421875,1.05078125,0.28125,0.11328125,0.1328125,0.578125,-9.34765625,2.11328125
4061104,,,,,,,,0.06640625,-0.04296875,0.53125,0.302734375,0.123046875,0.189453125,0.80859375,-8.6484375,1.6171875
4061105,,,,,,,,0.234375,0.34765625,0.26171875,0.33203125,0.12109375,0.205078125,0.9609375,-8.26953125,1.38671875
4061106,,,,,,,,0.22265625,0.8125,0.09375,0.341796875,0.119140625,0.203125,0.92578125,-7.81640625,1.234375
4061107,,,,,,,,0.16015625,1.55078125,-0.140625,0.376953125,0.115234375,0.197265625,0.84765625,-7.08203125,1.0390625
4061108,,,,,,,,0.10546875,2.015625,-0.29296875,0.40625,0.119140625,0.197265625,0.76953125,-6.62890625,0.92578125
4061109,,,,,,,,-0.14453125,2.5546875,-0.68359375,0.435546875,0.115234375,0.20703125,0.50390625,-6.08984375,0.58203125
4061110,36.0130655,129.32011433333335,136.5153523936884,73.84443275444193,1.3,226.0,,-0.390625,2.828125,-0.83984375,-0.109375,1.0703125,-0.212890625,0.234375,-5.82421875,0.46484375
4061111,,,,,,,,-0.75,3.01953125,-1.0,0.4765625,0.0625,0.201171875,-0.1484375,-5.62890625,0.3515625
4061112,,,,,,,,-1.1171875,3.09765625,-1.16796875,0.478515625,0.0390625,0.189453125,-0.53125,-5.546875,0.23828125
4061113,,,,,,,,-1.24609375,3.01953125,-1.32421875,0.470703125,0.02734375,0.166015625,-0.68359375,-5.62890625,0.12109375
4061114,,,,,,,,-1.26953125,2.875,-1.41015625,0.443359375,0.021484375,0.150390625,-0.72265625,-5.78125,0.08203125
4061115,,,,,,,,-1.24609375,2.4921875,-1.33203125,0.3984375,-0.0078125,0.14453125,-0.72265625,-6.16796875,0.19921875
4061116,,,,,,,,-1.23828125,2.22265625,-1.296875,0.369140625,-0.046875,0.1328125,-0.72265625,-6.4296875,0.2734375
4061117,,,,,,,,-1.0703125,1.91796875,-1.21875,0.33984375,-0.05859375,0.099609375,-0.5703125,-6.734375,0.390625
4061118,,,,,,,,-1.0625,1.7265625,-1.12890625,0.314453125,-0.060546875,0.09375,-0.5703125,-6.93359375,0.50390625
4061119,,,,,,,,-1.09375,1.6484375,-1.12109375,0.283203125,-0.06640625,0.072265625,-0.609375,-7.01171875,0.54296875
4061120,36.013064500000006,129.32011366666666,136.45525490745547,73.7334725783696,1.3,223.0,,-1.19921875,1.609375,-1.07421875,-0.109375,1.0703125,-0.212890625,0.234375,-5.82421875,0.46484375
4061121,,,,,,,,-1.23046875,1.49609375,-1.21484375,0.236328125,-0.126953125,-0.0234375,-0.68359375,-7.27734375,0.4296875
4061122,,,,,,,,-1.11328125,1.19140625,-1.3828125,0.2109375,-0.1796875,-0.056640625,-0.53125,-7.6171875,0.3125
4061123,,,,,,,,-0.81640625,0.5390625,-1.3671875,0.185546875,-0.23046875,-0.083984375,-0.1875,-8.38671875,0.4296875
4061124,,,,,,,,-0.41015625,-0.2578125,-1.16015625,0.150390625,-0.25390625,-0.123046875,0.1953125,-9.1875,0.734375
4061125,,,,,,,,-0.15234375,-1.0703125,-0.765625,0.12109375,-0.232421875,-0.15625,0.34765625,-9.9140625,1.1953125
4061126,,,,,,,,-0.16796875,-1.4140625,-0.42578125,0.103515625,-0.177734375,-0.19921875,0.34765625,-10.11328125,1.5
4061127,,,,,,,,-0.296875,-1.53125,-0.2421875,0.08984375,-0.140625,-0.224609375,0.234375,-10.19140625,1.578125
4061128,,,,,,,,-0.3125,-1.68359375,-0.71875,0.09375,-0.11328125,-0.228515625,0.234375,-10.3359375,1.1171875
4061129,,,,,,,,-0.3359375,-1.9140625,-0.8046875,0.109375,-0.15234375,-0.23046875,0.234375,-10.57421875,1.0390625
4061130,36.013063833333334,129.32011266666666,136.3651072415833,73.65949834959781,1.4000000000000001,226.0,,-1.19921875,1.609375,-1.07421875,0.119140625,-0.240234375,-0.244140625,0.234375,-5.82421875,0.46484375
4061131,,,,,,,,0.078125,-2.171875,-0.89453125,0.1328125,-0.2578125,-0.2265625,0.6953125,-10.8359375,0.96484375
4061132,,,,,,,,0.19140625,-2.25,-0.98828125,0.1328125,-0.2421875,-0.220703125,0.80859375,-10.91796875,0.88671875
4061133,,,,,,,,0.4375,-2.40234375,-1.02734375,0.1328125,-0.173828125,-0.208984375,1.078125,-11.06640625,0.84765625
4061134,,,,,,,,0.64453125,-2.44140625,-1.01171875,0.12890625,-0.1015625,-0.19140625,1.30859375,-11.10546875,0.88671875
4061135,,,,,,,,1.01171875,-1.8984375,-0.91015625,0.115234375,-0.0078125,-0.1796875,1.69140625,-10.57421875,1.00390625
4061136,,,,,,,,1.00390625,-1.90625,-0.91796875,0.111328125,0.1015625,-0.146484375,1.69140625,-10.45703125,0.92578125
4061137,,,,,,,,0.83984375,-1.70703125,-1.00390625,0.10546875,0.201171875,-0.11328125,1.421875,-10.61328125,1.0390625
4061138,,,,,,,,0.57421875,-2.3203125,-0.78125,0.107421875,0.275390625,-0.10546875,1.23046875,-11.56640625,1.26953125
4061139,,,,,,,,0.52734375,-2.88671875,-0.67578125,0.109375,0.30859375,-0.099609375,1.34375,-13.09375,1.73046875
4061140,36.01306316666667,129.32011150000002,136.25993477372063,73.58552388850676,1.3,230.0,,-1.19921875,1.609375,-1.07421875,0.111328125,0.41015625,-0.08203125,1.95703125,-14.51953125,2.265625
4061141,,,,,,,,2.18359375,-6.9453125,1.140625,0.103515625,0.583984375,-0.08203125,4.1796875,-15.74609375,3.609375
4061142,,,,,,,,3.484375,-7.0625,1.6328125,0.06640625,0.90625,-0.150390625,5.17578125,-14.1328125,3.9921875
4061143,,,,,,,,4.2265625,-3.22265625,1.9453125,0.037109375,0.97265625,-0.25,4.41015625,-11.3359375,3.953125
4061144,,,,,,,,1.8515625,-2.6015625,2.50390625,0.025390625,0.833984375,-0.216796875,2.53125,-11.30078125,4.52734375
4061145,,,,,,,,0.50390625,-3.859375,2.80078125,0.04296875,0.50390625,-0.044921875,1.19140625,-12.5625,4.83203125
4061146,,,,,,,,-0.4453125,-4.5078125,3.22265625,0.0546875,0.26953125,0.107421875,0.234375,-13.2109375,5.25390625
4061147,,,,,,,,-0.8046875,-4.578125,3.1328125,0.078125,-0.02734375,0.30078125,-0.1484375,-13.2890625,5.1796875
4061148,,,,,,,,-0.3984375,-3.98828125,2.1640625,0.056640625,-0.0546875,0.201171875,0.234375,-12.7109375,4.21875
4061149,,,,,,,,-0.08203125,-3.48828125,1.9296875,0.0390625,-0.01953125,0.111328125,0.54296875,-12.21484375,3.9921875
4061150,36.01306266666666,129.32011066666666,136.18481161978477,73.53004310196062,1.2000000000000002,233.0,,1.06640625,-1.8359375,1.20703125,0.111328125,0.41015625,-0.08203125,1.95703125,-14.51953125,2.265625
4061151,,,,,,,,1.5078125,-1.08984375,0.9765625,-0.1015625,-0.353515625,-0.173828125,2.1484375,-9.8359375,3.03125
4061152,,,,,,,,1.6328125,-1.0078125,0.91796875,-0.19140625,-0.470703125,-0.23046875,2.3046875,-9.76953125,2.95703125
4061153,,,,,,,,1.41796875,-1.19140625,0.81640625,-0.267578125,-0.521484375,-0.265625,2.11328125,-9.953125,2.83984375
4061154,,,,,,,,1.0703125,-1.0234375,0.57421875,-0.314453125,-0.458984375,-0.2890625,1.8046875,-9.8046875,2.57421875
4061155,,,,,,,,0.74609375,-0.46875,0.2734375,-0.357421875,-0.171875,-0.36328125,1.53515625,-9.265625,2.2265625
4061156,,,,,,,,0.48828125,-0.03125,0.0390625,-0.37890625,-0.0703125,-0.3984375,1.23046875,-8.6171875,1.8828125
4061157,,,,,,,,0.25,0.5859375,-0.19921875,-0.396484375,-0.05078125,-0.404296875,1.1171875,-8.234375,1.69140625
4061158,,,,,,,,0.140625,1.0234375,-0.46484375,-0.40625,-0.080078125,-0.369140625,1.0390625,-7.8125,1.38671875
4061159,,,,,,,,0.015625,1.5,-0.609375,-0.404296875,-0.123046875,-0.298828125,0.9609375,-7.3515625,1.1953125
4061160,36.013061666666665,129.32010983333333,136.10968932553655,73.41908269600256,1.3,229.0,,-0.09765625,2.01171875,-0.7109375,-0.412109375,-0.1171875,-0.2734375,0.88671875,-6.8515625,1.0390625
4061161,,,,,,,,-0.09765625,2.6484375,-0.73046875,-0.41015625,-0.099609375,-0.236328125,0.92578125,-6.2421875,0.96484375
4061162,,,,,,,,-0.0703125,2.8046875,-0.79296875,-0.41796875,-0.1015625,-0.21875,0.9609375,-6.0859375,0.88671875
4061163,,,,,,,,-0.015625,3.078125,-0.8671875,-0.42578125,-0.134765625,-0.19140625,1.0390625,-5.8203125,0.7734375
4061164,,,,,,,,0.19921875,3.23828125,-1.04296875,-0.43359375,-0.138671875,-0.18359375,1.26953125,-5.6640625,0.58203125
4061165,,,,,,,,0.3359375,3.41015625,-1.05078125,-0.4296875,-0.1875,-0.14453125,1.421875,-5.51171875,0.54296875
4061166,,,,,,,,0.7109375,3.33203125,-1.15625,-0.431640625,-0.228515625,-0.123046875,1.8046875,-5.5859375,0.390625
4061167,,,,,,,,0.8125,3.26171875,-1.140625,-0.431640625,-0.251953125,-0.1171875,1.921875,-5.6640625,0.390625
4061168,,,,,,,,1.0625,3.04296875,-1.1015625,-0.421875,-0.26171875,-0.123046875,2.1875,-5.890625,0.390625
4061169,,,,,,,,1.09375,2.8125,-1.1171875,-0.40625,-0.259765625,-0.1171875,2.2265625,-6.125,0.3515625
4061170,36.013061,129.32010866666667,136.00451685050314,73.34510823825079,1.3,232.0,,0.96484375,2.484375,-0.96484375,-0.412109375,-0.1171875,-0.2734375,0.88671875,-6.8515625,1.0390625
4061171,,,,,,,,0.83984375,2.296875,-0.85546875,-0.326171875,-0.177734375,-0.0859375,1.8828125,-6.73828125,0.58203125
4061172,,,,,,,,0.671875,2.11328125,-0.7109375,-0.28125,-0.1484375,-0.044921875,1.84375,-6.97265625,0.7734375
4061173,,,,,,,,0.703125,1.84765625,-0.609375,-0.212890625,-0.1328125,0.0078125,1.8828125,-7.27734375,0.6953125
4061174,,,,,,,,0.7421875,1.39453125,-0.69921875,-0.15234375,-0.12890625,0.078125,1.921875,-7.81640625,0.58203125
4061175,,,,,,,,0.82421875,0.796875,-0.79296875,-0.09375,-0.15625,0.189453125,1.99609375,-8.42578125,0.50390625
4061176,,,,,,,,0.83984375,0.22265625,-0.81640625,-0.07421875,-0.154296875,0.228515625,1.99609375,-8.76953125,0.46484375
4061177,,,,,,,,0.75,-0.15234375,-0.68359375,-0.0703125,-0.154296875,0.263671875,1.8828125,-9.15234375,0.58203125
4061178,,,,,,,,0.61328125,-0.60546875,-0.53125,-0.05859375,-0.150390625,0.3125,1.73046875,-9.61328125,0.734375
4061179,,,,,,,,0.51953125,-0.94140625,-0.29296875,-0.04296875,-0.140625,0.373046875,1.61328125,-9.95703125,0.96484375
4061180,36.01306016666667,129.32010766666664,135.91436945991816,73.25264080794001,1.3,230.0,,0.26171875,-1.546875,0.01953125,-0.037109375,-0.123046875,0.431640625,1.30859375,-10.57421875,1.26953125
4061181,,,,,,,,-0.0078125,-1.578125,0.2109375,-0.0390625,-0.125,0.482421875,1.0,-10.609375,1.4609375
4061182,,,,,,,,-0.21484375,-1.421875,0.40234375,-0.037109375,-0.1171875,0.5,0.76953125,-10.453125,1.65234375
4061183,,,,,,,,-0.08984375,-1.33984375,0.3359375,-0.046875,-0.103515625,0.51953125,0.84765625,-10.37890625,1.578125
4061184,,,,,,,,0.1015625,-1.22265625,0.11328125,-0.0625,-0.123046875,0.533203125,1.0,-10.26171875,1.34765625
4061185,,,,,,,,0.2265625,-1.19921875,-0.33984375,-0.06640625,-0.16015625,0.494140625,1.078125,-10.26171875,0.88671875
4061186,,,,,,,,0.265625,-1.58203125,-0.4453125,-0.072265625,-0.1953125,0.412109375,1.078125,-10.64453125,0.7734375
4061187,,,,,,,,0.203125,-1.73828125,-0.3984375,-0.087890625,-0.189453125,0.345703125,1.0,-10.796875,0.8125
4061188,,,,,,,,-0.1640625,-1.875,0.03125,-0.091796875,-0.138671875,0.28125,0.6171875,-10.953125,1.234375
4061189,,,,,,,,-0.22265625,-1.796875,0.22265625,-0.091796875,-0.103515625,0.26171875,0.54296875,-10.87890625,1.42578125
4061190,36.01305933333333,129.32010666666665,135.8242220728396,73.16017337766466,1.3,229.0,,-0.23046875,-1.453125,0.65625,-0.119140625,0.123046875,0.1796875,0.50390625,-10.53515625,1.84375
4061191,,,,,,,,0.2421875,-2.35546875,0.51953125,-0.1015625,0.21484375,0.14453125,0.9609375,-11.44921875,1.69140625
4061192,,,,,,,,0.48828125,-4.1171875,0.796875,-0.076171875,0.263671875,0.107421875,1.19140625,-13.2109375,1.9609375
4061193,,,,,,,,-0.0078125,-4.5703125,1.640625,-0.064453125,0.296875,0.060546875,0.6953125,-13.671875,2.8046875
4061194,,,,,,,,-1.41796875,-3.65234375,2.7109375,-0.07421875,0.376953125,-0.009765625,-0.72265625,-12.75,3.875
4061195,,,,,,,,-2.0703125,-3.8671875,2.7578125,-0.10546875,0.685546875,-0.078125,-1.375,-12.98828125,3.9140625
4061196,,,,,,,,-2.75,-2.9453125,3.6015625,-0.060546875,0.68359375,0.01953125,-2.0625,-12.0625,4.7578125
4061197,,,,,,,,-3.28125,-2.5546875,3.83203125,-0.017578125,0.486328125,0.068359375,-2.6015625,-11.68359375,4.98828125
4061198,,,,,,,,-2.23046875,-2.77734375,3.75390625,-0.03515625,0.357421875,-0.0546875,-1.56640625,-11.90625,4.91015625
4061199,,,,,,,,0.0546875,-2.76953125,3.71484375,-0.060546875,0.3671875,-0.16015625,0.734375,-11.90625,4.87109375
4061200,36.01305816666666,129.32010566666668,135.73407525522987,73.03071953351136,1.5,226.0,0.0,0.7734375,-2.81640625,3.29296875,-0.119140625,0.123046875,0.1796875,0.50390625,-10.53515625,1.84375
4061201,,,,,,,,0.91796875,-2.609375,2.84375,-0.11328125,-0.11328125,-0.2109375,1.61328125,-11.76171875,3.9921875
4061202,,,,,,,,-0.0390625,-1.796875,3.04296875,-0.0546875,-0.1640625,-0.19140625,0.6953125,-10.953125,4.18359375
4061203,,,,,,,,-0.66015625,-1.64453125,2.6953125,-0.009765625,-0.220703125,0.029296875,0.08203125,-10.80078125,3.8359375
4061204,,,,,,,,-1.2265625,-1.98046875,2.765625,0.04296875,-0.150390625,0.13671875,-0.4921875,-11.14453125,3.9140625
4061205,,,,,,,,-1.3359375,-2.2421875,2.6875,0.12890625,-0.125,0.1640625,-0.609375,-11.4140625,3.8359375
4061206,,,,,,,,-1.1640625,-1.96484375,2.359375,0.19921875,-0.10546875,0.12109375,-0.453125,-11.14453125,3.53125
4061207,,,,,,,,-0.8125,-1.19921875,1.76171875,0.271484375,-0.021484375,0.119140625,-0.109375,-10.37890625,2.95703125
4061208,,,,,,,,-0.73046875,-0.69140625,1.5390625,0.294921875,0.033203125,0.1171875,-0.03515625,-9.87890625,2.765625
4061209,,,,,,,,-0.67578125,-0.30859375,1.27734375,0.302734375,0.013671875,0.095703125,0.00390625,-9.49609375,2.53515625
4061210,36.01305716666666,129.32010466666668,135.64392814635144,72.91975889817085,1.4000000000000001,225.0,,-0.4765625,0.38671875,0.90234375,0.306640625,-0.029296875,0.09375,0.1953125,-8.8046875,2.19140625
4061211,,,,,,,,-0.23828125,0.953125,0.44921875,0.30078125,-0.04296875,0.10546875,0.42578125,-8.23828125,1.76953125
4061212,,,,,,,,-0.15234375,1.15234375,0.34765625,0.302734375,-0.04296875,0.095703125,0.50390625,-8.04296875,1.69140625
4061213,,,,,,,,0.046875,1.84375,0.078125,0.291015625,-0.056640625,0.046875,0.6953125,-7.3515625,1.4609375
4061214,,,,,,,,-0.03125,2.2265625,-0.10546875,0.30078125,-0.0703125,0.0,0.6171875,-6.97265625,1.30859375
4061215,,,,,,,,-0.13671875,2.76171875,-0.3671875,0.3046875,-0.07421875,-0.029296875,0.50390625,-6.43359375,1.078125
4061216,,,,,,,,-0.26171875,2.87890625,-0.4296875,0.31640625,-0.08203125,-0.03125,0.38671875,-6.3125,1.0390625
4061217,,,,,,,,-0.60546875,3.1171875,-0.6796875,0.337890625,-0.1015625,-0.04296875,0.04296875,-6.08984375,0.8125
4061218,,,,,,,,-0.8515625,3.19140625,-0.828125,0.345703125,-0.130859375,-0.064453125,-0.1875,-6.0078125,0.6953125
4061219,,,,,,,,-1.00390625,3.22265625,-0.8125,0.34765625,-0.154296875,-0.078125,-0.33984375,-5.97265625,0.734375
4061220,36.0130565,129.32010416666665,135.59885487591066,72.84578537441273,1.2000000000000002,223.0,,-1.40234375,3.21484375,-0.9375,0.306640625,-0.029296875,0.09375,-0.72265625,-5.97265625,0.65625
4061221,,,,,,,,-1.44921875,3.29296875,-1.00390625,0.318359375,-0.208984375,-0.103515625,-0.76171875,-5.89453125,0.62109375
4061222,,,,,,,,-1.50390625,3.1015625,-1.19140625,0.28125,-0.19921875,-0.10546875,-0.80078125,-6.08984375,0.46484375
4061223,,,,,,,,-1.55859375,2.9765625,-1.2890625,0.240234375,-0.203125,-0.111328125,-0.83984375,-6.20703125,0.390625
4061224,,,,,,,,-1.44921875,2.7109375,-1.23828125,0.197265625,-0.20703125,-0.1171875,-0.72265625,-6.46875,0.46484375
4061225,,,,,,,,-1.2734375,2.47265625,-1.13671875,0.150390625,-0.20703125,-0.130859375,-0.53125,-6.69921875,0.58203125
4061226,,,,,,,,-1.16796875,2.39453125,-1.18359375,0.119140625,-0.1953125,-0.130859375,-0.41796875,-6.77734375,0.54296875
4061227,,,,,,,,-0.9453125,2.1640625,-1.23046875,0.068359375,-0.173828125,-0.130859375,-0.1875,-7.0078125,0.50390625
4061228,,,,,,,,-0.9296875,1.96484375,-1.16015625,0.0,-0.1328125,-0.138671875,-0.1484375,-7.19921875,0.58203125
4061229,,,,,,,,-0.71484375,1.3515625,-1.12890625,-0.0234375,-0.12890625,-0.15625,0.08203125,-7.81640625,0.62109375
4061230,36.013055666666666,129.32010333333335,135.5237322843072,72.7533181798343,1.2000000000000002,224.0,,-0.69140625,0.85546875,-1.0859375,-0.033203125,-0.140625,-0.15234375,0.12109375,-8.30859375,0.65625
4061231,,,,,,,,-0.515625,0.1640625,-0.9609375,-0.029296875,-0.158203125,-0.146484375,0.3125,-9.0,0.7734375
4061232,,,,,,,,-0.5703125,-0.29296875,-0.6171875,-0.021484375,-0.1484375,-0.162109375,0.2734375,-9.453125,1.1171875
4061233,,,,,,,,-0.578125,-0.37109375,-0.5078125,-0.015625,-0.134765625,-0.173828125,0.2734375,-9.53125,1.234375
4061234,,,,,,,,-0.85546875,-0.45703125,-0.38671875,-0.009765625,-0.10546875,-0.19140625,0.00390625,-9.609375,1.34765625
4061235,,,,,,,,-1.0703125,-0.5703125,-0.42578125,0.0,-0.07421875,-0.19140625,-0.1875,-9.73046875,1.30859375
4061236,,,,,,,,-1.0859375,-1.03125,-0.65625,0.01171875,-0.080078125,-0.16015625,-0.1875,-10.19140625,1.078125
4061237,,,,,,,,-0.7578125,-1.3359375,-0.6640625,0.0390625,-0.138671875,-0.111328125,0.15625,-10.4921875,1.078125
4061238,,,,,,,,-0.57421875,-1.375,-0.5859375,0.041015625,-0.154296875,-0.103515625,0.34765625,-10.53515625,1.15625
4061239,,,,,,,,-0.2421875,-1.53515625,-0.703125,0.052734375,-0.154296875,-0.1015625,0.6953125,-10.6796875,1.0390625
4061240,36.01305483333333,129.3201025,135.4486096872656,72.66085098497506,1.3,226.0,,-0.12890625,-1.796875,-0.625,-0.033203125,-0.140625,-0.15234375,0.12109375,-8.30859375,0.65625
4061241,,,,,,,,0.0078125,-1.91015625,-0.59375,0.05859375,-0.04296875,-0.138671875,0.9609375,-11.0625,1.15625
4061242,,,,,,,,0.26171875,-1.4140625,-0.6484375,0.072265625,0.013671875,-0.0859375,1.23046875,-10.5703125,1.1171875
4061243,,,,,,,,0.18359375,-1.15234375,-0.609375,0.078125,0.037109375,-0.060546875,1.15234375,-10.30078125,1.15625
4061244,,,,,,,,-0.359375,-0.42578125,-0.76953125,0.08984375,0.091796875,-0.0234375,0.6171875,-9.5703125,1.00390625
4061245,,,,,,,,-1.078125,-0.15625,-0.51953125,0.11328125,0.125,0.013671875,-0.109375,-9.30859375,1.26953125
4061246,,,,,,,,-1.484375,-1.11328125,-0.734375,0.158203125,0.138671875,0.095703125,-0.53125,-10.26171875,1.078125
4061247,,,,,,,,-1.046875,-2.875,-0.43359375,0.181640625,0.169921875,0.1484375,-0.109375,-12.02734375,1.38671875
4061248,,,,,,,,-0.80859375,-3.4140625,-0.01953125,0.185546875,0.21484375,0.14453125,0.12109375,-12.56640625,1.80859375
4061249,,,,,,,,-0.2890625,-4.02734375,1.09765625,0.201171875,0.33984375,0.087890625,0.6171875,-13.171875,2.95703125
4061250,36.01305416666666,129.32010116666666,135.32841239400284,72.58687630384362,1.4000000000000001,230.0,,2.0625,-4.80078125,1.52734375,0.1875,0.70703125,-0.12890625,2.953125,-13.9375,3.41796875
4061251,,,,,,,,3.359375,-3.375,1.6953125,0.150390625,0.8828125,-0.267578125,4.2578125,-12.52734375,3.609375
4061252,,,,,,,,3.58203125,-2.6171875,2.16796875,0.10546875,0.794921875,-0.3125,4.48828125,-11.76171875,4.10546875
4061253,,,,,,,,2.98828125,-2.8828125,3.1484375,0.087890625,0.69921875,-0.279296875,3.91015625,-12.02734375,5.1015625
4061254,,,,,,,,1.2265625,-3.734375,4.16796875,0.107421875,0.5390625,-0.140625,2.1484375,-12.87109375,6.13671875
4061255,,,,,,,,-0.37109375,-4.68359375,3.65234375,0.15625,0.228515625,0.080078125,0.54296875,-13.82421875,5.63671875
4061256,,,,,,,,-0.44921875,-4.83984375,3.30078125,0.1875,0.16015625,0.11328125,0.46484375,-13.98046875,5.29296875
4061257,,,,,,,,0.140625,-4.37890625,2.359375,0.240234375,0.087890625,0.0546875,1.0390625,-13.51953125,4.375
4061258,,,,,,,,1.13671875,-2.8828125,2.01953125,0.27734375,-0.158203125,-0.02734375,2.03515625,-12.02734375,4.06640625
4061259,,,,,,,,1.50390625,-2.234375,1.9296875,0.236328125,-0.330078125,-0.146484375,2.41796875,-11.37890625,3.9921875
4061260,36.0130535,129.32009966666666,135.1931902938707,72.51290139380407,1.5,233.0,,1.375,-1.54296875,1.71484375,0.1875,0.70703125,-0.12890625,2.3046875,-10.68359375,3.80078125
4061261,,,,,,,,0.875,-1.50390625,1.55078125,0.017578125,-0.58984375,-0.041015625,1.84375,-10.640625,3.64453125
4061262,,,,,,,,0.71484375,-1.56640625,1.33203125,-0.087890625,-0.607421875,0.03125,1.69140625,-10.72265625,3.41796875
4061263,,,,,,,,0.62890625,-1.296875,1.03125,-0.12890625,-0.5390625,0.060546875,1.61328125,-10.45703125,3.109375
4061264,,,,,,,,0.5078125,-0.9453125,0.85546875,-0.19921875,-0.326171875,0.07421875,1.34375,-9.83984375,2.765625
4061265,,,,,,,,0.015625,-0.1328125,0.41015625,-0.208984375,-0.232421875,0.0,0.88671875,-9.0703125,2.34375
4061266,,,,,,,,-0.2578125,0.37890625,0.09765625,-0.212890625,-0.220703125,-0.037109375,0.578125,-8.421875,1.9609375
4061267,,,,,,,,-0.421875,0.9609375,-0.0703125,-0.228515625,-0.244140625,-0.005859375,0.578125,-8.12109375,1.8828125
4061268,,,,,,,,-0.4296875,1.078125,-0.1015625,-0.23828125,-0.255859375,0.01171875,0.578125,-7.8125,1.73046875
4061269,,,,,,,,-0.390625,1.546875,-0.27734375,-0.259765625,-0.23828125,0.01171875,0.6953125,-7.5,1.69140625
4061270,36.01305266666667,129.32009866666667,135.10304289176446,72.42043397117726,1.3,232.0,,-0.359375,1.8671875,-0.21484375,-0.283203125,-0.203125,0.00390625,0.6953125,-7.05078125,1.5390625
4061271,,,,,,,,-0.328125,2.36328125,-0.4140625,-0.318359375,-0.1796875,0.013671875,0.6953125,-6.625,1.4609375
4061272,,,,,,,,-0.16796875,2.9921875,-0.57421875,-0.34765625,-0.162109375,0.05859375,0.9609375,-6.0859375,1.1953125
4061273,,,,,,,,0.0234375,3.31640625,-0.7734375,-0.3671875,-0.1640625,0.109375,1.15234375,-5.86328125,1.0390625
4061274,,,,,,,,0.453125,3.36328125,-0.84765625,-0.369140625,-0.166015625,0.146484375,1.4609375,-5.89453125,0.96484375
4061275,,,,,,,,0.66015625,3.484375,-0.82421875,-0.35546875,-0.16796875,0.138671875,1.65234375,-5.78125,0.96484375
4061276,,,,,,,,0.66015625,3.5703125,-0.76953125,-0.33984375,-0.154296875,0.130859375,1.65234375,-5.703125,1.00390625
4061277,,,,,,,,0.78125,3.421875,-0.625,-0.310546875,-0.1171875,0.1015625,1.765625,-5.859375,1.1171875
4061278,,,,,,,,0.71484375,3.1640625,-0.59375,-0.2734375,-0.083984375,0.1171875,1.69140625,-6.125,1.1171875
4061279,,,,,,,,0.65234375,3.09375,-0.609375,-0.232421875,-0.072265625,0.12890625,1.61328125,-6.20703125,1.078125
4061280,36.013052,129.32009783333334,135.027920004703,72.34645998797743,1.2000000000000002,230.0,,-0.359375,1.8671875,-0.21484375,-0.20703125,-0.107421875,0.14453125,0.6953125,-7.05078125,1.5390625
4061281,,,,,,,,0.58984375,3.0703125,-0.72265625,-0.17578125,-0.154296875,0.15234375,1.53515625,-6.24609375,0.92578125
4061282,,,,,,,,0.5234375,3.0703125,-0.70703125,-0.138671875,-0.189453125,0.15234375,1.4609375,-6.24609375,0.92578125
4061283,,,,,,,,0.61328125,2.8125,-0.76953125,-0.10546875,-0.21484375,0.169921875,1.53515625,-6.5078125,0.84765625
4061284,,,,,,,,0.69921875,2.54296875,-0.796875,-0.0703125,-0.2421875,0.21875,1.61328125,-6.77734375,0.8125
4061285,,,,,,,,0.75390625,2.16015625,-0.90625,-0.052734375,-0.251953125,0.263671875,1.65234375,-7.16015625,0.6953125
4061286,,,,,,,,0.5546875,1.59375,-0.78125,-0.044921875,-0.23828125,0.291015625,1.421875,-7.734375,0.8125
4061287,,,,,,,,0.34765625,0.90234375,-0.58203125,-0.03125,-0.22265625,0.3203125,1.19140625,-8.421875,1.00390625
4061288,,,,,,,,0.37890625,0.40625,-0.34375,-0.03125,-0.21875,0.359375,1.19140625,-8.92578125,1.234375
4061289,,,,,,,,0.51953125,-0.62890625,0.07421875,-0.02734375,-0.189453125,0.41015625,1.30859375,-9.953125,1.65234375
4061290,36.01305133333334,129.32009666666667,134.92274750770096,72.27248554407065,1.3,230.0,,0.55859375,-0.96484375,0.23046875,-0.025390625,-0.166015625,0.443359375,1.30859375,-10.30078125,1.80859375
4061291,,,,,,,,0.44140625,-1.15625,0.45703125,-0.025390625,-0.154296875,0.45703125,1.15234375,-10.4921875,2.03515625
4061292,,,,,,,,0.25390625,-1.1875,0.62109375,-0.033203125,-0.1328125,0.443359375,0.92578125,-10.53515625,2.19140625
4061293,,,,,,,,-0.046875,-1.2265625,0.62890625,-0.04296875,-0.146484375,0.44140625,0.578125,-10.5703125,2.19140625
4061294,,,,,,,,-0.06640625,-1.2265625,0.55078125,-0.04296875,-0.15625,0.447265625,0.54296875,-10.5703125,2.11328125
4061295,,,,,,,,0.0078125,-1.44921875,0.16796875,-0.044921875,-0.1953125,0.4296875,0.578125,-10.796875,1.73046875
4061296,,,,,,,,-0.13671875,-1.82421875,0.21484375,-0.072265625,-0.19921875,0.220703125,0.38671875,-11.1796875,1.76953125
4061297,,,,,,,,-0.28125,-1.74609375,0.48828125,-0.076171875,-0.181640625,0.15625,0.234375,-11.1015625,2.03515625
4061298,,,,,,,,-0.2734375,-1.4765625,0.61328125,-0.10546875,-0.1171875,0.056640625,0.234375,-10.8359375,2.15234375
4061299,,,,,,,,-0.234375,-1.28515625,0.62109375,-0.1171875,-0.0703125,0.01171875,0.2734375,-10.64453125,2.15234375
4061300,36.0130505,129.32009566666665,134.83260009573752,72.18001812426179,1.3,230.0,0.0,0.41796875,-0.3671875,0.29296875,-0.1328125,0.083984375,-0.0546875,1.30859375,-10.30078125,1.80859375
4061301,,,,,,,,0.79296875,-0.3203125,0.53515625,-0.1328125,0.140625,-0.103515625,1.30859375,-9.69140625,2.03515625
4061302,,,,,,,,1.28125,-2.3125,0.46875,-0.142578125,0.173828125,-0.173828125,1.8046875,-11.6796875,1.9609375
4061303,,,,,,,,0.34765625,-3.38671875,1.203125,-0.140625,0.279296875,-0.2421875,0.88671875,-12.75,2.6875
4061304,,,,,,,,-0.98046875,-1.73046875,2.0546875,-0.115234375,0.43359375,-0.244140625,-0.41796875,-11.10546875,3.53125
4061305,,,,,,,,-1.609375,-0.96484375,2.71484375,-0.111328125,0.689453125,-0.28125,-1.03125,-10.3359375,4.18359375
4061306,,,,,,,,-1.8515625,-1.38671875,2.796875,-0.107421875,0.939453125,-0.3203125,-1.2578125,-10.7578125,4.2578125
4061307,,,,,,,,-1.36328125,-2.6484375,2.64453125,-0.03515625,0.859375,-0.12890625,-0.76171875,-12.02734375,4.10546875
4061308,,,,,,,,-1.40234375,-2.94921875,2.90625,-0.03515625,0.59765625,0.0390625,-0.80078125,-12.33203125,4.375
4061309,,,,,,,,-1.26953125,-3.37109375,3.40234375,-0.064453125,0.599609375,-0.060546875,-0.68359375,-12.75390625,4.87109375
4061310,36.01304966666667,129.32009433333332,134.71240307386776,72.0875502451223,1.4000000000000001,230.0,,-0.7421875,-3.484375,3.671875,-0.1328125,0.083984375,-0.0546875,1.30859375,-10.30078125,1.80859375
4061311,,,,,,,,0.046875,-3.24609375,3.87109375,-0.09765625,0.52734375,-0.169921875,0.65625,-12.6328125,5.33203125
4061312,,,,,,,,0.31640625,-2.40625,2.7578125,-0.072265625,0.25390625,-0.021484375,0.92578125,-11.796875,4.21875
4061313,,,,,,,,0.24609375,-2.13671875,2.64453125,-0.0546875,0.189453125,-0.0078125,0.84765625,-11.5234375,4.10546875
4061314,,,,,,,,-0.05859375,-1.4375,2.375,0.005859375,0.0078125,0.06640625,0.54296875,-10.8359375,3.8359375
4061315,,,,,,,,-0.3984375,-1.36328125,2.0234375,0.05859375,-0.150390625,0.134765625,0.1953125,-10.7578125,3.4921875
4061316,,,,,,,,-0.50390625,-1.27734375,1.93359375,0.12109375,-0.189453125,0.107421875,0.08203125,-10.6796875,3.41796875
4061317,,,,,,,,-0.3046875,-1.0859375,1.83203125,0.23828125,-0.177734375,0.123046875,0.2734375,-10.4921875,3.33984375
4061318,,,,,,,,-0.18359375,-0.8125,1.43359375,0.26171875,-0.169921875,0.130859375,0.38671875,-10.2265625,2.95703125
4061319,,,,,,,,-0.01953125,-0.51171875,1.1015625,0.302734375,-0.09375,0.140625,0.54296875,-9.9140625,2.6484375
4061320,36.01304883333333,129.3200935,134.63728046920247,71.99508305755407,1.3,228.0,,0.1484375,0.18359375,0.796875,-0.1328125,0.083984375,-0.0546875,0.6953125,-9.2265625,2.3828125
4061321,,,,,,,,0.34765625,0.8671875,0.3828125,0.322265625,-0.03125,0.13671875,0.88671875,-8.5390625,2.0
4061322,,,,,,,,0.484375,1.44140625,0.05859375,0.322265625,0.013671875,0.154296875,1.0,-7.96484375,1.73046875
4061323,,,,,,,,0.53125,1.82421875,-0.109375,0.328125,0.01953125,0.15625,1.0390625,-7.578125,1.578125
4061324,,,,,,,,0.43359375,2.27734375,-0.37890625,0.3359375,0.021484375,0.16796875,0.92578125,-7.12109375,1.34765625
4061325,,,,,,,,0.2578125,2.54296875,-0.609375,0.349609375,0.033203125,0.158203125,0.734375,-6.85546875,1.15625
4061326,,,,,,,,0.125,2.69140625,-0.703125,0.37109375,0.041015625,0.162109375,0.578125,-6.69921875,1.1171875
4061327,,,,,,,,-0.1640625,2.796875,-0.88671875,0.37890625,0.0390625,0.1640625,0.2734375,-6.5859375,0.96484375
4061328,,,,,,,,-0.33984375,2.8359375,-0.97265625,0.384765625,0.0390625,0.154296875,0.08203125,-6.55078125,0.92578125
4061329,,,,,,,,-0.66796875,2.7890625,-1.1640625,0.375,0.02734375,0.14453125,-0.26171875,-6.58984375,0.7734375
4061330,36.013048166666664,129.32009250000002,134.5471327697718,71.92110884755859,1.3,226.0,,-0.875,2.58984375,-1.13671875,-0.1328125,0.083984375,-0.0546875,-0.4921875,-6.7734375,0.84765625
4061331,,,,,,,,-1.01953125,2.58203125,-1.14453125,0.3359375,-0.01953125,0.142578125,-0.64453125,-6.7734375,0.88671875
4061332,,,,,,,,-1.00390625,2.4609375,-1.16015625,0.322265625,-0.03515625,0.130859375,-0.64453125,-6.890625,0.88671875
4061333,,,,,,,,-1.16015625,2.3046875,-1.18359375,0.283203125,-0.052734375,0.119140625,-0.80078125,-7.046875,0.88671875
4061334,,,,,,,,-1.15234375,2.26171875,-1.2734375,0.265625,-0.068359375,0.11328125,-0.80078125,-7.078125,0.8125
4061335,,,,,,,,-1.13671875,2.22265625,-1.328125,0.2265625,-0.119140625,0.107421875,-0.80078125,-7.12109375,0.7734375
4061336,,,,,,,,-1.16796875,2.09765625,-1.4453125,0.16015625,-0.18359375,0.087890625,-0.83984375,-7.23828125,0.6953125
4061337,,,,,,,,-1.08984375,2.0625,-1.453125,0.140625,-0.201171875,0.068359375,-0.76171875,-7.27734375,0.6953125
4061338,,,,,,,,-0.9375,1.9375,-1.3828125,0.1015625,-0.251953125,0.029296875,-0.609375,-7.39453125,0.7734375
4061339,,,,,,,,-0.8984375,1.86328125,-1.46875,0.087890625,-0.271484375,0.001953125,-0.5703125,-7.46484375,0.6953125
4061340,36.0130475,129.32009166666666,134.47200987180668,71.84713486982679,1.2000000000000002,226.0,,-0.59765625,1.40234375,-1.4765625,-0.1328125,0.083984375,-0.0546875,-0.4921875,-6.7734375,0.84765625
4061341,,,,,,,,-0.5390625,1.05859375,-1.32421875,0.029296875,-0.314453125,-0.05859375,-0.1875,-8.26953125,0.84765625
4061342,,,,,,,,-0.31640625,0.484375,-1.140625,0.009765625,-0.322265625,-0.115234375,0.04296875,-8.84375,1.0390625
4061343,,,,,,,,-0.1875,-0.1015625,-0.953125,0.00390625,-0.306640625,-0.162109375,0.1953125,-9.42578125,1.234375
4061344,,,,,,,,-0.27734375,-0.4140625,-0.75390625,-0.01171875,-0.28125,-0.185546875,0.12109375,-9.7265625,1.42578125
4061345,,,,,,,,-0.31640625,-0.453125,-0.71875,-0.00390625,-0.275390625,-0.23046875,0.12109375,-9.76953125,1.4609375
4061346,,,,,,,,-0.2890625,-0.453125,-0.79296875,0.021484375,-0.263671875,-0.259765625,0.1953125,-9.765625,1.38671875
4061347,,,,,,,,0.0703125,-0.72265625,-0.75390625,0.03125,-0.2734375,-0.265625,0.578125,-10.03125,1.42578125
4061348,,,,,,,,0.34765625,-0.72265625,-0.71875,0.04296875,-0.28515625,-0.255859375,0.88671875,-10.03515625,1.4609375
4061349,,,,,,,,0.4375,-0.84375,-0.83203125,0.046875,-0.267578125,-0.25390625,1.0,-10.15234375,1.34765625
4061350,36.013047,129.32009066666666,134.38186188690565,71.79165386837474,1.1,231.0,,0.69921875,-1.04296875,-0.83984375,0.0703125,-0.166015625,-0.267578125,1.30859375,-10.33984375,1.34765625
4061351,,,,,,,,0.98046875,-0.9296875,-0.80859375,0.083984375,-0.099609375,-0.248046875,1.61328125,-10.2265625,1.38671875
4061352,,,,,,,,0.99609375,-0.62890625,-0.85546875,0.09375,-0.015625,-0.21875,1.65234375,-9.91796875,1.34765625
4061353,,,,,,,,0.7890625,-0.24609375,-0.79296875,0.11328125,0.087890625,-0.197265625,1.4609375,-9.53125,1.42578125
4061354,,,,,,,,0.2734375,0.3203125,-0.83984375,0.146484375,0.177734375,-0.158203125,0.734375,-8.921875,1.4609375
4061355,,,,,,,,-0.1171875,0.359375,-0.7421875,0.154296875,0.248046875,-0.107421875,0.2734375,-9.57421875,1.4609375
4061356,,,,,,,,-0.4296875,-0.29296875,-0.7890625,0.162109375,0.271484375,-0.083984375,0.3125,-10.296875,1.30859375
4061357,,,,,,,,-0.35546875,-1.79296875,-0.91796875,0.158203125,0.34765625,-0.060546875,0.54296875,-11.71875,1.73046875
4061358,,,,,,,,0.60546875,-3.36328125,0.7890625,0.140625,0.462890625,-0.0625,1.8046875,-12.98828125,3.609375
4061359,,,,,,,,2.18359375,-4.75,1.50390625,0.103515625,0.646484375,-0.09765625,2.87890625,-14.01953125,3.80078125
4061360,36.013046333333335,129.32008933333333,134.26166457255945,71.71767920210038,1.3,236.0,,4.05859375,-5.25,1.984375,0.072265625,0.888671875,-0.181640625,4.75390625,-14.51953125,4.296875
4061361,,,,,,,,4.52734375,-4.453125,2.46875,0.056640625,0.94921875,-0.26171875,5.21484375,-13.7109375,4.796875
4061362,,,,,,,,3.9140625,-3.6484375,2.57421875,0.056640625,0.919921875,-0.28515625,4.6015625,-12.91015625,4.91015625
4061363,,,,,,,,2.796875,-3.1953125,2.796875,0.078125,0.8671875,-0.23046875,3.4921875,-12.44921875,5.140625
4061364,,,,,,,,0.91796875,-3.6484375,2.84765625,0.12109375,0.63671875,-0.09375,1.61328125,-12.90625,5.21484375
4061365,,,,,,,,-0.33984375,-4.4609375,3.140625,0.140625,0.244140625,0.0390625,0.34765625,-13.7109375,5.5234375
4061366,,,,,,,,-0.4921875,-4.61328125,3.0546875,0.14453125,0.099609375,0.064453125,0.1953125,-13.859375,5.4453125
4061367,,,,,,,,0.19921875,-3.6953125,2.11328125,0.1328125,-0.181640625,-0.025390625,0.88671875,-12.9453125,4.52734375
4061368,,,,,,,,0.83984375,-2.1640625,1.5703125,0.068359375,-0.294921875,-0.103515625,1.53515625,-11.41796875,3.9921875
4061369,,,,,,,,1.09375,-1.38671875,1.21484375,0.01171875,-0.369140625,-0.138671875,1.8046875,-10.64453125,3.64453125
4061370,36.01304583333333,129.320088,134.1414669735286,71.66219774439053,1.3,238.0,,0.90234375,-0.62109375,0.80859375,0.072265625,0.888671875,-0.181640625,4.75390625,-14.51953125,4.296875
4061371,,,,,,,,0.5546875,-0.30859375,0.6796875,-0.232421875,-0.654296875,-0.25,1.34375,-9.57421875,3.0703125
4061372,,,,,,,,0.48046875,-0.1484375,0.17578125,-0.306640625,-0.63671875,-0.236328125,1.30859375,-9.421875,2.53515625
4061373,,,,,,,,0.44921875,-0.140625,0.10546875,-0.330078125,-0.583984375,-0.2421875,1.30859375,-9.421875,2.45703125
4061374,,,,,,,,0.28515625,0.17578125,0.0859375,-0.37109375,-0.388671875,-0.326171875,1.19140625,-9.11328125,2.3828125
4061375,,,,,,,,0.0859375,0.91796875,-0.15234375,-0.404296875,-0.25,-0.40625,1.0390625,-8.38671875,2.11328125
4061376,,,,,,,,-0.0390625,1.33984375,-0.3359375,-0.419921875,-0.16796875,-0.43359375,0.9609375,-7.9609375,1.8828125
4061377,,,,,,,,-0.046875,1.8828125,-0.52734375,-0.44140625,-0.12109375,-0.4140625,1.0,-7.4296875,1.65234375
4061378,,,,,,,,0.015625,2.19921875,-0.65625,-0.4453125,-0.111328125,-0.396484375,1.078125,-7.1171875,1.5
4061379,,,,,,,,-0.0078125,2.48046875,-0.67578125,-0.462890625,-0.12109375,-0.37109375,1.1171875,-6.85546875,1.42578125
4061380,36.013045000000005,129.320087,134.05131955112458,71.56973033400521,1.3,235.0,,0.11328125,2.8359375,-0.8203125,0.072265625,0.888671875,-0.181640625,1.26953125,-6.51171875,1.234375
4061381,,,,,,,,0.3125,3.2265625,-0.9296875,-0.490234375,-0.078125,-0.298828125,1.5,-6.12890625,1.078125
4061382,,,,,,,,0.43359375,3.38671875,-0.8828125,-0.4921875,-0.060546875,-0.26171875,1.65234375,-5.97265625,1.078125
4061383,,,,,,,,0.5234375,3.546875,-0.91015625,-0.484375,-0.048828125,-0.22265625,1.765625,-5.8203125,1.00390625
4061384,,,,,,,,0.65625,3.5078125,-0.98828125,-0.46484375,-0.052734375,-0.1953125,1.921875,-5.86328125,0.88671875
4061385,,,,,,,,0.71484375,3.44140625,-1.0625,-0.4453125,-0.06640625,-0.15234375,1.99609375,-5.9296875,0.7734375
4061386,,,,,,,,0.73828125,3.10546875,-1.09375,-0.416015625,-0.087890625,-0.119140625,2.03515625,-6.27734375,0.6953125
4061387,,,,,,,,0.76171875,2.65234375,-0.9765625,-0.384765625,-0.11328125,-0.09375,2.07421875,-6.73828125,0.7734375
4061388,,,,,,,,0.59375,2.46875,-0.87109375,-0.34765625,-0.126953125,-0.08984375,1.921875,-6.9296875,0.84765625
4061389,,,,,,,,0.39453125,2.31640625,-0.6484375,-0.3203125,-0.126953125,-0.08203125,1.73046875,-7.08203125,1.0390625
4061390,36.0130445,129.320086,133.96117156078887,71.51424933729369,1.2000000000000002,234.0,,0.30078125,2.24609375,-0.5703125,0.072265625,0.888671875,-0.181640625,1.65234375,-7.15625,1.078125
4061391,,,,,,,,0.33203125,2.16015625,-0.59375,-0.23828125,-0.1484375,-0.001953125,1.69140625,-7.23828125,1.0390625
4061392,,,,,,,,0.29296875,1.9765625,-0.72265625,-0.20703125,-0.181640625,0.078125,1.65234375,-7.43359375,0.88671875
4061393,,,,,,,,0.30859375,1.1796875,-0.7578125,-0.15625,-0.26953125,0.158203125,1.65234375,-8.234375,0.8125
4061394,,,,,,,,0.19921875,0.875,-0.63671875,-0.14453125,-0.275390625,0.166015625,1.53515625,-8.54296875,0.92578125
4061395,,,,,,,,0.0625,0.375,-0.3515625,-0.12890625,-0.26953125,0.193359375,1.3828125,-9.0390625,1.1953125
4061396,,,,,,,,-0.00390625,-0.0078125,-0.18359375,-0.11328125,-0.236328125,0.224609375,1.30859375,-9.42578125,1.34765625
4061397,,,,,,,,0.00390625,-0.15234375,-0.12890625,-0.103515625,-0.216796875,0.236328125,1.30859375,-9.5703125,1.38671875
4061398,,,,,,,,0.02734375,-0.61328125,-0.08203125,-0.087890625,-0.17578125,0.23828125,1.30859375,-10.03125,1.42578125
4061399,,,,,,,,-0.00390625,-0.6796875,0.0,-0.08203125,-0.169921875,0.2421875,1.26953125,-10.109375,1.5
4061400,36.01304366666667,129.32008499999998,133.87102412976972,71.42178192742699,1.3,230.0,0.0,-0.1796875,-0.796875,0.19921875,0.072265625,0.888671875,-0.181640625,1.65234375,-7.15625,1.078125
4061401,,,,,,,,-0.2734375,-0.75,0.32421875,-0.064453125,-0.1484375,0.212890625,0.9609375,-10.19140625,1.80859375
4061402,,,,,,,,-0.30078125,-0.71875,0.29296875,-0.060546875,-0.150390625,0.201171875,0.92578125,-10.1484375,1.76953125
4061403,,,,,,,,-0.39453125,-0.75,-0.0078125,-0.064453125,-0.154296875,0.18359375,0.80859375,-10.19140625,1.4609375
4061404,,,,,,,,-0.453125,-0.98046875,-0.07421875,-0.05859375,-0.140625,0.158203125,0.734375,-10.41796875,1.38671875
4061405,,,,,,,,-0.5625,-1.32421875,0.19921875,-0.05859375,-0.12109375,0.126953125,0.6171875,-10.7578125,1.65234375
4061406,,,,,,,,-0.5546875,-1.27734375,0.28515625,-0.068359375,-0.09375,0.107421875,0.6171875,-10.72265625,1.73046875
4061407,,,,,,,,-0.59375,-0.89453125,0.67578125,-0.076171875,-0.0078125,0.0625,0.578125,-10.3359375,2.11328125
4061408,,,,,,,,-0.35546875,-0.08203125,0.5625,-0.083984375,0.095703125,0.009765625,0.80859375,-9.53125,2.0
4061409,,,,,,,,-0.01953125,0.33203125,0.33203125,-0.068359375,0.185546875,-0.0703125,1.15234375,-9.109375,1.76953125
4061410,36.01304283333333,129.32008366666665,133.75082708783208,71.32931406150279,1.4000000000000001,230.0,,0.80859375,-1.1640625,-0.00390625,-0.04296875,0.2265625,-0.18359375,1.99609375,-10.609375,1.42578125
4061411,,,,,,,,0.79296875,-2.3125,0.33984375,-0.033203125,0.228515625,-0.2265625,1.99609375,-11.7578125,1.76953125
4061412,,,,,,,,-0.41796875,-2.3203125,1.7265625,-0.01953125,0.341796875,-0.255859375,0.80859375,-11.76171875,3.1484375
4061413,,,,,,,,-1.50390625,-1.24609375,2.59765625,-0.02734375,0.568359375,-0.267578125,-0.26171875,-10.6796875,4.02734375
4061414,,,,,,,,-1.75,-1.71484375,2.4375,-0.03125,0.880859375,-0.267578125,-0.4921875,-11.14453125,3.875
4061415,,,,,,,,-1.4921875,-3.515625,2.1171875,0.013671875,0.962890625,-0.17578125,-0.2265625,-12.9453125,3.5703125
4061416,,,,,,,,-1.40625,-4.39453125,2.18359375,0.03515625,0.900390625,-0.13671875,-0.1484375,-13.82421875,3.64453125
4061417,,,,,,,,-2.25,-5.0078125,3.7109375,0.048828125,0.654296875,-0.0859375,-0.9921875,-14.4375,5.1796875
4061418,,,,,,,,-2.640625,-3.70703125,4.3828125,0.0078125,0.66015625,-0.1953125,-1.375,-13.1328125,5.8671875
4061419,,,,,,,,-1.8046875,-2.86328125,3.6484375,-0.0234375,0.787109375,-0.224609375,-0.53125,-12.2890625,5.140625
4061420,36.013042000000006,129.32008266666665,133.6606796557013,71.23684665429482,1.4000000000000001,228.0,,-0.05078125,-2.2890625,3.25,-0.04296875,0.2265625,-0.18359375,1.23046875,-11.71875,4.7578125
4061421,,,,,,,,0.1484375,-2.17578125,2.828125,-0.064453125,0.234375,0.00390625,1.421875,-11.6015625,4.3359375
4061422,,,,,,,,-0.35546875,-2.01953125,2.52734375,-0.05078125,-0.134765625,-0.064453125,0.92578125,-11.44921875,4.02734375
4061423,,,,,,,,-0.78515625,-1.9765625,2.56640625,-0.0234375,-0.201171875,-0.017578125,0.50390625,-11.41796875,4.06640625
4061424,,,,,,,,-1.3515625,-1.66796875,2.22265625,0.01953125,-0.2109375,0.1171875,-0.0703125,-11.1015625,3.72265625
4061425,,,,,,,,-1.0703125,-0.88671875,1.74609375,0.099609375,-0.1484375,0.212890625,0.1953125,-10.33984375,3.26171875
4061426,,,,,,,,-0.83984375,-0.65625,1.37890625,0.21875,-0.12109375,0.220703125,0.38671875,-10.11328125,2.91796875
4061427,,,,,,,,-0.66796875,-0.3515625,1.01171875,0.271484375,-0.10546875,0.185546875,0.54296875,-9.8046875,2.57421875
4061428,,,,,,,,-0.625,0.1484375,0.671875,0.310546875,-0.078125,0.146484375,0.578125,-9.30859375,2.265625
4061429,,,,,,,,-0.609375,0.76171875,0.44921875,0.33203125,-0.037109375,0.15625,0.578125,-8.6875,2.07421875
4061430,36.013041,129.32008166666668,133.57053250717775,71.12588604029743,1.4000000000000001,224.0,,-0.546875,1.3359375,0.21875,-0.04296875,0.2265625,-0.18359375,0.6171875,-8.12109375,1.8828125
4061431,,,,,,,,-0.40625,1.86328125,-0.01953125,0.3359375,0.03515625,0.208984375,0.734375,-7.58203125,1.69140625
4061432,,,,,,,,-0.421875,2.1796875,-0.2109375,0.341796875,0.01171875,0.21875,0.6953125,-7.27734375,1.5390625
4061433,,,,,,,,-0.3984375,2.3984375,-0.35546875,0.345703125,-0.017578125,0.21875,0.6953125,-7.05078125,1.42578125
4061434,,,,,,,,-0.453125,2.78125,-0.47265625,0.353515625,-0.033203125,0.185546875,0.6171875,-6.6640625,1.34765625
4061435,,,,,,,,-0.78125,2.890625,-0.6171875,0.369140625,-0.064453125,0.16796875,0.2734375,-6.546875,1.234375
4061436,,,,,,,,-1.1875,2.890625,-0.7734375,0.37890625,-0.08203125,0.15625,-0.1484375,-6.55078125,1.1171875
4061437,,,,,,,,-1.44921875,2.8828125,-0.7734375,0.375,-0.107421875,0.142578125,-0.41796875,-6.546875,1.15625
4061438,,,,,,,,-1.59375,2.875,-0.796875,0.375,-0.123046875,0.1328125,-0.5703125,-6.546875,1.15625
4061439,,,,,,,,-1.69140625,2.9140625,-0.953125,0.365234375,-0.15234375,0.12109375,-0.68359375,-6.5078125,1.0390625
4061440,36.01304016666666,129.320081,133.51043468243148,71.03341909175111,1.2000000000000002,223.0,,-1.921875,2.8671875,-1.17578125,-0.04296875,0.2265625,-0.18359375,0.6171875,-8.12109375,1.8828125
4061441,,,,,,,,-1.9453125,2.8984375,-1.19921875,0.302734375,-0.19140625,0.123046875,-0.953125,-6.51171875,0.84765625
4061442,,,,,,,,-1.859375,2.9375,-1.265625,0.255859375,-0.21875,0.111328125,-0.875,-6.47265625,0.8125
4061443,,,,,,,,-1.859375,2.7421875,-1.4453125,0.197265625,-0.232421875,0.1015625,-0.875,-6.6640625,0.65625
4061444,,,,,,,,-1.80859375,2.58203125,-1.375,0.130859375,-0.236328125,0.10546875,-0.83984375,-6.81640625,0.734375
4061445,,,,,,,,-1.65234375,2.30859375,-1.27734375,0.076171875,-0.232421875,0.08984375,-0.68359375,-7.078125,0.84765625
4061446,,,,,,,,-1.4921875,1.92578125,-1.28515625,0.025390625,-0.208984375,0.046875,-0.53125,-7.4609375,0.84765625
4061447,,,,,,,,-1.26171875,1.578125,-1.19921875,-0.013671875,-0.1640625,-0.01171875,-0.30078125,-7.8125,0.92578125
4061448,,,,,,,,-1.078125,1.2265625,-1.12109375,-0.0390625,-0.138671875,-0.087890625,-0.109375,-8.16015625,1.00390625
4061449,,,,,,,,-0.91015625,0.890625,-1.11328125,-0.052734375,-0.12890625,-0.1796875,0.08203125,-8.50390625,1.00390625
4061450,36.01303933333334,129.32007983333332,133.40526243773587,70.94095145852673,1.3,225.0,,-0.6875,0.421875,-0.953125,-0.04296875,0.2265625,-0.18359375,0.3125,-8.9609375,1.15625
4061451,,,,,,,,-0.64453125,0.19140625,-0.75390625,-0.05859375,-0.12890625,-0.255859375,0.38671875,-9.19140625,1.34765625
4061452,,,,,,,,-0.66796875,-0.0078125,-0.640625,-0.05078125,-0.111328125,-0.26953125,0.3125,-9.53515625,1.5
4061453,,,,,,,,-0.75,-0.16796875,-0.59375,-0.046875,-0.111328125,-0.25390625,0.234375,-9.69140625,1.5
4061454,,,,,,,,-0.8125,-0.51171875,-0.71484375,-0.02734375,-0.10546875,-0.232421875,0.34765625,-9.99609375,1.30859375
4061455,,,,,,,,-0.69140625,-0.67578125,-0.81640625,-0.001953125,-0.115234375,-0.1796875,0.578125,-10.1875,1.1953125
4061456,,,,,,,,-0.4375,-0.90234375,-0.96875,0.017578125,-0.103515625,-0.154296875,0.84765625,-10.33984375,1.15625
4061457,,,,,,,,-0.26171875,-1.171875,-0.9296875,0.033203125,-0.0625,-0.146484375,0.88671875,-10.6796875,1.15625
4061458,,,,,,,,-0.26171875,-1.33203125,-0.9296875,0.0390625,-0.033203125,-0.140625,0.88671875,-10.72265625,1.15625
4061459,,,,,,,,-0.2109375,-1.37109375,-0.9375,0.060546875,0.02734375,-0.111328125,1.1171875,-10.57421875,1.30859375
4061460,36.01303866666667,129.32007866666666,133.30008990992698,70.86697703353232,1.4000000000000001,227.0,,-0.6875,0.421875,-0.953125,0.072265625,0.09765625,-0.0703125,1.15234375,-10.19140625,1.42578125
4061461,,,,,,,,-0.01953125,-0.421875,-0.72265625,0.095703125,0.169921875,-0.025390625,1.0390625,-9.5703125,1.34765625
4061462,,,,,,,,-0.2109375,0.03125,-0.80859375,0.11328125,0.22265625,0.013671875,0.84765625,-9.0390625,1.26953125
4061463,,,,,,,,-0.4765625,0.52734375,-0.890625,0.12109375,0.23046875,0.029296875,0.6953125,-8.80859375,1.234375
4061464,,,,,,,,-1.19140625,0.68359375,-0.6796875,0.13671875,0.228515625,0.064453125,-0.03515625,-8.6484375,1.4609375
4061465,,,,,,,,-1.671875,-0.20703125,-0.88671875,0.15625,0.283203125,0.083984375,-0.53125,-9.53515625,1.26953125
4061466,,,,,,,,-1.89453125,-1.31640625,-0.9375,0.16796875,0.37109375,0.091796875,-0.76171875,-10.64453125,1.234375
4061467,,,,,,,,-0.953125,-2.16015625,0.5703125,0.177734375,0.48828125,0.078125,0.15625,-11.484375,2.765625
4061468,,,,,,,,-0.58984375,-2.20703125,0.828125,0.171875,0.56640625,0.041015625,0.50390625,-11.52734375,3.03125
4061469,,,,,,,,0.50390625,-3.1640625,0.8125,0.150390625,0.857421875,-0.140625,1.57421875,-12.48828125,3.03125
4061470,36.013038,129.32007733333333,133.17989257400671,70.79300238192914,1.4000000000000001,232.0,,2.23046875,-5.85546875,1.40234375,0.083984375,1.0703125,-0.357421875,3.30078125,-15.1640625,3.64453125
4061471,,,,,,,,3.5625,-6.50390625,2.4921875,0.03125,0.947265625,-0.447265625,4.640625,-15.81640625,4.7578125
4061472,,,,,,,,4.3515625,-5.9765625,3.171875,0.015625,0.861328125,-0.533203125,5.4453125,-15.28125,5.4453125
4061473,,,,,,,,3.0546875,-3.83984375,3.2265625,-0.001953125,1.0078125,-0.625,4.1796875,-13.13671875,5.5234375
4061474,,,,,,,,0.57421875,-3.76171875,2.7578125,0.00390625,0.873046875,-0.6171875,1.73046875,-13.0546875,5.0625
4061475,,,,,,,,-0.37109375,-4.421875,2.4765625,0.087890625,-0.052734375,-0.173828125,0.84765625,-13.7109375,4.796875
4061476,,,,,,,,0.38671875,-3.1953125,1.46484375,0.15625,-0.421875,-0.072265625,1.61328125,-12.484375,3.80078125
4061477,,,,,,,,0.86328125,-2.359375,1.1484375,0.123046875,-0.404296875,-0.2109375,2.11328125,-11.640625,3.4921875
4061478,,,,,,,,0.984375,-0.98046875,0.87890625,0.033203125,-0.41015625,-0.33203125,2.265625,-10.26171875,3.22265625
4061479,,,,,,,,0.828125,-0.71484375,0.6875,-0.080078125,-0.556640625,-0.27734375,2.1484375,-9.9921875,3.03125
4061480,36.01303716666666,129.32007616666667,133.07472032512186,70.70053475240057,1.4000000000000001,233.0,,0.5625,-0.75390625,0.51953125,0.083984375,1.0703125,-0.357421875,3.30078125,-15.1640625,3.64453125
4061481,,,,,,,,0.27734375,-0.7734375,0.4375,-0.314453125,-0.58984375,-0.0234375,1.65234375,-10.07421875,2.7265625
4061482,,,,,,,,0.0390625,-0.54296875,0.24609375,-0.37109375,-0.42578125,0.03125,1.421875,-9.83984375,2.49609375
4061483,,,,,,,,-0.62890625,0.4765625,-0.3046875,-0.400390625,-0.1484375,-0.0234375,0.76953125,-8.84765625,1.8828125
4061484,,,,,,,,-0.89453125,0.875,-0.50390625,-0.39453125,-0.06640625,-0.044921875,0.50390625,-8.4609375,1.65234375
4061485,,,,,,,,-0.98046875,1.41796875,-0.73046875,-0.384765625,-0.068359375,-0.017578125,0.42578125,-7.921875,1.38671875
4061486,,,,,,,,-0.94140625,1.578125,-0.8671875,-0.376953125,-0.087890625,0.0,0.46484375,-7.77734375,1.234375
4061487,,,,,,,,-0.828125,1.90234375,-0.875,-0.37109375,-0.08203125,0.013671875,0.578125,-7.46484375,1.1953125
4061488,,,,,,,,-0.671875,2.21484375,-0.9921875,-0.37890625,-0.048828125,-0.009765625,0.734375,-7.15625,1.0390625
4061489,,,,,,,,-0.59765625,2.52734375,-1.02734375,-0.3828125,-0.0078125,-0.02734375,0.80859375,-6.8515625,0.96484375
4061490,36.0130365,129.3200755,133.01462221457925,70.62656101470083,1.2000000000000002,231.0,,-0.328125,2.7265625,-1.1484375,0.083984375,1.0703125,-0.357421875,1.078125,-6.6640625,0.8125
4061491,,,,,,,,-0.09765625,3.04296875,-1.1953125,-0.38671875,-0.001953125,0.044921875,1.30859375,-6.35546875,0.734375
4061492,,,,,,,,0.18359375,3.09765625,-1.1015625,-0.3828125,-0.0390625,0.103515625,1.57421875,-6.3125,0.7734375
4061493,,,,,,,,0.3828125,2.98828125,-1.1875,-0.375,-0.05859375,0.12109375,1.765625,-6.43359375,0.65625
4061494,,,,,,,,0.5078125,2.921875,-1.18359375,-0.33984375,-0.080078125,0.146484375,1.8828125,-6.5078125,0.62109375
4061495,,,,,,,,0.484375,2.74609375,-1.22265625,-0.314453125,-0.10546875,0.1484375,1.84375,-6.6953125,0.54296875
4061496,,,,,,,,0.4140625,2.66796875,-1.16796875,-0.298828125,-0.11328125,0.14453125,1.765625,-6.7734375,0.58203125
4061497,,,,,,,,0.26953125,2.67578125,-1.03125,-0.2578125,-0.12109375,0.140625,1.61328125,-6.77734375,0.6953125
4061498,,,,,,,,0.015625,2.72265625,-1.0078125,-0.203125,-0.1328125,0.15234375,1.34375,-6.73828125,0.6953125
4061499,,,,,,,,-0.04296875,2.72265625,-0.8671875,-0.142578125,-0.16796875,0.197265625,1.26953125,-6.73828125,0.8125
4061500,36.01303583333333,129.3200745,132.92447448718946,70.55258682198357,1.2000000000000002,230.0,0.0,-0.1796875,2.68359375,-0.8984375,0.083984375,1.0703125,-0.357421875,1.078125,-6.6640625,0.8125
4061501,,,,,,,,-0.15625,2.5703125,-1.04296875,-0.0390625,-0.265625,0.306640625,1.1171875,-6.89453125,0.62109375
4061502,,,,,,,,-0.140625,2.34765625,-1.08203125,-0.021484375,-0.283203125,0.326171875,1.1171875,-7.12109375,0.58203125
4061503,,,,,,,,-0.1171875,2.15625,-1.07421875,-0.001953125,-0.33203125,0.357421875,1.1171875,-7.3125,0.58203125
4061504,,,,,,,,-0.1640625,1.51171875,-1.07421875,0.009765625,-0.3359375,0.35546875,1.0390625,-7.96484375,0.58203125
4061505,,,,,,,,-0.0546875,0.70703125,-0.875,0.017578125,-0.318359375,0.34375,1.1171875,-8.765625,0.7734375
4061506,,,,,,,,0.03515625,0.24609375,-0.72265625,0.013671875,-0.302734375,0.33203125,1.19140625,-9.2265625,0.92578125
4061507,,,,,,,,0.03515625,-0.05859375,-0.53125,0.005859375,-0.259765625,0.359375,1.15234375,-9.53125,1.1171875
4061508,,,,,,,,-0.3125,-0.55078125,-0.0234375,-0.009765625,-0.193359375,0.369140625,0.734375,-10.03125,1.6171875
4061509,,,,,,,,-0.3359375,-0.89453125,0.18359375,-0.013671875,-0.185546875,0.369140625,0.6953125,-10.37890625,1.80859375
4061510,36.01303516666667,129.32007333333334,132.81930195096777,70.47861240300445,1.3,230.0,,-0.3046875,-1.0078125,0.21875,-0.021484375,-0.16796875,0.376953125,0.6953125,-10.49609375,1.84375
4061511,,,,,,,,-0.3359375,-1.0390625,0.19140625,-0.033203125,-0.1640625,0.310546875,0.6171875,-10.53125,1.80859375
4061512,,,,,,,,-0.328125,-1.1171875,0.0,-0.0390625,-0.166015625,0.27734375,0.6171875,-10.609375,1.6171875
4061513,,,,,,,,-0.3046875,-1.375,-0.18359375,-0.04296875,-0.173828125,0.19921875,0.6171875,-10.875,1.42578125
4061514,,,,,,,,-0.36328125,-1.421875,-0.0234375,-0.06640625,-0.166015625,0.140625,0.54296875,-10.91796875,1.578125
4061515,,,,,,,,-0.46484375,-1.0703125,0.21484375,-0.10546875,-0.134765625,0.056640625,0.42578125,-10.57421875,1.80859375
4061516,,,,,,,,-0.46484375,-0.45703125,0.22265625,-0.115234375,-0.08984375,0.021484375,0.42578125,-9.953125,1.80859375
4061517,,,,,,,,-0.2421875,0.34765625,-0.109375,-0.13671875,0.01171875,-0.03125,0.65625,-9.1484375,1.4609375
4061518,,,,,,,,0.0625,0.5859375,-0.21484375,-0.126953125,0.083984375,-0.056640625,0.9609375,-8.92578125,1.34765625
4061519,,,,,,,,0.21875,0.4609375,-0.24609375,-0.12890625,0.087890625,-0.06640625,1.1171875,-9.04296875,1.30859375
4061520,36.013034166666664,129.32007233333334,132.72915478214313,70.36765179773391,1.4000000000000001,228.0,,0.859375,-1.64453125,-0.4140625,-0.021484375,-0.16796875,0.376953125,1.765625,-11.140625,1.1171875
4061521,,,,,,,,0.9296875,-2.296875,-0.0625,-0.14453125,0.26953125,-0.10546875,1.84375,-11.80078125,1.4609375
4061522,,,,,,,,-0.21875,-0.80078125,0.8671875,-0.15625,0.509765625,-0.109375,0.6953125,-10.296875,2.3828125
4061523,,,,,,,,-1.17578125,0.2421875,1.265625,-0.17578125,0.833984375,-0.14453125,-0.26171875,-9.26953125,2.765625
4061524,,,,,,,,-0.91015625,-2.171875,1.88671875,-0.158203125,1.046875,-0.10546875,0.00390625,-11.6796875,3.37890625
4061525,,,,,,,,-1.4140625,-5.734375,2.4921875,0.02734375,0.689453125,0.19921875,-0.53125,-15.2421875,3.9921875
4061526,,,,,,,,-2.80078125,-5.7265625,3.984375,-0.013671875,0.763671875,0.1328125,-1.94921875,-15.2421875,5.484375
4061527,,,,,,,,-2.85546875,-3.92578125,3.86328125,-0.05859375,0.96875,0.0,-2.02734375,-13.44140625,5.37109375
4061528,,,,,,,,-1.87890625,-2.80859375,3.5078125,-0.064453125,0.896484375,0.095703125,-1.06640625,-12.33203125,5.0234375
4061529,,,,,,,,-0.39453125,-2.00390625,2.859375,-0.072265625,0.46484375,0.251953125,0.38671875,-11.52734375,4.375
4061530,36.01303333333333,129.32007133333335,132.63900732905927,70.27518440084577,1.3,225.0,,-0.140625,-1.58203125,2.0234375,-0.08984375,-0.095703125,0.1953125,0.6171875,-11.10546875,3.53125
4061531,,,,,,,,-0.0859375,-1.3828125,2.109375,-0.123046875,-0.451171875,0.0859375,0.65625,-10.91796875,3.609375
4061532,,,,,,,,-0.66015625,-1.53515625,2.26953125,-0.130859375,-0.53125,0.099609375,0.08203125,-11.06640625,3.76171875
4061533,,,,,,,,-1.2734375,-1.60546875,2.1328125,-0.107421875,-0.515625,0.185546875,-0.53125,-11.14453125,3.609375
4061534,,,,,,,,-1.37109375,-1.48046875,2.015625,-0.08203125,-0.458984375,0.19921875,-0.64453125,-11.02734375,3.4921875
4061535,,,,,,,,-1.2421875,-1.0546875,1.6015625,0.037109375,-0.240234375,0.189453125,-0.53125,-10.61328125,3.0703125
4061536,,,,,,,,-0.60546875,-0.6328125,0.9453125,0.1171875,-0.173828125,0.11328125,0.08203125,-10.19140625,2.421875
4061537,,,,,,,,-0.4921875,-0.48046875,0.8203125,0.14453125,-0.1484375,0.052734375,0.1953125,-10.03125,2.3046875
4061538,,,,,,,,-0.26171875,-0.01953125,0.57421875,0.197265625,-0.126953125,-0.0546875,0.42578125,-9.5703125,2.07421875
4061539,,,,,,,,-0.18359375,0.2109375,0.484375,0.20703125,-0.11328125,-0.087890625,0.50390625,-9.34375,2.0
4061540,36.01303233333333,129.32007066666665,132.5789097676158,70.16422425109893,1.3,223.0,,-0.0078125,1.16796875,0.03125,0.208984375,-0.017578125,-0.109375,0.6953125,-8.3828125,1.578125
4061541,,,,,,,,0.015625,1.734375,-0.26171875,0.21875,0.0078125,-0.08984375,0.734375,-7.81640625,1.30859375
4061542,,,,,,,,0.0078125,2.08203125,-0.4375,0.216796875,-0.00390625,-0.068359375,0.6953125,-7.3515625,1.1171875
4061543,,,,,,,,-0.1484375,2.5,-0.61328125,0.224609375,-0.001953125,-0.064453125,0.54296875,-6.9296875,1.00390625
4061544,,,,,,,,-0.23046875,2.72265625,-0.71484375,0.236328125,0.0078125,-0.072265625,0.46484375,-6.7734375,0.88671875
4061545,,,,,,,,-0.30859375,2.83984375,-0.81640625,0.248046875,0.0078125,-0.0703125,0.234375,-6.58984375,0.734375
4061546,,,,,,,,-0.5,2.953125,-0.9453125,0.248046875,0.005859375,-0.068359375,0.234375,-6.58984375,0.734375
4061547,,,,,,,,-0.62109375,2.9453125,-0.96875,0.259765625,-0.001953125,-0.0546875,0.00390625,-6.58984375,0.6953125
4061548,,,,,,,,-1.05078125,2.83203125,-1.0703125,0.2578125,-0.01171875,-0.052734375,-0.4921875,-6.69921875,0.62109375
4061549,,,,,,,,-1.51171875,2.74609375,-1.13671875,0.25,-0.03125,-0.04296875,-0.76171875,-6.77734375,0.62109375
4061550,36.013031500000004,129.32006966666668,132.48876231568127,70.07175685681968,1.3,222.0,,-1.59765625,2.81640625,-1.16015625,0.228515625,-0.05859375,-0.017578125,-0.83984375,-6.6953125,0.62109375
4061551,,,,,,,,-1.58984375,2.76953125,-1.33203125,0.20703125,-0.08984375,0.0078125,-0.83984375,-6.73828125,0.46484375
4061552,,,,,,,,-1.50390625,2.5390625,-1.46875,0.177734375,-0.140625,0.021484375,-0.76171875,-6.96875,0.3515625
4061553,,,,,,,,-1.38671875,2.34765625,-1.4921875,0.1484375,-0.18359375,0.01171875,-0.64453125,-7.15625,0.3515625
4061554,,,,,,,,-1.3203125,2.26171875,-1.31640625,0.125,-0.2109375,-0.01171875,-0.5703125,-7.23828125,0.54296875
4061555,,,,,,,,-1.203125,2.26171875,-1.171875,0.099609375,-0.23046875,-0.037109375,-0.453125,-7.234375,0.6953125
4061556,,,,,,,,-1.09765625,2.25390625,-1.1015625,0.072265625,-0.22265625,-0.05859375,-0.33984375,-7.234375,0.7734375
4061557,,,,,,,,-1.06640625,2.1015625,-1.1875,0.048828125,-0.220703125,-0.064453125,-0.30078125,-7.390625,0.6953125
4061558,,,,,,,,-1.07421875,1.671875,-1.1484375,0.025390625,-0.263671875,-0.08203125,-0.30078125,-7.8125,0.734375
4061559,,,,,,,,-0.9375,1.2890625,-1.109375,0.009765625,-0.314453125,-0.083984375,-0.1484375,-8.19921875,0.7734375
4061560,36.013030666666666,129.32006866666669,132.39861485771857,69.97928946258935,1.3,222.0,,-0.71484375,0.8671875,-1.02734375,0.228515625,-0.05859375,-0.017578125,0.08203125,-8.62109375,0.84765625
4061561,,,,,,,,-0.65625,0.6015625,-0.98046875,-0.015625,-0.30078125,-0.046875,0.15625,-8.8828125,0.88671875
4061562,,,,,,,,-0.65625,0.24609375,-0.89453125,-0.015625,-0.267578125,-0.037109375,0.15625,-9.2265625,0.96484375
4061563,,,,,,,,-0.625,-0.01953125,-0.85546875,-0.009765625,-0.228515625,-0.037109375,0.1953125,-9.4921875,1.00390625
4061564,,,,,,,,-0.5546875,-0.52734375,-0.703125,0.001953125,-0.18359375,-0.029296875,0.2734375,-9.9921875,1.15625
4061565,,,,,,,,-0.44140625,-1.0625,-0.6640625,0.0234375,-0.13671875,-0.01953125,0.38671875,-10.53125,1.1953125
4061566,,,,,,,,-0.48046875,-1.59765625,-0.51953125,0.056640625,-0.09375,-0.005859375,0.34765625,-11.0625,1.34765625
4061567,,,,,,,,-0.47265625,-1.76171875,-0.48046875,0.0859375,-0.056640625,-0.001953125,0.34765625,-11.21875,1.38671875
4061568,,,,,,,,-0.47265625,-1.75390625,-0.44921875,0.09375,-0.04296875,0.0078125,0.34765625,-11.22265625,1.42578125
4061569,,,,,,,,-0.1953125,-1.4609375,-0.7265625,0.119140625,0.04296875,0.0390625,0.6171875,-10.9140625,1.15625
4061570,36.01303016666667,129.3200675,132.2934420286911,69.9238082563939,1.3,228.0,,-0.1171875,-1.0,-0.78125,0.228515625,-0.05859375,-0.017578125,0.6953125,-10.45703125,1.1171875
4061571,,,,,,,,-0.1875,-0.6953125,-0.796875,0.1484375,0.107421875,0.099609375,0.6171875,-10.1484375,1.1171875
4061572,,,,,,,,-0.5078125,-0.203125,-0.7734375,0.1640625,0.115234375,0.140625,0.2734375,-9.6484375,1.15625
4061573,,,,,,,,-0.80078125,-0.16796875,-0.55859375,0.1875,0.15625,0.169921875,-0.03515625,-9.61328125,1.38671875
4061574,,,,,,,,-1.16015625,-1.5078125,-0.7734375,0.208984375,0.20703125,0.185546875,-0.41796875,-10.95703125,1.1953125
4061575,,,,,,,,-0.5546875,-3.69921875,-0.59765625,0.234375,0.26953125,0.17578125,0.15625,-13.1328125,1.38671875
4061576,,,,,,,,0.8125,-3.62109375,1.66796875,0.255859375,0.376953125,0.109375,1.5,-13.05859375,3.68359375
4061577,,,,,,,,1.9375,-3.3984375,1.72265625,0.265625,0.53515625,0.017578125,2.609375,-12.828125,3.76171875
4061578,,,,,,,,3.171875,-3.66796875,1.73046875,0.236328125,0.787109375,-0.115234375,3.8359375,-13.09765625,3.80078125
4061579,,,,,,,,3.37109375,-3.68359375,2.39453125,0.216796875,0.91796875,-0.22265625,4.02734375,-13.09765625,4.48828125
4061580,36.01302933333333,129.32006633333333,132.1882697586885,69.83134063808609,1.4000000000000001,230.0,,2.91015625,-3.796875,3.18359375,0.208984375,0.705078125,-0.267578125,3.56640625,-13.2109375,5.29296875
4061581,,,,,,,,0.87109375,-3.61328125,3.64453125,0.232421875,0.498046875,-0.044921875,1.53515625,-13.01953125,5.79296875
4061582,,,,,,,,-0.375,-3.69140625,3.07421875,0.267578125,0.3359375,0.076171875,0.2734375,-13.09375,5.25390625
4061583,,,,,,,,-0.4453125,-3.69921875,2.75390625,0.29296875,0.205078125,0.080078125,0.1953125,-13.09375,4.94921875
4061584,,,,,,,,-0.0234375,-3.203125,1.671875,0.310546875,-0.22265625,0.029296875,0.6171875,-12.60546875,3.9140625
4061585,,,,,,,,0.6953125,-2.17578125,1.42578125,0.28125,-0.46484375,0.01171875,1.34375,-11.56640625,3.68359375
4061586,,,,,,,,0.87890625,-1.75390625,1.43359375,0.21484375,-0.568359375,-0.060546875,1.53515625,-11.14453125,3.72265625
4061587,,,,,,,,0.7890625,-1.484375,1.42578125,0.099609375,-0.564453125,-0.111328125,1.4609375,-10.875,3.72265625
4061588,,,,,,,,0.734375,-1.29296875,1.1953125,0.037109375,-0.548828125,-0.111328125,1.421875,-10.68359375,3.4921875
4061589,,,,,,,,0.75,-1.0625,0.91796875,-0.07421875,-0.509765625,-0.080078125,1.4609375,-10.453125,3.22265625
4061590,36.01302866666666,129.320065,132.06807239903264,69.75736600181827,1.4000000000000001,232.0,,0.46484375,-0.63671875,0.359375,0.208984375,0.705078125,-0.267578125,3.56640625,-13.2109375,5.29296875
4061591,,,,,,,,0.18359375,-0.20703125,0.22265625,-0.15234375,-0.291015625,-0.119140625,0.92578125,-9.609375,2.49609375
4061592,,,,,,,,-0.140625,0.1015625,0.0859375,-0.16796875,-0.24609375,-0.185546875,0.6171875,-9.3046875,2.34375
4061593,,,,,,,,-0.35546875,0.72265625,-0.20703125,-0.1875,-0.19921875,-0.216796875,0.42578125,-8.69140625,2.03515625
4061594,,,,,,,,-0.33203125,1.14453125,-0.50390625,-0.1953125,-0.166015625,-0.216796875,0.46484375,-8.265625,1.73046875
4061595,,,,,,,,-0.31640625,1.6484375,-0.82421875,-0.21484375,-0.12109375,-0.20703125,0.50390625,-7.7734375,1.38671875
4061596,,,,,,,,-0.2578125,2.0,-0.84765625,-0.232421875,-0.107421875,-0.20703125,0.578125,-7.43359375,1.34765625
4061597,,,,,,,,-0.1875,2.26953125,-0.87109375,-0.244140625,-0.09765625,-0.2109375,0.65625,-7.15625,1.30859375
4061598,,,,,,,,-0.1484375,2.62890625,-0.9453125,-0.279296875,-0.07421875,-0.2109375,0.734375,-6.8125,1.1953125
4061599,,,,,,,,-0.08984375,2.78125,-0.9765625,-0.291015625,-0.05859375,-0.197265625,0.80859375,-6.66796875,1.15625
4061600,36.013027666666666,129.320064,131.97792521049703,69.64640540569825,1.3,228.0,0.0,0.046875,3.09765625,-1.09765625,0.208984375,0.705078125,-0.267578125,3.56640625,-13.2109375,5.29296875
4061601,,,,,,,,0.22265625,3.41015625,-1.19140625,-0.33203125,-0.009765625,-0.154296875,1.15234375,-6.05078125,0.88671875
4061602,,,,,,,,0.40625,3.6015625,-1.234375,-0.34375,0.0,-0.12890625,1.34375,-5.859375,0.8125
4061603,,,,,,,,0.73828125,3.80078125,-1.3203125,-0.349609375,-0.01171875,-0.091796875,1.69140625,-5.66796875,0.6953125
4061604,,,,,,,,0.8515625,3.65625,-1.39453125,-0.349609375,-0.03515625,-0.0703125,1.8046875,-5.8203125,0.58203125
4061605,,,,,,,,0.875,3.16796875,-1.34765625,-0.3203125,-0.04296875,-0.03515625,1.84375,-6.3125,0.58203125
4061606,,,,,,,,0.796875,2.74609375,-1.29296875,-0.306640625,-0.044921875,-0.025390625,1.765625,-6.734375,0.62109375
4061607,,,,,,,,0.828125,2.484375,-1.0625,-0.271484375,-0.0390625,-0.0234375,1.8046875,-7.01171875,0.8125
4061608,,,,,,,,0.75390625,2.37890625,-0.8125,-0.25,-0.029296875,-0.017578125,1.73046875,-7.12109375,1.0390625
4061609,,,,,,,,0.68359375,2.41015625,-0.7578125,-0.21875,-0.04296875,-0.005859375,1.65234375,-7.078125,1.078125
4061610,36.013027,129.320063,131.8877774672629,69.57243122312342,1.2000000000000002,228.0,,0.72265625,2.37890625,-0.85546875,-0.181640625,-0.072265625,0.015625,1.69140625,-7.1171875,0.96484375
4061611,,,,,,,,0.796875,2.26953125,-1.140625,-0.162109375,-0.12109375,0.08203125,1.765625,-7.23828125,0.65625
4061612,,,,,,,,0.875,1.87890625,-1.27734375,-0.140625,-0.1875,0.158203125,1.84375,-7.62109375,0.50390625
4061613,,,,,,,,1.01171875,1.46484375,-1.25390625,-0.12109375,-0.265625,0.21484375,1.95703125,-8.0390625,0.50390625
4061614,,,,,,,,0.953125,0.69921875,-0.96875,-0.107421875,-0.259765625,0.2265625,1.8828125,-8.8046875,0.7734375
4061615,,,,,,,,0.81640625,0.1328125,-0.5390625,-0.083984375,-0.20703125,0.2421875,1.73046875,-9.38671875,1.1953125
4061616,,,,,,,,0.578125,-0.2890625,-0.1875,-0.072265625,-0.14453125,0.275390625,1.4609375,-9.8046875,1.5390625
4061617,,,,,,,,0.6328125,-0.6328125,-0.25,-0.0546875,-0.107421875,0.32421875,1.5,-10.1484375,1.4609375
4061618,,,,,,,,0.77734375,-0.74609375,-0.25,-0.048828125,-0.099609375,0.3671875,1.61328125,-10.2578125,1.4609375
4061619,,,,,,,,0.6328125,-0.82421875,-0.46875,-0.03515625,-0.126953125,0.375,1.421875,-10.33984375,1.234375
4061620,36.01302616666667,129.32006199999998,131.79762999531894,69.4799638353982,1.3,228.0,,0.25,-0.703125,-0.38671875,-0.03515625,-0.142578125,0.3359375,1.0,-10.23046875,1.30859375
4061621,,,,,,,,0.234375,-0.89453125,-0.37890625,-0.033203125,-0.150390625,0.33203125,0.9609375,-10.4140625,1.30859375
4061622,,,,,,,,0.11328125,-1.3125,-0.33203125,-0.041015625,-0.14453125,0.341796875,0.80859375,-10.83984375,1.34765625
4061623,,,,,,,,-0.015625,-1.57421875,-0.29296875,-0.044921875,-0.123046875,0.357421875,0.65625,-11.10546875,1.38671875
4061624,,,,,,,,-0.24609375,-1.7265625,0.01953125,-0.052734375,-0.060546875,0.34375,0.38671875,-11.2578125,1.69140625
4061625,,,,,,,,-0.3359375,-1.57421875,0.21875,-0.064453125,0.029296875,0.291015625,0.2734375,-11.1015625,1.8828125
4061626,,,,,,,,-0.359375,-1.53515625,0.296875,-0.0703125,0.068359375,0.267578125,0.234375,-11.0625,1.9609375
4061627,,,,,,,,-0.06640625,-2.1484375,0.42578125,-0.0703125,0.134765625,0.208984375,0.50390625,-11.68359375,2.07421875
4061628,,,,,,,,0.140625,-3.328125,0.3515625,-0.06640625,0.1875,0.134765625,0.6953125,-12.8671875,2.0
4061629,,,,,,,,-0.296875,-3.98046875,1.4296875,-0.0625,0.23046875,0.03515625,0.234375,-13.515625,3.0703125
4061630,36.01302533333333,129.32006099999998,131.70748252347448,69.38749644791069,1.3,226.0,,-1.90625,-2.44921875,2.77734375,-0.03515625,-0.142578125,0.3359375,1.0,-10.23046875,1.30859375
4061631,,,,,,,,-1.9453125,-3.09765625,1.984375,-0.09375,0.51171875,-0.12109375,-1.4140625,-12.63671875,3.609375
4061632,,,,,,,,-2.2109375,-2.171875,2.671875,-0.08203125,0.5859375,-0.09765625,-1.6796875,-11.71875,4.296875
4061633,,,,,,,,-2.671875,-1.296875,3.140625,-0.06640625,0.4765625,-0.056640625,-2.140625,-10.83984375,4.7578125
4061634,,,,,,,,-2.21875,-1.17578125,2.91015625,-0.078125,0.248046875,-0.11328125,-1.6796875,-10.72265625,4.52734375
4061635,,,,,,,,-0.93359375,-1.25390625,2.41796875,-0.109375,0.37890625,-0.30859375,-0.37890625,-10.796875,4.02734375
4061636,,,,,,,,0.69140625,-1.59765625,2.390625,-0.111328125,0.158203125,-0.232421875,1.26953125,-11.140625,3.9921875
4061637,,,,,,,,0.7734375,-1.97265625,2.3984375,-0.111328125,-0.02734375,-0.314453125,1.3828125,-11.5234375,3.9921875
4061638,,,,,,,,0.68359375,-2.05859375,2.40625,-0.095703125,-0.009765625,-0.369140625,1.30859375,-11.60546875,3.9921875
4061639,,,,,,,,-0.078125,-1.859375,2.44921875,-0.03515625,0.044921875,-0.30078125,0.578125,-11.41796875,4.02734375
4061640,36.0130245,129.32006016666668,131.6323598637727,69.29502928749966,1.3,225.0,,-0.63671875,-1.55078125,2.4140625,-0.03515625,-0.142578125,0.3359375,1.0,-10.23046875,1.30859375
4061641,,,,,,,,-1.2421875,-1.16796875,2.25,0.0703125,0.03125,0.08203125,-0.5703125,-10.72265625,3.8359375
4061642,,,,,,,,-1.08203125,-1.16796875,1.96875,0.115234375,0.021484375,0.1328125,-0.41796875,-10.71875,3.5703125
4061643,,,,,,,,-0.62890625,-1.0078125,1.63671875,0.203125,-0.07421875,0.166015625,0.00390625,-10.5703125,3.26171875
4061644,,,,,,,,-0.3515625,-0.5078125,1.390625,0.232421875,-0.103515625,0.1796875,0.2734375,-10.0703125,3.03125
4061645,,,,,,,,-0.20703125,0.32421875,0.92578125,0.26171875,-0.07421875,0.1484375,0.38671875,-9.2265625,2.61328125
4061646,,,,,,,,-0.16796875,0.48828125,0.87890625,0.267578125,-0.064453125,0.1484375,0.42578125,-9.0703125,2.57421875
4061647,,,,,,,,-0.19140625,1.0546875,0.546875,0.275390625,-0.078125,0.1640625,0.38671875,-8.50390625,2.265625
4061648,,,,,,,,-0.21484375,1.3984375,0.39453125,0.287109375,-0.107421875,0.19140625,0.34765625,-8.15625,2.15234375
4061649,,,,,,,,-0.11328125,1.8515625,0.140625,0.296875,-0.12890625,0.220703125,0.42578125,-7.6953125,1.921875
4061650,36.01302366666666,129.32005933333332,131.55723719607684,69.20256212626924,1.2000000000000002,225.0,,0.01953125,2.1875,0.03125,0.306640625,-0.138671875,0.236328125,0.54296875,-7.3515625,1.84375
4061651,,,,,,,,-0.04296875,2.578125,-0.2734375,0.314453125,-0.1328125,0.232421875,0.46484375,-6.96875,1.578125
4061652,,,,,,,,-0.25,2.875,-0.53515625,0.322265625,-0.130859375,0.212890625,0.234375,-6.6640625,1.34765625
4061653,,,,,,,,-0.39453125,2.9921875,-0.58984375,0.326171875,-0.138671875,0.20703125,0.08203125,-6.55078125,1.30859375
4061654,,,,,,,,-0.609375,3.09765625,-0.7734375,0.333984375,-0.140625,0.1953125,-0.1484375,-6.43359375,1.15625
4061655,,,,,,,,-0.96875,3.17578125,-0.9296875,0.3515625,-0.15234375,0.205078125,-0.53125,-6.3515625,1.0390625
4061656,,,,,,,,-1.07421875,3.08984375,-1.03515625,0.345703125,-0.154296875,0.205078125,-0.64453125,-6.4296875,0.96484375
4061657,,,,,,,,-1.19921875,2.9296875,-1.12109375,0.330078125,-0.140625,0.18359375,-0.80078125,-6.5859375,0.92578125
4061658,,,,,,,,-1.2734375,2.69921875,-1.13671875,0.32421875,-0.130859375,0.17578125,-0.875,-6.8125,0.92578125
4061659,,,,,,,,-1.296875,2.33984375,-1.28125,0.294921875,-0.111328125,0.15625,-0.9140625,-7.15625,0.8125
4061660,36.01302283333334,129.3200585,131.48211452877553,69.11009496699499,1.2000000000000002,223.0,,-1.234375,2.21875,-1.27734375,0.306640625,-0.138671875,0.236328125,-0.875,-7.2734375,0.84765625
4061661,,,,,,,,-1.07421875,2.09375,-1.26171875,0.234375,-0.072265625,0.123046875,-0.72265625,-7.39453125,0.88671875
4061662,,,,,,,,-0.8359375,2.0546875,-1.23828125,0.197265625,-0.0625,0.11328125,-0.4921875,-7.43359375,0.92578125
4061663,,,,,,,,-0.7890625,2.09375,-1.24609375,0.169921875,-0.05078125,0.107421875,-0.453125,-7.39453125,0.92578125
4061664,,,,,,,,-0.74609375,2.0859375,-1.22265625,0.126953125,-0.0546875,0.080078125,-0.41796875,-7.39453125,0.96484375
4061665,,,,,,,,-0.8125,2.109375,-1.32421875,0.08203125,-0.1015625,0.013671875,-0.4921875,-7.35546875,0.88671875
4061666,,,,,,,,-0.78125,1.87890625,-1.4453125,0.064453125,-0.1328125,-0.0078125,-0.453125,-7.58203125,0.7734375
4061667,,,,,,,,-0.62890625,1.609375,-1.453125,0.05859375,-0.166015625,-0.013671875,-0.30078125,-7.8515625,0.7734375
4061668,,,,,,,,-0.46875,1.19140625,-1.4140625,0.048828125,-0.189453125,-0.015625,-0.1484375,-8.265625,0.8125
4061669,,,,,,,,-0.32421875,0.9140625,-1.34765625,0.046875,-0.197265625,-0.025390625,0.00390625,-8.54296875,0.88671875
4061670,36.013022166666666,129.32005750000002,131.39196677807897,69.03612079030894,1.2000000000000002,225.0,,-0.1875,0.5703125,-1.26953125,0.306640625,-0.138671875,0.236328125,0.15625,-8.8828125,0.96484375
4061671,,,,,,,,-0.22265625,0.4453125,-1.1171875,0.0546875,-0.138671875,-0.064453125,0.12109375,-9.0,1.1171875
4061672,,,,,,,,-0.421875,0.015625,-0.89453125,0.064453125,-0.111328125,-0.064453125,-0.0703125,-9.42578125,1.34765625
4061673,,,,,,,,-0.5078125,-0.2890625,-0.86328125,0.0703125,-0.09375,-0.068359375,-0.1484375,-9.73046875,1.38671875
4061674,,,,,,,,-0.40234375,-0.83203125,-0.91015625,0.091796875,-0.076171875,-0.0546875,-0.03515625,-10.26171875,1.34765625
4061675,,,,,,,,-0.140625,-1.1015625,-0.87890625,0.107421875,-0.06640625,-0.046875,0.234375,-10.53515625,1.38671875
4061676,,,,,,,,-0.03515625,-1.1796875,-0.93359375,0.123046875,-0.041015625,-0.064453125,0.34765625,-10.609375,1.34765625
4061677,,,,,,,,-0.03515625,-1.1953125,-0.98046875,0.134765625,-0.017578125,-0.087890625,0.34765625,-10.61328125,1.30859375
4061678,,,,,,,,-0.03515625,-1.23046875,-1.02734375,0.140625,-0.005859375,-0.087890625,0.34765625,-10.640625,1.26953125
4061679,,,,,,,,0.10546875,-1.078125,-1.15625,0.14453125,0.017578125,-0.0703125,0.50390625,-10.49609375,1.15625
4061680,36.0130215,129.32005616666666,131.2717693959605,68.96214616456221,1.3,230.0,,0.2578125,-0.75,-1.01171875,0.306640625,-0.138671875,0.236328125,0.65625,-10.1484375,1.30859375
4061681,,,,,,,,0.10546875,-0.09765625,-1.06640625,0.15234375,0.07421875,-0.009765625,0.50390625,-9.49609375,1.26953125
4061682,,,,,,,,-0.1953125,0.28515625,-1.1171875,0.154296875,0.11328125,-0.0078125,0.1953125,-9.11328125,1.234375
4061683,,,,,,,,-0.65234375,0.546875,-1.01953125,0.15625,0.177734375,-0.00390625,-0.26171875,-8.84375,1.34765625
4061684,,,,,,,,-1.06640625,-1.1875,-1.41015625,0.154296875,0.2265625,0.03125,-0.68359375,-10.57421875,0.96484375
4061685,,,,,,,,-0.984375,-2.53515625,-1.12109375,0.15234375,0.294921875,0.03515625,-0.609375,-11.90625,1.26953125
4061686,,,,,,,,-0.70703125,-2.99609375,-0.8203125,0.15234375,0.349609375,0.01953125,-0.33984375,-12.37109375,1.578125
4061687,,,,,,,,0.52734375,-2.83984375,0.6953125,0.138671875,0.59765625,-0.083984375,1.921875,-12.06640625,3.37890625
4061688,,,,,,,,1.9609375,-3.00390625,0.83984375,0.119140625,0.939453125,-0.244140625,2.87890625,-13.8203125,3.30078125
4061689,,,,,,,,2.53515625,-4.46484375,0.86328125,0.080078125,1.068359375,-0.392578125,3.4921875,-13.98046875,4.18359375
4061690,36.013020833333336,129.32005483333333,131.15157201649754,68.88817154147519,1.4000000000000001,234.0,,0.2578125,-0.75,-1.01171875,0.060546875,0.84765625,-0.42578125,4.2578125,-13.44140625,4.71875
4061691,,,,,,,,3.9140625,-3.66015625,2.41015625,0.05859375,0.71484375,-0.333984375,4.140625,-12.7890625,4.98828125
4061692,,,,,,,,2.87109375,-3.44140625,2.51953125,0.060546875,0.748046875,-0.322265625,3.26171875,-12.7890625,4.98828125
4061693,,,,,,,,1.0546875,-4.08984375,2.65625,0.091796875,0.333984375,-0.19921875,1.4609375,-13.44140625,5.140625
4061694,,,,,,,,0.5390625,-4.16796875,2.53125,0.14453125,-0.03515625,-0.10546875,0.92578125,-13.37109375,4.796875
4061695,,,,,,,,1.484375,-2.828125,1.17578125,0.20703125,-0.265625,-0.150390625,2.2265625,-11.76171875,3.53125
4061696,,,,,,,,1.95703125,-1.87890625,0.89453125,0.150390625,-0.34765625,-0.20703125,2.41796875,-11.21875,3.41796875
4061697,,,,,,,,1.84765625,-1.21875,0.83203125,0.080078125,-0.4453125,-0.2578125,2.33984375,-10.57421875,3.37890625
4061698,,,,,,,,1.58984375,-1.109375,0.6328125,-0.017578125,-0.513671875,-0.201171875,2.11328125,-10.453125,3.1875
4061699,,,,,,,,1.40234375,-1.265625,0.33203125,-0.109375,-0.486328125,-0.08203125,1.95703125,-10.609375,2.87890625
4061700,36.0130205,129.320053,130.98629965256725,68.85118266174419,1.5,242.0,0.0,1.15234375,-1.09375,0.1171875,-0.20703125,-0.35546875,0.005859375,4.2578125,-13.44140625,4.71875
4061701,,,,,,,,0.875,-0.78125,-0.04296875,-0.259765625,-0.220703125,0.029296875,1.4609375,-10.1484375,2.45703125
4061702,,,,,,,,0.5234375,-0.046875,-0.40234375,-0.287109375,-0.10546875,-0.013671875,1.1171875,-9.42578125,2.07421875
4061703,,,,,,,,0.09375,0.921875,-0.63671875,-0.298828125,-0.064453125,-0.0234375,0.6953125,-8.4609375,1.80859375
4061704,,,,,,,,-0.10546875,1.51171875,-0.75390625,-0.294921875,-0.115234375,0.015625,0.50390625,-7.88671875,1.65234375
4061705,,,,,,,,-0.06640625,2.0546875,-0.921875,-0.298828125,-0.146484375,0.017578125,0.54296875,-7.3515625,1.4609375
4061706,,,,,,,,-0.03125,2.21484375,-1.01171875,-0.296875,-0.1484375,0.015625,0.578125,-7.1953125,1.34765625
4061707,,,,,,,,0.0859375,2.53125,-1.06640625,-0.310546875,-0.154296875,-0.009765625,0.6953125,-6.89453125,1.26953125
4061708,,,,,,,,0.3359375,2.9296875,-1.109375,-0.330078125,-0.1640625,0.00390625,0.9609375,-6.5078125,1.1953125
4061709,,,,,,,,0.56640625,3.16796875,-1.1171875,-0.3515625,-0.171875,0.017578125,1.19140625,-6.27734375,1.15625
4061710,36.01301983333334,129.3200513333333,130.83605264548723,68.77720759524172,1.5,243.0,,0.71875,3.3671875,-1.1171875,-0.3671875,-0.185546875,0.046875,1.34375,-6.08984375,1.1171875
4061711,,,,,,,,0.875,3.6015625,-1.19921875,-0.369140625,-0.208984375,0.064453125,1.5,-5.859375,1.00390625
4061712,,,,,,,,1.06640625,3.46484375,-1.27734375,-0.365234375,-0.232421875,0.078125,1.69140625,-6.01171875,0.88671875
4061713,,,,,,,,1.05859375,3.46484375,-1.29296875,-0.35546875,-0.248046875,0.08984375,1.69140625,-6.01171875,0.84765625
4061714,,,,,,,,1.10546875,3.47265625,-1.28125,-0.30078125,-0.25390625,0.072265625,1.73046875,-6.01171875,0.8125
4061715,,,,,,,,1.02734375,3.25,-1.25,-0.28515625,-0.248046875,0.05078125,1.65234375,-6.2421875,0.8125
4061716,,,,,,,,0.828125,3.14453125,-1.06640625,-0.2109375,-0.240234375,0.056640625,1.4609375,-6.3515625,0.96484375
4061717,,,,,,,,0.7890625,3.06640625,-1.03515625,-0.171875,-0.24609375,0.10546875,1.421875,-6.4296875,0.96484375
4061718,,,,,,,,0.67578125,2.875,-1.02734375,-0.15625,-0.25390625,0.125,1.30859375,-6.625,0.96484375
4061719,,,,,,,,0.65234375,2.68359375,-0.98046875,-0.1171875,-0.265625,0.177734375,1.26953125,-6.8125,1.00390625
4061720,36.013019500000006,129.32004999999998,130.71585470995333,68.74021939178314,1.3,244.0,,0.66015625,2.30859375,-0.9296875,-0.0859375,-0.287109375,0.216796875,1.26953125,-7.19921875,1.0390625
4061721,,,,,,,,0.75,1.58203125,-0.8828125,-0.052734375,-0.28515625,0.251953125,1.34375,-7.92578125,1.078125
4061722,,,,,,,,0.84375,1.046875,-0.9140625,-0.04296875,-0.27734375,0.2734375,1.421875,-8.4609375,1.0390625
4061723,,,,,,,,0.9375,0.43359375,-0.796875,-0.03125,-0.255859375,0.27734375,1.5,-9.07421875,1.15625
4061724,,,,,,,,0.796875,-0.140625,-0.59765625,-0.02734375,-0.232421875,0.275390625,1.34375,-9.65234375,1.34765625
4061725,,,,,,,,0.6015625,-0.41015625,-0.16796875,-0.021484375,-0.203125,0.279296875,1.1171875,-9.9140625,1.76953125
4061726,,,,,,,,0.1953125,-0.640625,0.26171875,-0.009765625,-0.166015625,0.279296875,0.6953125,-10.1484375,2.19140625
4061727,,,,,,,,0.1796875,-0.71875,0.22265625,-0.005859375,-0.15234375,0.306640625,0.65625,-10.23046875,2.15234375
4061728,,,,,,,,0.234375,-0.71875,0.10546875,-0.00390625,-0.146484375,0.30859375,0.6953125,-10.2265625,2.03515625
4061729,,,,,,,,0.5703125,-0.91015625,-0.046875,-0.001953125,-0.158203125,0.271484375,1.0,-10.4140625,1.8828125
4061730,36.013018833333334,129.32004866666665,130.59565732309315,68.66624477532957,1.4000000000000001,243.0,,0.74609375,-1.17578125,-0.078125,-0.02734375,-0.185546875,0.13671875,1.15234375,-10.68359375,1.84375
4061731,,,,,,,,0.7109375,-1.328125,-0.10546875,-0.052734375,-0.177734375,0.0859375,1.1171875,-10.8359375,1.80859375
4061732,,,,,,,,0.671875,-1.328125,-0.0625,-0.064453125,-0.154296875,0.06640625,1.078125,-10.8359375,1.84375
4061733,,,,,,,,0.44921875,-1.13671875,-0.28125,-0.1015625,-0.05859375,0.072265625,0.84765625,-10.49609375,1.6171875
4061734,,,,,,,,0.52734375,-0.52734375,-0.4296875,-0.126953125,0.0,0.0703125,1.0,-9.80859375,1.38671875
4061735,,,,,,,,0.83984375,0.203125,-0.44921875,-0.140625,0.072265625,0.037109375,1.30859375,-9.0703125,1.34765625
4061736,,,,,,,,0.91796875,0.43359375,-0.51953125,-0.134765625,0.1015625,0.017578125,1.421875,-8.84375,1.30859375
4061737,,,,,,,,1.109375,0.85546875,-0.55078125,-0.1328125,0.16015625,-0.029296875,1.84375,-8.5390625,1.34765625
4061738,,,,,,,,1.60546875,0.77734375,-0.49609375,-0.119140625,0.22265625,-0.04296875,2.37890625,-9.99609375,1.34765625
4061739,,,,,,,,1.98828125,-0.48828125,-0.48828125,-0.111328125,0.2734375,-0.03125,2.45703125,-10.8359375,1.26953125
4061740,36.013017833333336,129.32004766666665,130.50551010499274,68.55528419469259,1.4000000000000001,235.0,,0.74609375,-1.17578125,-0.078125,-0.02734375,-0.185546875,0.13671875,2.1484375,-12.83203125,1.38671875
4061741,,,,,,,,1.23046875,-3.3203125,-0.2265625,-0.099609375,0.6328125,0.0390625,1.078125,-12.21484375,1.8828125
4061742,,,,,,,,-0.02734375,-1.8203125,0.5,-0.130859375,0.923828125,0.017578125,-0.30078125,-10.64453125,3.03125
4061743,,,,,,,,-0.65234375,-1.7734375,1.734375,-0.095703125,1.130859375,0.091796875,-0.26171875,-12.44921875,4.02734375
4061744,,,,,,,,-1.43359375,-5.296875,2.74609375,0.01953125,1.041015625,0.2421875,-1.10546875,-14.8203125,4.52734375
4061745,,,,,,,,-2.58203125,-4.53125,3.3515625,0.103515625,0.71484375,0.548828125,-2.29296875,-14.05859375,5.140625
4061746,,,,,,,,-3.01171875,-3.87890625,3.45703125,0.0703125,0.654296875,0.6171875,-2.75390625,-13.3984375,5.25390625
4061747,,,,,,,,-2.0,-2.38671875,2.875,-0.01171875,0.88671875,0.41015625,-1.8359375,-11.90625,4.6796875
4061748,,,,,,,,0.02734375,-2.15625,3.06640625,-0.013671875,0.513671875,0.37890625,0.12109375,-11.68359375,4.87109375
4061749,,,,,,,,1.0546875,-1.99609375,2.875,-0.048828125,-0.1171875,0.25390625,1.1171875,-11.52734375,4.6796875
4061750,36.01301716666667,129.3200465,130.4003375240172,68.48130980439066,1.3,232.0,,1.0625,-1.0703125,1.42578125,-0.107421875,-0.29296875,0.072265625,1.1171875,-10.609375,3.22265625
4061751,,,,,,,,0.37890625,-1.03125,1.90234375,-0.111328125,-0.275390625,0.1328125,0.42578125,-10.5703125,3.68359375
4061752,,,,,,,,0.04296875,-1.13671875,1.90234375,-0.07421875,-0.3125,0.291015625,0.08203125,-10.68359375,3.68359375
4061753,,,,,,,,-0.43359375,-1.2890625,1.71875,-0.02734375,-0.32421875,0.32421875,-0.41796875,-10.83984375,3.4921875
4061754,,,,,,,,-0.34765625,-1.25390625,1.71875,0.009765625,-0.275390625,0.30078125,-0.33984375,-10.796875,3.4921875
4061755,,,,,,,,0.02734375,-0.86328125,1.2421875,0.17578125,-0.091796875,0.197265625,0.00390625,-10.4140625,3.03125
4061756,,,,,,,,0.1953125,-0.41015625,0.8359375,0.255859375,0.001953125,0.08984375,0.15625,-9.95703125,2.6484375
4061757,,,,,,,,0.359375,-0.02734375,0.59375,0.27734375,0.025390625,0.05078125,0.3125,-9.57421875,2.421875
4061758,,,,,,,,0.47265625,0.65625,0.27734375,0.3046875,0.072265625,0.03515625,0.42578125,-8.88671875,2.15234375
4061759,,,,,,,,0.55078125,1.078125,0.078125,0.302734375,0.0703125,0.05078125,0.50390625,-8.4609375,1.9609375
4061760,36.01301616666667,129.32004550000002,130.31019030401944,68.37034922450799,1.3,228.0,,0.703125,1.49609375,-0.22265625,-0.107421875,-0.29296875,0.072265625,1.1171875,-10.609375,3.22265625
4061761,,,,,,,,0.6796875,1.875,-0.484375,0.28125,0.0859375,0.09375,0.6171875,-7.65625,1.4609375
4061762,,,,,,,,0.6484375,2.28515625,-0.66796875,0.265625,0.083984375,0.107421875,0.578125,-7.234375,1.30859375
4061763,,,,,,,,0.54296875,2.59375,-0.8046875,0.259765625,0.095703125,0.09765625,0.46484375,-6.9296875,1.1953125
4061764,,,,,,,,0.3984375,2.9765625,-0.984375,0.2578125,0.09375,0.0859375,0.3125,-6.55078125,1.0390625
4061765,,,,,,,,0.13671875,3.23828125,-1.28125,0.267578125,0.083984375,0.072265625,0.04296875,-6.27734375,0.7734375
4061766,,,,,,,,-0.23828125,3.3046875,-1.57421875,0.26953125,0.060546875,0.060546875,-0.33984375,-6.203125,0.50390625
4061767,,,,,,,,-0.46875,3.3046875,-1.59765625,0.271484375,0.029296875,0.037109375,-0.5703125,-6.203125,0.50390625
4061768,,,,,,,,-0.57421875,2.9921875,-1.7421875,0.26171875,-0.015625,0.033203125,-0.68359375,-6.5078125,0.390625
4061769,,,,,,,,-0.66015625,2.67578125,-1.8046875,0.23828125,-0.037109375,0.03515625,-0.76171875,-6.8125,0.3515625
4061770,36.01301566666667,129.32004466666666,130.2350670683025,68.31486849027087,1.2000000000000002,227.0,,-0.61328125,2.28515625,-1.59765625,-0.107421875,-0.29296875,0.072265625,-0.72265625,-7.1953125,0.58203125
4061771,,,,,,,,-0.57421875,2.2109375,-1.57421875,0.181640625,-0.044921875,0.037109375,-0.68359375,-7.2734375,0.62109375
4061772,,,,,,,,-0.375,2.0859375,-1.515625,0.1484375,-0.04296875,0.01953125,-0.4921875,-7.390625,0.6953125
4061773,,,,,,,,-0.15234375,1.93359375,-1.53125,0.0859375,-0.052734375,-0.01953125,-0.26171875,-7.54296875,0.6953125
4061774,,,,,,,,-0.16015625,1.84765625,-1.421875,0.056640625,-0.10546875,-0.04296875,-0.26171875,-7.62109375,0.8125
4061775,,,,,,,,-0.29296875,1.6875,-1.39453125,0.044921875,-0.16796875,-0.0859375,-0.37890625,-7.77734375,0.84765625
4061776,,,,,,,,-0.40625,1.57421875,-1.46875,0.029296875,-0.1953125,-0.103515625,-0.4921875,-7.88671875,0.7734375
4061777,,,,,,,,-0.5390625,1.11328125,-1.5078125,0.017578125,-0.240234375,-0.138671875,-0.609375,-8.34375,0.734375
4061778,,,,,,,,-0.5234375,1.0,-1.5390625,-0.001953125,-0.306640625,-0.146484375,-0.4921875,-8.6171875,0.734375
4061779,,,,,,,,-0.1953125,0.609375,-1.5,-0.0078125,-0.3203125,-0.1640625,-0.0703125,-8.9609375,0.84765625
4061780,36.013015,129.3200435,130.12989448261283,68.24089410360918,1.2000000000000002,230.0,,-0.61328125,2.28515625,-1.59765625,-0.025390625,-0.31640625,-0.19921875,-0.72265625,-7.1953125,0.58203125
4061781,,,,,,,,0.25,0.22265625,-1.27734375,-0.03515625,-0.291015625,-0.24609375,0.234375,-9.265625,1.078125
4061782,,,,,,,,0.2265625,0.0703125,-1.1171875,-0.04296875,-0.24609375,-0.2734375,0.2734375,-9.38671875,1.1171875
4061783,,,,,,,,0.26171875,-0.28125,-1.109375,-0.046875,-0.212890625,-0.26953125,0.34765625,-9.7265625,1.1171875
4061784,,,,,,,,0.34765625,-0.55078125,-1.140625,-0.041015625,-0.1875,-0.259765625,0.46484375,-9.99609375,1.078125
4061785,,,,,,,,0.515625,-0.85546875,-1.140625,-0.025390625,-0.16015625,-0.259765625,0.65625,-10.30078125,1.078125
4061786,,,,,,,,0.5390625,-0.97265625,-1.171875,-0.017578125,-0.13671875,-0.259765625,0.6953125,-10.41796875,1.0390625
4061787,,,,,,,,0.66015625,-0.97265625,-1.0859375,0.0,-0.08984375,-0.259765625,0.84765625,-10.41796875,1.1171875
4061788,,,,,,,,0.7734375,-1.0859375,-1.125,0.013671875,-0.01953125,-0.248046875,1.0,-10.53125,1.078125
4061789,,,,,,,,0.90234375,-1.27734375,-1.171875,0.029296875,0.05078125,-0.234375,1.15234375,-10.71875,1.0390625
4061790,36.01301433333333,129.32004233333333,130.0247218955816,68.16691971712577,1.3,231.0,,1.0703125,-1.171875,-1.31640625,-0.025390625,-0.31640625,-0.19921875,-0.72265625,-7.1953125,0.58203125
4061791,,,,,,,,0.8359375,-0.55859375,-1.1328125,0.068359375,0.146484375,-0.162109375,1.1171875,-9.9921875,1.078125
4061792,,,,,,,,0.51171875,-0.10546875,-1.140625,0.091796875,0.228515625,-0.134765625,0.80859375,-9.53125,1.078125
4061793,,,,,,,,-0.18359375,0.69921875,-0.95703125,0.107421875,0.302734375,-0.060546875,0.12109375,-8.7265625,1.26953125
4061794,,,,,,,,-1.06640625,0.921875,-0.78125,0.126953125,0.298828125,-0.001953125,-0.76171875,-8.50390625,1.4609375
4061795,,,,,,,,-1.36328125,-0.265625,-1.59375,0.13671875,0.328125,0.00390625,-1.06640625,-9.69140625,0.65625
4061796,,,,,,,,-1.2109375,-0.58203125,-1.4375,0.140625,0.359375,-0.01171875,-0.9140625,-9.9921875,0.8125
4061797,,,,,,,,-0.4765625,-0.04296875,-0.3828125,0.125,0.3984375,-0.0546875,-0.1875,-9.453125,1.8828125
4061798,,,,,,,,0.55859375,-0.703125,-0.015625,0.09765625,0.5,-0.125,0.84765625,-10.109375,2.265625
4061799,,,,,,,,1.24609375,-3.15625,-0.21484375,0.05859375,0.71875,-0.216796875,1.53515625,-12.56640625,2.07421875
4061800,36.013013666666666,129.320041,129.90452449464405,68.09294511120758,1.4000000000000001,234.0,0.0,2.3828125,-7.3671875,0.97265625,0.01171875,0.80859375,-0.33984375,2.6875,-16.77734375,3.26171875
4061801,,,,,,,,4.05078125,-7.7890625,3.15625,-0.0234375,0.7265625,-0.46484375,4.37109375,-17.1953125,5.4453125
4061802,,,,,,,,4.91796875,-7.17578125,3.84765625,-0.025390625,0.7421875,-0.484375,5.25390625,-16.58203125,6.13671875
4061803,,,,,,,,4.578125,-4.00390625,2.8515625,-0.048828125,1.046875,-0.52734375,4.9453125,-13.40234375,5.140625
4061804,,,,,,,,2.51953125,-3.46875,2.12890625,-0.021484375,1.236328125,-0.638671875,2.91796875,-12.8671875,4.41015625
4061805,,,,,,,,0.640625,-4.19921875,1.77734375,0.060546875,0.890625,-0.75390625,1.078125,-13.59765625,4.06640625
4061806,,,,,,,,0.41796875,-4.41796875,1.921875,0.0859375,0.4921875,-0.677734375,0.88671875,-13.82421875,4.21875
4061807,,,,,,,,0.76171875,-4.234375,1.80078125,0.16796875,-0.328125,-0.259765625,1.26953125,-13.63671875,4.10546875
4061808,,,,,,,,1.328125,-3.66015625,1.125,0.1875,-0.525390625,-0.130859375,1.8828125,-13.05859375,3.453125
4061809,,,,,,,,1.3359375,-2.328125,0.84375,0.123046875,-0.412109375,-0.275390625,1.921875,-11.72265625,3.1875
4061810,36.01301316666666,129.32003966666667,129.78432681897849,68.03746371353368,1.4000000000000001,239.0,,0.8125,-0.94921875,0.3125,0.01171875,0.80859375,-0.33984375,1.4609375,-10.33984375,2.6484375
4061811,,,,,,,,0.58984375,-0.13671875,0.0546875,-0.14453125,-0.625,-0.0625,1.26953125,-9.53125,2.3828125
4061812,,,,,,,,0.2734375,0.59765625,-0.26953125,-0.224609375,-0.611328125,0.0625,0.9609375,-8.8046875,2.03515625
4061813,,,,,,,,-0.0078125,1.06640625,-0.51171875,-0.25390625,-0.513671875,0.048828125,0.6953125,-8.34375,1.76953125
4061814,,,,,,,,-0.28515625,1.53515625,-0.71875,-0.267578125,-0.37890625,-0.02734375,0.42578125,-7.8828125,1.5390625
4061815,,,,,,,,-0.578125,2.19921875,-1.24609375,-0.271484375,-0.251953125,-0.095703125,0.15625,-7.23828125,0.96484375
4061816,,,,,,,,-0.62109375,2.36328125,-1.35546875,-0.27734375,-0.234375,-0.099609375,0.12109375,-7.078125,0.84765625
4061817,,,,,,,,-0.484375,2.66796875,-1.3515625,-0.2890625,-0.1875,-0.115234375,0.2734375,-6.77734375,0.8125
4061818,,,,,,,,-0.31640625,2.984375,-1.484375,-0.3125,-0.130859375,-0.138671875,0.46484375,-6.46875,0.65625
4061819,,,,,,,,0.08984375,3.14453125,-1.48046875,-0.34375,-0.0625,-0.17578125,0.88671875,-6.31640625,0.62109375
4061820,36.013012499999995,129.32003883333334,129.7092038500022,67.96348977575546,1.2000000000000002,235.0,,0.265625,3.11328125,-1.56640625,-0.373046875,0.017578125,-0.1875,1.078125,-6.3515625,0.50390625
4061821,,,,,,,,0.6640625,3.04296875,-1.6484375,-0.376953125,0.0703125,-0.197265625,1.5,-6.4296875,0.390625
4061822,,,,,,,,0.90625,3.08984375,-1.5703125,-0.380859375,0.099609375,-0.18359375,1.765625,-6.39453125,0.4296875
4061823,,,,,,,,1.12109375,2.71484375,-1.49609375,-0.365234375,0.119140625,-0.162109375,1.99609375,-6.77734375,0.46484375
4061824,,,,,,,,1.14453125,2.484375,-1.42578125,-0.35546875,0.146484375,-0.158203125,2.03515625,-7.0078125,0.50390625
4061825,,,,,,,,1.20703125,2.2265625,-1.26171875,-0.302734375,0.13671875,-0.1171875,2.11328125,-7.27734375,0.62109375
4061826,,,,,,,,1.08203125,2.078125,-1.23046875,-0.267578125,0.109375,-0.068359375,1.99609375,-7.43359375,0.62109375
4061827,,,,,,,,1.02734375,2.05078125,-1.171875,-0.236328125,0.0546875,-0.013671875,1.95703125,-7.4609375,0.65625
4061828,,,,,,,,0.76953125,2.1640625,-1.23046875,-0.18359375,-0.01171875,0.017578125,1.69140625,-7.35546875,0.58203125
4061829,,,,,,,,0.64453125,2.1640625,-1.20703125,-0.13671875,-0.0859375,0.060546875,1.57421875,-7.35546875,0.58203125
4061830,36.013011666666664,129.32003783333332,129.6190563413261,67.87102241036725,1.2000000000000002,231.0,,0.5,2.1640625,-1.34375,-0.373046875,0.017578125,-0.1875,1.078125,-6.3515625,0.50390625
4061831,,,,,,,,0.39453125,2.0859375,-1.3671875,-0.052734375,-0.25390625,0.193359375,1.30859375,-7.4296875,0.390625
4061832,,,,,,,,0.33984375,1.59765625,-1.359375,-0.013671875,-0.33984375,0.294921875,1.23046875,-7.921875,0.390625
4061833,,,,,,,,0.34765625,1.25390625,-1.23828125,-0.005859375,-0.36328125,0.322265625,1.23046875,-8.265625,0.50390625
4061834,,,,,,,,0.38671875,0.79296875,-1.12109375,0.01171875,-0.37890625,0.369140625,1.23046875,-8.73046875,0.62109375
4061835,,,,,,,,0.44921875,0.25,-0.9296875,0.013671875,-0.376953125,0.400390625,1.26953125,-9.26953125,0.8125
4061836,,,,,,,,0.48046875,-0.1640625,-0.76953125,0.015625,-0.345703125,0.41796875,1.26953125,-9.6875,0.96484375
4061837,,,,,,,,0.55078125,-0.43359375,-0.5703125,0.005859375,-0.314453125,0.431640625,1.30859375,-9.953125,1.15625
4061838,,,,,,,,0.640625,-0.546875,-0.578125,0.0,-0.30078125,0.43359375,1.3828125,-10.07421875,1.15625
4061839,,,,,,,,0.671875,-0.85546875,-0.41015625,-0.0078125,-0.27734375,0.4296875,1.3828125,-10.375,1.30859375
4061840,36.013011,129.32003666666665,129.51388374463664,67.79704803169717,1.2000000000000002,232.0,,0.55859375,-1.078125,-0.484375,-0.373046875,0.017578125,-0.1875,1.078125,-6.3515625,0.50390625
4061841,,,,,,,,0.046875,-1.34375,-0.44140625,-0.017578125,-0.2421875,0.380859375,0.6953125,-10.87890625,1.26953125
4061842,,,,,,,,-0.16015625,-1.49609375,-0.40234375,-0.021484375,-0.234375,0.365234375,0.46484375,-11.0234375,1.30859375
4061843,,,,,,,,-0.24609375,-1.65234375,-0.35546875,-0.02734375,-0.205078125,0.35546875,0.34765625,-11.18359375,1.34765625
4061844,,,,,,,,-0.296875,-1.53515625,-0.234375,-0.033203125,-0.17578125,0.3359375,0.2734375,-11.0625,1.4609375
4061845,,,,,,,,-0.3125,-0.88671875,-0.26171875,-0.037109375,-0.123046875,0.263671875,0.234375,-10.4140625,1.42578125
4061846,,,,,,,,-0.2265625,-0.65625,-0.29296875,-0.041015625,-0.099609375,0.2109375,0.3125,-10.19140625,1.38671875
4061847,,,,,,,,0.2109375,0.00390625,-0.40234375,-0.052734375,-0.041015625,0.123046875,0.734375,-9.53125,1.26953125
4061848,,,,,,,,0.5625,-0.45703125,-0.4375,-0.060546875,0.005859375,0.06640625,1.078125,-9.9921875,1.234375
4061849,,,,,,,,1.05859375,-1.8359375,-0.39453125,-0.080078125,0.037109375,0.029296875,1.57421875,-11.37890625,1.26953125
4061850,36.01301016666666,129.32003533333332,129.39368660710136,67.70458022481617,1.4000000000000001,231.0,,1.17578125,-4.44140625,-0.1875,-0.373046875,0.017578125,-0.1875,1.69140625,-13.9765625,1.4609375
4061851,,,,,,,,-0.01953125,-4.5546875,1.4765625,-0.115234375,0.228515625,-0.04296875,0.50390625,-14.09765625,3.109375
4061852,,,,,,,,-1.515625,-2.78515625,2.40234375,-0.14453125,0.466796875,-0.078125,-0.9921875,-12.33203125,4.02734375
4061853,,,,,,,,-1.96484375,-2.35546875,1.69140625,-0.142578125,0.79296875,-0.05078125,-1.44921875,-11.90625,3.30078125
4061854,,,,,,,,-1.8828125,-1.4375,2.28125,-0.09765625,0.736328125,0.01953125,-1.375,-10.9921875,3.875
4061855,,,,,,,,-1.9140625,-1.28125,2.7890625,-0.037109375,0.349609375,0.09765625,-1.4140625,-10.8359375,4.375
4061856,,,,,,,,-0.49609375,-1.7734375,2.7890625,-0.0859375,0.3203125,-0.212890625,0.00390625,-11.3359375,4.375
4061857,,,,,,,,0.984375,-2.42578125,2.44921875,-0.10546875,0.1640625,-0.150390625,1.5,-11.984375,4.02734375
4061858,,,,,,,,1.20703125,-2.4609375,2.46484375,-0.142578125,-0.041015625,-0.095703125,1.73046875,-12.02734375,4.02734375
4061859,,,,,,,,0.61328125,-2.1875,2.4453125,-0.1328125,-0.07421875,-0.138671875,1.15234375,-11.76171875,3.9921875
4061860,36.013009333333336,129.32003416666666,129.2885142793141,67.61211264269414,1.4000000000000001,229.0,,0.0234375,-1.8359375,2.375,-0.373046875,0.017578125,-0.1875,0.578125,-11.41796875,3.9140625
4061861,,,,,,,,-0.734375,-1.18359375,2.4609375,-0.037109375,-0.1171875,0.1640625,-0.1875,-10.76171875,3.9921875
4061862,,,,,,,,-1.09375,-1.03125,2.34375,0.009765625,-0.146484375,0.294921875,-0.5703125,-10.61328125,3.875
4061863,,,,,,,,-0.953125,-1.17578125,2.10546875,0.083984375,-0.169921875,0.30859375,-0.453125,-10.7578125,3.64453125
4061864,,,,,,,,-0.6640625,-1.17578125,1.71484375,0.169921875,-0.18359375,0.32421875,-0.1875,-10.7578125,3.26171875
4061865,,,,,,,,-0.40234375,-0.9453125,1.5859375,0.232421875,-0.12890625,0.333984375,0.04296875,-10.53125,3.1484375
4061866,,,,,,,,-0.39453125,-0.79296875,1.453125,0.24609375,-0.09765625,0.326171875,0.04296875,-10.375,3.03125
4061867,,,,,,,,-0.25,-0.21875,1.01171875,0.26953125,-0.017578125,0.28515625,0.15625,-9.8046875,2.61328125
4061868,,,,,,,,-0.1484375,0.2734375,0.671875,0.2890625,0.0078125,0.263671875,0.234375,-9.30859375,2.3046875
4061869,,,,,,,,-0.0546875,0.92578125,0.21875,0.310546875,-0.01171875,0.255859375,0.3125,-8.65234375,1.8828125
4061870,36.0130085,129.32003316666666,129.19836676219086,67.51964528119154,1.3,228.0,,0.05078125,1.30859375,0.03515625,0.31640625,-0.046875,0.25,0.578125,-11.41796875,3.9140625
4061871,,,,,,,,0.07421875,2.07421875,-0.1484375,0.3203125,-0.080078125,0.23828125,0.38671875,-7.50390625,1.578125
4061872,,,,,,,,0.08203125,2.296875,-0.2421875,0.32421875,-0.087890625,0.232421875,0.38671875,-7.27734375,1.5
4061873,,,,,,,,0.0234375,2.90625,-0.46484375,0.341796875,-0.091796875,0.21875,0.3125,-6.6640625,1.30859375
4061874,,,,,,,,-0.17578125,3.359375,-0.7421875,0.373046875,-0.10546875,0.1796875,0.08203125,-6.203125,1.078125
4061875,,,,,,,,-0.4296875,3.46875,-1.1484375,0.392578125,-0.1328125,0.1640625,-0.1875,-6.08984375,0.734375
4061876,,,,,,,,-0.6875,3.3828125,-1.2421875,0.39453125,-0.140625,0.158203125,-0.453125,-6.1640625,0.65625
4061877,,,,,,,,-0.828125,3.3828125,-1.35546875,0.39453125,-0.1640625,0.14453125,-0.609375,-6.16796875,0.58203125
4061878,,,,,,,,-1.125,3.22265625,-1.3125,0.380859375,-0.16796875,0.130859375,-0.9140625,-6.3125,0.65625
4061879,,,,,,,,-1.203125,3.13671875,-1.3359375,0.373046875,-0.1640625,0.119140625,-0.9921875,-6.39453125,0.65625
4061880,36.01300783333333,129.32003233333336,129.12324378814353,67.44567134885831,1.2000000000000002,226.0,,-1.04296875,2.9765625,-1.48046875,0.31640625,-0.046875,0.25,-0.83984375,-6.55078125,0.54296875
4061881,,,,,,,,-0.765625,2.66015625,-1.640625,0.291015625,-0.119140625,0.06640625,-0.5703125,-6.85546875,0.4296875
4061882,,,,,,,,-0.60546875,2.38671875,-1.58984375,0.24609375,-0.12890625,0.056640625,-0.41796875,-7.12109375,0.50390625
4061883,,,,,,,,-0.3828125,2.109375,-1.3828125,0.203125,-0.154296875,0.0234375,-0.1875,-7.390625,0.734375
4061884,,,,,,,,-0.3046875,1.91796875,-1.25390625,0.1640625,-0.150390625,-0.00390625,-0.109375,-7.578125,0.88671875
4061885,,,,,,,,-0.3125,1.91015625,-1.18359375,0.125,-0.126953125,-0.03125,-0.109375,-7.578125,0.96484375
4061886,,,,,,,,-0.3125,1.87109375,-1.23046875,0.103515625,-0.119140625,-0.0390625,-0.109375,-7.62109375,0.92578125
4061887,,,,,,,,-0.390625,1.51953125,-1.390625,0.08203125,-0.1328125,-0.048828125,-0.1875,-7.9609375,0.7734375
