time,latitude,longitude,enu_x,enu_y,speed,course,ecg,accX,accY,accZ,gyrX,gyrY,gyrZ,eulR,eulP,eulY
4109400,36.013084000000006,129.32013833333335,138.6788915003498,75.8972126389553,1.2000000000000002,231.0,0.0,-0.93359375,-3.21484375,2.125,0.134765625,-0.087890625,-0.005859375,0.80859375,-12.67578125,3.109375
4109401,,,,,,,,-0.51171875,-2.6796875,1.8046875,0.087890625,-0.154296875,-0.13671875,1.23046875,-12.14453125,2.8046875
4109402,,,,,,,,-0.2578125,-1.8359375,1.11328125,0.01171875,-0.28125,-0.298828125,1.5,-10.9921875,1.8828125
4109403,,,,,,,,-0.3203125,-1.33984375,0.73046875,-0.04296875,-0.3828125,-0.36328125,1.421875,-10.609375,1.38671875
4109404,,,,,,,,-0.3203125,-1.1171875,0.27734375,-0.12890625,-0.44921875,-0.361328125,1.57421875,-10.53515625,1.15625
4109405,,,,,,,,-0.0859375,-1.1171875,0.2578125,-0.205078125,-0.451171875,-0.3515625,1.765625,-10.5703125,1.234375
4109406,,,,,,,,-0.3828125,-1.0390625,0.2890625,-0.265625,-0.353515625,-0.416015625,1.5,-10.4921875,1.234375
4109407,,,,,,,,-0.64453125,-0.703125,0.2734375,-0.30078125,-0.22265625,-0.517578125,1.26953125,-10.15234375,1.1953125
4109408,,,,,,,,-0.8828125,-0.08203125,0.1875,-0.326171875,-0.142578125,-0.544921875,1.078125,-9.53125,1.078125
4109409,,,,,,,,-0.890625,0.63671875,-0.046875,-0.3359375,-0.1640625,-0.474609375,1.1171875,-8.50390625,0.734375
4109410,36.013083333333334,129.32013783333332,138.6338182676568,75.82323909799841,1.0,230.0,,-0.93359375,-3.21484375,2.125,-0.326171875,-0.248046875,-0.40625,1.15234375,-7.8125,0.58203125
4109411,,,,,,,,-0.93359375,1.81640625,-0.29296875,-0.330078125,-0.34375,-0.380859375,1.1171875,-7.2734375,0.4296875
4109412,,,,,,,,-1.0078125,2.1640625,-0.328125,-0.328125,-0.375,-0.373046875,1.078125,-7.19921875,0.390625
4109413,,,,,,,,-1.078125,2.5390625,-0.4140625,-0.337890625,-0.408203125,-0.3515625,1.078125,-6.89453125,0.3125
4109414,,,,,,,,-1.0546875,2.65234375,-0.390625,-0.341796875,-0.412109375,-0.333984375,1.1171875,-6.77734375,0.3125
4109415,,,,,,,,-0.8125,3.10546875,-0.2734375,-0.35546875,-0.40625,-0.3046875,1.3828125,-6.31640625,0.390625
4109416,,,,,,,,-0.4453125,3.1796875,-0.12109375,-0.361328125,-0.3359375,-0.271484375,1.8046875,-6.24609375,0.46484375
4109417,,,,,,,,-0.3359375,3.14453125,-0.1796875,-0.34765625,-0.318359375,-0.271484375,1.921875,-6.27734375,0.390625
4109418,,,,,,,,-0.32421875,2.953125,-0.21875,-0.333984375,-0.310546875,-0.271484375,1.95703125,-6.46875,0.3125
4109419,,,,,,,,-0.3671875,2.8671875,-0.2421875,-0.326171875,-0.3046875,-0.28125,1.921875,-6.55078125,0.2734375
4109420,36.01308266666667,129.32013700000002,138.55869544427782,75.74926508423114,0.9,229.0,,-0.4296875,2.67578125,-0.15625,-0.326171875,-0.248046875,-0.40625,1.15234375,-7.8125,0.58203125
4109421,,,,,,,,-0.4921875,2.59765625,-0.09375,-0.294921875,-0.3359375,-0.271484375,1.84375,-6.8125,0.3515625
4109422,,,,,,,,-0.4296875,2.4765625,0.05078125,-0.283203125,-0.33203125,-0.244140625,1.921875,-6.9296875,0.46484375
4109423,,,,,,,,-0.33984375,2.27734375,0.16796875,-0.259765625,-0.314453125,-0.216796875,2.03515625,-7.12109375,0.54296875
4109424,,,,,,,,-0.31640625,1.9609375,0.19140625,-0.2421875,-0.27734375,-0.177734375,2.07421875,-7.4296875,0.54296875
4109425,,,,,,,,-0.37109375,1.6171875,0.23046875,-0.21875,-0.24609375,-0.072265625,2.03515625,-7.77734375,0.54296875
4109426,,,,,,,,-0.41015625,1.46484375,0.21484375,-0.201171875,-0.234375,0.025390625,1.99609375,-7.921875,0.50390625
4109427,,,,,,,,-0.5078125,1.1953125,0.1640625,-0.1796875,-0.236328125,0.12109375,1.8828125,-8.1953125,0.4296875
4109428,,,,,,,,-0.5703125,0.8984375,0.1796875,-0.158203125,-0.244140625,0.201171875,1.8046875,-8.5,0.4296875
4109429,,,,,,,,-0.66015625,0.40625,0.27734375,-0.1328125,-0.251953125,0.259765625,1.69140625,-9.00390625,0.50390625
4109430,36.013082000000004,129.32013616666666,138.48357261329932,75.675291071224,1.1,227.0,,-0.77734375,0.0625,0.37109375,-0.107421875,-0.24609375,0.30078125,1.53515625,-9.34375,0.58203125
4109431,,,,,,,,-0.97265625,-0.3125,0.53125,-0.080078125,-0.208984375,0.337890625,1.30859375,-9.73046875,0.734375
4109432,,,,,,,,-1.01953125,-0.41796875,0.6171875,-0.052734375,-0.1640625,0.37890625,1.23046875,-9.8359375,0.8125
4109433,,,,,,,,-1.01953125,-0.44921875,0.5859375,-0.029296875,-0.123046875,0.41015625,1.19140625,-9.87890625,0.7734375
4109434,,,,,,,,-1.046875,-0.43359375,0.625,-0.015625,-0.111328125,0.44140625,1.1171875,-9.87890625,0.8125
4109435,,,,,,,,-1.03125,-0.43359375,0.625,-0.001953125,-0.107421875,0.44921875,1.078125,-9.87890625,0.8125
4109436,,,,,,,,-1.015625,-0.46484375,0.5859375,-0.005859375,-0.1015625,0.447265625,1.078125,-9.9140625,0.7734375
4109437,,,,,,,,-1.046875,-0.6875,0.44140625,-0.005859375,-0.08203125,0.44921875,1.0,-10.15234375,0.62109375
4109438,,,,,,,,-1.28125,-0.9765625,0.32421875,0.009765625,-0.021484375,0.46484375,0.6953125,-10.453125,0.50390625
4109439,,,,,,,,-1.58203125,-1.046875,0.35546875,0.03125,0.029296875,0.4453125,0.34765625,-10.53125,0.54296875
4109440,36.01308100000001,129.32013533333333,138.40845036573992,75.56433064486876,1.2000000000000002,221.0,,-1.9921875,-0.88671875,0.41796875,0.0546875,0.107421875,0.39453125,-0.109375,-10.375,0.62109375
4109441,,,,,,,,-2.03125,-0.5703125,0.453125,0.076171875,0.193359375,0.359375,-0.1875,-10.07421875,0.65625
4109442,,,,,,,,-1.85546875,-0.2578125,0.33203125,0.1015625,0.24609375,0.341796875,-0.03515625,-9.76953125,0.54296875
4109443,,,,,,,,-1.39453125,-0.41015625,0.26953125,0.134765625,0.3046875,0.314453125,0.38671875,-9.9140625,0.50390625
4109444,,,,,,,,-0.6640625,-1.55859375,0.31640625,0.17578125,0.3515625,0.189453125,1.078125,-11.06640625,0.58203125
4109445,,,,,,,,-0.48828125,-2.625,0.359375,0.193359375,0.41015625,0.060546875,1.23046875,-12.140625,0.65625
4109446,,,,,,,,-1.140625,-3.62109375,0.99609375,0.203125,0.4453125,0.0,0.578125,-13.13671875,1.30859375
4109447,,,,,,,,-1.9453125,-3.4375,1.76953125,0.201171875,0.66015625,-0.162109375,-0.609375,-12.87109375,2.421875
4109448,,,,,,,,-2.56640625,-3.62890625,2.16796875,0.197265625,0.87109375,-0.26171875,-0.76171875,-13.37109375,2.49609375
4109449,,,,,,,,-2.48828125,-3.859375,2.10546875,0.20703125,0.939453125,-0.248046875,-0.64453125,-13.55859375,2.61328125
4109450,36.01308016666667,129.32013450000002,138.33332782901158,75.47186342528866,1.2000000000000002,219.0,,-1.9921875,-0.88671875,0.41796875,0.21484375,0.787109375,-0.056640625,-0.53125,-13.40234375,3.22265625
4109451,,,,,,,,-2.43359375,-3.40625,2.5859375,0.189453125,0.564453125,-0.015625,-0.68359375,-12.6015625,3.03125
4109452,,,,,,,,-2.234375,-2.70703125,2.36328125,0.138671875,0.52734375,-0.12890625,-0.30078125,-12.06640625,2.91796875
4109453,,,,,,,,-2.05078125,-2.5546875,2.37890625,0.123046875,0.498046875,-0.166015625,0.234375,-11.71875,3.0703125
4109454,,,,,,,,-1.36328125,-2.06640625,2.4765625,0.08203125,0.240234375,-0.078125,0.54296875,-11.41796875,2.87890625
4109455,,,,,,,,-1.046875,-1.56640625,1.88671875,0.009765625,-0.181640625,0.041015625,0.734375,-10.95703125,2.3046875
4109456,,,,,,,,-1.15625,-1.3203125,1.65625,-0.01171875,-0.30078125,0.052734375,0.578125,-10.8359375,2.2265625
4109457,,,,,,,,-1.63671875,-1.51171875,1.8125,-0.03515625,-0.3515625,0.076171875,0.08203125,-11.0234375,2.3828125
4109458,,,,,,,,-1.75390625,-1.58984375,1.8203125,-0.04296875,-0.341796875,0.09375,-0.03515625,-11.1015625,2.3828125
4109459,,,,,,,,-1.7734375,-1.78125,1.94140625,-0.044921875,-0.255859375,0.134765625,-0.0703125,-11.30078125,2.49609375
4109460,36.013079,129.32013366666666,138.25820586698777,75.34240979188806,1.3,219.0,,-1.828125,-1.61328125,1.75,0.21484375,0.787109375,-0.056640625,-0.53125,-13.40234375,3.22265625
4109461,,,,,,,,-1.7265625,-1.18359375,1.671875,0.025390625,-0.099609375,0.189453125,-0.0703125,-10.71875,2.2265625
4109462,,,,,,,,-1.55078125,-0.41796875,1.16796875,0.05078125,-0.03515625,0.1796875,0.08203125,-9.953125,1.73046875
4109463,,,,,,,,-1.26953125,0.39453125,0.77734375,0.06640625,-0.015625,0.166015625,0.34765625,-9.1484375,1.34765625
4109464,,,,,,,,-1.08984375,1.0546875,0.53125,0.072265625,-0.078125,0.1796875,0.50390625,-8.5,1.1171875
4109465,,,,,,,,-1.05859375,1.40625,0.4453125,0.048828125,-0.193359375,0.232421875,0.50390625,-8.15625,1.0390625
4109466,,,,,,,,-1.04296875,1.71875,0.37109375,0.046875,-0.212890625,0.25390625,0.50390625,-7.85546875,0.96484375
4109467,,,,,,,,-1.12890625,2.10546875,0.28515625,0.041015625,-0.21875,0.30859375,0.38671875,-7.4609375,0.88671875
4109468,,,,,,,,-1.203125,2.33984375,0.24609375,0.052734375,-0.20703125,0.361328125,0.2734375,-7.23828125,0.84765625
4109469,,,,,,,,-1.4765625,2.76953125,0.0390625,0.095703125,-0.19921875,0.3984375,-0.0703125,-6.81640625,0.65625
4109470,36.01307833333333,129.32013283333333,138.18308303188516,75.26843578106141,1.1,220.0,,-1.75390625,2.9765625,-0.08203125,0.123046875,-0.185546875,0.38671875,-0.53125,-13.40234375,3.22265625
4109471,,,,,,,,-2.05859375,3.16796875,-0.25,0.1484375,-0.1875,0.353515625,-0.72265625,-6.4296875,0.390625
4109472,,,,,,,,-2.2890625,3.21484375,-0.3515625,0.173828125,-0.19921875,0.3203125,-0.9921875,-6.390625,0.3125
4109473,,,,,,,,-2.5234375,3.21484375,-0.48046875,0.197265625,-0.224609375,0.298828125,-1.2578125,-6.39453125,0.19921875
4109474,,,,,,,,-2.6015625,3.1015625,-0.54296875,0.205078125,-0.25390625,0.318359375,-1.375,-6.51171875,0.16015625
4109475,,,,,,,,-2.63671875,2.83984375,-0.671875,0.197265625,-0.265625,0.31640625,-1.44921875,-6.7734375,0.046875
4109476,,,,,,,,-2.5859375,2.6796875,-0.63671875,0.1796875,-0.27734375,0.3125,-1.4140625,-6.9296875,0.08203125
4109477,,,,,,,,-2.3984375,2.265625,-0.6953125,0.15234375,-0.267578125,0.2890625,-1.2578125,-7.3515625,0.046875
4109478,,,,,,,,-2.17578125,1.921875,-0.59765625,0.1171875,-0.24609375,0.240234375,-1.06640625,-7.6953125,0.16015625
4109479,,,,,,,,-2.078125,1.69140625,-0.453125,0.08203125,-0.220703125,0.171875,-0.9921875,-7.92578125,0.3125
4109480,36.01307733333333,129.320132,138.10796077971108,75.15747535594744,1.2000000000000002,220.0,,-1.9453125,1.57421875,-0.19140625,0.03125,-0.201171875,0.046875,-0.875,-8.04296875,0.58203125
4109481,,,,,,,,-1.9296875,1.73046875,-0.19140625,0.01171875,-0.208984375,-0.03125,-0.875,-7.8828125,0.58203125
4109482,,,,,,,,-1.81640625,1.8359375,-0.19140625,0.009765625,-0.224609375,-0.060546875,-0.76171875,-7.77734375,0.58203125
4109483,,,,,,,,-1.85546875,1.875,-0.3515625,0.0078125,-0.25,-0.109375,-0.80078125,-7.73828125,0.4296875
4109484,,,,,,,,-1.82421875,1.68359375,-0.4296875,0.015625,-0.265625,-0.12890625,-0.76171875,-7.921875,0.3515625
4109485,,,,,,,,-1.72265625,1.1015625,-0.54296875,0.03515625,-0.326171875,-0.162109375,-0.64453125,-8.50390625,0.23828125
4109486,,,,,,,,-1.46484375,0.37109375,-0.5078125,0.0625,-0.341796875,-0.16015625,-0.37890625,-9.23046875,0.2734375
4109487,,,,,,,,-1.35546875,0.14453125,-0.515625,0.076171875,-0.328125,-0.150390625,-0.26171875,-9.453125,0.2734375
4109488,,,,,,,,-0.98828125,-0.640625,-0.21484375,0.11328125,-0.271484375,-0.171875,0.12109375,-10.23046875,0.58203125
4109489,,,,,,,,-0.99609375,-0.75390625,-0.109375,0.126953125,-0.24609375,-0.197265625,0.12109375,-10.3359375,0.6953125
4109490,36.013076500000004,129.32013116666667,138.03283823247023,75.06500814103028,1.2000000000000002,222.0,,-1.05078125,-1.10546875,0.375,0.03125,-0.201171875,0.046875,-0.875,-8.04296875,0.58203125
4109491,,,,,,,,-1.04296875,-1.265625,0.42578125,0.1953125,-0.1796875,-0.33203125,0.12109375,-10.83984375,1.26953125
4109492,,,,,,,,-1.16796875,-1.23828125,0.3203125,0.25390625,-0.185546875,-0.3515625,0.04296875,-10.80078125,1.1953125
4109493,,,,,,,,-1.14453125,-1.08984375,-0.01171875,0.283203125,-0.166015625,-0.33984375,0.08203125,-10.64453125,0.88671875
4109494,,,,,,,,-0.9453125,-0.984375,-0.34765625,0.30859375,-0.150390625,-0.27734375,0.3125,-10.53125,0.58203125
4109495,,,,,,,,-0.703125,-0.80078125,-0.47265625,0.31640625,-0.1484375,-0.173828125,0.578125,-10.33984375,0.50390625
4109496,,,,,,,,-0.59375,-0.49609375,-0.37890625,0.3125,-0.11328125,-0.142578125,0.6953125,-10.03125,0.62109375
4109497,,,,,,,,-0.75390625,-0.1640625,-0.3359375,0.30078125,-0.0390625,-0.15234375,0.54296875,-9.69140625,0.6953125
4109498,,,,,,,,-1.15625,0.29296875,-0.17578125,0.275390625,0.0546875,-0.162109375,0.15625,-9.2265625,0.88671875
4109499,,,,,,,,-1.5078125,0.25,-0.17578125,0.23828125,0.19140625,-0.150390625,-0.1875,-9.265625,0.92578125
4109500,36.013075666666666,129.32013016666667,137.94269088313942,74.97254068828279,1.2000000000000002,223.0,0.0,-1.8984375,-0.87109375,-0.58984375,0.220703125,0.2421875,-0.083984375,-0.875,-8.04296875,0.58203125
4109501,,,,,,,,-1.4296875,-1.98828125,-0.1171875,0.19140625,0.314453125,-0.037109375,-0.109375,-11.484375,1.0390625
4109502,,,,,,,,-0.38671875,-2.640625,0.93359375,0.16796875,0.421875,-0.04296875,0.92578125,-12.14453125,2.11328125
4109503,,,,,,,,0.5390625,-3.7109375,1.140625,0.1484375,0.6171875,-0.10546875,1.84375,-13.21484375,2.34375
4109504,,,,,,,,2.8671875,-5.40625,2.3046875,0.0859375,0.84375,-0.298828125,4.1796875,-14.90234375,3.53125
4109505,,,,,,,,4.61328125,-5.09765625,4.3203125,0.025390625,0.890625,-0.552734375,5.94140625,-14.5859375,5.5625
4109506,,,,,,,,4.359375,-4.609375,4.1953125,0.01171875,0.8515625,-0.669921875,5.7109375,-14.09375,5.4453125
4109507,,,,,,,,1.84765625,-3.3515625,3.30078125,0.01171875,0.775390625,-0.87109375,3.26171875,-12.83203125,4.56640625
4109508,,,,,,,,0.328125,-3.70703125,2.9765625,0.005859375,0.728515625,-0.912109375,1.8046875,-13.171875,4.2578125
4109509,,,,,,,,-0.5390625,-3.796875,2.6640625,0.037109375,0.333984375,-0.505859375,1.0,-13.25,3.953125
4109510,36.01307516666667,129.320129,137.83751815442378,74.9170594148839,1.2000000000000002,229.0,,0.01171875,-2.984375,2.37890625,0.087890625,-0.3125,0.00390625,1.57421875,-12.4453125,3.68359375
4109511,,,,,,,,0.7109375,-1.76171875,2.10546875,0.15625,-0.61328125,-0.140625,2.265625,-11.22265625,3.41796875
4109512,,,,,,,,0.6015625,-0.609375,1.55859375,0.095703125,-0.5234375,-0.326171875,2.1875,-10.07421875,2.87890625
4109513,,,,,,,,0.51171875,-0.34375,1.1015625,0.0546875,-0.5390625,-0.33984375,2.11328125,-9.80859375,2.421875
4109514,,,,,,,,0.48046875,-0.54296875,0.83203125,-0.037109375,-0.6484375,-0.2265625,2.11328125,-9.9921875,2.15234375
4109515,,,,,,,,0.6484375,-0.9921875,0.9609375,-0.138671875,-0.67578125,-0.076171875,2.3046875,-10.453125,2.265625
4109516,,,,,,,,0.41015625,-0.91796875,1.1015625,-0.21484375,-0.505859375,-0.0546875,2.07421875,-10.37890625,2.3828125
4109517,,,,,,,,0.01953125,-0.36328125,1.125,-0.251953125,-0.216796875,-0.19140625,1.69140625,-9.83984375,2.3828125
4109518,,,,,,,,-0.41796875,0.27734375,0.87109375,-0.255859375,-0.08984375,-0.267578125,1.26953125,-9.19140625,2.11328125
4109519,,,,,,,,-0.6328125,1.16015625,0.58984375,-0.248046875,0.025390625,-0.33203125,1.078125,-8.3046875,1.80859375
4109520,36.01307416666667,129.32012799999998,137.74737109013788,74.8060987586718,1.3,229.0,,-0.80859375,2.23046875,0.18359375,-0.23046875,-0.06640625,-0.28515625,1.57421875,-12.4453125,3.68359375
4109521,,,,,,,,-0.91015625,2.73046875,-0.03125,-0.232421875,-0.25390625,-0.20703125,0.84765625,-6.73828125,1.15625
4109522,,,,,,,,-0.88671875,3.2265625,-0.31640625,-0.25,-0.361328125,-0.173828125,0.88671875,-6.24609375,0.84765625
4109523,,,,,,,,-0.86328125,3.3046875,-0.3359375,-0.263671875,-0.388671875,-0.1640625,0.92578125,-6.1640625,0.8125
4109524,,,,,,,,-0.6796875,3.45703125,-0.57421875,-0.298828125,-0.37109375,-0.140625,1.1171875,-6.0078125,0.54296875
4109525,,,,,,,,-0.421875,3.55078125,-0.54296875,-0.322265625,-0.302734375,-0.12890625,1.3828125,-5.93359375,0.54296875
4109526,,,,,,,,-0.24609375,3.55078125,-0.46484375,-0.33984375,-0.224609375,-0.115234375,1.57421875,-5.9296875,0.58203125
4109527,,,,,,,,-0.14453125,3.3984375,-0.265625,-0.337890625,-0.1171875,-0.18359375,1.69140625,-6.0859375,0.734375
4109528,,,,,,,,-0.19921875,3.359375,-0.2890625,-0.328125,-0.076171875,-0.201171875,1.65234375,-6.125,0.6953125
4109529,,,,,,,,-0.25390625,3.16796875,-0.10546875,-0.3125,-0.05859375,-0.21484375,1.61328125,-6.3125,0.84765625
4109530,36.01307366666666,129.32012733333335,137.68727275891905,74.7506181947826,1.0,229.0,,-0.35546875,3.015625,-0.1484375,-0.291015625,-0.095703125,-0.16796875,1.53515625,-6.47265625,0.7734375
4109531,,,,,,,,-0.37109375,2.62109375,-0.140625,-0.267578125,-0.16015625,-0.1015625,1.53515625,-6.85546875,0.734375
4109532,,,,,,,,-0.33203125,2.46875,-0.1640625,-0.263671875,-0.166015625,-0.091796875,1.57421875,-7.01171875,0.6953125
4109533,,,,,,,,-0.34765625,2.125,-0.1640625,-0.248046875,-0.177734375,-0.080078125,1.57421875,-7.3515625,0.65625
4109534,,,,,,,,-0.27734375,1.93359375,-0.0703125,-0.23046875,-0.166015625,-0.068359375,1.65234375,-7.5390625,0.734375
4109535,,,,,,,,-0.28515625,1.78125,-0.0859375,-0.2109375,-0.169921875,-0.033203125,1.65234375,-7.6953125,0.6953125
4109536,,,,,,,,-0.27734375,1.55078125,-0.078125,-0.19921875,-0.169921875,-0.009765625,1.65234375,-7.921875,0.6953125
4109537,,,,,,,,-0.421875,1.19921875,-0.09375,-0.18359375,-0.169921875,0.0625,1.5,-8.265625,0.65625
4109538,,,,,,,,-0.53125,0.9765625,-0.15234375,-0.166015625,-0.1640625,0.095703125,1.3828125,-8.5,0.58203125
4109539,,,,,,,,-0.484375,0.8984375,-0.10546875,-0.15234375,-0.15234375,0.10546875,1.421875,-8.58203125,0.62109375
4109540,36.01307283333333,129.3201265,137.6121502034267,74.65815098108854,1.2000000000000002,226.0,,-0.5546875,0.29296875,-0.12890625,-0.291015625,-0.095703125,-0.16796875,1.34375,-9.1875,0.58203125
4109541,,,,,,,,-0.5390625,-0.01171875,-0.0078125,-0.126953125,-0.109375,0.1484375,1.34375,-9.49609375,0.6953125
4109542,,,,,,,,-0.40625,-0.5859375,0.16015625,-0.125,-0.083984375,0.1640625,1.4609375,-10.0703125,0.84765625
4109543,,,,,,,,-0.19140625,-0.93359375,0.28515625,-0.125,-0.05859375,0.169921875,1.65234375,-10.41796875,0.96484375
4109544,,,,,,,,-0.12890625,-1.26953125,0.5703125,-0.125,-0.01171875,0.18359375,1.69140625,-10.76171875,1.234375
4109545,,,,,,,,-0.06640625,-1.22265625,0.73046875,-0.12109375,0.005859375,0.21484375,1.73046875,-10.71875,1.38671875
4109546,,,,,,,,-0.08984375,-1.22265625,0.77734375,-0.1171875,0.0078125,0.234375,1.69140625,-10.72265625,1.42578125
4109547,,,,,,,,-0.10546875,-1.18359375,0.63671875,-0.10546875,0.0078125,0.283203125,1.65234375,-10.68359375,1.26953125
4109548,,,,,,,,-0.14453125,-1.26171875,0.6015625,-0.0859375,-0.005859375,0.326171875,1.57421875,-10.76171875,1.234375
4109549,,,,,,,,-0.2265625,-1.28515625,0.609375,-0.064453125,-0.03515625,0.341796875,1.4609375,-10.80078125,1.234375
4109550,36.013071833333335,129.32012566666666,137.53702793655086,74.54719056282663,1.3,224.0,,-0.1953125,-1.359375,0.5625,-0.291015625,-0.095703125,-0.16796875,1.4609375,-10.87890625,1.1953125
4109551,,,,,,,,-0.25,-1.359375,0.609375,-0.015625,0.017578125,0.283203125,1.3828125,-10.875,1.234375
4109552,,,,,,,,-0.2109375,-1.16015625,0.63671875,0.0,0.056640625,0.287109375,1.3828125,-10.68359375,1.26953125
4109553,,,,,,,,-0.0703125,-0.9609375,0.67578125,0.01953125,0.125,0.27734375,1.5,-10.4921875,1.30859375
4109554,,,,,,,,0.12890625,-1.57421875,0.62109375,0.04296875,0.23828125,0.287109375,1.65234375,-11.1015625,1.26953125
4109555,,,,,,,,-0.03125,-3.25390625,0.421875,0.064453125,0.294921875,0.306640625,1.4609375,-12.79296875,1.078125
4109556,,,,,,,,-0.24609375,-3.90234375,0.4921875,0.072265625,0.322265625,0.322265625,1.23046875,-13.4375,1.15625
4109557,,,,,,,,-1.43359375,-4.5859375,2.0078125,0.076171875,0.41796875,0.33203125,0.00390625,-14.1328125,2.6875
4109558,,,,,,,,-2.4296875,-4.0859375,3.37109375,0.0625,0.599609375,0.302734375,-1.03125,-13.6328125,4.06640625
4109559,,,,,,,,-2.96484375,-2.96875,3.01171875,0.068359375,0.81640625,0.26171875,-1.60546875,-12.52734375,3.72265625
4109560,36.013070666666664,129.32012500000002,137.47693076169213,74.41773717225385,1.3,218.0,,-2.6328125,-1.19921875,2.51953125,0.12890625,0.74609375,0.3984375,-1.3359375,-10.76171875,3.26171875
4109561,,,,,,,,-1.98046875,-0.73046875,2.3828125,0.11328125,0.3984375,0.40625,-0.72265625,-10.296875,3.1484375
4109562,,,,,,,,-1.25390625,-0.9140625,2.328125,0.068359375,0.169921875,0.189453125,-0.03515625,-10.49609375,3.109375
4109563,,,,,,,,-0.984375,-1.10546875,2.3984375,0.044921875,0.103515625,0.109375,0.234375,-10.68359375,3.1875
4109564,,,,,,,,-0.2421875,-1.71875,2.42578125,-0.001953125,-0.021484375,0.0703125,0.9609375,-11.30078125,3.22265625
4109565,,,,,,,,-0.30078125,-2.1015625,2.2734375,-0.041015625,-0.0625,0.111328125,0.88671875,-11.6796875,3.0703125
4109566,,,,,,,,-0.66796875,-2.171875,2.54296875,-0.005859375,-0.033203125,0.185546875,0.50390625,-11.76171875,3.33984375
4109567,,,,,,,,-1.296875,-2.0859375,2.6484375,0.0234375,0.005859375,0.263671875,-0.1484375,-11.68359375,3.453125
4109568,,,,,,,,-1.81640625,-1.7421875,2.7265625,0.03125,0.029296875,0.283203125,-0.68359375,-11.3359375,3.53125
4109569,,,,,,,,-1.73046875,-1.12109375,2.3671875,0.068359375,0.0859375,0.369140625,-0.64453125,-10.72265625,3.1875
4109570,36.01306983333333,129.32012416666666,137.4018081992246,74.32526996036653,1.2000000000000002,218.0,,-1.07421875,-0.84375,1.890625,0.12890625,0.74609375,0.3984375,-0.03515625,-10.453125,2.7265625
4109571,,,,,,,,-0.91015625,-0.38671875,1.4921875,0.1484375,-0.044921875,0.380859375,0.08203125,-9.99609375,2.34375
4109572,,,,,,,,-0.90234375,-0.37890625,1.484375,0.173828125,-0.107421875,0.302734375,0.08203125,-9.8046875,2.19140625
4109573,,,,,,,,-0.80859375,0.08203125,1.03125,0.166015625,-0.076171875,0.287109375,0.1953125,-9.1484375,1.69140625
4109574,,,,,,,,-0.7109375,1.31640625,0.33203125,0.1796875,-0.10546875,0.32421875,0.15625,-8.3046875,1.26953125
4109575,,,,,,,,-0.70703125,1.62890625,0.2421875,0.193359375,-0.14453125,0.302734375,0.12109375,-8.00390625,1.1953125
4109576,,,,,,,,-0.6640625,1.9765625,0.109375,0.212890625,-0.16015625,0.291015625,0.15625,-7.65625,1.078125
4109577,,,,,,,,-0.4765625,2.3203125,0.0859375,0.23046875,-0.181640625,0.26953125,0.3125,-7.3125,1.078125
4109578,,,,,,,,-0.37890625,2.7109375,-0.203125,0.248046875,-0.193359375,0.25390625,0.38671875,-6.9296875,0.8125
4109579,,,,,,,,-0.32421875,2.85546875,-0.2578125,0.2578125,-0.1875,0.228515625,0.42578125,-6.7734375,0.7734375
4109580,36.013069,129.32012350000002,137.3417104410119,74.23280298501656,1.1,218.0,,-0.5,2.96875,-0.3984375,0.12890625,0.74609375,0.3984375,0.234375,-6.66796875,0.65625
4109581,,,,,,,,-0.70703125,3.0078125,-0.50390625,0.2890625,-0.201171875,0.146484375,0.00390625,-6.62890625,0.58203125
4109582,,,,,,,,-1.03515625,3.125,-0.61328125,0.3046875,-0.201171875,0.12890625,-0.33984375,-6.5078125,0.50390625
4109583,,,,,,,,-1.203125,3.0390625,-0.62109375,0.30078125,-0.18359375,0.12890625,-0.53125,-6.58984375,0.54296875
4109584,,,,,,,,-1.41796875,2.92578125,-0.65234375,0.283203125,-0.171875,0.109375,-0.76171875,-6.6953125,0.54296875
4109585,,,,,,,,-1.5625,2.65625,-0.64453125,0.2578125,-0.171875,0.0859375,-0.9140625,-6.97265625,0.58203125
4109586,,,,,,,,-1.515625,2.5703125,-0.65234375,0.248046875,-0.171875,0.087890625,-0.875,-7.046875,0.58203125
4109587,,,,,,,,-1.48046875,2.34375,-0.67578125,0.212890625,-0.19140625,0.078125,-0.83984375,-7.27734375,0.58203125
4109588,,,,,,,,-1.234375,2.02734375,-0.66015625,0.177734375,-0.1953125,0.076171875,-0.609375,-7.578125,0.62109375
4109589,,,,,,,,-1.0703125,1.953125,-0.6015625,0.140625,-0.19921875,0.0703125,-0.453125,-7.65625,0.6953125
4109590,36.01306816666667,129.32012266666666,137.26658787730233,74.14033577542854,1.2000000000000002,220.0,,-0.94140625,1.828125,-0.5078125,0.087890625,-0.19921875,0.041015625,-0.33984375,-7.77734375,0.8125
4109591,,,,,,,,-0.91015625,1.40625,-0.44140625,0.0546875,-0.1875,0.025390625,-0.30078125,-8.1953125,0.88671875
4109592,,,,,,,,-0.86328125,1.25390625,-0.48828125,0.017578125,-0.177734375,0.005859375,-0.1484375,-8.6875,0.734375
4109593,,,,,,,,-0.75,0.91015625,-0.6015625,0.0078125,-0.177734375,0.01171875,-0.03515625,-8.84765625,0.7734375
4109594,,,,,,,,-0.58984375,0.59375,-0.48828125,0.0,-0.177734375,0.015625,0.04296875,-9.109375,0.88671875
4109595,,,,,,,,-0.4453125,0.2109375,-0.296875,-0.005859375,-0.177734375,0.0078125,0.1953125,-9.45703125,1.15625
4109596,,,,,,,,-0.4375,0.05078125,-0.109375,-0.01171875,-0.15234375,-0.009765625,0.04296875,-9.53125,1.38671875
4109597,,,,,,,,-0.58984375,0.09765625,0.00390625,-0.005859375,-0.138671875,-0.015625,-0.109375,-9.42578125,1.30859375
4109598,,,,,,,,-0.703125,0.1640625,-0.03515625,0.001953125,-0.1328125,-0.013671875,-0.1875,-9.421875,1.15625
4109599,,,,,,,,-0.93359375,0.08984375,-0.3046875,0.0234375,-0.150390625,0.015625,-0.41796875,-9.57421875,0.92578125
4109600,36.01306733333333,129.32012166666667,137.17644051173264,74.047868331244,1.2000000000000002,222.0,0.0,-0.94140625,1.828125,-0.5078125,0.087890625,-0.19921875,0.041015625,-0.4921875,-9.8359375,0.96484375
4109601,,,,,,,,-1.0703125,-0.609375,-0.42578125,0.0625,-0.22265625,0.056640625,-0.4921875,-10.1875,0.92578125
4109602,,,,,,,,-0.91796875,-1.07421875,-0.35546875,0.080078125,-0.201171875,0.05078125,-0.33984375,-10.640625,1.00390625
4109603,,,,,,,,-0.6796875,-1.22265625,-0.25,0.07421875,-0.140625,0.013671875,-0.109375,-10.796875,1.1171875
4109604,,,,,,,,-0.328125,-1.14453125,-0.1875,0.078125,-0.052734375,-0.01953125,0.234375,-10.72265625,1.1953125
4109605,,,,,,,,0.015625,-0.80859375,-0.234375,0.0703125,0.048828125,-0.0546875,0.578125,-10.375,1.15625
4109606,,,,,,,,0.171875,-0.546875,-0.3203125,0.05859375,0.1171875,-0.056640625,0.734375,-10.109375,1.078125
4109607,,,,,,,,0.1640625,-0.125,-0.47265625,0.052734375,0.146484375,-0.052734375,0.734375,-9.69140625,0.92578125
4109608,,,,,,,,-0.01953125,0.21875,-0.56640625,0.048828125,0.173828125,-0.03515625,0.54296875,-9.34765625,0.84765625
4109609,,,,,,,,-0.328125,0.5234375,-0.49609375,0.052734375,0.208984375,-0.013671875,0.234375,-9.04296875,0.92578125
4109610,36.0130665,129.32012066666667,137.08629314328095,73.9554008884473,1.3,224.0,,-0.89453125,0.02734375,-0.42578125,0.087890625,-0.19921875,0.041015625,-0.33984375,-9.53515625,1.00390625
4109611,,,,,,,,-0.734375,-2.5078125,-0.3203125,0.041015625,0.3125,0.0390625,-0.1875,-12.0625,1.1171875
4109612,,,,,,,,-0.06640625,-3.2734375,0.70703125,0.017578125,0.388671875,0.052734375,0.46484375,-12.828125,2.15234375
4109613,,,,,,,,0.8671875,-3.54296875,1.7421875,0.00390625,0.509765625,0.0390625,1.3828125,-13.09765625,3.1875
4109614,,,,,,,,2.23046875,-4.1171875,1.93359375,-0.044921875,0.908203125,-0.115234375,2.72265625,-13.671875,3.37890625
4109615,,,,,,,,3.21875,-3.65625,2.46875,-0.07421875,1.0390625,-0.21875,3.71875,-13.21484375,3.9140625
4109616,,,,,,,,3.18359375,-3.390625,2.5078125,-0.080078125,0.99609375,-0.25,3.68359375,-12.9453125,3.953125
4109617,,,,,,,,2.4453125,-2.546875,2.8046875,-0.072265625,0.771484375,-0.220703125,2.953125,-12.1015625,4.2578125
4109618,,,,,,,,1.75,-2.46875,2.8125,-0.078125,0.5859375,-0.1328125,2.265625,-12.02734375,4.2578125
4109619,,,,,,,,0.37109375,-3.07421875,2.96484375,-0.046875,0.287109375,-0.0078125,0.88671875,-12.63671875,4.41015625
4109620,36.013065833333336,129.32011966666667,136.99614548474082,73.88142665342733,1.3,229.0,,-0.2265625,-3.49609375,2.765625,0.01953125,-0.046875,0.05859375,-0.33984375,-9.53515625,1.00390625
4109621,,,,,,,,-0.03515625,-3.34375,2.34765625,0.0859375,-0.259765625,0.013671875,0.46484375,-12.91015625,3.80078125
4109622,,,,,,,,0.76953125,-2.109375,2.17578125,0.09375,-0.357421875,-0.029296875,1.26953125,-11.6796875,3.64453125
4109623,,,,,,,,0.953125,-1.66015625,1.984375,0.07421875,-0.37109375,-0.04296875,1.4609375,-11.22265625,3.453125
4109624,,,,,,,,1.2421875,-0.6640625,1.48046875,0.021484375,-0.357421875,-0.119140625,1.765625,-10.2265625,2.95703125
4109625,,,,,,,,1.10546875,-0.34765625,1.09765625,-0.07421875,-0.44921875,-0.14453125,1.65234375,-9.91796875,2.57421875
4109626,,,,,,,,0.8203125,-0.30859375,0.921875,-0.134765625,-0.517578125,-0.08203125,1.3828125,-9.875,2.3828125
4109627,,,,,,,,0.5078125,-0.1484375,0.74609375,-0.177734375,-0.400390625,-0.06640625,1.078125,-9.7265625,2.19140625
4109628,,,,,,,,0.26171875,0.12109375,0.484375,-0.19140625,-0.3125,-0.0703125,0.84765625,-9.453125,1.921875
4109629,,,,,,,,0.1015625,0.625,0.4609375,-0.21875,-0.14453125,-0.099609375,0.6953125,-8.9609375,1.8828125
4109630,36.01306483333334,129.32011849999998,136.89097359659195,73.77046577132063,1.3,229.0,,-0.05859375,1.125,0.171875,0.01953125,-0.046875,0.05859375,0.54296875,-8.4609375,1.578125
4109631,,,,,,,,-0.10546875,1.3984375,0.00390625,-0.244140625,-0.052734375,-0.107421875,0.50390625,-8.1953125,1.38671875
4109632,,,,,,,,-0.08203125,2.01171875,-0.125,-0.244140625,-0.111328125,-0.056640625,0.54296875,-7.58203125,1.234375
4109633,,,,,,,,-0.0546875,2.40234375,-0.296875,-0.244140625,-0.140625,-0.05859375,0.578125,-7.19921875,1.0390625
4109634,,,,,,,,0.12890625,2.79296875,-0.45703125,-0.265625,-0.134765625,-0.076171875,0.76953125,-6.8125,0.84765625
4109635,,,,,,,,0.4296875,2.9921875,-0.5078125,-0.271484375,-0.12890625,-0.056640625,1.078125,-6.62890625,0.7734375
4109636,,,,,,,,0.49609375,3.03125,-0.453125,-0.28125,-0.14453125,-0.044921875,1.15234375,-6.5859375,0.8125
4109637,,,,,,,,0.6875,3.109375,-0.421875,-0.294921875,-0.154296875,-0.029296875,1.34375,-6.5078125,0.8125
4109638,,,,,,,,0.7578125,3.15625,-0.4609375,-0.291015625,-0.15234375,-0.025390625,1.421875,-6.46875,0.734375
4109639,,,,,,,,0.86328125,3.078125,-0.4375,-0.275390625,-0.154296875,-0.0234375,1.53515625,-6.546875,0.734375
4109640,36.013064500000006,129.32011766666668,136.8158501654372,73.7334781868215,1.1,232.0,,0.93359375,2.84765625,-0.58984375,0.01953125,-0.046875,0.05859375,0.54296875,-8.4609375,1.578125
4109641,,,,,,,,0.8203125,2.6640625,-0.57421875,-0.216796875,-0.1640625,-0.078125,1.5,-6.96875,0.54296875
4109642,,,,,,,,0.734375,2.51171875,-0.3984375,-0.181640625,-0.15234375,-0.095703125,1.421875,-7.1171875,0.6953125
4109643,,,,,,,,0.60546875,2.3125,-0.2734375,-0.140625,-0.146484375,-0.078125,1.30859375,-7.3125,0.8125
4109644,,,,,,,,0.55859375,2.16796875,-0.19140625,-0.099609375,-0.12890625,-0.03515625,1.26953125,-7.46484375,0.88671875
4109645,,,,,,,,0.55859375,1.8203125,-0.21484375,-0.06640625,-0.111328125,0.0234375,1.26953125,-7.8125,0.84765625
4109646,,,,,,,,0.56640625,1.66796875,-0.296875,-0.0546875,-0.103515625,0.046875,1.26953125,-7.9609375,0.7734375
4109647,,,,,,,,0.60546875,1.0859375,-0.21484375,-0.0390625,-0.0859375,0.099609375,1.30859375,-8.5390625,0.84765625
4109648,,,,,,,,0.61328125,0.6640625,-0.17578125,-0.02734375,-0.080078125,0.1328125,1.30859375,-8.9609375,0.88671875
4109649,,,,,,,,0.58984375,0.08984375,0.0234375,-0.017578125,-0.07421875,0.138671875,1.26953125,-9.53125,1.078125
4109650,36.0130635,129.32011666666668,136.7257030778412,73.62251754048931,1.3,231.0,,0.52734375,-0.25390625,0.1796875,0.01953125,-0.046875,0.05859375,0.54296875,-8.4609375,1.578125
4109651,,,,,,,,0.57421875,-0.1796875,0.32421875,0.001953125,-0.0625,0.16015625,1.23046875,-9.8046875,1.38671875
4109652,,,,,,,,0.55078125,0.01171875,0.3984375,0.005859375,-0.078125,0.1953125,1.19140625,-9.61328125,1.4609375
4109653,,,,,,,,0.57421875,0.3203125,0.24609375,0.005859375,-0.07421875,0.224609375,1.19140625,-9.30859375,1.30859375
4109654,,,,,,,,0.63671875,0.2421875,0.0859375,0.001953125,-0.0859375,0.251953125,1.23046875,-9.3828125,1.15625
4109655,,,,,,,,0.73046875,0.08984375,-0.03125,-0.005859375,-0.078125,0.255859375,1.30859375,-9.53125,1.0390625
4109656,,,,,,,,0.71484375,-0.1015625,-0.18359375,-0.01953125,-0.076171875,0.2265625,1.26953125,-9.7265625,0.88671875
4109657,,,,,,,,0.62109375,-0.4921875,-0.2890625,-0.037109375,-0.041015625,0.1796875,1.15234375,-10.109375,0.7734375
4109658,,,,,,,,0.5234375,-0.80078125,-0.328125,-0.05859375,0.005859375,0.154296875,1.0390625,-10.4140625,0.734375
4109659,,,,,,,,0.078125,-0.8359375,0.0234375,-0.068359375,0.138671875,0.15625,0.578125,-10.453125,1.078125
4109660,36.01306266666666,129.32011566666668,136.63555570051696,73.5300501013837,1.3,228.0,,-0.2109375,-0.1484375,0.453125,-0.0859375,0.21484375,0.146484375,0.2734375,-9.765625,1.5
4109661,,,,,,,,-0.15625,0.38671875,0.5703125,-0.0859375,0.283203125,0.1328125,0.3125,-9.2265625,1.6171875
4109662,,,,,,,,0.35546875,0.80859375,0.38671875,-0.05859375,0.302734375,0.154296875,0.80859375,-8.8046875,1.42578125
4109663,,,,,,,,0.71484375,0.39453125,0.26953125,-0.041015625,0.251953125,0.15234375,1.15234375,-9.23046875,1.30859375
4109664,,,,,,,,1.0390625,-1.90234375,-0.02734375,-0.0546875,0.234375,0.07421875,1.4609375,-11.5234375,1.00390625
4109665,,,,,,,,0.51171875,-2.37109375,0.26953125,-0.064453125,0.314453125,-0.001953125,0.92578125,-11.98828125,1.30859375
4109666,,,,,,,,0.05078125,-2.1796875,0.5,-0.080078125,0.388671875,-0.0234375,0.46484375,-11.796875,1.5390625
4109667,,,,,,,,-1.015625,-1.40234375,1.46484375,-0.10546875,0.626953125,-0.07421875,-0.609375,-11.0234375,2.49609375
4109668,,,,,,,,-1.0234375,-2.9765625,1.97265625,-0.12890625,0.935546875,-0.126953125,-0.609375,-12.60546875,2.99609375
4109669,,,,,,,,-1.3203125,-4.8125,2.859375,-0.0546875,0.98828125,-0.015625,-0.9140625,-14.44140625,3.875
4109670,36.013061666666665,129.32011533333335,136.60550782138026,73.41909039229711,1.1,221.0,,-1.84765625,-4.97265625,3.80859375,-0.0859375,0.21484375,0.146484375,-1.44921875,-14.58984375,4.83203125
4109671,,,,,,,,-2.0859375,-4.046875,3.80859375,-0.033203125,0.62109375,0.236328125,-1.71875,-13.671875,4.83203125
4109672,,,,,,,,-1.01171875,-3.1953125,3.2734375,-0.09375,0.8203125,0.072265625,-0.68359375,-12.828125,4.296875
4109673,,,,,,,,-0.46875,-3.00390625,3.2734375,-0.095703125,0.765625,0.1015625,-0.1484375,-12.6328125,4.296875
4109674,,,,,,,,0.390625,-2.4296875,2.8984375,-0.10546875,0.298828125,0.171875,0.6953125,-12.0625,3.9140625
4109675,,,,,,,,0.13671875,-1.6640625,2.22265625,-0.115234375,-0.27734375,0.091796875,0.42578125,-11.30078125,3.22265625
4109676,,,,,,,,-0.15234375,-1.3515625,2.1484375,-0.111328125,-0.341796875,0.12109375,0.12109375,-10.9921875,3.1484375
4109677,,,,,,,,-0.375,-1.3515625,1.85546875,-0.076171875,-0.353515625,0.216796875,-0.109375,-10.99609375,2.83984375
4109678,,,,,,,,-0.328125,-1.3515625,1.62890625,-0.0625,-0.345703125,0.23828125,-0.0703125,-10.9921875,2.61328125
4109679,,,,,,,,-0.19140625,-1.15234375,1.50390625,0.0078125,-0.26953125,0.228515625,0.04296875,-10.796875,2.49609375
4109680,36.013061,129.32011466666665,136.54540975857293,73.34511662891339,1.1,220.0,,0.015625,-0.69140625,1.11328125,-0.0859375,0.21484375,0.146484375,0.234375,-10.3359375,2.11328125
4109681,,,,,,,,0.14453125,-0.0390625,0.71484375,0.130859375,-0.052734375,0.140625,0.34765625,-9.69140625,1.73046875
4109682,,,,,,,,0.24609375,0.609375,0.4296875,0.166015625,-0.015625,0.140625,0.42578125,-9.04296875,1.4609375
4109683,,,,,,,,0.37109375,1.23046875,0.1015625,0.19140625,-0.015625,0.154296875,0.54296875,-8.42578125,1.15625
4109684,,,,,,,,0.421875,1.64453125,-0.0390625,0.208984375,-0.021484375,0.169921875,0.578125,-8.00390625,1.0390625
4109685,,,,,,,,0.41015625,2.3359375,-0.328125,0.228515625,-0.041015625,0.185546875,0.54296875,-7.3125,0.7734375
4109686,,,,,,,,0.37109375,2.49609375,-0.3828125,0.2421875,-0.046875,0.193359375,0.50390625,-7.16015625,0.734375
4109687,,,,,,,,0.27734375,2.71875,-0.4453125,0.2578125,-0.068359375,0.19921875,0.38671875,-6.9296875,0.6953125
4109688,,,,,,,,0.0546875,2.91015625,-0.4375,0.2734375,-0.078125,0.205078125,0.15625,-6.734375,0.734375
4109689,,,,,,,,-0.1796875,3.015625,-0.66015625,0.2890625,-0.0859375,0.220703125,-0.109375,-6.62890625,0.54296875
4109690,36.01306016666667,129.32011383333332,136.47028717904996,73.2526494265762,1.1,222.0,,-0.39453125,3.1015625,-0.76953125,0.30078125,-0.09765625,0.23828125,-0.33984375,-6.55078125,0.46484375
4109691,,,,,,,,-0.70703125,3.09375,-1.0078125,0.3046875,-0.130859375,0.2421875,-0.68359375,-6.55078125,0.2734375
4109692,,,,,,,,-0.9140625,2.96875,-1.08203125,0.3046875,-0.146484375,0.232421875,-0.9140625,-6.66796875,0.23828125
4109693,,,,,,,,-0.984375,2.81640625,-1.12890625,0.30078125,-0.15234375,0.236328125,-0.9921875,-6.8125,0.19921875
4109694,,,,,,,,-1.0,2.50390625,-1.16015625,0.287109375,-0.158203125,0.248046875,-1.03125,-7.12109375,0.19921875
4109695,,,,,,,,-0.8515625,2.15234375,-1.0546875,0.265625,-0.1484375,0.259765625,-0.9140625,-7.4609375,0.3515625
4109696,,,,,,,,-0.62890625,1.796875,-1.0078125,0.25390625,-0.134765625,0.2421875,-0.72265625,-7.81640625,0.4296875
4109697,,,,,,,,-0.53515625,1.72265625,-0.87890625,0.22265625,-0.11328125,0.19140625,-0.64453125,-7.8828125,0.58203125
4109698,,,,,,,,-0.4921875,1.72265625,-0.8125,0.216796875,-0.1015625,0.16796875,-0.609375,-7.88671875,0.65625
4109699,,,,,,,,-0.3984375,1.67578125,-0.75,0.189453125,-0.107421875,0.12109375,-0.53125,-7.921875,0.734375
4109700,36.013059500000004,129.32011300000002,136.39516431310622,73.17867543064892,1.1,223.0,0.0,-0.23828125,1.58984375,-0.8203125,0.16796875,-0.12109375,0.091796875,-0.37890625,-8.0,0.6953125
4109701,,,,,,,,-0.078125,1.27734375,-0.94921875,0.15234375,-0.15234375,0.0625,-0.2265625,-8.30859375,0.58203125
4109702,,,,,,,,-0.15234375,1.0859375,-0.92578125,0.13671875,-0.20703125,0.041015625,-0.30078125,-8.50390625,0.62109375
4109703,,,,,,,,-0.11328125,0.6640625,-0.8671875,0.109375,-0.267578125,0.03515625,-0.26171875,-8.92578125,0.6953125
4109704,,,,,,,,-0.078125,0.38671875,-0.7578125,0.1015625,-0.27734375,0.046875,-0.2265625,-9.1875,0.8125
4109705,,,,,,,,-0.0390625,0.1875,-0.62890625,0.099609375,-0.267578125,0.0390625,-0.1875,-9.3828125,0.96484375
4109706,,,,,,,,-0.0390625,-0.00390625,-0.5546875,0.099609375,-0.2578125,0.02734375,-0.1875,-9.57421875,1.0390625
4109707,,,,,,,,-0.23828125,-0.26953125,-0.4453125,0.10546875,-0.232421875,0.0,-0.37890625,-9.8359375,1.15625
4109708,,,,,,,,-0.3515625,-0.47265625,-0.5,0.11328125,-0.197265625,-0.033203125,-0.4921875,-10.03515625,1.1171875
4109709,,,,,,,,-0.3984375,-0.86328125,-0.62109375,0.12890625,-0.17578125,-0.044921875,-0.53125,-10.4140625,1.00390625
4109710,36.013058666666666,129.32011183333333,136.28999212249332,73.08620776235924,1.3,227.0,,-0.25390625,-0.9765625,-0.74609375,0.13671875,-0.15234375,-0.048828125,-0.37890625,-10.53515625,0.88671875
4109711,,,,,,,,-0.0234375,-1.17578125,-0.76953125,0.140625,-0.134765625,-0.05859375,-0.1484375,-10.71875,0.88671875
4109712,,,,,,,,0.08203125,-1.25390625,-0.82421875,0.134765625,-0.095703125,-0.07421875,-0.03515625,-10.796875,0.84765625
4109713,,,,,,,,0.19921875,-1.25390625,-0.79296875,0.125,-0.068359375,-0.08203125,0.08203125,-10.80078125,0.88671875
4109714,,,,,,,,0.40625,-1.18359375,-0.8828125,0.11328125,0.0,-0.099609375,0.3125,-10.71875,0.8125
4109715,,,,,,,,0.78125,-0.87890625,-0.8984375,0.09375,0.083984375,-0.107421875,0.6953125,-10.4140625,0.8125
4109716,,,,,,,,0.7734375,-0.6953125,-0.90625,0.103515625,0.125,-0.09375,0.6953125,-10.23046875,0.8125
4109717,,,,,,,,0.6484375,-1.078125,-0.87890625,0.103515625,0.16015625,-0.083984375,0.578125,-10.61328125,0.84765625
4109718,,,,,,,,0.60546875,-1.4609375,-0.84765625,0.10546875,0.171875,-0.080078125,0.54296875,-10.9921875,0.88671875
4109719,,,,,,,,0.796875,-3.11328125,-0.5078125,0.1171875,0.203125,-0.0703125,0.734375,-12.63671875,1.234375
4109720,36.013058,129.32011083333333,136.19984445105607,73.01223353646188,1.2000000000000002,229.0,,1.71484375,-4.109375,0.81640625,0.119140625,0.2890625,-0.072265625,1.65234375,-13.6328125,2.57421875
4109721,,,,,,,,2.48046875,-3.765625,1.65234375,0.11328125,0.435546875,-0.09375,2.41796875,-13.29296875,3.41796875
4109722,,,,,,,,3.31640625,-2.73828125,1.56640625,0.091796875,0.66796875,-0.15234375,3.26171875,-12.25390625,3.33984375
4109723,,,,,,,,3.046875,-1.78125,1.59765625,0.083984375,0.806640625,-0.216796875,2.9921875,-11.296875,3.37890625
4109724,,,,,,,,2.42578125,-1.46875,2.01171875,0.08203125,0.6484375,-0.189453125,2.37890625,-10.99609375,3.80078125
4109725,,,,,,,,1.9609375,-1.734375,2.1875,0.08203125,0.333984375,-0.044921875,1.921875,-11.2578125,3.9921875
4109726,,,,,,,,1.390625,-2.1953125,2.4140625,0.08203125,0.205078125,0.041015625,1.34375,-11.72265625,4.21875
4109727,,,,,,,,0.86328125,-2.69140625,2.59765625,0.083984375,-0.0078125,0.1640625,0.80859375,-12.2109375,4.41015625
4109728,,,,,,,,0.6875,-2.77734375,2.5546875,0.09765625,-0.134765625,0.16015625,0.6171875,-12.2890625,4.375
4109729,,,,,,,,1.22265625,-2.234375,2.109375,0.0859375,-0.181640625,0.00390625,1.15234375,-11.76171875,3.953125
4109730,36.013057333333336,129.3201095,136.07964716810346,72.93825884554747,1.3,233.0,,2.06640625,-1.12890625,1.52734375,0.06640625,-0.248046875,-0.046875,1.99609375,-10.64453125,3.37890625
4109731,,,,,,,,2.203125,-0.6640625,1.25,0.044921875,-0.3046875,-0.138671875,2.1484375,-10.19140625,3.109375
4109732,,,,,,,,2.05859375,-0.85546875,1.2109375,-0.001953125,-0.365234375,-0.208984375,2.03515625,-10.375,3.0703125
4109733,,,,,,,,1.84375,-1.0859375,1.2109375,-0.06640625,-0.38671875,-0.1953125,1.84375,-10.609375,3.0703125
4109734,,,,,,,,1.62109375,-1.11328125,0.98828125,-0.138671875,-0.29296875,-0.16015625,1.65234375,-10.64453125,2.83984375
4109735,,,,,,,,1.48046875,-0.921875,0.8125,-0.1875,-0.130859375,-0.185546875,1.53515625,-10.45703125,2.6484375
4109736,,,,,,,,1.3203125,-0.72265625,0.62890625,-0.205078125,-0.06640625,-0.208984375,1.3828125,-10.2578125,2.45703125
4109737,,,,,,,,0.9921875,-0.1015625,0.34765625,-0.232421875,-0.015625,-0.21484375,1.078125,-9.6484375,2.15234375
4109738,,,,,,,,0.80859375,0.546875,0.01953125,-0.2421875,-0.029296875,-0.205078125,0.92578125,-9.00390625,1.80859375
4109739,,,,,,,,0.75390625,0.9765625,-0.12109375,-0.224609375,-0.080078125,-0.1875,0.88671875,-8.578125,1.65234375
4109740,36.0130565,129.3201085,135.98949977696267,72.84579141279936,1.2000000000000002,233.0,,0.73046875,1.55859375,-0.2890625,0.06640625,-0.248046875,-0.046875,1.99609375,-10.64453125,3.37890625
4109741,,,,,,,,0.7890625,1.9140625,-0.38671875,-0.20703125,-0.177734375,-0.154296875,0.9609375,-7.66015625,1.34765625
4109742,,,,,,,,0.7578125,2.33203125,-0.546875,-0.20703125,-0.169921875,-0.140625,0.9609375,-7.234375,1.15625
4109743,,,,,,,,0.8203125,2.76171875,-0.6484375,-0.22265625,-0.1484375,-0.126953125,1.0390625,-6.81640625,1.0390625
4109744,,,,,,,,0.98828125,3.0390625,-0.81640625,-0.236328125,-0.15234375,-0.09375,1.23046875,-6.546875,0.84765625
4109745,,,,,,,,1.27734375,3.23046875,-0.66796875,-0.263671875,-0.16015625,-0.052734375,1.53515625,-6.3515625,0.96484375
4109746,,,,,,,,1.42578125,3.27734375,-0.73046875,-0.265625,-0.16015625,-0.041015625,1.69140625,-6.31640625,0.88671875
4109747,,,,,,,,1.578125,3.23828125,-0.74609375,-0.263671875,-0.15625,-0.037109375,1.84375,-6.3515625,0.84765625
4109748,,,,,,,,1.71484375,3.1328125,-1.06640625,-0.248046875,-0.125,-0.05859375,1.99609375,-6.46875,0.50390625
4109749,,,,,,,,1.74609375,2.9375,-1.1171875,-0.228515625,-0.123046875,-0.083984375,2.03515625,-6.66796875,0.4296875
4109750,36.013056,129.3201075,135.89935181173496,72.79031039579917,1.1,235.0,,1.609375,2.82421875,-1.1796875,-0.216796875,-0.1328125,-0.123046875,1.921875,-6.7734375,0.3515625
4109751,,,,,,,,1.36328125,2.74609375,-1.00390625,-0.181640625,-0.13671875,-0.134765625,1.69140625,-6.85546875,0.50390625
4109752,,,,,,,,1.19921875,2.640625,-0.87109375,-0.1484375,-0.140625,-0.103515625,1.53515625,-6.96875,0.62109375
4109753,,,,,,,,1.03125,2.51953125,-0.7890625,-0.111328125,-0.150390625,-0.037109375,1.3828125,-7.08203125,0.6953125
4109754,,,,,,,,0.984375,2.37109375,-0.7734375,-0.080078125,-0.1640625,0.046875,1.34375,-7.23828125,0.6953125
4109755,,,,,,,,0.984375,2.171875,-0.7734375,-0.0546875,-0.177734375,0.134765625,1.34375,-7.43359375,0.6953125
4109756,,,,,,,,0.97265625,1.9453125,-0.83984375,-0.033203125,-0.189453125,0.1953125,1.30859375,-7.66015625,0.62109375
4109757,,,,,,,,0.85546875,1.67578125,-0.83203125,-0.025390625,-0.193359375,0.197265625,1.19140625,-7.92578125,0.62109375
4109758,,,,,,,,0.765625,1.40625,-0.7578125,-0.025390625,-0.197265625,0.201171875,1.078125,-8.19921875,0.6953125
4109759,,,,,,,,0.7734375,1.16796875,-0.60546875,-0.013671875,-0.208984375,0.2109375,1.078125,-8.42578125,0.84765625
4109760,36.01305516666666,129.32010649999998,135.8092044149948,72.69784296643253,1.2000000000000002,232.0,,0.98828125,0.48828125,-0.48046875,-0.0234375,-0.197265625,0.212890625,1.921875,-6.7734375,0.3515625
4109761,,,,,,,,1.26953125,-0.2109375,-0.328125,-0.041015625,-0.169921875,0.203125,1.53515625,-9.8046875,1.1171875
4109762,,,,,,,,1.31640625,-0.32421875,-0.28125,-0.04296875,-0.154296875,0.197265625,1.57421875,-9.91796875,1.15625
4109763,,,,,,,,1.40234375,-0.6328125,-0.16796875,-0.060546875,-0.10546875,0.17578125,1.65234375,-10.23046875,1.26953125
4109764,,,,,,,,1.41015625,-0.640625,-0.16015625,-0.076171875,-0.060546875,0.154296875,1.57421875,-10.2578125,1.38671875
4109765,,,,,,,,1.2734375,-0.59375,0.00390625,-0.08203125,-0.01171875,0.142578125,1.5,-10.19140625,1.4609375
4109766,,,,,,,,1.2734375,-0.6015625,0.0390625,-0.083984375,0.0078125,0.13671875,1.3828125,-10.296875,1.38671875
4109767,,,,,,,,1.1640625,-0.79296875,-0.09765625,-0.091796875,0.0390625,0.14453125,1.3828125,-10.53515625,1.1953125
4109768,,,,,,,,1.171875,-0.9453125,-0.2109375,-0.087890625,0.044921875,0.154296875,1.3828125,-10.8359375,1.0390625
4109769,,,,,,,,1.1484375,-1.40625,-0.2890625,-0.09765625,0.060546875,0.146484375,1.30859375,-11.06640625,1.1953125
4109770,36.013054333333336,129.32010566666668,135.73408182738837,72.6053757701921,1.2000000000000002,229.0,,0.98828125,0.48828125,-0.48046875,-0.0234375,-0.197265625,0.212890625,1.19140625,-10.99609375,1.26953125
4109771,,,,,,,,0.8984375,-1.359375,-0.02734375,-0.134765625,0.138671875,0.03515625,1.1171875,-10.49609375,1.69140625
4109772,,,,,,,,1.04296875,-0.82421875,0.44140625,-0.140625,0.19921875,0.01171875,1.34375,-10.57421875,1.80859375
4109773,,,,,,,,1.625,-1.97265625,0.03515625,-0.142578125,0.23046875,0.056640625,1.8046875,-11.5625,1.38671875
4109774,,,,,,,,1.5859375,-3.65625,-0.2265625,-0.13671875,0.2421875,0.087890625,1.765625,-13.25,1.1171875
4109775,,,,,,,,0.90625,-4.078125,0.2578125,-0.14453125,0.26171875,0.08984375,1.078125,-13.671875,1.578125
4109776,,,,,,,,-0.609375,-3.42578125,1.52734375,-0.19140625,0.462890625,-0.005859375,-0.453125,-13.01953125,2.83984375
4109777,,,,,,,,-1.1484375,-3.234375,2.12109375,-0.19921875,0.724609375,-0.03125,-0.9921875,-12.828125,3.41796875
4109778,,,,,,,,-1.9453125,-2.26953125,2.6875,-0.140625,0.810546875,0.080078125,-1.796875,-11.8671875,3.953125
4109779,,,,,,,,-1.828125,-1.6875,2.91796875,-0.10546875,0.583984375,0.291015625,-1.71875,-11.30078125,4.18359375
4109780,36.0130535,129.32010466666668,135.6439344289464,72.51290834193055,1.3,226.0,,-0.81640625,-1.95703125,2.59375,-0.0234375,-0.197265625,0.212890625,1.19140625,-10.99609375,1.26953125
4109781,,,,,,,,0.46484375,-2.37890625,2.87109375,-0.1328125,0.361328125,0.021484375,0.54296875,-11.984375,4.10546875
4109782,,,,,,,,0.77734375,-2.53125,2.91796875,-0.142578125,0.228515625,-0.0234375,0.84765625,-12.14453125,4.14453125
4109783,,,,,,,,0.80078125,-2.484375,2.6640625,-0.16796875,-0.017578125,-0.126953125,0.88671875,-12.1015625,3.875
4109784,,,,,,,,0.28515625,-2.0625,2.60546875,-0.12890625,-0.046875,-0.080078125,0.38671875,-11.68359375,3.80078125
4109785,,,,,,,,-0.41015625,-1.6328125,2.48828125,-0.05859375,-0.126953125,0.091796875,-0.30078125,-11.2578125,3.68359375
4109786,,,,,,,,-0.59375,-1.328125,2.34375,-0.033203125,-0.1328125,0.125,-0.4921875,-10.953125,3.53125
4109787,,,,,,,,-0.35546875,-1.203125,2.2578125,0.0,-0.12890625,0.111328125,-0.26171875,-10.83984375,3.453125
4109788,,,,,,,,-0.01171875,-1.17578125,1.9140625,0.0546875,-0.142578125,0.05859375,0.08203125,-10.80078125,3.109375
4109789,,,,,,,,0.0625,-1.01171875,1.75390625,0.107421875,-0.150390625,0.025390625,0.15625,-10.64453125,2.95703125
4109790,36.01305266666667,129.32010383333332,135.56881183105395,72.42044114668224,1.3,226.0,,0.1328125,-0.28515625,1.23828125,-0.0234375,-0.197265625,0.212890625,0.234375,-9.9140625,2.45703125
4109791,,,,,,,,0.1640625,0.13671875,0.9921875,0.142578125,-0.0546875,0.0,0.2734375,-9.4921875,2.2265625
4109792,,,,,,,,0.31640625,0.71875,0.55859375,0.14453125,-0.046875,0.029296875,0.42578125,-8.921875,1.80859375
4109793,,,,,,,,0.43359375,1.0546875,0.34375,0.1484375,-0.0703125,0.03515625,0.54296875,-8.578125,1.6171875
4109794,,,,,,,,0.46875,1.62890625,0.171875,0.15234375,-0.083984375,0.033203125,0.578125,-8.00390625,1.4609375
4109795,,,,,,,,0.515625,2.01171875,0.08203125,0.150390625,-0.09375,0.04296875,0.6171875,-7.62109375,1.38671875
4109796,,,,,,,,0.46875,2.47265625,-0.05078125,0.15625,-0.1015625,0.05078125,0.578125,-7.15625,1.26953125
4109797,,,,,,,,0.32421875,2.85546875,-0.2578125,0.16796875,-0.09375,0.0546875,0.42578125,-6.7734375,1.078125
4109798,,,,,,,,0.1640625,2.92578125,-0.39453125,0.181640625,-0.10546875,0.05859375,0.2734375,-6.6953125,0.96484375
4109799,,,,,,,,-0.09765625,3.0,-0.609375,0.1953125,-0.130859375,0.048828125,0.00390625,-6.625,0.7734375
4109800,36.01305183333333,129.32010283333332,135.4786644312053,72.32797371973761,1.3,226.0,0.0,-0.2890625,2.96875,-0.7109375,-0.0234375,-0.197265625,0.212890625,-0.1875,-6.6640625,0.6953125
4109801,,,,,,,,-0.48828125,2.88671875,-0.78125,0.203125,-0.125,0.029296875,-0.37890625,-6.734375,0.65625
4109802,,,,,,,,-0.74609375,2.80078125,-0.71875,0.1875,-0.115234375,0.03125,-0.64453125,-6.8125,0.734375
4109803,,,,,,,,-0.87109375,2.76171875,-0.703125,0.16015625,-0.109375,0.029296875,-0.76171875,-6.85546875,0.7734375
4109804,,,,,,,,-0.79296875,2.6796875,-0.6796875,0.125,-0.10546875,0.025390625,-0.68359375,-6.9296875,0.8125
4109805,,,,,,,,-0.79296875,2.71875,-0.8046875,0.08984375,-0.10546875,0.01171875,-0.68359375,-6.890625,0.6953125
4109806,,,,,,,,-0.6796875,2.6796875,-0.8125,0.0703125,-0.115234375,0.005859375,-0.5703125,-6.93359375,0.6953125
4109807,,,,,,,,-0.6875,2.52734375,-0.89453125,0.029296875,-0.14453125,0.0,-0.5703125,-7.08203125,0.62109375
4109808,,,,,,,,-0.6875,2.41015625,-0.78125,-0.009765625,-0.173828125,-0.017578125,-0.5703125,-7.19921875,0.734375
4109809,,,,,,,,-0.84765625,2.25,-0.59765625,-0.041015625,-0.18359375,-0.056640625,-0.72265625,-7.35546875,0.92578125
4109810,36.013051000000004,129.3201021666667,135.41856663907387,72.23550675919408,1.1,224.0,,-0.85546875,2.09765625,-0.55078125,-0.072265625,-0.17578125,-0.091796875,-0.1875,-6.6640625,0.6953125
4109811,,,,,,,,-0.86328125,2.01953125,-0.58203125,-0.095703125,-0.16015625,-0.107421875,-0.72265625,-7.578125,0.92578125
4109812,,,,,,,,-0.80859375,1.8984375,-0.7265625,-0.109375,-0.173828125,-0.11328125,-0.64453125,-7.6953125,0.7734375
4109813,,,,,,,,-0.6640625,1.8203125,-0.7265625,-0.119140625,-0.17578125,-0.1171875,-0.4921875,-7.77734375,0.7734375
4109814,,,,,,,,-0.40625,1.59765625,-0.7109375,-0.123046875,-0.203125,-0.12890625,-0.2265625,-8.00390625,0.7734375
4109815,,,,,,,,-0.2734375,1.25390625,-0.58984375,-0.130859375,-0.23046875,-0.130859375,-0.0703125,-8.34375,0.88671875
4109816,,,,,,,,-0.21484375,1.015625,-0.49609375,-0.12890625,-0.2109375,-0.140625,0.00390625,-8.58203125,0.96484375
4109817,,,,,,,,-0.34375,0.6328125,-0.48046875,-0.123046875,-0.19140625,-0.162109375,-0.109375,-8.96484375,0.96484375
4109818,,,,,,,,-0.3515625,0.48046875,-0.48046875,-0.10546875,-0.185546875,-0.166015625,-0.109375,-9.109375,0.96484375
4109819,,,,,,,,-0.46875,-0.01953125,-0.51171875,-0.0625,-0.12109375,-0.181640625,-0.1875,-9.609375,0.92578125
4109820,36.0130505,129.32010116666666,135.32841866173138,72.18002574819965,1.2000000000000002,228.0,,-0.55859375,-0.5625,-0.54296875,-0.072265625,-0.17578125,-0.091796875,-0.1875,-6.6640625,0.6953125
4109821,,,,,,,,-0.46875,-1.05859375,-0.58203125,0.017578125,0.01171875,-0.185546875,-0.1484375,-10.64453125,0.84765625
4109822,,,,,,,,-0.33984375,-1.3359375,-0.58984375,0.037109375,0.068359375,-0.177734375,0.00390625,-10.9140625,0.84765625
4109823,,,,,,,,-0.1953125,-1.44921875,-0.43359375,0.044921875,0.09765625,-0.17578125,0.15625,-11.0234375,1.00390625
4109824,,,,,,,,-0.01953125,-1.3828125,-0.3984375,0.05078125,0.171875,-0.1796875,0.34765625,-10.95703125,1.0390625
4109825,,,,,,,,-0.26171875,-1.11328125,-0.40625,0.05859375,0.26953125,-0.16015625,0.12109375,-10.6796875,1.0390625
4109826,,,,,,,,-0.625,-0.84765625,-0.56640625,0.060546875,0.30859375,-0.134765625,-0.2265625,-10.41796875,0.88671875
4109827,,,,,,,,-0.890625,-0.69140625,-0.61328125,0.072265625,0.31640625,-0.076171875,-0.4921875,-10.2578125,0.84765625
4109828,,,,,,,,-1.16015625,-0.77734375,-0.65625,0.076171875,0.30859375,-0.048828125,-0.76171875,-10.33984375,0.8125
4109829,,,,,,,,-1.28125,-1.55078125,-0.78125,0.091796875,0.318359375,-0.044921875,-0.875,-11.1015625,0.6953125
4109830,36.01304966666667,129.3201,135.22324645180538,72.08755809377791,1.3,231.0,,-0.9765625,-2.66015625,-1.1015625,-0.072265625,-0.17578125,-0.091796875,-0.1875,-6.6640625,0.6953125
4109831,,,,,,,,-0.28515625,-3.7734375,-0.4609375,0.119140625,0.404296875,-0.119140625,0.12109375,-13.328125,1.0390625
4109832,,,,,,,,0.89453125,-3.97265625,0.7890625,0.130859375,0.50390625,-0.201171875,1.30859375,-13.51953125,2.3046875
4109833,,,,,,,,1.7578125,-3.97265625,0.890625,0.1171875,0.669921875,-0.298828125,2.1875,-13.51953125,2.421875
4109834,,,,,,,,2.46484375,-2.29296875,1.5625,0.107421875,0.83203125,-0.37109375,2.91796875,-11.828125,3.109375
4109835,,,,,,,,1.98046875,-1.18359375,1.77734375,0.052734375,0.8359375,-0.4609375,2.45703125,-10.71875,3.33984375
4109836,,,,,,,,1.7890625,-1.4609375,1.96875,0.029296875,0.671875,-0.52734375,2.3046875,-10.9921875,3.53125
4109837,,,,,,,,0.8359375,-2.953125,2.6484375,0.0234375,0.53515625,-0.404296875,1.3828125,-12.484375,4.21875
4109838,,,,,,,,0.19921875,-3.75,2.796875,0.041015625,0.166015625,-0.138671875,0.76953125,-13.2890625,4.375
4109839,,,,,,,,-0.11328125,-4.09375,2.17578125,0.083984375,-0.0859375,-0.041015625,0.46484375,-13.6328125,3.76171875
4109840,36.013049,129.32009866666667,135.10304914868544,72.01358341584107,1.4000000000000001,232.0,,0.22265625,-3.48828125,1.5546875,-0.072265625,-0.17578125,-0.091796875,0.80859375,-13.01953125,3.1484375
4109841,,,,,,,,1.140625,-2.37890625,1.26953125,0.10546875,-0.09375,-0.291015625,1.765625,-11.90625,2.87890625
4109842,,,,,,,,1.53125,-1.65234375,1.1875,0.087890625,-0.244140625,-0.26953125,2.1875,-11.1796875,2.8046875
4109843,,,,,,,,1.28515625,-1.53515625,1.25390625,0.08203125,-0.28125,-0.265625,1.95703125,-11.0625,2.87890625
4109844,,,,,,,,0.91015625,-1.765625,1.36328125,0.021484375,-0.365234375,-0.267578125,1.61328125,-11.30078125,2.99609375
4109845,,,,,,,,0.609375,-1.95703125,1.32421875,-0.05859375,-0.3828125,-0.23828125,1.34375,-11.48828125,2.95703125
4109846,,,,,,,,0.45703125,-1.60546875,1.03125,-0.146484375,-0.224609375,-0.1328125,1.23046875,-11.14453125,2.6484375
4109847,,,,,,,,0.2890625,-1.10546875,0.90234375,-0.171875,-0.123046875,-0.087890625,1.078125,-10.64453125,2.49609375
4109848,,,,,,,,-0.01953125,-0.49609375,0.6796875,-0.189453125,-0.111328125,-0.076171875,0.76953125,-10.03515625,2.265625
4109849,,,,,,,,-0.29296875,0.05078125,0.46484375,-0.205078125,-0.140625,-0.064453125,0.50390625,-9.49609375,2.03515625
4109850,36.013048166666664,129.32009783333334,135.02792654280563,71.92111622454257,1.3,232.0,,-0.42578125,0.82421875,0.22265625,-0.072265625,-0.17578125,-0.091796875,0.38671875,-8.7265625,1.76953125
4109851,,,,,,,,-0.38671875,1.25390625,0.046875,-0.193359375,-0.294921875,0.013671875,0.42578125,-8.3046875,1.578125
4109852,,,,,,,,-0.38671875,1.796875,-0.16015625,-0.19140625,-0.306640625,0.0234375,0.42578125,-7.77734375,1.34765625
4109853,,,,,,,,-0.515625,2.2109375,-0.2578125,-0.193359375,-0.294921875,0.017578125,0.3125,-7.3515625,1.234375
4109854,,,,,,,,-0.5546875,2.5703125,-0.359375,-0.20703125,-0.275390625,0.01953125,0.2734375,-7.01171875,1.1171875
4109855,,,,,,,,-0.48046875,2.9140625,-0.4140625,-0.228515625,-0.263671875,0.060546875,0.34765625,-6.6640625,1.0390625
4109856,,,,,,,,-0.40234375,2.9921875,-0.43359375,-0.23046875,-0.263671875,0.078125,0.42578125,-6.5859375,1.00390625
4109857,,,,,,,,-0.05078125,3.1171875,-0.43359375,-0.265625,-0.232421875,0.12890625,0.76953125,-6.46875,0.96484375
4109858,,,,,,,,0.1484375,3.28515625,-0.41015625,-0.251953125,-0.197265625,0.111328125,0.9609375,-6.3125,0.96484375
4109859,,,,,,,,0.34765625,3.359375,-0.3125,-0.228515625,-0.166015625,0.087890625,1.15234375,-6.24609375,1.0390625
4109860,36.0130475,129.32009699999998,134.95280364919446,71.8471422425907,1.2000000000000002,233.0,,0.46484375,3.24609375,-0.40234375,-0.181640625,-0.140625,0.060546875,1.26953125,-6.35546875,0.92578125
4109861,,,,,,,,0.625,2.83203125,-0.73046875,-0.146484375,-0.140625,0.05078125,1.421875,-6.7734375,0.58203125
4109862,,,,,,,,0.47265625,2.79296875,-0.82421875,-0.087890625,-0.171875,-0.005859375,1.26953125,-6.8125,0.46484375
4109863,,,,,,,,0.43359375,2.75390625,-0.78515625,-0.0703125,-0.17578125,-0.025390625,1.23046875,-6.85546875,0.50390625
4109864,,,,,,,,0.3046875,2.6015625,-0.66796875,-0.029296875,-0.197265625,-0.02734375,1.1171875,-7.0078125,0.62109375
4109865,,,,,,,,0.1875,2.5625,-0.6328125,0.009765625,-0.197265625,0.01953125,1.0,-7.046875,0.65625
4109866,,,,,,,,0.15625,2.36328125,-0.46875,0.0546875,-0.19921875,0.119140625,0.9609375,-7.23828125,0.8125
4109867,,,,,,,,0.203125,2.13671875,-0.515625,0.078125,-0.197265625,0.201171875,1.0,-7.4609375,0.7734375
4109868,,,,,,,,0.2578125,1.8671875,-0.515625,0.095703125,-0.189453125,0.23046875,1.0390625,-7.734375,0.7734375
4109869,,,,,,,,0.3125,1.55859375,-0.6484375,0.107421875,-0.166015625,0.26171875,1.078125,-8.04296875,0.65625
4109870,36.01304666666667,129.3200958333333,134.84763142957596,71.75467459159265,1.2000000000000002,232.0,,0.375,1.0625,-0.65625,-0.181640625,-0.140625,0.060546875,1.26953125,-6.35546875,0.92578125
4109871,,,,,,,,0.47265625,0.48828125,-0.546875,0.123046875,-0.154296875,0.267578125,1.19140625,-9.11328125,0.7734375
4109872,,,,,,,,0.53515625,-0.01953125,-0.40234375,0.123046875,-0.15625,0.26171875,1.23046875,-9.61328125,0.92578125
4109873,,,,,,,,0.40625,-0.33203125,-0.265625,0.126953125,-0.150390625,0.283203125,1.078125,-9.9140625,1.078125
4109874,,,,,,,,0.3125,-0.44140625,-0.125,0.1171875,-0.130859375,0.30859375,0.9609375,-10.03125,1.234375
4109875,,,,,,,,0.14453125,-0.40234375,0.1328125,0.115234375,-0.109375,0.33984375,0.76953125,-9.9921875,1.5
4109876,,,,,,,,0.109375,-0.24609375,0.203125,0.099609375,-0.08203125,0.392578125,0.6953125,-9.83984375,1.578125
4109877,,,,,,,,0.26171875,-0.484375,-0.07421875,0.091796875,-0.05859375,0.419921875,0.80859375,-10.07421875,1.30859375
4109878,,,,,,,,0.37109375,-0.71484375,-0.2421875,0.087890625,-0.06640625,0.41796875,0.88671875,-10.296875,1.15625
4109879,,,,,,,,0.37109375,-0.90625,-0.40234375,0.078125,-0.087890625,0.37109375,0.84765625,-10.4921875,1.00390625
4109880,36.01304583333333,129.320095,134.77250882340445,71.6622074032203,1.2000000000000002,229.0,,0.2890625,-0.9453125,-0.3359375,-0.181640625,-0.140625,0.060546875,0.734375,-10.53125,1.078125
4109881,,,,,,,,0.1484375,-0.67578125,-0.1796875,0.052734375,0.0,0.169921875,0.578125,-10.2578125,1.234375
4109882,,,,,,,,0.2421875,-0.0703125,-0.11328125,0.02734375,0.126953125,0.087890625,0.65625,-9.6484375,1.30859375
4109883,,,,,,,,0.48046875,0.3125,-0.234375,0.0234375,0.162109375,0.08984375,0.88671875,-9.265625,1.1953125
4109884,,,,,,,,0.984375,0.38671875,-0.390625,0.01171875,0.20703125,0.09765625,1.3828125,-9.19140625,1.0390625
4109885,,,,,,,,1.58203125,-0.875,-0.390625,-0.033203125,0.248046875,0.1015625,1.95703125,-10.453125,1.0390625
4109886,,,,,,,,1.58984375,-2.90625,-0.6875,-0.06640625,0.328125,0.087890625,1.95703125,-12.48828125,0.734375
4109887,,,,,,,,1.25390625,-3.51953125,-0.6875,-0.107421875,0.47265625,0.072265625,1.61328125,-13.09765625,0.734375
4109888,,,,,,,,0.83984375,-3.2890625,-0.3359375,-0.125,0.57421875,0.0625,1.19140625,-12.8671875,1.078125
4109889,,,,,,,,-0.37890625,-2.140625,0.67578125,-0.1640625,0.8046875,0.02734375,-0.03515625,-11.72265625,2.07421875
4109890,36.013045000000005,129.32009416666668,134.6973862108788,71.56974021607003,1.2000000000000002,227.0,,-0.78125,-3.75,1.94921875,-0.181640625,-0.140625,0.060546875,-0.453125,-13.328125,3.33984375
4109891,,,,,,,,-1.49609375,-4.8125,3.06640625,-0.05859375,0.955078125,0.146484375,-1.18359375,-14.40234375,4.44921875
4109892,,,,,,,,-2.67578125,-4.46875,4.5625,0.0,0.6875,0.541015625,-2.41015625,-14.0546875,5.9453125
4109893,,,,,,,,-1.078125,-2.5859375,2.68359375,-0.08984375,0.75,0.57421875,-0.9140625,-12.1796875,4.06640625
4109894,,,,,,,,0.125,-2.1640625,2.69140625,-0.1015625,0.712890625,0.451171875,0.234375,-11.7578125,4.06640625
4109895,,,,,,,,0.86328125,-2.1640625,2.73828125,-0.0859375,0.154296875,0.322265625,0.92578125,-11.7578125,4.10546875
4109896,,,,,,,,0.83203125,-1.88671875,2.28515625,-0.10546875,-0.279296875,0.087890625,0.88671875,-11.48828125,3.64453125
4109897,,,,,,,,0.37890625,-1.41796875,1.87109375,-0.10546875,-0.36328125,0.048828125,0.42578125,-11.02734375,3.22265625
4109898,,,,,,,,-0.1328125,-1.07421875,1.6875,-0.0390625,-0.34765625,0.30859375,-0.109375,-10.68359375,3.03125
4109899,,,,,,,,-0.2265625,-1.03515625,1.57421875,0.0078125,-0.3046875,0.318359375,-0.2265625,-10.64453125,2.91796875
4109900,36.01304416666667,129.32009299999999,134.59221398320437,71.47727256852916,1.3,227.0,0.0,-0.046875,-0.9921875,1.453125,-0.181640625,-0.140625,0.060546875,-0.0703125,-10.61328125,2.8046875
4109901,,,,,,,,0.14453125,-0.8359375,1.47265625,0.169921875,-0.166015625,0.107421875,0.12109375,-10.45703125,2.83984375
4109902,,,,,,,,0.265625,-0.68359375,1.3125,0.197265625,-0.13671875,0.072265625,0.234375,-10.30078125,2.6875
4109903,,,,,,,,0.609375,-0.078125,0.9453125,0.244140625,-0.0625,0.037109375,0.578125,-9.69140625,2.34375
4109904,,,,,,,,0.7265625,0.3515625,0.72265625,0.255859375,-0.00390625,0.001953125,0.6953125,-9.26953125,2.15234375
4109905,,,,,,,,0.6875,1.109375,0.46875,0.259765625,-0.025390625,0.005859375,0.65625,-8.5,1.921875
4109906,,,,,,,,0.6171875,1.30859375,0.3984375,0.25,-0.076171875,0.005859375,0.578125,-8.3046875,1.8828125
4109907,,,,,,,,0.57421875,1.796875,0.21484375,0.24609375,-0.123046875,0.029296875,0.54296875,-7.81640625,1.73046875
4109908,,,,,,,,0.6484375,2.25,0.0078125,0.2421875,-0.140625,0.06640625,0.6171875,-7.35546875,1.5390625
4109909,,,,,,,,0.6953125,2.40234375,-0.046875,0.240234375,-0.1484375,0.087890625,0.65625,-7.19921875,1.5
4109910,36.013043333333336,129.32009216666665,134.5170913692068,71.38480538270444,1.3,228.0,,0.50390625,2.671875,-0.30078125,-0.181640625,-0.140625,0.060546875,0.46484375,-6.93359375,1.26953125
4109911,,,,,,,,0.28125,2.74609375,-0.484375,0.236328125,-0.154296875,0.072265625,0.234375,-6.85546875,1.1171875
4109912,,,,,,,,-0.25390625,2.73828125,-0.5859375,0.23046875,-0.154296875,0.037109375,-0.30078125,-6.8515625,1.0390625
4109913,,,,,,,,-0.75390625,2.65625,-0.68359375,0.212890625,-0.154296875,0.009765625,-0.80078125,-6.9296875,0.96484375
4109914,,,,,,,,-0.828125,2.703125,-0.79296875,0.185546875,-0.16015625,0.005859375,-0.875,-6.890625,0.88671875
4109915,,,,,,,,-0.76171875,2.65625,-0.96875,0.154296875,-0.1484375,-0.009765625,-0.80078125,-6.93359375,0.734375
4109916,,,,,,,,-0.80078125,2.65625,-1.0234375,0.115234375,-0.134765625,-0.048828125,-0.83984375,-6.93359375,0.6953125
4109917,,,,,,,,-0.62109375,2.578125,-0.9921875,0.078125,-0.14453125,-0.08984375,-0.64453125,-7.0078125,0.734375
4109918,,,,,,,,-0.4921875,2.45703125,-1.0,0.01171875,-0.1328125,-0.134765625,-0.4921875,-7.12109375,0.734375
4109919,,,,,,,,-0.35546875,2.2265625,-1.11328125,-0.0546875,-0.138671875,-0.142578125,-0.33984375,-7.3515625,0.62109375
4109920,36.01304266666667,129.32009133333335,134.4419684712108,71.3108314040976,1.1,227.0,,-0.37109375,1.98828125,-1.0703125,-0.08984375,-0.12890625,-0.1640625,-0.33984375,-7.578125,0.65625
4109921,,,,,,,,-0.36328125,1.8359375,-1.015625,-0.125,-0.140625,-0.20703125,-0.30078125,-7.734375,0.6953125
4109922,,,,,,,,-0.1953125,1.69140625,-0.921875,-0.140625,-0.140625,-0.234375,-0.109375,-7.88671875,0.7734375
4109923,,,,,,,,-0.05859375,1.69140625,-0.9609375,-0.140625,-0.134765625,-0.24609375,0.04296875,-7.88671875,0.734375
4109924,,,,,,,,0.03125,1.69140625,-0.80078125,-0.125,-0.142578125,-0.25,0.15625,-7.88671875,0.88671875
4109925,,,,,,,,0.27734375,1.60546875,-0.78515625,-0.119140625,-0.15234375,-0.26953125,0.42578125,-7.96484375,0.88671875
4109926,,,,,,,,0.4453125,1.52734375,-0.77734375,-0.10546875,-0.158203125,-0.2734375,0.6171875,-8.0390625,0.88671875
4109927,,,,,,,,0.4921875,1.109375,-0.76953125,-0.09375,-0.169921875,-0.25,0.6953125,-8.46484375,0.88671875
4109928,,,,,,,,0.515625,0.953125,-0.80078125,-0.078125,-0.1796875,-0.236328125,0.734375,-8.6171875,0.84765625
4109929,,,,,,,,0.3671875,0.2578125,-0.63671875,-0.041015625,-0.162109375,-0.1796875,0.6171875,-9.30859375,1.00390625
4109930,36.013042000000006,129.3200905,134.3668455679414,71.23685742694572,1.2000000000000002,227.0,,0.07421875,-0.31640625,-0.5234375,-0.015625,-0.119140625,-0.140625,-0.33984375,-7.578125,0.65625
4109931,,,,,,,,-0.20703125,-0.77734375,-0.32421875,0.013671875,-0.05078125,-0.09375,0.08203125,-10.33984375,1.30859375
4109932,,,,,,,,-0.359375,-0.890625,-0.29296875,0.046875,0.03125,-0.0546875,-0.0703125,-10.45703125,1.34765625
4109933,,,,,,,,-0.4375,-0.96875,-0.37109375,0.052734375,0.0625,-0.037109375,-0.1484375,-10.53515625,1.26953125
4109934,,,,,,,,-0.3671875,-1.16796875,-0.64453125,0.0703125,0.126953125,-0.015625,-0.0703125,-10.72265625,1.00390625
4109935,,,,,,,,-0.140625,-1.4453125,-0.890625,0.091796875,0.185546875,0.00390625,0.15625,-10.9921875,0.7734375
4109936,,,,,,,,0.05859375,-1.4453125,-0.82421875,0.08984375,0.21484375,0.013671875,0.34765625,-10.9921875,0.84765625
4109937,,,,,,,,0.375,-1.13671875,-0.67578125,0.076171875,0.26953125,0.013671875,0.65625,-10.6796875,1.00390625
4109938,,,,,,,,0.26171875,-1.0234375,-0.68359375,0.07421875,0.30859375,0.01953125,0.54296875,-10.57421875,1.00390625
4109939,,,,,,,,-0.078125,-0.6015625,-0.65625,0.060546875,0.390625,0.0,0.1953125,-10.15234375,1.0390625
4109940,36.013041333333334,129.32008966666666,134.2917226668026,71.16288344938458,1.1,228.0,,-0.453125,-0.109375,-0.6171875,-0.015625,-0.119140625,-0.140625,-0.33984375,-7.578125,0.65625
4109941,,,,,,,,-0.75,0.03515625,-0.546875,0.078125,0.396484375,0.03515625,-0.4921875,-9.49609375,1.15625
4109942,,,,,,,,-1.125,-0.42578125,-1.015625,0.095703125,0.380859375,0.046875,-0.875,-9.953125,0.6953125
4109943,,,,,,,,-0.734375,-0.65625,-1.48828125,0.1171875,0.40625,0.005859375,-0.4921875,-10.19140625,0.23828125
4109944,,,,,,,,-0.26953125,-0.30859375,-1.27734375,0.130859375,0.435546875,-0.048828125,-0.03515625,-9.83984375,0.46484375
4109945,,,,,,,,0.421875,-0.9296875,-0.9453125,0.12890625,0.6328125,-0.119140625,0.65625,-10.45703125,0.8125
4109946,,,,,,,,1.03515625,-2.42578125,-0.83203125,0.123046875,0.732421875,-0.15625,1.26953125,-11.9453125,0.92578125
4109947,,,,,,,,2.453125,-4.46484375,0.03515625,0.078125,0.876953125,-0.220703125,2.6875,-13.98046875,1.80859375
4109948,,,,,,,,3.69921875,-4.921875,1.25,0.044921875,0.90625,-0.28125,3.94921875,-14.4375,3.03125
4109949,,,,,,,,4.23046875,-5.11328125,2.09375,0.044921875,1.017578125,-0.40234375,4.48828125,-14.625,3.875
4109950,36.01304066666667,129.3200885,134.1865501491735,71.0889090142478,1.2000000000000002,231.0,,1.9375,-4.30859375,1.8125,-0.015625,-0.119140625,-0.140625,2.2265625,-13.8203125,3.609375
4109951,,,,,,,,1.0546875,-4.234375,1.7734375,0.046875,1.083984375,-0.599609375,0.3125,-13.8984375,3.453125
4109952,,,,,,,,-0.23828125,-4.42578125,1.53515625,0.123046875,0.521484375,-0.3125,0.1953125,-13.9375,3.1875
4109953,,,,,,,,-0.03515625,-4.31640625,1.17578125,0.1796875,0.001953125,-0.052734375,0.84765625,-13.328125,2.6875
4109954,,,,,,,,0.7265625,-3.46875,0.77734375,0.19140625,-0.26171875,-0.048828125,1.30859375,-12.63671875,2.53515625
4109955,,,,,,,,1.09375,-2.515625,0.53125,0.14453125,-0.34765625,-0.24609375,1.61328125,-11.41796875,2.19140625
4109956,,,,,,,,1.19921875,-1.90625,0.33203125,0.1015625,-0.376953125,-0.3046875,1.61328125,-11.18359375,2.11328125
4109957,,,,,,,,1.046875,-1.484375,0.16796875,0.017578125,-0.482421875,-0.283203125,1.30859375,-10.7578125,1.8828125
4109958,,,,,,,,0.69921875,-1.25390625,-0.03125,-0.080078125,-0.607421875,-0.158203125,1.15234375,-10.68359375,1.80859375
4109959,,,,,,,,0.5625,-1.1015625,-0.12890625,-0.16015625,-0.634765625,-0.0703125,0.9609375,-10.296875,1.69140625
4109960,36.01303983333333,129.32008733333333,134.0813779128907,70.99644137237144,1.3,233.0,,0.37109375,-0.51171875,-0.13671875,-0.23046875,-0.501953125,-0.095703125,0.76953125,-9.34765625,1.578125
4109961,,,,,,,,0.1640625,0.5234375,-0.3046875,-0.244140625,-0.412109375,-0.162109375,0.6171875,-8.34375,1.38671875
4109962,,,,,,,,0.0390625,1.19140625,-0.41015625,-0.24609375,-0.396484375,-0.1875,0.65625,-8.08203125,1.30859375
4109963,,,,,,,,0.046875,2.03515625,-0.6484375,-0.25,-0.408203125,-0.197265625,0.6953125,-7.2734375,1.00390625
4109964,,,,,,,,0.13671875,2.41796875,-0.81640625,-0.263671875,-0.482421875,-0.1796875,0.80859375,-6.9296875,0.92578125
4109965,,,,,,,,0.18359375,2.96875,-0.984375,-0.265625,-0.51171875,-0.177734375,0.84765625,-6.43359375,0.65625
4109966,,,,,,,,0.17578125,3.12109375,-1.046875,-0.267578125,-0.509765625,-0.19140625,0.88671875,-6.2734375,0.62109375
4109967,,,,,,,,0.2890625,3.390625,-1.04296875,-0.283203125,-0.474609375,-0.197265625,1.0390625,-5.93359375,0.54296875
4109968,,,,,,,,0.3359375,3.66796875,-1.12109375,-0.296875,-0.365234375,-0.1796875,1.23046875,-6.01171875,0.46484375
4109969,,,,,,,,0.47265625,3.55078125,-1.14453125,-0.302734375,-0.32421875,-0.17578125,1.34375,-6.01171875,0.390625
4109970,36.013039000000006,129.3200865,134.00625528746454,70.90397419195918,1.2000000000000002,231.0,,0.37109375,-0.51171875,-0.13671875,-0.23046875,-0.501953125,-0.095703125,1.5,-6.24609375,0.390625
4109971,,,,,,,,0.80859375,3.21484375,-1.2578125,-0.27734375,-0.11328125,-0.1953125,1.65234375,-6.43359375,0.23828125
4109972,,,,,,,,0.9609375,2.9140625,-1.36328125,-0.25390625,-0.07421875,-0.21875,1.765625,-6.77734375,0.046875
4109973,,,,,,,,0.9296875,2.5703125,-1.484375,-0.236328125,-0.09765625,-0.220703125,1.8046875,-7.15625,-0.03125
4109974,,,,,,,,0.8671875,2.2265625,-1.3828125,-0.20703125,-0.103515625,-0.20703125,1.765625,-7.3515625,0.046875
4109975,,,,,,,,0.76953125,2.03515625,-1.23828125,-0.18359375,-0.091796875,-0.166015625,1.69140625,-7.5390625,0.16015625
4109976,,,,,,,,0.66796875,1.84375,-1.0,-0.146484375,-0.078125,-0.095703125,1.61328125,-7.734375,0.390625
4109977,,,,,,,,0.58203125,1.7265625,-0.6796875,-0.11328125,-0.0546875,-0.0234375,1.53515625,-7.8515625,0.6953125
4109978,,,,,,,,0.4296875,1.65234375,-0.625,-0.0859375,-0.046875,0.072265625,1.3828125,-7.92578125,0.734375
4109979,,,,,,,,0.37109375,1.4609375,-0.65625,-0.064453125,-0.0625,0.158203125,1.30859375,-8.1171875,0.6953125
4109980,36.013038333333334,129.32008566666667,133.93113238118613,70.8300002178437,1.1,230.0,,0.26953125,1.30859375,-0.6875,-0.046875,-0.103515625,0.228515625,1.19140625,-8.26953125,0.65625
4109981,,,,,,,,0.2109375,1.046875,-0.640625,-0.04296875,-0.15625,0.283203125,1.1171875,-8.5390625,0.6953125
4109982,,,,,,,,0.15625,0.703125,-0.5546875,-0.0390625,-0.201171875,0.291015625,1.0390625,-8.88671875,0.7734375
4109983,,,,,,,,0.265625,0.42578125,-0.47265625,-0.037109375,-0.2265625,0.29296875,1.1171875,-9.15234375,0.84765625
4109984,,,,,,,,0.43359375,0.05078125,-0.43359375,-0.04296875,-0.240234375,0.296875,1.26953125,-9.53515625,0.88671875
4109985,,,,,,,,0.5703125,-0.29296875,-0.46484375,-0.052734375,-0.236328125,0.306640625,1.3828125,-9.87890625,0.84765625
4109986,,,,,,,,0.5390625,-0.37109375,-0.4921875,-0.0546875,-0.228515625,0.3125,1.34375,-9.95703125,0.8125
4109987,,,,,,,,0.41796875,-0.640625,-0.41015625,-0.076171875,-0.193359375,0.31640625,1.19140625,-10.23046875,0.88671875
4109988,,,,,,,,0.2890625,-0.90625,-0.35546875,-0.0859375,-0.14453125,0.310546875,1.0390625,-10.4921875,0.92578125
4109989,,,,,,,,-0.03125,-1.43359375,-0.30859375,-0.0859375,-0.103515625,0.31640625,0.6953125,-11.02734375,0.96484375
4109990,36.0130375,129.32008466666667,133.84098494568266,70.73753280882431,1.2000000000000002,227.0,,-0.22265625,-1.7421875,-0.33984375,-0.083984375,-0.044921875,0.330078125,0.46484375,-11.33984375,0.92578125
4109991,,,,,,,,-0.5,-1.88671875,-0.0859375,-0.076171875,0.064453125,0.310546875,0.15625,-11.48828125,1.15625
4109992,,,,,,,,-0.54296875,-1.46484375,0.14453125,-0.07421875,0.115234375,0.271484375,0.08203125,-11.0625,1.38671875
4109993,,,,,,,,-0.20703125,-1.0078125,0.0,-0.05859375,0.1640625,0.197265625,0.38671875,-10.61328125,1.234375
4109994,,,,,,,,0.109375,-0.890625,-0.03125,-0.04296875,0.162109375,0.14453125,0.6953125,-10.4921875,1.1953125
4109995,,,,,,,,0.70703125,-2.84375,-0.4453125,-0.03125,0.119140625,0.072265625,1.26953125,-12.4453125,0.7734375
4109996,,,,,,,,0.5546875,-3.6484375,-0.37109375,-0.029296875,0.138671875,0.017578125,1.1171875,-13.25,0.84765625
4109997,,,,,,,,-0.328125,-3.15234375,0.48046875,-0.041015625,0.2109375,0.005859375,0.234375,-12.75,1.69140625
4109998,,,,,,,,-1.09375,-2.078125,1.1015625,-0.076171875,0.466796875,-0.078125,-0.53125,-11.68359375,2.3046875
4109999,,,,,,,,-1.24609375,-2.03125,1.29296875,-0.05859375,0.681640625,-0.08984375,-0.68359375,-11.640625,2.49609375
4110000,36.01303666666667,129.3200838333333,133.76586231334653,70.64506562945684,1.3,225.0,0.0,-1.32421875,-2.03125,1.484375,-0.083984375,-0.044921875,0.330078125,0.46484375,-11.33984375,0.92578125
4110001,,,,,,,,-1.26953125,-1.6484375,1.8203125,0.041015625,0.4296875,0.111328125,-0.72265625,-11.26171875,3.03125
4110002,,,,,,,,-1.18359375,-1.57421875,2.01171875,0.03515625,0.375,0.107421875,-0.64453125,-11.1796875,3.22265625
4110003,,,,,,,,-0.87109375,-1.49609375,2.01171875,0.01953125,0.375,0.029296875,-0.33984375,-11.1015625,3.22265625
4110004,,,,,,,,-0.48828125,-1.61328125,2.3515625,0.01953125,0.306640625,-0.01953125,0.04296875,-11.22265625,3.5703125
4110005,,,,,,,,-0.2109375,-1.87890625,2.3515625,0.005859375,0.140625,0.00390625,0.3125,-11.484375,3.5703125
4110006,,,,,,,,-0.14453125,-1.91796875,2.234375,0.005859375,0.0546875,0.02734375,0.38671875,-11.52734375,3.453125
4110007,,,,,,,,-0.2109375,-1.7578125,1.8828125,0.005859375,-0.03125,0.041015625,0.3125,-11.375,3.109375
4110008,,,,,,,,-0.48046875,-1.52734375,1.9609375,0.03125,-0.076171875,0.0625,0.04296875,-11.140625,3.1875
4110009,,,,,,,,-0.93359375,-1.375,2.07421875,0.044921875,-0.142578125,0.115234375,-0.41796875,-10.99609375,3.30078125
4110010,36.01303583333333,129.32008283333334,133.67571487869733,70.55259822132786,1.3,225.0,,-1.15234375,-1.13671875,2.06640625,0.048828125,-0.16796875,0.158203125,-0.64453125,-10.7578125,3.30078125
4110011,,,,,,,,-0.82421875,-0.984375,1.72265625,0.0703125,-0.158203125,0.216796875,-0.33984375,-10.609375,2.95703125
4110012,,,,,,,,-0.6875,-0.828125,1.33203125,0.111328125,-0.16796875,0.251953125,-0.2265625,-10.45703125,2.57421875
4110013,,,,,,,,-0.6328125,-0.71484375,1.23828125,0.14453125,-0.19921875,0.23828125,-0.1875,-10.3359375,2.49609375
4110014,,,,,,,,-0.69140625,-0.28515625,1.0703125,0.173828125,-0.208984375,0.185546875,-0.26171875,-9.9140625,2.34375
4110015,,,,,,,,-0.5234375,0.3203125,0.7109375,0.1953125,-0.1953125,0.1640625,-0.109375,-9.30859375,2.0
4110016,,,,,,,,-0.27734375,0.85546875,0.33984375,0.205078125,-0.169921875,0.16796875,0.12109375,-8.76953125,1.65234375
4110017,,,,,,,,-0.29296875,1.23828125,0.1171875,0.220703125,-0.169921875,0.171875,0.08203125,-8.3828125,1.4609375
4110018,,,,,,,,-0.171875,1.58203125,-0.05078125,0.220703125,-0.1875,0.166015625,0.1953125,-8.0390625,1.30859375
4110019,,,,,,,,-0.1640625,1.890625,-0.1796875,0.228515625,-0.20703125,0.169921875,0.1953125,-7.734375,1.1953125
4110020,36.013034999999995,129.32008216666665,133.6156170505132,70.46013127097875,1.2000000000000002,223.0,,-0.1484375,2.2734375,-0.28125,0.240234375,-0.20703125,0.181640625,0.1953125,-7.3515625,1.1171875
4110021,,,,,,,,-0.32421875,2.76953125,-0.609375,0.244140625,-0.20703125,0.201171875,0.00390625,-6.85546875,0.8125
4110022,,,,,,,,-0.5390625,2.9609375,-0.86328125,0.26171875,-0.1953125,0.208984375,-0.2265625,-6.6640625,0.58203125
4110023,,,,,,,,-0.828125,3.0390625,-1.1171875,0.275390625,-0.19140625,0.224609375,-0.53125,-6.58984375,0.3515625
4110024,,,,,,,,-1.00390625,2.953125,-1.1171875,0.2890625,-0.189453125,0.220703125,-0.72265625,-6.66796875,0.390625
4110025,,,,,,,,-1.140625,2.75390625,-1.1015625,0.294921875,-0.17578125,0.20703125,-0.875,-6.8515625,0.4296875
4110026,,,,,,,,-1.07421875,2.51953125,-1.1875,0.2890625,-0.134765625,0.177734375,-0.83984375,-7.078125,0.390625
4110027,,,,,,,,-0.86328125,2.2109375,-1.2109375,0.26953125,-0.125,0.1796875,-0.64453125,-7.39453125,0.390625
4110028,,,,,,,,-0.49609375,1.9375,-1.17578125,0.2421875,-0.115234375,0.1640625,-0.30078125,-7.65625,0.46484375
4110029,,,,,,,,-0.328125,1.78125,-1.16015625,0.21875,-0.119140625,0.14453125,-0.1484375,-7.81640625,0.50390625
4110030,36.013034166666664,129.32008133333332,133.54049441591948,70.36766409329242,1.2000000000000002,224.0,,-0.16796875,1.61328125,-1.0234375,0.189453125,-0.123046875,0.111328125,0.00390625,-7.96484375,0.65625
4110031,,,,,,,,-0.16015625,1.61328125,-0.8828125,0.166015625,-0.119140625,0.087890625,0.00390625,-7.9609375,0.8125
4110032,,,,,,,,-0.2734375,1.65234375,-0.890625,0.16015625,-0.12109375,0.076171875,-0.109375,-7.92578125,0.8125
4110033,,,,,,,,-0.3828125,1.64453125,-1.0703125,0.140625,-0.134765625,0.052734375,-0.2265625,-7.92578125,0.65625
4110034,,,,,,,,-0.41015625,1.56640625,-1.19921875,0.138671875,-0.1640625,0.04296875,-0.26171875,-8.0,0.54296875
4110035,,,,,,,,-0.375,1.328125,-1.28515625,0.130859375,-0.2109375,0.05078125,-0.2265625,-8.234375,0.46484375
4110036,,,,,,,,-0.3359375,1.17578125,-1.17578125,0.130859375,-0.23046875,0.056640625,-0.1875,-8.3828125,0.58203125
4110037,,,,,,,,-0.2109375,0.82421875,-1.1171875,0.103515625,-0.255859375,0.06640625,-0.0703125,-8.73046875,0.65625
4110038,,,,,,,,-0.08984375,0.47265625,-1.0078125,0.09375,-0.2265625,0.060546875,0.04296875,-9.0703125,0.7734375
4110039,,,,,,,,-0.08984375,0.05078125,-0.94140625,0.091796875,-0.21875,0.052734375,0.04296875,-9.4921875,0.84765625
4110040,36.0130335,129.32008033333335,133.45034669573474,70.29368989522214,1.2000000000000002,225.0,,-0.05078125,-0.6015625,-0.6796875,0.103515625,-0.18359375,0.021484375,0.08203125,-10.15234375,1.1171875
4110041,,,,,,,,-0.05859375,-0.83984375,-0.38671875,0.115234375,-0.15625,-0.0078125,0.08203125,-10.37890625,1.42578125
4110042,,,,,,,,-0.13671875,-0.84765625,-0.39453125,0.126953125,-0.12890625,-0.03515625,0.00390625,-10.37890625,1.42578125
4110043,,,,,,,,-0.17578125,-0.80859375,-0.43359375,0.125,-0.109375,-0.048828125,-0.03515625,-10.33984375,1.38671875
4110044,,,,,,,,-0.265625,-0.80859375,-0.71875,0.13671875,-0.11328125,-0.064453125,-0.109375,-10.33984375,1.1171875
4110045,,,,,,,,-0.07421875,-0.84765625,-0.91796875,0.134765625,-0.1484375,-0.046875,0.08203125,-10.37890625,0.92578125
4110046,,,,,,,,0.18359375,-0.85546875,-1.00390625,0.1328125,-0.171875,-0.0234375,0.34765625,-10.375,0.84765625
4110047,,,,,,,,0.30078125,-0.86328125,-1.0546875,0.123046875,-0.150390625,-0.001953125,0.46484375,-10.375,0.8125
4110048,,,,,,,,0.37890625,-0.86328125,-1.0625,0.1171875,-0.125,-0.00390625,0.54296875,-10.375,0.8125
4110049,,,,,,,,0.4921875,-0.9375,-1.1484375,0.099609375,0.0,-0.005859375,0.65625,-10.453125,0.734375
4110050,36.013032833333334,129.32007933333335,133.36019896880128,70.21971569830112,1.2000000000000002,227.0,,0.33984375,-0.640625,-1.05078125,0.103515625,-0.18359375,0.021484375,0.08203125,-10.15234375,1.1171875
4110051,,,,,,,,0.1484375,-0.49609375,-1.05078125,0.09765625,0.189453125,-0.001953125,0.3125,-9.9921875,0.84765625
4110052,,,,,,,,-0.19921875,-0.6875,-0.94140625,0.09375,0.275390625,0.0,-0.03515625,-10.1875,0.96484375
4110053,,,,,,,,-0.265625,-1.9140625,-0.84375,0.09375,0.34765625,0.01953125,-0.109375,-11.41796875,1.078125
4110054,,,,,,,,0.0546875,-3.4453125,-0.421875,0.087890625,0.404296875,0.005859375,0.1953125,-12.94921875,1.5
4110055,,,,,,,,1.05859375,-3.51953125,1.02734375,0.072265625,0.51171875,-0.041015625,1.19140625,-13.01953125,2.95703125
4110056,,,,,,,,1.328125,-3.484375,1.1328125,0.060546875,0.587890625,-0.083984375,1.4609375,-12.98828125,3.0703125
4110057,,,,,,,,2.24609375,-3.0625,1.01953125,0.046875,0.77734375,-0.177734375,2.37890625,-12.5625,2.95703125
4110058,,,,,,,,2.4375,-2.1875,1.31640625,0.03125,0.841796875,-0.26953125,2.5703125,-11.68359375,3.26171875
4110059,,,,,,,,2.23046875,-1.73046875,1.73046875,0.01171875,0.6484375,-0.28125,2.37890625,-11.22265625,3.68359375
4110060,36.01303216666667,129.32007816666666,133.25502642982462,70.14574127454132,1.3,231.0,,1.52734375,-1.95703125,2.11328125,0.103515625,-0.18359375,0.021484375,1.69140625,-11.44921875,4.06640625
4110061,,,,,,,,0.3984375,-2.48828125,2.4296875,0.0078125,0.263671875,-0.142578125,0.578125,-11.984375,4.375
4110062,,,,,,,,0.015625,-2.79296875,2.3515625,0.03125,0.015625,-0.0625,0.1953125,-12.2890625,4.296875
4110063,,,,,,,,0.0859375,-2.87109375,2.0078125,0.0390625,-0.12109375,-0.130859375,0.2734375,-12.3671875,3.953125
4110064,,,,,,,,0.828125,-2.33203125,1.76953125,0.0390625,-0.1953125,-0.19921875,1.0390625,-11.83203125,3.72265625
4110065,,,,,,,,1.30078125,-1.68359375,1.5703125,-0.009765625,-0.31640625,-0.29296875,1.765625,-10.9140625,3.453125
4110066,,,,,,,,1.6328125,-1.14453125,1.42578125,-0.0234375,-0.33203125,-0.341796875,1.8828125,-10.64453125,3.37890625
4110067,,,,,,,,1.453125,-0.71875,1.1171875,-0.078125,-0.349609375,-0.408203125,1.765625,-10.2265625,3.0703125
4110068,,,,,,,,1.21484375,-0.75390625,0.703125,-0.1328125,-0.376953125,-0.408203125,1.57421875,-10.2578125,2.6484375
4110069,,,,,,,,1.0546875,-0.74609375,0.61328125,-0.1953125,-0.35546875,-0.396484375,1.4609375,-10.2578125,2.53515625
4110070,36.013031500000004,129.320077,133.1498538916679,70.07176685180225,1.3,234.0,,0.79296875,-0.546875,0.56640625,-0.263671875,-0.173828125,-0.412109375,1.26953125,-10.07421875,2.45703125
4110071,,,,,,,,0.67578125,-0.2421875,0.4453125,-0.302734375,-0.076171875,-0.423828125,1.19140625,-9.765625,2.3046875
4110072,,,,,,,,0.5546875,0.6875,0.1328125,-0.337890625,-0.029296875,-0.40234375,1.1171875,-8.84765625,1.9609375
4110073,,,,,,,,0.515625,1.15234375,-0.02734375,-0.349609375,-0.0390625,-0.3515625,1.1171875,-8.38671875,1.76953125
4110074,,,,,,,,0.4453125,1.8125,-0.33984375,-0.361328125,-0.091796875,-0.302734375,1.078125,-7.734375,1.42578125
4110075,,,,,,,,0.3359375,2.1953125,-0.46484375,-0.357421875,-0.1328125,-0.271484375,1.0,-7.35546875,1.26953125
4110076,,,,,,,,0.3203125,2.30859375,-0.5625,-0.35546875,-0.14453125,-0.263671875,1.0,-7.234375,1.15625
4110077,,,,,,,,0.25,2.6640625,-0.71484375,-0.361328125,-0.16015625,-0.236328125,0.9609375,-6.89453125,0.96484375
4110078,,,,,,,,0.2734375,2.78515625,-0.76171875,-0.35546875,-0.15625,-0.203125,1.0,-6.77734375,0.88671875
4110079,,,,,,,,0.328125,2.90625,-0.875,-0.36328125,-0.15625,-0.1796875,1.078125,-6.66796875,0.734375
4110080,36.013030666666666,129.32007616666667,133.07473125095328,69.97929967831973,1.2000000000000002,233.0,,0.52734375,2.87890625,-0.7421875,-0.365234375,-0.1328125,-0.158203125,1.30859375,-6.6953125,0.8125
4110081,,,,,,,,0.6171875,2.80078125,-0.7890625,-0.35546875,-0.125,-0.15625,1.421875,-6.77734375,0.734375
4110082,,,,,,,,0.75390625,2.6953125,-0.828125,-0.34765625,-0.11328125,-0.1640625,1.57421875,-6.89453125,0.65625
4110083,,,,,,,,0.9296875,2.6953125,-0.91015625,-0.326171875,-0.1015625,-0.185546875,1.765625,-6.890625,0.54296875
4110084,,,,,,,,1.0625,2.6171875,-0.95703125,-0.30078125,-0.12109375,-0.201171875,1.921875,-6.97265625,0.46484375
4110085,,,,,,,,0.9140625,2.46484375,-0.88671875,-0.26953125,-0.14453125,-0.19921875,1.8046875,-7.1171875,0.50390625
4110086,,,,,,,,0.8671875,2.42578125,-0.91796875,-0.25390625,-0.16015625,-0.19140625,1.765625,-7.15625,0.46484375
4110087,,,,,,,,0.69140625,2.35546875,-0.80859375,-0.2109375,-0.16796875,-0.1484375,1.61328125,-7.23828125,0.54296875
4110088,,,,,,,,0.4921875,2.2421875,-0.640625,-0.171875,-0.173828125,-0.076171875,1.421875,-7.35546875,0.6953125
4110089,,,,,,,,0.4453125,2.1640625,-0.546875,-0.138671875,-0.173828125,0.0,1.3828125,-7.4296875,0.7734375
4110090,36.01303,129.32007533333334,132.99960832647005,69.90532571265219,1.1,231.0,,0.4765625,1.97265625,-0.4921875,-0.115234375,-0.185546875,0.078125,1.30859375,-6.6953125,0.8125
4110091,,,,,,,,0.5625,1.66796875,-0.70703125,-0.09765625,-0.185546875,0.140625,1.5,-7.921875,0.58203125
4110092,,,,,,,,0.5703125,1.55078125,-0.69921875,-0.0859375,-0.1953125,0.166015625,1.5,-8.0390625,0.58203125
4110093,,,,,,,,0.62890625,0.9765625,-0.73046875,-0.076171875,-0.2109375,0.203125,1.53515625,-8.6171875,0.54296875
4110094,,,,,,,,0.5703125,0.79296875,-0.6015625,-0.0703125,-0.21875,0.228515625,1.4609375,-8.84375,0.62109375
4110095,,,,,,,,0.5390625,0.6328125,-0.59375,-0.064453125,-0.201171875,0.263671875,1.34375,-9.1875,0.8125
4110096,,,,,,,,0.4765625,0.40234375,-0.4296875,-0.056640625,-0.19140625,0.28515625,1.34375,-9.3828125,0.88671875
4110097,,,,,,,,0.5,-0.0546875,-0.26953125,-0.046875,-0.16015625,0.3359375,1.34375,-9.8046875,1.0390625
4110098,,,,,,,,0.41796875,-0.39453125,-0.078125,-0.044921875,-0.1171875,0.41015625,1.19140625,-10.11328125,1.15625
4110099,,,,,,,,0.40234375,-0.5078125,-0.0625,-0.04296875,-0.095703125,0.419921875,1.0390625,-10.1875,1.1953125
4110100,36.01302916666667,129.32007416666664,132.8944360609484,69.81285808546241,1.2000000000000002,229.0,0.0,0.4765625,1.97265625,-0.4921875,-0.037109375,-0.044921875,0.419921875,0.92578125,-10.19140625,1.15625
4110101,,,,,,,,0.09765625,-0.546875,-0.09375,-0.015625,0.001953125,0.416015625,0.6171875,-10.109375,1.15625
4110102,,,,,,,,-0.09375,-0.546875,-0.0546875,0.013671875,0.00390625,0.421875,0.54296875,-10.2265625,1.1171875
4110103,,,,,,,,-0.16796875,-0.890625,-0.09375,0.03515625,0.00390625,0.404296875,0.42578125,-10.609375,1.078125
4110104,,,,,,,,-0.16796875,-1.03515625,-0.09375,0.052734375,0.005859375,0.373046875,0.3125,-10.640625,1.26953125
4110105,,,,,,,,-0.2890625,-0.578125,0.28125,0.0546875,0.029296875,0.306640625,0.2734375,-10.19140625,1.5
4110106,,,,,,,,-0.20703125,-0.30859375,0.3125,0.056640625,0.068359375,0.255859375,0.34765625,-9.91796875,1.5390625
4110107,,,,,,,,0.140625,0.44921875,0.3046875,0.064453125,0.142578125,0.20703125,0.65625,-9.1484375,1.5390625
4110108,,,,,,,,0.66015625,-0.125,0.19140625,0.080078125,0.15234375,0.201171875,1.15234375,-9.73046875,1.42578125
4110109,,,,,,,,1.0234375,-2.34765625,-0.0859375,0.078125,0.130859375,0.181640625,1.5,-11.9453125,1.15625
4110110,36.01302833333333,129.32007333333334,132.8193134147991,69.72039091446041,1.3,226.0,,0.73046875,-3.609375,0.328125,-0.037109375,-0.044921875,0.419921875,1.19140625,-13.2109375,1.578125
4110111,,,,,,,,-1.046875,-3.265625,2.00390625,0.06640625,0.30078125,0.150390625,-0.609375,-12.8671875,3.26171875
4110112,,,,,,,,-1.84375,-3.0,2.37890625,0.017578125,0.630859375,0.07421875,-1.4140625,-12.6015625,3.64453125
4110113,,,,,,,,-2.140625,-3.11328125,2.3046875,0.001953125,1.02734375,0.013671875,-1.71875,-12.7109375,3.5703125
4110114,,,,,,,,-2.1640625,-3.16015625,2.71875,0.080078125,1.060546875,0.125,-1.7578125,-12.75390625,3.9921875
4110115,,,,,,,,-2.0078125,-3.34375,3.19921875,0.123046875,0.689453125,0.296875,-1.48828125,-12.94921875,4.56640625
4110116,,,,,,,,-1.09765625,-3.0078125,3.0703125,0.0703125,0.515625,0.140625,-0.76171875,-12.60546875,4.375
4110117,,,,,,,,-0.32421875,-2.921875,3.0625,0.029296875,0.48046875,-0.041015625,0.00390625,-12.52734375,4.375
4110118,,,,,,,,0.2890625,-2.8828125,3.09765625,0.00390625,0.36328125,-0.025390625,0.6171875,-12.484375,4.41015625
4110119,,,,,,,,0.4140625,-2.65234375,2.87109375,-0.044921875,0.119140625,0.04296875,0.734375,-12.25,4.18359375
4110120,36.01302733333333,129.32007266666668,132.75921585663554,69.60943076389982,1.3,221.0,,-0.078125,-1.99609375,2.2265625,-0.037109375,-0.044921875,0.419921875,0.234375,-11.60546875,3.53125
4110121,,,,,,,,-0.75,-1.2265625,2.265625,-0.025390625,-0.12890625,0.224609375,-0.453125,-10.83984375,3.5703125
4110122,,,,,,,,-0.95703125,-0.921875,1.91015625,0.017578125,-0.173828125,0.29296875,-0.68359375,-10.53515625,3.22265625
4110123,,,,,,,,-0.4609375,-1.06640625,1.4375,0.095703125,-0.173828125,0.294921875,-0.2265625,-10.6796875,2.765625
4110124,,,,,,,,-0.12890625,-1.02734375,1.3515625,0.16796875,-0.1640625,0.25,0.08203125,-10.640625,2.6875
4110125,,,,,,,,0.0859375,-0.41796875,1.0546875,0.232421875,-0.044921875,0.140625,0.2734375,-10.03515625,2.421875
4110126,,,,,,,,0.21484375,0.1953125,0.5625,0.26171875,0.052734375,0.099609375,0.38671875,-9.42578125,1.9609375
4110127,,,,,,,,0.4140625,0.78125,0.15625,0.267578125,0.06640625,0.119140625,0.578125,-8.84765625,1.578125
4110128,,,,,,,,0.38671875,1.0703125,-0.03515625,0.27734375,0.0390625,0.125,0.54296875,-8.5390625,1.42578125
4110129,,,,,,,,0.28515625,1.56640625,-0.21484375,0.291015625,0.01171875,0.125,0.42578125,-8.04296875,1.26953125
4110130,36.01302633333333,129.320072,132.6991182939843,69.49847061330861,1.3,219.0,,0.33984375,1.953125,-0.359375,-0.037109375,-0.044921875,0.419921875,0.46484375,-7.66015625,1.15625
4110131,,,,,,,,0.30859375,2.21875,-0.34375,0.294921875,-0.021484375,0.1484375,0.42578125,-7.39453125,1.1953125
4110132,,,,,,,,0.35546875,2.52734375,-0.4765625,0.291015625,-0.01953125,0.158203125,0.46484375,-7.08203125,1.078125
4110133,,,,,,,,0.25390625,2.671875,-0.5078125,0.28515625,-0.0390625,0.16796875,0.34765625,-6.93359375,1.078125
4110134,,,,,,,,-0.11328125,2.77734375,-0.68359375,0.283203125,-0.064453125,0.169921875,-0.03515625,-6.81640625,0.92578125
4110135,,,,,,,,-0.41015625,2.77734375,-0.80078125,0.271484375,-0.078125,0.158203125,-0.33984375,-6.8125,0.84765625
4110136,,,,,,,,-0.59375,2.77734375,-0.80859375,0.265625,-0.09765625,0.16015625,-0.53125,-6.81640625,0.84765625
4110137,,,,,,,,-1.0,2.73046875,-0.875,0.259765625,-0.142578125,0.1640625,-0.953125,-6.85546875,0.8125
4110138,,,,,,,,-1.08984375,2.80859375,-0.9921875,0.23046875,-0.185546875,0.1640625,-1.06640625,-6.7734375,0.734375
4110139,,,,,,,,-1.12109375,2.80078125,-1.11328125,0.21484375,-0.193359375,0.15625,-1.10546875,-6.77734375,0.62109375
4110140,36.013025666666664,129.32007116666668,132.62399536436143,69.42449665071005,1.2000000000000002,222.0,,-1.0,2.80078125,-1.328125,0.18359375,-0.189453125,0.103515625,-0.9921875,-6.77734375,0.4296875
4110141,,,,,,,,-0.9296875,2.6015625,-1.4296875,0.130859375,-0.205078125,0.01171875,-0.9140625,-6.97265625,0.3515625
4110142,,,,,,,,-0.77734375,2.33203125,-1.3671875,0.078125,-0.19921875,-0.029296875,-0.76171875,-7.234375,0.4296875
4110143,,,,,,,,-0.5546875,1.98828125,-1.140625,0.029296875,-0.18359375,-0.06640625,-0.53125,-7.58203125,0.65625
4110144,,,,,,,,-0.5234375,1.8984375,-1.1015625,-0.02734375,-0.134765625,-0.126953125,-0.41796875,-7.6953125,0.8125
4110145,,,,,,,,-0.41796875,1.828125,-0.94921875,-0.05859375,-0.103515625,-0.19140625,-0.37890625,-7.69921875,0.92578125
4110146,,,,,,,,-0.43359375,1.8671875,-0.87109375,-0.0703125,-0.099609375,-0.228515625,-0.30078125,-7.6953125,0.92578125
4110147,,,,,,,,-0.265625,1.90625,-0.9765625,-0.083984375,-0.103515625,-0.287109375,-0.1875,-7.66015625,0.8125
4110148,,,,,,,,-0.1953125,1.8203125,-1.046875,-0.09765625,-0.125,-0.306640625,-0.0703125,-7.734375,0.734375
4110149,,,,,,,,-0.15234375,1.51171875,-1.14453125,-0.1015625,-0.158203125,-0.306640625,0.00390625,-8.04296875,0.62109375
4110150,36.01302483333333,129.32007033333332,132.54887270819026,69.33202948116691,1.1,223.0,,-0.18359375,0.9375,-1.0625,-0.09765625,-0.19140625,-0.29296875,0.00390625,-8.62109375,0.6953125
4110151,,,,,,,,-0.25390625,0.44140625,-1.015625,-0.08984375,-0.2109375,-0.283203125,-0.03515625,-9.109375,0.734375
4110152,,,,,,,,-0.421875,0.05078125,-0.89453125,-0.076171875,-0.205078125,-0.287109375,-0.1875,-9.49609375,0.84765625
4110153,,,,,,,,-0.58203125,-0.48828125,-0.76953125,-0.056640625,-0.12890625,-0.330078125,-0.30078125,-10.03125,0.96484375
4110154,,,,,,,,-0.55859375,-0.640625,-0.72265625,-0.0546875,-0.099609375,-0.349609375,-0.26171875,-10.1875,1.00390625
4110155,,,,,,,,-0.515625,-0.75390625,-0.76171875,-0.04296875,-0.052734375,-0.3671875,-0.1875,-10.296875,0.96484375
4110156,,,,,,,,-0.1796875,-1.03125,-0.90625,-0.041015625,-0.017578125,-0.38671875,0.1953125,-10.57421875,0.8125
4110157,,,,,,,,-0.05078125,-1.0703125,-0.9453125,-0.03515625,-0.009765625,-0.38671875,0.34765625,-10.61328125,0.7734375
4110158,,,,,,,,0.2578125,-1.26171875,-1.0234375,-0.044921875,-0.00390625,-0.380859375,0.6953125,-10.80078125,0.6953125
4110159,,,,,,,,0.2265625,-1.22265625,-0.9765625,-0.048828125,0.01953125,-0.36328125,0.6953125,-10.76171875,0.734375
4110160,36.01302416666667,129.32006950000002,132.47374977817626,69.25805552012682,1.2000000000000002,225.0,,0.1171875,-0.76953125,-0.6640625,-0.09765625,-0.19140625,-0.29296875,0.6171875,-10.30078125,1.0390625
4110161,,,,,,,,-0.296875,-0.30859375,-0.921875,-0.0546875,0.130859375,-0.3046875,0.234375,-9.8359375,0.7734375
4110162,,,,,,,,-0.51171875,-0.08203125,-1.19140625,-0.046875,0.1875,-0.26953125,0.04296875,-9.609375,0.50390625
4110163,,,,,,,,-1.00390625,0.2265625,-1.2578125,-0.00390625,0.169921875,-0.2109375,-0.41796875,-9.3046875,0.4296875
4110164,,,,,,,,-1.4765625,-0.81640625,-1.4140625,0.02734375,0.16796875,-0.197265625,-0.875,-10.33984375,0.2734375
4110165,,,,,,,,-1.0703125,-3.0078125,-1.6484375,0.048828125,0.2421875,-0.208984375,-0.453125,-12.5234375,0.046875
4110166,,,,,,,,-0.8125,-3.66015625,-1.53515625,0.056640625,0.287109375,-0.212890625,-0.1875,-13.17578125,0.16015625
4110167,,,,,,,,0.015625,-4.84765625,-0.01171875,0.060546875,0.384765625,-0.2265625,0.65625,-14.36328125,1.69140625
4110168,,,,,,,,1.1953125,-5.57421875,0.6328125,0.064453125,0.619140625,-0.3046875,1.84375,-15.0859375,2.34375
4110169,,,,,,,,3.39453125,-5.0,1.50390625,0.025390625,0.8828125,-0.42578125,4.06640625,-14.515625,3.22265625
4110170,36.0130235,129.32006833333335,132.36857722256954,69.18408110724172,1.2000000000000002,229.0,,3.4765625,-2.01953125,1.61328125,0.0,0.9921875,-0.55078125,4.1796875,-11.52734375,3.33984375
4110171,,,,,,,,2.08984375,-1.18359375,1.4609375,-0.025390625,0.927734375,-0.779296875,2.83984375,-10.68359375,3.1875
4110172,,,,,,,,0.609375,-1.52734375,2.2578125,-0.029296875,0.84765625,-0.783203125,1.421875,-11.02734375,3.9921875
4110173,,,,,,,,-0.86328125,-3.71875,2.515625,0.046875,0.0859375,-0.099609375,0.00390625,-13.21484375,4.2578125
4110174,,,,,,,,-0.703125,-4.1328125,1.828125,0.11328125,-0.212890625,0.1640625,0.15625,-13.63671875,3.5703125
4110175,,,,,,,,0.07421875,-3.29296875,1.16015625,0.140625,-0.19140625,-0.005859375,0.92578125,-12.79296875,2.91796875
4110176,,,,,,,,0.9296875,-2.02734375,0.921875,0.14453125,-0.19921875,-0.28515625,1.8046875,-11.5234375,2.6875
4110177,,,,,,,,1.08203125,-1.19140625,0.80078125,0.072265625,-0.27734375,-0.400390625,1.99609375,-10.6796875,2.57421875
4110178,,,,,,,,0.59765625,-0.54296875,0.68359375,-0.0234375,-0.4765625,-0.265625,1.57421875,-10.03515625,2.45703125
4110179,,,,,,,,0.34375,-0.80859375,0.69140625,-0.099609375,-0.615234375,-0.13671875,1.34375,-10.30078125,2.45703125
4110180,36.01302283333334,129.3200671666667,132.2634046658169,69.11010669526237,1.3,233.0,,0.23828125,-1.14453125,0.83984375,-0.19921875,-0.51953125,-0.0546875,1.26953125,-10.640625,2.57421875
4110181,,,,,,,,0.0703125,-0.640625,0.7265625,-0.236328125,-0.205078125,-0.076171875,1.1171875,-10.15234375,2.421875
4110182,,,,,,,,-0.29296875,0.1328125,0.28125,-0.248046875,-0.091796875,-0.1171875,0.76953125,-9.38671875,1.9609375
4110183,,,,,,,,-0.4140625,0.32421875,0.2578125,-0.240234375,-0.08984375,-0.111328125,0.65625,-9.1875,1.921875
4110184,,,,,,,,-0.34375,0.984375,0.08984375,-0.212890625,-0.169921875,-0.0625,0.734375,-8.5390625,1.73046875
4110185,,,,,,,,-0.23046875,1.3828125,-0.1171875,-0.203125,-0.26953125,0.005859375,0.84765625,-8.15625,1.5
4110186,,,,,,,,-0.19921875,1.84375,-0.24609375,-0.193359375,-0.3125,0.017578125,0.88671875,-7.69921875,1.34765625
4110187,,,,,,,,-0.27734375,2.109375,-0.4140625,-0.189453125,-0.314453125,0.01171875,0.80859375,-7.4296875,1.15625
4110188,,,,,,,,-0.20703125,2.33984375,-0.5234375,-0.189453125,-0.314453125,0.005859375,0.88671875,-7.1953125,1.0390625
4110189,,,,,,,,-0.20703125,2.76953125,-0.65234375,-0.19140625,-0.322265625,0.046875,0.88671875,-6.7734375,0.88671875
4110190,36.013022166666666,129.32006616666666,132.17325691452348,69.03613251037011,1.2000000000000002,233.0,,-0.1328125,2.890625,-0.63671875,-0.203125,-0.3359375,0.09375,0.9609375,-6.6640625,0.88671875
4110191,,,,,,,,0.06640625,2.8984375,-0.65234375,-0.212890625,-0.337890625,0.15234375,1.15234375,-6.6640625,0.84765625
4110192,,,,,,,,0.19140625,2.9765625,-0.6640625,-0.201171875,-0.314453125,0.18359375,1.26953125,-6.5859375,0.8125
4110193,,,,,,,,0.23828125,2.984375,-0.6484375,-0.197265625,-0.298828125,0.185546875,1.30859375,-6.5859375,0.8125
4110194,,,,,,,,0.17578125,2.87109375,-0.59765625,-0.17578125,-0.275390625,0.18359375,1.23046875,-6.69921875,0.84765625
4110195,,,,,,,,0.15234375,2.83984375,-0.48828125,-0.123046875,-0.2421875,0.154296875,1.19140625,-6.73828125,0.92578125
4110196,,,,,,,,0.0546875,2.609375,-0.40234375,-0.083984375,-0.234375,0.134765625,1.078125,-6.96875,1.00390625
4110197,,,,,,,,0.0234375,2.578125,-0.3515625,-0.021484375,-0.251953125,0.140625,1.0390625,-7.01171875,1.0390625
4110198,,,,,,,,-0.0078125,2.6171875,-0.3515625,-0.005859375,-0.265625,0.142578125,1.0,-6.97265625,1.0390625
4110199,,,,,,,,0.0,2.5390625,-0.50390625,0.0234375,-0.27734375,0.16015625,1.0,-7.05078125,0.88671875
4110200,36.0130215,129.3200655,132.11315878413947,68.96215877769474,1.1,232.0,0.0,0.1328125,2.37890625,-0.6171875,0.044921875,-0.29296875,0.18359375,1.1171875,-7.19921875,0.7734375
4110201,,,,,,,,0.29296875,1.95703125,-0.6171875,0.052734375,-0.314453125,0.205078125,1.26953125,-7.6171875,0.7734375
4110202,,,,,,,,0.35546875,1.57421875,-0.6640625,0.06640625,-0.31640625,0.2265625,1.30859375,-8.00390625,0.734375
4110203,,,,,,,,0.25390625,1.046875,-0.39453125,0.068359375,-0.302734375,0.232421875,1.19140625,-8.54296875,1.00390625
4110204,,,,,,,,0.1953125,0.703125,-0.2109375,0.072265625,-0.271484375,0.23046875,1.1171875,-8.8828125,1.1953125
4110205,,,,,,,,0.21875,0.1953125,0.09375,0.078125,-0.234375,0.240234375,1.1171875,-9.38671875,1.5
4110206,,,,,,,,0.2265625,0.04296875,0.24609375,0.072265625,-0.216796875,0.248046875,1.1171875,-9.53125,1.65234375
4110207,,,,,,,,0.28515625,0.00390625,0.39453125,0.08203125,-0.1953125,0.27734375,1.15234375,-9.57421875,1.80859375
4110208,,,,,,,,0.1953125,0.04296875,0.26953125,0.08203125,-0.185546875,0.30078125,1.0390625,-9.53515625,1.69140625
4110209,,,,,,,,0.11328125,0.08203125,0.109375,0.08203125,-0.18359375,0.287109375,0.92578125,-9.4921875,1.5390625
4110210,36.013020833333336,129.32006433333333,132.00798622463856,68.88818436909395,1.3,230.0,,0.12890625,-0.03515625,0.0234375,0.044921875,-0.29296875,0.18359375,0.92578125,-9.609375,1.4609375
4110211,,,,,,,,0.2265625,-0.30859375,-0.05078125,0.052734375,-0.22265625,0.251953125,1.0,-9.87890625,1.38671875
4110212,,,,,,,,0.3125,-0.37890625,-0.08984375,0.044921875,-0.220703125,0.23828125,1.078125,-9.95703125,1.34765625
4110213,,,,,,,,0.2578125,-0.6484375,-0.09765625,0.033203125,-0.2109375,0.205078125,1.0,-10.2265625,1.34765625
4110214,,,,,,,,0.11328125,-0.83984375,-0.13671875,0.017578125,-0.166015625,0.158203125,0.84765625,-10.41796875,1.30859375
4110215,,,,,,,,-0.109375,-0.875,-0.16796875,0.0078125,-0.099609375,0.12109375,0.6171875,-10.453125,1.26953125
4110216,,,,,,,,-0.140625,-0.83984375,-0.12890625,-0.00390625,-0.013671875,0.099609375,0.578125,-10.4140625,1.30859375
4110217,,,,,,,,0.11328125,-0.921875,-0.1953125,-0.021484375,0.13671875,0.046875,0.80859375,-10.4921875,1.234375
4110218,,,,,,,,0.3828125,-1.421875,0.0625,-0.013671875,0.19140625,-0.005859375,1.078125,-10.9921875,1.5
4110219,,,,,,,,0.58203125,-2.609375,0.1875,-0.013671875,0.220703125,-0.021484375,1.26953125,-12.18359375,1.6171875
4110220,36.01302,129.32006366666667,131.94788836977165,68.79571743133336,1.2000000000000002,227.0,,0.45703125,-5.17578125,0.1875,-0.025390625,0.345703125,-0.07421875,1.15234375,-14.7421875,1.6171875
4110221,,,,,,,,-0.95703125,-5.12890625,1.94921875,-0.033203125,0.43359375,-0.068359375,-0.26171875,-14.703125,3.37890625
4110222,,,,,,,,-1.91796875,-3.52734375,2.8203125,-0.060546875,0.58203125,-0.078125,-1.22265625,-13.09375,4.2578125
4110223,,,,,,,,-1.9921875,-2.9140625,2.40625,-0.0703125,0.6875,-0.10546875,-1.296875,-12.484375,3.8359375
4110224,,,,,,,,-1.6484375,-2.4453125,1.94921875,-0.0625,0.845703125,-0.15234375,-0.953125,-12.0234375,3.37890625
4110225,,,,,,,,-1.7265625,-1.14453125,2.28515625,0.015625,0.57421875,-0.013671875,-1.03125,-10.72265625,3.72265625
4110226,,,,,,,,-1.1484375,-0.33984375,3.12890625,-0.03125,0.03515625,-0.138671875,-0.453125,-9.91796875,4.56640625
4110227,,,,,,,,0.51953125,-0.41796875,2.515625,-0.048828125,0.142578125,-0.296875,1.23046875,-9.9921875,3.953125
4110228,,,,,,,,1.00390625,-0.609375,2.25390625,-0.0390625,0.095703125,-0.27734375,1.73046875,-10.19140625,3.68359375
4110229,,,,,,,,1.4453125,-0.9921875,2.1328125,-0.0390625,-0.111328125,-0.19140625,2.1875,-10.57421875,3.5703125
4110230,36.013019,129.32006266666667,131.85774117043184,68.68475683602236,1.3,224.0,,0.80078125,-1.296875,2.1328125,-0.025390625,0.345703125,-0.07421875,1.57421875,-10.87890625,3.5703125
4110231,,,,,,,,0.48828125,-1.60546875,2.28515625,0.060546875,-0.103515625,-0.107421875,1.26953125,-11.18359375,3.72265625
4110232,,,,,,,,-0.01953125,-1.71875,2.34765625,0.115234375,0.0078125,0.03125,0.76953125,-11.296875,3.80078125
4110233,,,,,,,,-0.2109375,-1.64453125,2.3828125,0.13671875,0.04296875,0.103515625,0.578125,-11.22265625,3.8359375
4110234,,,,,,,,-0.6171875,-1.22265625,2.1328125,0.169921875,0.068359375,0.1640625,0.15625,-10.796875,3.609375
4110235,,,,,,,,-0.515625,-1.10546875,1.80078125,0.2109375,0.068359375,0.177734375,0.234375,-10.6796875,3.30078125
4110236,,,,,,,,-0.421875,-1.06640625,1.5078125,0.25,0.048828125,0.22265625,0.3125,-10.64453125,3.03125
4110237,,,,,,,,-0.28515625,-0.79296875,1.29296875,0.29296875,0.009765625,0.287109375,0.42578125,-10.375,2.83984375
4110238,,,,,,,,-0.17578125,-0.53125,1.0703125,0.310546875,-0.013671875,0.294921875,0.50390625,-10.109375,2.6484375
4110239,,,,,,,,0.0390625,0.12890625,0.6953125,0.314453125,-0.017578125,0.3046875,0.6953125,-9.453125,2.3046875
4110240,36.013018333333335,129.3200615,131.75256860556146,68.61078242989348,1.3,227.0,,0.20703125,0.76953125,0.37109375,-0.025390625,0.345703125,-0.07421875,1.57421875,-10.87890625,3.5703125
4110241,,,,,,,,0.23828125,1.18359375,0.1953125,0.310546875,-0.048828125,0.40234375,0.80859375,-8.38671875,1.8828125
4110242,,,,,,,,0.23828125,1.765625,-0.03515625,0.31640625,-0.068359375,0.416015625,0.76953125,-7.8125,1.69140625
4110243,,,,,,,,0.1328125,2.33203125,-0.2578125,0.318359375,-0.08984375,0.423828125,0.6171875,-7.234375,1.5
4110244,,,,,,,,0.03515625,2.6796875,-0.49609375,0.326171875,-0.115234375,0.431640625,0.46484375,-6.89453125,1.30859375
4110245,,,,,,,,-0.234375,2.87109375,-0.71875,0.341796875,-0.146484375,0.439453125,0.15625,-6.69921875,1.1171875
4110246,,,,,,,,-0.33203125,2.87109375,-0.7421875,0.34765625,-0.162109375,0.4375,0.04296875,-6.6953125,1.1171875
4110247,,,,,,,,-0.60546875,2.9765625,-0.734375,0.353515625,-0.1640625,0.41796875,-0.26171875,-6.58984375,1.15625
4110248,,,,,,,,-0.75,3.0078125,-0.8515625,0.34765625,-0.162109375,0.408203125,-0.453125,-6.55078125,1.078125
4110249,,,,,,,,-0.875,2.9609375,-0.921875,0.337890625,-0.126953125,0.38671875,-0.609375,-6.5859375,1.0390625
4110250,36.01301733333333,129.32006083333332,131.6924710211029,68.49982228647166,1.3,225.0,,-1.06640625,2.875,-0.953125,0.31640625,-0.126953125,0.359375,-0.83984375,-6.66796875,1.0390625
4110251,,,,,,,,-1.1953125,2.609375,-1.05859375,0.291015625,-0.1484375,0.314453125,-0.9921875,-6.9296875,0.96484375
4110252,,,,,,,,-1.1640625,2.41015625,-1.08203125,0.248046875,-0.169921875,0.310546875,-0.9921875,-7.1171875,0.96484375
4110253,,,,,,,,-1.0625,2.05859375,-1.0390625,0.19921875,-0.177734375,0.31640625,-0.9140625,-7.46484375,1.0390625
4110254,,,,,,,,-0.89453125,1.98046875,-1.0078125,0.171875,-0.181640625,0.31640625,-0.76171875,-7.5390625,1.078125
4110255,,,,,,,,-0.6640625,1.93359375,-0.8671875,0.095703125,-0.19140625,0.2890625,-0.5703125,-7.578125,1.234375
4110256,,,,,,,,-0.48828125,2.1171875,-0.80078125,0.044921875,-0.177734375,0.220703125,-0.41796875,-7.390625,1.30859375
4110257,,,,,,,,-0.515625,2.15625,-0.83984375,0.005859375,-0.1875,0.140625,-0.453125,-7.3515625,1.26953125
4110258,,,,,,,,-0.5390625,1.8515625,-1.0390625,-0.0390625,-0.240234375,0.044921875,-0.4921875,-7.66015625,1.078125
4110259,,,,,,,,-0.5,1.734375,-0.9609375,-0.046875,-0.263671875,0.02734375,-0.453125,-7.77734375,1.15625
4110260,36.013016666666665,129.32006,131.6173480745207,68.42584833240635,1.1,224.0,,-0.2421875,1.390625,-0.83203125,-0.068359375,-0.296875,0.013671875,-0.1875,-8.12109375,1.26953125
4110261,,,,,,,,-0.2421875,1.2734375,-0.82421875,-0.08203125,-0.263671875,-0.017578125,-0.1484375,-8.30859375,1.30859375
4110262,,,,,,,,-0.21875,1.15234375,-0.78515625,-0.091796875,-0.216796875,-0.076171875,-0.1484375,-8.3828125,1.26953125
4110263,,,,,,,,-0.21875,1.12109375,-0.82421875,-0.09765625,-0.19921875,-0.099609375,-0.1484375,-8.3828125,1.30859375
4110264,,,,,,,,-0.2734375,0.921875,-0.76953125,-0.087890625,-0.1640625,-0.126953125,-0.2265625,-8.69140625,1.30859375
4110265,,,,,,,,-0.328125,0.6171875,-0.80859375,-0.076171875,-0.140625,-0.14453125,-0.2265625,-9.421875,1.234375
4110266,,,,,,,,-0.3046875,-0.11328125,-0.79296875,-0.046875,-0.076171875,-0.166015625,-0.1484375,-9.80859375,1.234375
4110267,,,,,,,,-0.13671875,-0.6875,-0.8203125,-0.037109375,-0.013671875,-0.181640625,0.08203125,-10.37890625,1.234375
4110268,,,,,,,,-0.06640625,-0.87890625,-0.8203125,-0.02734375,0.025390625,-0.1796875,0.1953125,-10.49609375,1.234375
4110269,,,,,,,,0.109375,-1.109375,-0.8203125,-0.0234375,0.109375,-0.19140625,0.46484375,-10.83984375,1.26953125
4110270,36.01301616666667,129.32005916666668,131.54222484940897,68.37036758633806,1.1,228.0,,-0.2421875,1.390625,-0.83203125,-0.021484375,0.189453125,-0.203125,0.578125,-10.8359375,1.234375
4110271,,,,,,,,0.57421875,-1.30859375,-0.96875,-0.021484375,0.248046875,-0.21484375,0.76953125,-10.80078125,1.078125
4110272,,,,,,,,0.59765625,-1.15234375,-0.96875,-0.013671875,0.28125,-0.201171875,0.80859375,-10.64453125,1.078125
4110273,,,,,,,,0.54296875,-0.6953125,-1.04296875,-0.009765625,0.29296875,-0.166015625,0.76953125,-10.1875,1.00390625
4110274,,,,,,,,0.19921875,-0.1640625,-1.12109375,0.0,0.30078125,-0.125,0.42578125,-9.6484375,0.92578125
4110275,,,,,,,,-0.0390625,0.02734375,-0.96875,0.017578125,0.318359375,-0.091796875,0.1953125,-9.45703125,1.078125
4110276,,,,,,,,-0.61328125,-1.0546875,-0.9375,0.03125,0.361328125,-0.056640625,-0.37890625,-10.53125,1.1171875
4110277,,,,,,,,-0.49609375,-2.43359375,-1.015625,0.029296875,0.392578125,-0.052734375,-0.26171875,-11.91015625,1.0390625
4110278,,,,,,,,0.23828125,-3.70703125,0.2109375,0.021484375,0.451171875,-0.078125,0.46484375,-13.171875,2.265625
4110279,,,,,,,,1.6953125,-3.93359375,1.27734375,0.005859375,0.572265625,-0.13671875,1.921875,-13.40234375,3.33984375
4110280,36.0130155,129.32005833333332,131.46710189640743,68.29639363388011,1.1,229.0,,-0.2421875,1.390625,-0.83203125,-0.04296875,0.880859375,-0.287109375,3.22265625,-13.4765625,3.53125
4110281,,,,,,,,3.6015625,-2.94140625,1.8984375,-0.0546875,0.916015625,-0.361328125,3.8359375,-12.41015625,3.953125
4110282,,,,,,,,3.27734375,-2.13671875,2.01171875,-0.048828125,0.7734375,-0.36328125,3.18359375,-11.375,4.18359375
4110283,,,,,,,,2.91796875,-1.90625,2.12890625,-0.05078125,0.7109375,-0.322265625,2.41796875,-11.44921875,4.41015625
4110284,,,,,,,,1.72265625,-2.171875,2.44140625,-0.029296875,0.5546875,-0.185546875,1.3828125,-11.8671875,4.52734375
4110285,,,,,,,,0.2890625,-3.0078125,2.703125,0.009765625,0.240234375,0.00390625,0.578125,-12.484375,4.7578125
4110286,,,,,,,,-0.125,-3.390625,2.703125,0.044921875,0.046875,0.037109375,0.08203125,-12.984375,4.640625
4110287,,,,,,,,-0.0390625,-3.27734375,2.1640625,0.05859375,-0.029296875,-0.056640625,0.234375,-12.75,4.21875
4110288,,,,,,,,0.14453125,-2.93359375,1.96484375,0.056640625,-0.0625,-0.09375,0.6953125,-11.9453125,3.8359375
4110289,,,,,,,,0.7109375,-1.96484375,1.65234375,0.025390625,-0.16015625,-0.15234375,1.30859375,-10.64453125,3.41796875
4110290,36.01301483333334,129.320057,131.34690450924543,68.22241900830217,1.2000000000000002,233.0,,-0.2421875,1.390625,-0.83203125,-0.017578125,-0.25,-0.20703125,1.421875,-10.2578125,3.1484375
4110291,,,,,,,,1.0078125,-0.6640625,0.88671875,-0.07421875,-0.3046875,-0.23828125,1.30859375,-10.23046875,2.91796875
4110292,,,,,,,,0.94921875,-0.85546875,0.77734375,-0.142578125,-0.341796875,-0.212890625,1.26953125,-10.41796875,2.765625
4110293,,,,,,,,0.91796875,-0.9609375,0.6015625,-0.203125,-0.2421875,-0.203125,1.30859375,-10.53515625,2.57421875
4110294,,,,,,,,0.85546875,-1.0390625,0.54296875,-0.232421875,-0.05078125,-0.25390625,1.1171875,-10.45703125,2.57421875
4110295,,,,,,,,0.43359375,-0.48828125,0.3046875,-0.283203125,0.095703125,-0.34375,0.80859375,-9.6484375,2.2265625
4110296,,,,,,,,0.2421875,0.36328125,-0.0390625,-0.3046875,0.119140625,-0.3515625,0.6953125,-8.92578125,1.76953125
4110297,,,,,,,,0.171875,0.82421875,-0.28515625,-0.306640625,0.08203125,-0.3203125,0.76953125,-8.54296875,1.5390625
4110298,,,,,,,,0.24609375,1.3671875,-0.60546875,-0.302734375,0.01953125,-0.28125,0.80859375,-8.00390625,1.234375
4110299,,,,,,,,0.21484375,1.71875,-0.6796875,-0.298828125,-0.078125,-0.26171875,0.80859375,-7.65625,1.15625
4110300,36.01301416666667,129.32005583333333,131.24173193189998,68.14844460835249,1.3,236.0,0.0,-0.2421875,1.390625,-0.83203125,-0.3046875,-0.09765625,-0.255859375,1.421875,-10.2578125,3.1484375
4110301,,,,,,,,0.16796875,2.265625,-0.91015625,-0.30078125,-0.091796875,-0.236328125,0.80859375,-7.2734375,0.92578125
4110302,,,,,,,,0.2890625,2.5390625,-1.015625,-0.3125,-0.09375,-0.203125,0.9609375,-7.01171875,0.7734375
4110303,,,,,,,,0.390625,2.578125,-1.0390625,-0.32421875,-0.1015625,-0.1875,1.078125,-6.97265625,0.734375
4110304,,,,,,,,0.640625,2.5859375,-1.0078125,-0.322265625,-0.10546875,-0.15625,1.34375,-6.97265625,0.734375
4110305,,,,,,,,0.75,2.6640625,-1.03125,-0.3203125,-0.107421875,-0.150390625,1.4609375,-6.89453125,0.6953125
4110306,,,,,,,,0.92578125,2.6328125,-1.0,-0.3046875,-0.103515625,-0.142578125,1.65234375,-6.93359375,0.6953125
4110307,,,,,,,,0.96484375,2.59375,-1.02734375,-0.234375,-0.099609375,-0.15625,1.73046875,-6.97265625,0.62109375
4110308,,,,,,,,0.91796875,2.59375,-1.05078125,-0.21484375,-0.091796875,-0.16015625,1.69140625,-6.97265625,0.58203125
4110309,,,,,,,,0.78515625,2.6015625,-1.07421875,-0.171875,-0.1171875,-0.146484375,1.57421875,-6.97265625,0.54296875
4110310,36.013013666666666,129.320055,131.16660870249956,68.0929638646123,1.1,236.0,,0.703125,2.6015625,-1.02734375,-0.3046875,-0.09765625,-0.255859375,1.421875,-10.2578125,3.1484375
4110311,,,,,,,,0.5703125,2.5625,-0.9296875,-0.107421875,-0.166015625,-0.111328125,1.3828125,-7.01171875,0.65625
4110312,,,,,,,,0.515625,2.48828125,-0.890625,-0.064453125,-0.1953125,-0.068359375,1.34375,-7.08203125,0.6953125
4110313,,,,,,,,0.5390625,2.2578125,-0.8828125,-0.001953125,-0.212890625,0.03125,1.3828125,-7.3125,0.6953125
4110314,,,,,,,,0.5859375,2.06640625,-0.921875,0.029296875,-0.22265625,0.09765625,1.421875,-7.50390625,0.65625
4110315,,,,,,,,0.5546875,1.453125,-0.99609375,0.060546875,-0.236328125,0.15234375,1.3828125,-8.1171875,0.58203125
4110316,,,,,,,,0.48828125,1.21484375,-1.03515625,0.072265625,-0.234375,0.15234375,1.30859375,-8.34375,0.54296875
4110317,,,,,,,,0.33984375,0.87109375,-0.9296875,0.087890625,-0.234375,0.158203125,1.15234375,-8.69140625,0.65625
4110318,,,,,,,,0.28125,0.6796875,-0.8203125,0.095703125,-0.224609375,0.189453125,1.078125,-8.88671875,0.7734375
4110319,,,,,,,,0.1796875,0.41015625,-0.5625,0.1015625,-0.216796875,0.216796875,0.9609375,-9.1484375,1.0390625
4110320,36.013013,129.320054,131.07646093395508,68.01898969268608,1.2000000000000002,233.0,,0.1875,0.10546875,-0.4453125,-0.3046875,-0.09765625,-0.255859375,0.9609375,-9.453125,1.15625
4110321,,,,,,,,0.13671875,-0.02734375,-0.4609375,0.107421875,-0.15625,0.28515625,0.88671875,-9.5703125,1.15625
4110322,,,,,,,,0.21484375,-0.28515625,-0.4765625,0.095703125,-0.11328125,0.294921875,0.92578125,-9.8359375,1.15625
4110323,,,,,,,,0.265625,-0.5234375,-0.5546875,0.087890625,-0.09375,0.275390625,0.9609375,-10.07421875,1.078125
4110324,,,,,,,,0.328125,-0.71484375,-0.67578125,0.07421875,-0.044921875,0.23828125,1.0,-10.26171875,0.96484375
4110325,,,,,,,,0.3046875,-0.9453125,-0.71484375,0.0546875,0.0,0.181640625,0.9609375,-10.4921875,0.92578125
4110326,,,,,,,,0.20703125,-1.3671875,-0.5625,0.041015625,0.0625,0.111328125,0.84765625,-10.91796875,1.078125
4110327,,,,,,,,0.0234375,-1.4140625,-0.421875,0.0234375,0.103515625,0.0703125,0.65625,-10.953125,1.234375
4110328,,,,,,,,-0.0078125,-1.2890625,-0.30859375,0.025390625,0.1328125,0.046875,0.6171875,-10.83984375,1.34765625
4110329,,,,,,,,0.0625,-0.953125,-0.26953125,0.02734375,0.177734375,0.01171875,0.6953125,-10.4921875,1.38671875
4110330,36.01301216666666,129.320053,130.98631343981265,67.92652231142871,1.2000000000000002,230.0,,0.375,-0.87890625,-0.15625,-0.3046875,-0.09765625,-0.255859375,0.9609375,-9.453125,1.15625
4110331,,,,,,,,0.875,-2.484375,-0.31640625,0.017578125,0.21484375,-0.0546875,1.5,-12.87109375,1.234375
4110332,,,,,,,,0.8359375,-4.09375,-0.5078125,-0.00390625,0.22265625,-0.08203125,0.9609375,-14.515625,1.42578125
4110333,,,,,,,,-0.13671875,-4.6328125,0.296875,-0.05078125,0.3203125,-0.10546875,-0.03515625,-13.3984375,2.53515625
4110334,,,,,,,,-1.01953125,-3.0234375,1.30078125,-0.107421875,0.560546875,-0.126953125,-0.4921875,-11.91015625,3.109375
4110335,,,,,,,,-1.06640625,-2.484375,1.421875,-0.11328125,0.755859375,-0.1640625,-0.41796875,-12.14453125,3.0703125
4110336,,,,,,,,-1.140625,-2.5625,1.61328125,-0.068359375,0.73828125,-0.126953125,-0.4921875,-12.10546875,3.26171875
4110337,,,,,,,,-1.21875,-1.796875,2.2734375,0.0,0.421875,0.060546875,-0.5703125,-11.33984375,3.9140625
4110338,,,,,,,,-0.97265625,-1.51953125,2.609375,-0.033203125,0.271484375,0.005859375,-0.33984375,-11.06640625,4.2578125
4110339,,,,,,,,0.29296875,-1.75,2.50390625,-0.03125,0.396484375,-0.162109375,0.92578125,-11.296875,4.14453125
4110340,36.01301133333333,129.320052,130.8961659434778,67.83405493297386,1.2000000000000002,229.0,,0.375,-0.87890625,-0.15625,-0.015625,0.24609375,-0.1484375,0.9609375,-9.453125,1.15625
4110341,,,,,,,,1.5703125,-1.7890625,1.96875,-0.001953125,-0.013671875,-0.103515625,2.2265625,-11.33984375,3.609375
4110342,,,,,,,,1.01953125,-1.59765625,1.73046875,0.033203125,-0.0703125,-0.126953125,1.69140625,-11.140625,3.37890625
4110343,,,,,,,,0.6640625,-1.59765625,1.5390625,0.078125,-0.02734375,-0.064453125,1.34375,-11.14453125,3.1875
4110344,,,,,,,,0.4296875,-1.4375,1.33203125,0.115234375,-0.0078125,0.123046875,1.1171875,-10.9921875,2.99609375
4110345,,,,,,,,0.09765625,-1.13671875,1.390625,0.13671875,0.009765625,0.224609375,0.76953125,-10.68359375,3.0703125
4110346,,,,,,,,-0.22265625,-1.328125,1.30078125,0.171875,0.025390625,0.212890625,0.42578125,-10.875,2.99609375
4110347,,,,,,,,-0.23828125,-1.16796875,0.9296875,0.22265625,0.05078125,0.23046875,0.38671875,-10.71875,2.6484375
4110348,,,,,,,,-0.16015625,-0.8984375,0.6328125,0.30078125,0.08984375,0.36328125,0.42578125,-10.453125,2.3828125
4110349,,,,,,,,-0.12109375,-0.29296875,0.1796875,0.3125,0.09765625,0.369140625,0.42578125,-9.8359375,1.9609375
4110350,36.013010666666666,129.320051,130.8060181720856,67.76008076230514,1.2000000000000002,230.0,,-0.01171875,0.203125,-0.16015625,0.3203125,0.107421875,0.32421875,0.50390625,-9.34375,1.65234375
4110351,,,,,,,,0.25,1.0078125,-0.45703125,0.328125,0.0625,0.330078125,0.734375,-8.5390625,1.38671875
4110352,,,,,,,,0.39453125,1.390625,-0.6484375,0.322265625,0.013671875,0.34765625,0.84765625,-8.15625,1.234375
4110353,,,,,,,,0.44921875,1.54296875,-0.6640625,0.314453125,-0.0078125,0.34765625,0.88671875,-8.0,1.234375
4110354,,,,,,,,0.44921875,1.91796875,-0.765625,0.296875,-0.01171875,0.345703125,0.84765625,-7.62109375,1.15625
4110355,,,,,,,,0.3203125,2.1796875,-0.9140625,0.287109375,-0.029296875,0.33984375,0.6953125,-7.3515625,1.0390625
4110356,,,,,,,,-0.0234375,2.640625,-1.07421875,0.294921875,-0.05859375,0.333984375,0.3125,-6.89453125,0.92578125
4110357,,,,,,,,-0.4140625,2.83203125,-1.2109375,0.306640625,-0.09375,0.318359375,-0.109375,-6.69921875,0.8125
4110358,,,,,,,,-0.515625,2.8671875,-1.3046875,0.310546875,-0.10546875,0.302734375,-0.2265625,-6.66796875,0.734375
4110359,,,,,,,,-0.7578125,2.82421875,-1.4140625,0.310546875,-0.123046875,0.255859375,-0.4921875,-6.6953125,0.65625
4110360,36.01301,129.32004999999998,130.71587039512497,67.6861065928796,1.2000000000000002,231.0,,-0.93359375,2.77734375,-1.51953125,0.30859375,-0.142578125,0.224609375,-0.68359375,-6.734375,0.58203125
4110361,,,,,,,,-0.98828125,2.65234375,-1.54296875,0.287109375,-0.1640625,0.208984375,-0.76171875,-6.8515625,0.58203125
4110362,,,,,,,,-0.97265625,2.5,-1.4921875,0.251953125,-0.193359375,0.193359375,-0.76171875,-7.01171875,0.65625
4110363,,,,,,,,-1.01171875,2.33984375,-1.4296875,0.224609375,-0.189453125,0.181640625,-0.80078125,-7.16015625,0.734375
4110364,,,,,,,,-0.83984375,2.109375,-1.33203125,0.171875,-0.1875,0.15234375,-0.64453125,-7.390625,0.84765625
4110365,,,,,,,,-0.6796875,2.02734375,-1.30859375,0.115234375,-0.193359375,0.12890625,-0.4921875,-7.4609375,0.88671875
4110366,,,,,,,,-0.55859375,2.0546875,-1.36328125,0.033203125,-0.19921875,0.083984375,-0.37890625,-7.43359375,0.84765625
4110367,,,,,,,,-0.55859375,2.24609375,-1.32421875,-0.015625,-0.220703125,0.0390625,-0.37890625,-7.23828125,0.88671875
4110368,,,,,,,,-0.55859375,2.24609375,-1.35546875,-0.041015625,-0.232421875,0.009765625,-0.37890625,-7.23828125,0.84765625
4110369,,,,,,,,-0.48828125,1.98046875,-1.62109375,-0.0703125,-0.2578125,-0.025390625,-0.30078125,-7.5,0.58203125
4110370,36.01300916666666,129.32004899999998,130.62572289312556,67.5936392170615,1.2000000000000002,229.0,,-0.4296875,1.6328125,-1.60546875,-0.09375,-0.283203125,-0.072265625,-0.2265625,-7.8515625,0.58203125
4110371,,,,,,,,-0.2890625,1.05859375,-1.4765625,-0.111328125,-0.2890625,-0.11328125,-0.0703125,-8.42578125,0.6953125
4110372,,,,,,,,-0.12890625,0.5234375,-1.26171875,-0.1328125,-0.232421875,-0.166015625,0.12109375,-8.96484375,0.88671875
4110373,,,,,,,,0.0,0.140625,-0.984375,-0.1328125,-0.169921875,-0.1953125,0.2734375,-9.34765625,1.15625
4110374,,,,,,,,-0.1015625,-0.08984375,-0.77734375,-0.130859375,-0.115234375,-0.20703125,0.1953125,-9.57421875,1.34765625
4110375,,,,,,,,-0.3828125,-0.2421875,-0.80078125,-0.11328125,-0.07421875,-0.232421875,-0.0703125,-9.73046875,1.30859375
4110376,,,,,,,,-0.515625,-0.28125,-0.83203125,-0.10546875,-0.060546875,-0.234375,-0.1875,-9.765625,1.26953125
4110377,,,,,,,,-0.578125,-0.35546875,-0.9375,-0.087890625,-0.048828125,-0.23828125,-0.2265625,-9.8359375,1.15625
4110378,,,,,,,,-0.6015625,-0.39453125,-1.08203125,-0.0703125,-0.0546875,-0.236328125,-0.2265625,-9.87890625,1.00390625
4110379,,,,,,,,-0.5,-0.625,-1.19140625,-0.052734375,-0.068359375,-0.224609375,-0.109375,-10.109375,0.88671875
4110380,36.013008666666664,129.32004783333332,130.52055002769188,67.53815803315987,1.2000000000000002,232.0,,-0.21875,-0.85546875,-1.2578125,-0.044921875,-0.05078125,-0.234375,0.1953125,-10.3359375,0.8125
4110381,,,,,,,,0.2578125,-1.015625,-1.21484375,-0.044921875,-0.005859375,-0.24609375,0.6953125,-10.4921875,0.84765625
4110382,,,,,,,,0.5078125,-0.9765625,-1.12890625,-0.046875,0.021484375,-0.24609375,0.9609375,-10.453125,0.92578125
4110383,,,,,,,,0.640625,-0.7421875,-1.04296875,-0.052734375,0.09375,-0.251953125,1.1171875,-10.2265625,1.00390625
4110384,,,,,,,,0.546875,-0.171875,-1.0078125,-0.05078125,0.171875,-0.25390625,1.0390625,-9.6484375,1.0390625
4110385,,,,,,,,0.140625,0.28515625,-1.07421875,-0.0546875,0.24609375,-0.232421875,0.65625,-9.1875,0.96484375
4110386,,,,,,,,-0.01953125,0.5078125,-1.11328125,-0.0546875,0.275390625,-0.203125,0.50390625,-8.9609375,0.92578125
4110387,,,,,,,,-0.79296875,0.66015625,-1.02734375,-0.0546875,0.302734375,-0.091796875,-0.26171875,-8.80859375,1.00390625
4110388,,,,,,,,-0.95703125,-1.09375,-1.328125,-0.041015625,0.32421875,0.0,-0.41796875,-10.5703125,0.6953125
