time,latitude,longitude,enu_x,enu_y,speed,course,ecg,accX,accY,accZ,gyrX,gyrY,gyrZ,eulR,eulP,eulY
4084300,36.01251766666667,129.31934783333332,67.41675377486156,13.0564616072384,1.0,47.0,0.0,2.6171875,-8.34375,1.26953125,0.037109375,0.87109375,0.1015625,0.1953125,-11.26171875,3.22265625
4084301,,,,,,,,2.86328125,-9.45703125,1.2109375,0.0625,0.681640625,0.27734375,0.42578125,-12.40625,3.1484375
4084302,,,,,,,,2.75,-10.07421875,1.5703125,0.044921875,0.478515625,0.37109375,0.3125,-13.0546875,3.4921875
4084303,,,,,,,,2.05859375,-9.8046875,2.23046875,0.01953125,0.51953125,0.279296875,-0.37890625,-12.828125,4.14453125
4084304,,,,,,,,1.79296875,-9.14453125,2.359375,0.0,0.716796875,0.140625,-0.64453125,-12.21484375,4.2578125
4084305,,,,,,,,2.21875,-8.41796875,2.23046875,0.0,0.69140625,0.162109375,-0.2265625,-11.52734375,4.10546875
4084306,,,,,,,,2.94921875,-8.25,1.55859375,0.033203125,0.3203125,0.353515625,0.50390625,-11.41796875,3.41796875
4084307,,,,,,,,3.0234375,-8.21875,1.21875,0.033203125,0.169921875,0.40234375,0.578125,-11.4140625,3.0703125
4084308,,,,,,,,2.87109375,-8.33203125,1.06640625,0.0234375,0.103515625,0.40625,0.42578125,-11.5625,2.91796875
4084309,,,,,,,,2.56640625,-8.25390625,1.06640625,0.025390625,0.09375,0.40625,0.12109375,-11.5234375,2.91796875
4084310,36.01251833333333,129.31934883333332,67.50690264337406,13.130435120741772,1.1,47.0,,2.44921875,-7.82421875,0.72265625,0.08203125,0.1640625,0.365234375,0.00390625,-11.14453125,2.57421875
4084311,,,,,,,,2.609375,-7.32421875,0.22265625,0.12890625,0.18359375,0.33984375,0.15625,-10.6796875,2.07421875
4084312,,,,,,,,2.79296875,-6.7109375,-0.12890625,0.173828125,0.171875,0.33203125,0.34765625,-10.109375,1.73046875
4084313,,,,,,,,2.87890625,-6.16796875,-0.359375,0.181640625,0.158203125,0.310546875,0.42578125,-9.57421875,1.5
4084314,,,,,,,,2.87890625,-5.70703125,-0.55078125,0.19921875,0.13671875,0.255859375,0.42578125,-9.1484375,1.30859375
4084315,,,,,,,,2.94921875,-4.94140625,-0.78125,0.201171875,0.109375,0.23046875,0.50390625,-8.42578125,1.078125
4084316,,,,,,,,3.015625,-4.51171875,-0.94921875,0.1875,0.048828125,0.255859375,0.578125,-8.04296875,0.92578125
4084317,,,,,,,,3.015625,-4.01953125,-1.1875,0.189453125,-0.009765625,0.279296875,0.578125,-7.58203125,0.6953125
4084318,,,,,,,,2.94140625,-3.88671875,-1.26171875,0.1953125,-0.0390625,0.287109375,0.50390625,-7.4609375,0.62109375
4084319,,,,,,,,2.77734375,-3.46484375,-1.35546875,0.208984375,-0.068359375,0.275390625,0.34765625,-7.078125,0.54296875
4084320,36.012518666666665,129.31934933333332,67.55197707582906,13.167421878360877,0.9,46.0,,2.46484375,-3.25,-1.36328125,0.21875,-0.107421875,0.263671875,0.04296875,-6.890625,0.54296875
4084321,,,,,,,,2.15234375,-3.16796875,-1.30078125,0.240234375,-0.13671875,0.271484375,-0.26171875,-6.8515625,0.62109375
4084322,,,,,,,,1.796875,-3.13671875,-1.35546875,0.248046875,-0.162109375,0.2734375,-0.609375,-6.85546875,0.58203125
4084323,,,,,,,,1.68359375,-3.12109375,-1.44140625,0.255859375,-0.171875,0.265625,-0.72265625,-6.8515625,0.50390625
4084324,,,,,,,,1.40625,-3.01171875,-1.44921875,0.259765625,-0.193359375,0.255859375,-0.9921875,-6.7734375,0.50390625
4084325,,,,,,,,1.32421875,-2.94921875,-1.51171875,0.255859375,-0.208984375,0.240234375,-1.06640625,-6.73828125,0.46484375
4084326,,,,,,,,1.27734375,-2.91796875,-1.5546875,0.23828125,-0.208984375,0.220703125,-1.10546875,-6.734375,0.4296875
4084327,,,,,,,,1.53515625,-3.00390625,-1.6484375,0.208984375,-0.228515625,0.185546875,-0.83984375,-6.8515625,0.3515625
4084328,,,,,,,,1.61328125,-3.171875,-1.76953125,0.193359375,-0.240234375,0.16015625,-0.76171875,-7.05078125,0.23828125
4084329,,,,,,,,1.67578125,-3.34765625,-1.78515625,0.162109375,-0.251953125,0.119140625,-0.68359375,-7.234375,0.23828125
4084330,36.01251933333333,129.31935000000001,67.61207613362896,13.24139516263173,1.0,47.0,,1.69921875,-3.4609375,-1.7265625,0.21875,-0.107421875,0.263671875,-0.64453125,-7.390625,0.3125
4084331,,,,,,,,1.84375,-3.421875,-1.45703125,0.109375,-0.25390625,0.01953125,-0.4921875,-7.390625,0.58203125
4084332,,,,,,,,1.98046875,-3.4296875,-1.43359375,0.087890625,-0.228515625,-0.015625,-0.33984375,-7.43359375,0.62109375
4084333,,,,,,,,2.2265625,-3.46484375,-1.51953125,0.06640625,-0.181640625,-0.05859375,-0.0703125,-7.50390625,0.54296875
4084334,,,,,,,,2.40234375,-3.81640625,-1.59765625,0.06640625,-0.169921875,-0.115234375,0.12109375,-7.8828125,0.46484375
4084335,,,,,,,,2.4921875,-4.19921875,-1.48828125,0.0703125,-0.185546875,-0.17578125,0.234375,-8.30859375,0.58203125
4084336,,,,,,,,2.58203125,-4.65234375,-1.45703125,0.08203125,-0.19921875,-0.212890625,0.34765625,-8.8046875,0.62109375
4084337,,,,,,,,2.75390625,-4.96484375,-1.2734375,0.091796875,-0.173828125,-0.224609375,0.54296875,-9.1484375,0.8125
4084338,,,,,,,,2.8359375,-5.34765625,-1.0546875,0.09375,-0.123046875,-0.232421875,0.6171875,-9.69140625,1.0390625
4084339,,,,,,,,2.66796875,-5.546875,-1.015625,0.099609375,-0.052734375,-0.24609375,0.50390625,-9.80859375,1.078125
4084340,36.012519833333336,129.31935083333335,67.68720023381105,13.296875358031905,1.1,50.0,,2.3671875,-5.57421875,-1.14453125,0.115234375,0.001953125,-0.23828125,0.234375,-9.87890625,0.96484375
4084341,,,,,,,,2.23828125,-5.49609375,-1.296875,0.138671875,0.03515625,-0.201171875,0.12109375,-9.8359375,0.8125
4084342,,,,,,,,2.16796875,-5.6796875,-1.56640625,0.166015625,0.041015625,-0.154296875,0.08203125,-10.07421875,0.54296875
4084343,,,,,,,,2.265625,-5.87890625,-1.60546875,0.171875,0.033203125,-0.142578125,0.1953125,-10.30078125,0.50390625
4084344,,,,,,,,2.55859375,-6.15625,-1.7421875,0.17578125,0.037109375,-0.14453125,0.50390625,-10.61328125,0.390625
4084345,,,,,,,,2.83203125,-6.0625,-1.62890625,0.162109375,0.09375,-0.134765625,0.80859375,-10.5703125,0.50390625
4084346,,,,,,,,2.96875,-5.6015625,-1.703125,0.15234375,0.173828125,-0.12890625,0.9609375,-10.1484375,0.4296875
4084347,,,,,,,,3.0,-5.1171875,-1.8203125,0.142578125,0.263671875,-0.123046875,1.0,-9.6875,0.3125
4084348,,,,,,,,2.9765625,-4.6953125,-1.93359375,0.138671875,0.3046875,-0.123046875,1.0,-9.3046875,0.19921875
4084349,,,,,,,,2.89453125,-5.953125,-1.97265625,0.14453125,0.291015625,-0.095703125,0.92578125,-10.61328125,0.16015625
4084350,36.012520333333335,129.31935149999998,67.74729942726104,13.352355436864428,1.2000000000000002,52.0,,3.14453125,-6.87890625,-1.7734375,0.142578125,0.298828125,-0.080078125,1.19140625,-11.5625,0.3515625
4084351,,,,,,,,4.171875,-7.91796875,-0.73828125,0.13671875,0.376953125,-0.087890625,2.2265625,-12.6328125,1.38671875
4084352,,,,,,,,5.19921875,-8.28515625,0.2890625,0.12890625,0.462890625,-0.08984375,3.26171875,-13.01953125,2.421875
4084353,,,,,,,,6.234375,-8.71484375,0.5625,0.111328125,0.716796875,-0.146484375,4.296875,-13.48046875,2.6875
4084354,,,,,,,,6.76171875,-9.04296875,0.73828125,0.115234375,0.984375,-0.28125,4.83203125,-13.86328125,2.83984375
4084355,,,,,,,,6.09375,-8.16015625,0.87109375,0.12890625,0.8984375,-0.26953125,4.1796875,-13.015625,2.95703125
4084356,,,,,,,,5.7890625,-7.83203125,0.79296875,0.126953125,0.83203125,-0.21484375,3.875,-12.7109375,2.87890625
4084357,,,,,,,,4.4375,-7.6875,1.0390625,0.11328125,0.720703125,-0.083984375,2.53125,-12.6015625,3.109375
4084358,,,,,,,,2.4765625,-8.828125,2.234375,0.1015625,0.29296875,0.095703125,0.578125,-13.79296875,4.296875
4084359,,,,,,,,2.24609375,-8.92578125,2.2734375,0.10546875,0.119140625,0.1328125,0.34765625,-13.8984375,4.3359375
4084360,36.01252066666667,129.3193525,67.83744857814874,13.389342544294774,1.3,55.0,,2.66015625,-7.9375,1.0,0.107421875,-0.111328125,0.177734375,0.76953125,-12.9453125,3.0703125
4084361,,,,,,,,2.953125,-7.37109375,0.76171875,0.068359375,-0.271484375,0.158203125,1.26953125,-11.91015625,2.53515625
4084362,,,,,,,,3.44140625,-6.00390625,-0.01171875,0.001953125,-0.39453125,0.03125,1.65234375,-10.8359375,1.8828125
4084363,,,,,,,,3.45703125,-5.55078125,-0.32421875,-0.07421875,-0.498046875,-0.09375,1.61328125,-10.6796875,1.73046875
4084364,,,,,,,,3.51171875,-5.7734375,-0.29296875,-0.158203125,-0.572265625,-0.125,1.69140625,-11.06640625,1.8828125
4084365,,,,,,,,3.5546875,-6.01171875,-0.1796875,-0.259765625,-0.509765625,-0.162109375,1.84375,-11.2578125,1.9609375
4084366,,,,,,,,3.53125,-5.98046875,-0.21875,-0.306640625,-0.4140625,-0.1875,1.765625,-11.1796875,1.8828125
4084367,,,,,,,,3.5,-5.75,-0.28515625,-0.376953125,-0.177734375,-0.267578125,1.53515625,-10.453125,1.4609375
4084368,,,,,,,,3.0703125,-4.5,-0.8671875,-0.419921875,-0.041015625,-0.326171875,1.3828125,-9.80859375,1.1953125
4084369,,,,,,,,2.87890625,-3.5234375,-1.19140625,-0.435546875,-0.064453125,-0.314453125,1.23046875,-8.88671875,0.84765625
4084370,36.012521,129.31935299999998,67.8825230056906,13.42632930281869,1.2000000000000002,53.0,,2.80859375,-3.1015625,-1.2890625,-0.41796875,-0.19140625,-0.2578125,1.19140625,-8.5,0.734375
4084371,,,,,,,,2.6640625,-2.203125,-1.45703125,-0.3984375,-0.302734375,-0.203125,1.078125,-7.66015625,0.54296875
4084372,,,,,,,,2.6484375,-1.9609375,-1.40234375,-0.38671875,-0.337890625,-0.19140625,1.078125,-7.43359375,0.58203125
4084373,,,,,,,,2.67578125,-1.23828125,-1.46484375,-0.37109375,-0.3671875,-0.173828125,1.15234375,-6.77734375,0.50390625
4084374,,,,,,,,2.75390625,-0.78515625,-1.44921875,-0.359375,-0.376953125,-0.146484375,1.26953125,-6.3515625,0.50390625
4084375,,,,,,,,2.8828125,-0.39453125,-1.5,-0.357421875,-0.390625,-0.10546875,1.421875,-6.0078125,0.4296875
4084376,,,,,,,,2.9453125,-0.30078125,-1.484375,-0.3515625,-0.3984375,-0.087890625,1.5,-5.9296875,0.4296875
4084377,,,,,,,,3.06640625,-0.1875,-1.5546875,-0.345703125,-0.431640625,-0.052734375,1.65234375,-5.859375,0.3515625
4084378,,,,,,,,3.296875,-0.4375,-1.53125,-0.32421875,-0.4375,-0.03125,1.921875,-6.16796875,0.3515625
4084379,,,,,,,,3.39453125,-0.61328125,-1.63671875,-0.310546875,-0.423828125,-0.041015625,2.03515625,-6.3515625,0.23828125
4084380,36.01252116666667,129.31935333333334,67.9125726754179,13.44482274209108,1.0,55.0,,3.30078125,-0.890625,-1.5859375,-0.41796875,-0.19140625,-0.2578125,1.19140625,-8.5,0.734375
4084381,,,,,,,,3.0625,-1.1875,-1.5234375,-0.251953125,-0.3515625,-0.1015625,1.765625,-7.01171875,0.3125
4084382,,,,,,,,2.94140625,-1.27734375,-1.5234375,-0.23046875,-0.330078125,-0.107421875,1.65234375,-7.12109375,0.3125
4084383,,,,,,,,2.71875,-1.515625,-1.1640625,-0.1953125,-0.302734375,-0.1015625,1.4609375,-7.390625,0.65625
4084384,,,,,,,,2.6171875,-1.55859375,-0.96484375,-0.166015625,-0.283203125,-0.046875,1.3828125,-7.46484375,0.84765625
4084385,,,,,,,,2.51171875,-1.51953125,-0.78515625,-0.107421875,-0.28515625,0.0859375,1.30859375,-7.46484375,1.00390625
4084386,,,,,,,,2.45703125,-1.46875,-0.82421875,-0.087890625,-0.30078125,0.1328125,1.26953125,-7.43359375,0.96484375
4084387,,,,,,,,2.41015625,-1.58984375,-0.96875,-0.06640625,-0.318359375,0.21484375,1.23046875,-7.578125,0.8125
4084388,,,,,,,,2.44140625,-2.02734375,-1.125,-0.046875,-0.400390625,0.27734375,1.26953125,-8.04296875,0.65625
4084389,,,,,,,,2.47265625,-2.26171875,-1.0078125,-0.0390625,-0.443359375,0.267578125,1.30859375,-8.3046875,0.7734375
4084390,36.012522,129.319354,67.9726715830582,13.537289233228503,1.2000000000000002,50.0,,2.5390625,-2.69921875,-0.88671875,-0.029296875,-0.4375,0.2265625,1.19140625,-8.5,0.734375
4084391,,,,,,,,2.4921875,-3.06640625,-0.84765625,-0.013671875,-0.412109375,0.208984375,1.34375,-9.1484375,0.92578125
4084392,,,,,,,,2.37109375,-3.234375,-0.76171875,-0.0078125,-0.365234375,0.201171875,1.23046875,-9.34765625,1.00390625
4084393,,,,,,,,2.28515625,-3.48046875,-0.65625,-0.013671875,-0.322265625,0.19921875,1.15234375,-9.609375,1.1171875
4084394,,,,,,,,2.35546875,-3.72265625,-0.53125,-0.025390625,-0.271484375,0.19140625,1.23046875,-9.87890625,1.234375
4084395,,,,,,,,2.38671875,-3.9765625,-0.41796875,-0.0390625,-0.21875,0.173828125,1.26953125,-10.15234375,1.34765625
4084396,,,,,,,,2.42578125,-4.16015625,-0.37109375,-0.041015625,-0.185546875,0.16015625,1.30859375,-10.33984375,1.38671875
4084397,,,,,,,,2.5703125,-4.625,-0.1796875,-0.0390625,-0.126953125,0.1328125,1.4609375,-10.8359375,1.578125
4084398,,,,,,,,2.63671875,-4.7578125,-0.05859375,-0.0546875,-0.076171875,0.09765625,1.53515625,-10.99609375,1.69140625
4084399,,,,,,,,2.46875,-4.54296875,-0.38671875,-0.064453125,-0.03125,0.076171875,1.3828125,-10.796875,1.34765625
4084400,36.01252266666667,129.31935483333334,68.04779553449077,13.611262636562923,1.3,50.0,0.0,2.38671875,-4.36328125,-0.46484375,-0.029296875,-0.4375,0.2265625,1.30859375,-10.64453125,1.26953125
4084401,,,,,,,,2.26171875,-4.1484375,-0.37109375,-0.07421875,0.00390625,0.01953125,1.19140625,-10.453125,1.34765625
4084402,,,,,,,,2.32421875,-4.05078125,-0.25,-0.072265625,-0.021484375,0.0078125,1.26953125,-10.375,1.4609375
4084403,,,,,,,,2.5,-4.1328125,-0.203125,-0.06640625,-0.01171875,-0.01953125,1.4609375,-10.4921875,1.5
4084404,,,,,,,,2.66796875,-5.17578125,-0.2265625,-0.052734375,0.0859375,-0.037109375,1.65234375,-11.5625,1.4609375
4084405,,,,,,,,2.3828125,-6.37890625,-0.30078125,-0.05078125,0.158203125,-0.056640625,1.3828125,-12.7890625,1.38671875
4084406,,,,,,,,1.80859375,-6.24609375,0.2421875,-0.05078125,0.21484375,-0.06640625,0.80859375,-12.67578125,1.921875
4084407,,,,,,,,1.09765625,-5.02734375,0.91015625,-0.0625,0.369140625,-0.083984375,0.12109375,-11.48828125,2.57421875
4084408,,,,,,,,0.859375,-4.125,1.18359375,-0.083984375,0.625,-0.1484375,-0.109375,-10.61328125,2.83984375
4084409,,,,,,,,0.91796875,-4.328125,1.58203125,-0.041015625,0.748046875,-0.119140625,-0.03515625,-10.8359375,3.22265625
4084410,36.01252316666667,129.31935533333333,68.09286982137331,13.66674260244691,1.2000000000000002,48.0,,0.95703125,-4.99609375,1.984375,-0.029296875,-0.4375,0.2265625,0.00390625,-11.52734375,3.609375
4084411,,,,,,,,0.875,-5.31640625,2.25,0.005859375,0.34375,0.001953125,-0.0703125,-11.8671875,3.875
4084412,,,,,,,,1.09375,-5.4765625,2.44921875,-0.025390625,0.359375,-0.0859375,0.15625,-12.0625,4.06640625
4084413,,,,,,,,1.578125,-5.26953125,2.92578125,-0.064453125,0.41796875,-0.126953125,0.65625,-11.8671875,4.52734375
4084414,,,,,,,,1.83203125,-5.1640625,2.625,-0.07421875,0.193359375,-0.06640625,1.0390625,-11.76171875,4.21875
4084415,,,,,,,,2.0078125,-4.984375,2.48046875,-0.0546875,0.041015625,-0.0234375,1.1171875,-11.68359375,4.10546875
4084416,,,,,,,,2.0078125,-5.0078125,2.51953125,-0.029296875,-0.01953125,0.005859375,1.0390625,-11.6796875,4.14453125
4084417,,,,,,,,1.76171875,-5.0625,2.7109375,0.0078125,-0.13671875,0.091796875,0.88671875,-11.76171875,4.296875
4084418,,,,,,,,1.5234375,-5.0078125,2.59765625,0.04296875,-0.1171875,0.142578125,0.65625,-11.72265625,4.18359375
4084419,,,,,,,,1.28515625,-4.86328125,2.3671875,0.08984375,-0.064453125,0.189453125,0.42578125,-11.60546875,3.953125
4084420,36.01252383333333,129.319356,68.15296886679428,13.74071588999674,1.3,45.0,,1.171875,-4.6484375,2.05078125,0.126953125,-0.0390625,0.22265625,0.3125,-11.4140625,3.64453125
4084421,,,,,,,,1.171875,-4.1640625,1.73828125,0.169921875,-0.052734375,0.259765625,0.3125,-10.95703125,3.33984375
4084422,,,,,,,,1.22265625,-3.6875,1.33984375,0.19140625,-0.07421875,0.298828125,0.34765625,-10.49609375,2.95703125
4084423,,,,,,,,1.21484375,-3.44140625,1.22265625,0.19921875,-0.076171875,0.31640625,0.34765625,-10.26171875,2.83984375
4084424,,,,,,,,1.26953125,-2.73828125,0.7890625,0.216796875,-0.076171875,0.34765625,0.38671875,-9.57421875,2.421875
4084425,,,,,,,,1.4765625,-1.765625,0.2265625,0.216796875,-0.08984375,0.365234375,0.578125,-8.62109375,1.8828125
4084426,,,,,,,,1.6484375,-1.04296875,-0.1796875,0.232421875,-0.109375,0.373046875,0.734375,-7.92578125,1.5
4084427,,,,,,,,1.76953125,-0.65234375,-0.30859375,0.234375,-0.107421875,0.36328125,0.84765625,-7.5390625,1.38671875
4084428,,,,,,,,1.73828125,-0.30078125,-0.5078125,0.24609375,-0.10546875,0.349609375,0.80859375,-7.1953125,1.1953125
4084429,,,,,,,,1.71484375,0.0234375,-0.609375,0.26953125,-0.111328125,0.32421875,0.76953125,-6.890625,1.1171875
4084430,36.01252433333333,129.3193566666667,68.21306805880661,13.79619597266116,1.2000000000000002,48.0,,1.53125,0.390625,-0.79296875,0.3125,-0.09765625,0.283203125,0.3125,-11.4140625,3.64453125
4084431,,,,,,,,1.234375,0.7421875,-0.9609375,0.33984375,-0.0859375,0.255859375,0.2734375,-6.203125,0.8125
4084432,,,,,,,,1.04296875,0.7890625,-1.0703125,0.3671875,-0.08203125,0.228515625,0.08203125,-6.1640625,0.734375
4084433,,,,,,,,0.8671875,0.765625,-1.1796875,0.390625,-0.087890625,0.203125,-0.109375,-6.203125,0.65625
4084434,,,,,,,,0.66796875,0.8203125,-1.23828125,0.400390625,-0.09375,0.181640625,-0.30078125,-6.16796875,0.62109375
4084435,,,,,,,,0.515625,0.68359375,-1.32421875,0.396484375,-0.12109375,0.1484375,-0.453125,-6.31640625,0.58203125
4084436,,,,,,,,0.515625,0.64453125,-1.30078125,0.390625,-0.123046875,0.154296875,-0.453125,-6.35546875,0.62109375
4084437,,,,,,,,0.4375,0.390625,-1.2890625,0.35546875,-0.1328125,0.142578125,-0.53125,-6.625,0.65625
4084438,,,,,,,,0.4765625,0.24609375,-1.39453125,0.3203125,-0.15234375,0.134765625,-0.4921875,-6.7734375,0.58203125
4084439,,,,,,,,0.46875,0.109375,-1.37109375,0.26953125,-0.181640625,0.140625,-0.4921875,-6.9296875,0.62109375
4084440,36.01252516666667,129.31935733333333,68.27316695629467,13.888662467534704,1.1,48.0,,0.54296875,-0.08203125,-1.3125,0.3125,-0.09765625,0.283203125,-0.41796875,-7.12109375,0.6953125
4084441,,,,,,,,0.65234375,-0.10546875,-1.296875,0.162109375,-0.1953125,0.107421875,-0.30078125,-7.16015625,0.734375
4084442,,,,,,,,0.765625,-0.2421875,-1.3828125,0.119140625,-0.19140625,0.06640625,-0.1875,-7.31640625,0.65625
4084443,,,,,,,,0.90234375,-0.7421875,-1.390625,0.10546875,-0.1875,0.0546875,-0.03515625,-7.81640625,0.65625
4084444,,,,,,,,1.01171875,-1.5234375,-1.16796875,0.060546875,-0.1875,0.001953125,0.08203125,-8.62109375,0.88671875
4084445,,,,,,,,1.1875,-2.42578125,-0.859375,0.041015625,-0.189453125,-0.025390625,0.2734375,-9.53515625,1.1953125
4084446,,,,,,,,1.171875,-2.90234375,-0.6015625,0.021484375,-0.169921875,-0.03515625,0.2734375,-10.03125,1.4609375
4084447,,,,,,,,1.1171875,-3.0859375,-0.33203125,0.005859375,-0.12109375,-0.06640625,0.234375,-10.2265625,1.73046875
4084448,,,,,,,,1.1015625,-3.03125,-0.37109375,0.001953125,-0.099609375,-0.107421875,0.234375,-10.1875,1.69140625
4084449,,,,,,,,1.078125,-2.96875,-0.484375,0.005859375,-0.099609375,-0.138671875,0.234375,-10.1484375,1.578125
4084450,36.012526,129.31935800000002,68.33326585859976,13.981128962143671,1.1,46.0,,1.17578125,-3.06640625,-0.6015625,0.3125,-0.09765625,0.283203125,0.34765625,-10.26171875,1.4609375
4084451,,,,,,,,1.34765625,-3.12890625,-0.67578125,0.0234375,-0.2578125,-0.13671875,0.54296875,-10.3359375,1.38671875
4084452,,,,,,,,1.62890625,-3.15234375,-0.69140625,0.048828125,-0.3203125,-0.1484375,0.84765625,-10.375,1.38671875
4084453,,,,,,,,1.796875,-3.12890625,-0.73046875,0.06640625,-0.3359375,-0.16015625,1.0390625,-10.37890625,1.34765625
4084454,,,,,,,,1.95703125,-3.12109375,-0.73046875,0.087890625,-0.28125,-0.17578125,1.23046875,-10.375,1.34765625
4084455,,,,,,,,2.125,-2.98828125,-0.81640625,0.09375,-0.212890625,-0.158203125,1.421875,-10.26171875,1.26953125
4084456,,,,,,,,2.1953125,-2.7890625,-0.8984375,0.09375,-0.171875,-0.158203125,1.5,-10.0703125,1.1953125
4084457,,,,,,,,2.0859375,-2.58984375,-0.9453125,0.09765625,-0.08203125,-0.140625,1.421875,-9.87890625,1.15625
4084458,,,,,,,,1.83984375,-2.26171875,-1.0234375,0.107421875,0.01953125,-0.11328125,1.19140625,-9.5703125,1.078125
4084459,,,,,,,,1.328125,-1.77734375,-0.8828125,0.12890625,0.171875,-0.044921875,0.6953125,-9.11328125,1.234375
4084460,36.012526666666666,129.319359,68.42341470782671,14.05510248499209,1.2000000000000002,51.0,,0.859375,-1.88671875,-0.81640625,0.3125,-0.09765625,0.283203125,0.234375,-9.23046875,1.30859375
4084461,,,,,,,,0.515625,-3.1015625,-0.70703125,0.142578125,0.384765625,0.0234375,-0.109375,-10.45703125,1.42578125
4084462,,,,,,,,0.8203125,-3.35546875,-0.2890625,0.1328125,0.48828125,0.00390625,0.1953125,-10.72265625,1.84375
4084463,,,,,,,,1.59375,-2.87890625,0.671875,0.11328125,0.583984375,-0.025390625,0.9609375,-10.26171875,2.8046875
4084464,,,,,,,,2.20703125,-3.37109375,0.43359375,0.07421875,0.712890625,-0.072265625,1.57421875,-10.7578125,2.57421875
4084465,,,,,,,,3.2421875,-5.1484375,0.1328125,0.013671875,0.880859375,-0.220703125,2.609375,-12.5625,2.265625
4084466,,,,,,,,5.37109375,-5.5546875,1.51953125,-0.015625,0.810546875,-0.3125,4.75390625,-12.98828125,3.64453125
4084467,,,,,,,,5.578125,-5.828125,2.71484375,-0.02734375,0.830078125,-0.3203125,4.984375,-13.2890625,4.83203125
4084468,,,,,,,,4.375,-5.734375,3.03125,-0.017578125,0.953125,-0.33984375,3.796875,-13.21484375,5.140625
4084469,,,,,,,,2.359375,-5.7109375,2.2265625,0.03125,0.82421875,-0.38671875,1.8046875,-13.21484375,4.3359375
4084470,36.012527666666664,129.31936050000002,68.55863798358669,14.166062772775497,1.4000000000000001,53.0,,1.6484375,-5.84375,1.84375,0.09375,0.36328125,-0.173828125,1.1171875,-13.3671875,3.953125
4084471,,,,,,,,1.83203125,-5.328125,1.68359375,0.126953125,-0.01171875,-0.06640625,1.30859375,-12.8671875,3.80078125
4084472,,,,,,,,2.16015625,-4.40234375,1.484375,0.12890625,-0.181640625,-0.060546875,1.65234375,-11.94921875,3.609375
4084473,,,,,,,,2.2890625,-2.9296875,0.70703125,0.0703125,-0.337890625,-0.1328125,1.8046875,-10.49609375,2.83984375
4084474,,,,,,,,2.16796875,-2.546875,0.44140625,0.033203125,-0.375,-0.158203125,1.69140625,-10.109375,2.57421875
4084475,,,,,,,,2.01171875,-2.09375,0.0859375,-0.04296875,-0.458984375,-0.166015625,1.57421875,-9.6875,2.2265625
4084476,,,,,,,,2.171875,-2.203125,0.01953125,-0.1171875,-0.556640625,-0.123046875,1.765625,-9.80859375,2.15234375
4084477,,,,,,,,2.1953125,-2.30078125,0.05859375,-0.16015625,-0.595703125,-0.091796875,1.8046875,-9.9140625,2.19140625
4084478,,,,,,,,2.2109375,-2.39453125,0.1484375,-0.234375,-0.55078125,-0.06640625,1.84375,-10.03515625,2.265625
4084479,,,,,,,,2.03515625,-2.30859375,0.1171875,-0.267578125,-0.466796875,-0.087890625,1.69140625,-9.95703125,2.2265625
4084480,36.0125285,129.31936166666668,68.66381159056974,14.258529621913322,1.4000000000000001,54.0,,1.59765625,-1.75,-0.2109375,0.09375,0.36328125,-0.173828125,1.26953125,-9.421875,1.8828125
4084481,,,,,,,,1.328125,-1.1484375,-0.5234375,-0.349609375,-0.09765625,-0.28125,1.0390625,-8.84765625,1.5390625
4084482,,,,,,,,1.14453125,-0.24609375,-0.73828125,-0.365234375,-0.0234375,-0.283203125,0.88671875,-7.96484375,1.30859375
4084483,,,,,,,,1.12890625,-0.0390625,-0.8671875,-0.357421875,-0.015625,-0.265625,0.88671875,-7.77734375,1.15625
4084484,,,,,,,,1.1796875,0.359375,-0.953125,-0.361328125,-0.078125,-0.21875,0.9609375,-7.390625,1.0390625
4084485,,,,,,,,1.25,0.71484375,-1.140625,-0.380859375,-0.12890625,-0.203125,1.078125,-7.08203125,0.8125
4084486,,,,,,,,1.29296875,0.84375,-1.109375,-0.392578125,-0.126953125,-0.208984375,1.15234375,-6.96875,0.8125
4084487,,,,,,,,1.5703125,1.171875,-1.04296875,-0.40234375,-0.103515625,-0.189453125,1.4609375,-6.6640625,0.84765625
4084488,,,,,,,,1.69921875,1.1875,-1.046875,-0.40625,-0.044921875,-0.171875,1.61328125,-6.6640625,0.8125
4084489,,,,,,,,1.984375,1.2109375,-1.24609375,-0.40625,-0.0078125,-0.162109375,1.921875,-6.66796875,0.58203125
4084490,36.012529,129.31936216666665,68.70888586549879,14.314009590140827,1.1,55.0,,2.16015625,1.234375,-1.29296875,0.09375,0.36328125,-0.173828125,1.26953125,-9.421875,1.8828125
4084491,,,,,,,,2.40234375,1.17578125,-1.30078125,-0.38671875,-0.01171875,-0.12109375,2.37890625,-6.73828125,0.46484375
4084492,,,,,,,,2.41015625,1.0546875,-1.13671875,-0.35546875,-0.041015625,-0.06640625,2.41796875,-6.89453125,0.58203125
4084493,,,,,,,,2.36328125,1.0234375,-1.12109375,-0.337890625,-0.04296875,-0.048828125,2.37890625,-6.93359375,0.58203125
4084494,,,,,,,,2.1953125,0.88671875,-1.05078125,-0.298828125,-0.037109375,0.0078125,2.2265625,-7.08203125,0.62109375
4084495,,,,,,,,2.00390625,0.74609375,-0.9921875,-0.255859375,-0.044921875,0.076171875,2.03515625,-7.234375,0.65625
4084496,,,,,,,,1.62109375,0.578125,-0.9609375,-0.1953125,-0.078125,0.16015625,1.65234375,-7.4296875,0.65625
4084497,,,,,,,,1.50390625,0.48046875,-0.953125,-0.154296875,-0.12890625,0.197265625,1.53515625,-7.5390625,0.65625
4084498,,,,,,,,1.46875,0.44921875,-0.9453125,-0.13671875,-0.15234375,0.21875,1.5,-7.578125,0.65625
4084499,,,,,,,,1.359375,0.265625,-1.04296875,-0.103515625,-0.208984375,0.25390625,1.3828125,-7.77734375,0.54296875
4084500,36.012529666666666,129.31936283333334,68.76898490335783,14.387982882588403,1.0,52.0,0.0,1.328125,0.08203125,-1.1484375,0.09375,0.36328125,-0.173828125,1.34375,-7.9609375,0.4296875
4084501,,,,,,,,1.23046875,-0.19921875,-1.05859375,-0.064453125,-0.314453125,0.3203125,1.23046875,-8.265625,0.50390625
4084502,,,,,,,,1.125,-0.4609375,-0.98046875,-0.06640625,-0.32421875,0.318359375,1.1171875,-8.5390625,0.58203125
4084503,,,,,,,,1.0625,-0.9140625,-0.70703125,-0.05078125,-0.337890625,0.314453125,1.0390625,-9.0,0.84765625
4084504,,,,,,,,1.140625,-1.40234375,-0.55078125,-0.046875,-0.32421875,0.306640625,1.1171875,-9.49609375,1.00390625
4084505,,,,,,,,1.26171875,-1.65625,-0.5078125,-0.041015625,-0.310546875,0.287109375,1.23046875,-9.76953125,1.0390625
4084506,,,,,,,,1.5078125,-1.88671875,-0.4296875,-0.037109375,-0.291015625,0.275390625,1.4609375,-9.9921875,1.1171875
4084507,,,,,,,,1.66015625,-1.91015625,-0.3828125,-0.03125,-0.263671875,0.208984375,1.61328125,-10.03125,1.15625
4084508,,,,,,,,1.58984375,-1.82421875,-0.3671875,-0.041015625,-0.244140625,0.154296875,1.53515625,-9.953125,1.15625
4084509,,,,,,,,1.546875,-1.9375,-0.40625,-0.041015625,-0.232421875,0.134765625,1.5,-10.07421875,1.1171875
4084510,36.01253033333333,129.31936333333334,68.8140590366772,14.46195605679582,1.0,47.0,,1.328125,0.08203125,-1.1484375,0.09375,0.36328125,-0.173828125,1.61328125,-10.4921875,1.078125
4084511,,,,,,,,1.58203125,-2.48828125,-0.359375,-0.072265625,-0.1640625,0.12109375,1.34375,-10.9140625,1.234375
4084512,,,,,,,,1.23046875,-2.89453125,-0.23046875,-0.0859375,-0.06640625,0.103515625,0.88671875,-11.140625,1.4609375
4084513,,,,,,,,0.734375,-2.61328125,0.24609375,-0.0703125,0.06640625,0.072265625,0.734375,-10.53125,1.76953125
4084514,,,,,,,,1.078125,-2.21484375,0.140625,-0.060546875,0.1328125,0.044921875,1.26953125,-10.7578125,1.5
4084515,,,,,,,,1.5,-3.01171875,-0.05078125,-0.033203125,0.16796875,0.015625,1.8828125,-12.75390625,1.578125
4084516,,,,,,,,1.99609375,-5.4453125,0.34765625,-0.0234375,0.16796875,-0.01171875,1.84375,-14.44140625,2.15234375
4084517,,,,,,,,1.140625,-6.7421875,1.91796875,-0.037109375,0.220703125,-0.044921875,1.1171875,-14.98046875,3.37890625
4084518,,,,,,,,-0.59375,-4.08203125,2.95703125,-0.1015625,0.654296875,-0.07421875,-0.609375,-12.33203125,4.41015625
4084519,,,,,,,,-0.29296875,-3.453125,2.20703125,-0.10546875,0.814453125,-0.0546875,-0.30078125,-11.71875,3.64453125
4084520,36.01253133333333,129.31936433333334,68.90420758886484,14.572915996330309,1.2000000000000002,45.0,,-0.68359375,-2.671875,3.05859375,-0.0546875,0.61328125,0.005859375,-0.68359375,-10.953125,4.48828125
4084521,,,,,,,,-1.0234375,-2.546875,3.7109375,-0.048828125,0.189453125,-0.001953125,-1.03125,-10.83984375,5.140625
4084522,,,,,,,,-0.1875,-2.6875,3.52734375,-0.083984375,0.18359375,-0.15625,-0.1875,-10.9921875,4.94921875
4084523,,,,,,,,1.03125,-2.9453125,2.953125,-0.109375,0.21875,-0.1640625,1.0390625,-11.26171875,4.375
4084524,,,,,,,,1.859375,-3.046875,2.77734375,-0.125,-0.005859375,0.005859375,1.8828125,-11.37890625,4.18359375
4084525,,,,,,,,1.890625,-2.87890625,2.6015625,-0.1484375,-0.140625,0.021484375,1.921875,-11.21875,3.9921875
4084526,,,,,,,,0.953125,-2.83203125,2.68359375,-0.10546875,-0.107421875,0.0,1.0,-11.18359375,4.06640625
4084527,,,,,,,,-0.1484375,-2.8828125,2.69140625,-0.033203125,-0.0390625,0.283203125,-0.109375,-11.26171875,4.06640625
4084528,,,,,,,,-0.37109375,-2.83984375,2.80859375,-0.009765625,-0.01953125,0.361328125,-0.33984375,-11.22265625,4.18359375
4084529,,,,,,,,-0.69140625,-2.79296875,2.64453125,0.041015625,0.046875,0.41015625,-0.68359375,-11.18359375,4.02734375
4084530,36.01253233333333,129.31936499999998,68.96430632850097,14.683875701478733,1.2000000000000002,40.0,,-0.62109375,-2.81640625,2.140625,0.1171875,0.09765625,0.34765625,-0.64453125,-11.21875,3.53125
4084531,,,,,,,,-0.171875,-2.34765625,1.6640625,0.220703125,0.16796875,0.287109375,-0.2265625,-10.7578125,3.0703125
4084532,,,,,,,,0.0078125,-1.87109375,1.18359375,0.2421875,0.1953125,0.248046875,-0.0703125,-10.30078125,2.61328125
4084533,,,,,,,,0.04296875,-1.60546875,0.9765625,0.232421875,0.208984375,0.236328125,-0.03515625,-10.03515625,2.421875
4084534,,,,,,,,0.18359375,-0.9453125,0.4921875,0.23828125,0.208984375,0.23046875,0.08203125,-9.3828125,1.9609375
4084535,,,,,,,,0.2734375,-0.4375,0.23828125,0.240234375,0.173828125,0.232421875,0.15625,-8.8828125,1.73046875
4084536,,,,,,,,0.48046875,0.10546875,-0.12109375,0.2265625,0.138671875,0.2421875,0.34765625,-8.34765625,1.38671875
4084537,,,,,,,,0.765625,0.41796875,-0.22265625,0.224609375,0.08984375,0.26171875,0.6171875,-8.04296875,1.30859375
4084538,,,,,,,,0.92578125,0.765625,-0.3125,0.2265625,0.07421875,0.259765625,0.76953125,-7.69921875,1.234375
4084539,,,,,,,,1.06640625,1.26953125,-0.5,0.2421875,0.025390625,0.208984375,0.88671875,-7.1953125,1.078125
4084540,36.012532666666665,129.3193655,69.00938074910532,14.72086246632368,1.0,44.0,,0.96484375,1.69921875,-0.66796875,0.1171875,0.09765625,0.34765625,-0.64453125,-11.21875,3.53125
4084541,,,,,,,,0.58984375,1.859375,-0.890625,0.283203125,-0.005859375,0.1640625,0.38671875,-6.625,0.734375
4084542,,,,,,,,0.25390625,1.9375,-0.953125,0.3046875,-0.0390625,0.15234375,0.04296875,-6.546875,0.6953125
4084543,,,,,,,,-0.05078125,1.9921875,-1.05859375,0.3203125,-0.078125,0.14453125,-0.26171875,-6.5078125,0.62109375
4084544,,,,,,,,-0.3515625,2.03125,-1.08203125,0.330078125,-0.109375,0.12890625,-0.5703125,-6.46875,0.62109375
4084545,,,,,,,,-0.54296875,2.03125,-1.15234375,0.310546875,-0.12109375,0.1171875,-0.76171875,-6.46875,0.58203125
4084546,,,,,,,,-0.61328125,2.03125,-1.26171875,0.2890625,-0.14453125,0.107421875,-0.83984375,-6.46875,0.50390625
4084547,,,,,,,,-0.61328125,1.9140625,-1.32421875,0.255859375,-0.166015625,0.1015625,-0.83984375,-6.5859375,0.46484375
4084548,,,,,,,,-0.34375,1.6171875,-1.30078125,0.216796875,-0.2109375,0.10546875,-0.5703125,-6.89453125,0.50390625
4084549,,,,,,,,-0.19140625,1.46875,-1.24609375,0.173828125,-0.244140625,0.091796875,-0.41796875,-7.05078125,0.58203125
4084550,36.01253333333333,129.319366,69.05445487915149,14.794835641970725,1.0,44.0,,0.078125,1.35546875,-1.0703125,0.12890625,-0.26953125,0.068359375,-0.1484375,-7.16015625,0.7734375
4084551,,,,,,,,0.18359375,1.36328125,-0.96484375,0.09375,-0.28515625,0.02734375,-0.03515625,-7.16015625,0.88671875
4084552,,,,,,,,0.28515625,1.32421875,-1.01953125,0.056640625,-0.2734375,-0.017578125,0.08203125,-7.19921875,0.84765625
4084553,,,,,,,,0.24609375,1.25,-1.01953125,0.04296875,-0.28125,-0.03125,0.04296875,-7.2734375,0.84765625
4084554,,,,,,,,0.26953125,1.02734375,-1.1328125,0.021484375,-0.302734375,-0.052734375,0.08203125,-7.50390625,0.734375
4084555,,,,,,,,0.26171875,0.7265625,-1.1796875,0.013671875,-0.32421875,-0.05859375,0.08203125,-7.81640625,0.6953125
4084556,,,,,,,,0.4296875,-0.03125,-0.91015625,0.005859375,-0.34375,-0.048828125,0.2734375,-8.578125,0.96484375
4084557,,,,,,,,0.49609375,-0.21484375,-0.796875,0.001953125,-0.287109375,-0.0625,0.3125,-9.11328125,1.26953125
4084558,,,,,,,,0.453125,-0.55859375,-0.60546875,0.005859375,-0.251953125,-0.080078125,0.234375,-9.38671875,1.42578125
4084559,,,,,,,,0.28125,-0.93359375,-0.4140625,0.0078125,-0.17578125,-0.107421875,0.15625,-9.609375,1.5
4084560,36.01253416666667,129.31936683333333,69.12957866553049,14.887302261810973,1.1,45.0,,0.078125,1.35546875,-1.0703125,0.12890625,-0.26953125,0.068359375,0.04296875,-9.9921875,1.34765625
4084561,,,,,,,,0.13671875,-1.5859375,-0.60546875,0.03515625,-0.072265625,-0.11328125,0.00390625,-10.2578125,1.1953125
4084562,,,,,,,,0.08203125,-1.8828125,-0.71875,0.05078125,-0.0625,-0.1171875,0.04296875,-10.53515625,1.1171875
4084563,,,,,,,,0.2890625,-2.03125,-0.7265625,0.0703125,-0.046875,-0.130859375,0.46484375,-10.6796875,1.15625
4084564,,,,,,,,0.6953125,-2.18359375,-0.6953125,0.072265625,0.0,-0.123046875,0.76953125,-10.8359375,1.234375
4084565,,,,,,,,1.140625,-2.48046875,-0.6953125,0.0703125,0.056640625,-0.12109375,1.26953125,-11.18359375,1.234375
4084566,,,,,,,,1.3515625,-2.55078125,-0.7109375,0.0625,0.095703125,-0.095703125,1.4609375,-11.02734375,1.234375
4084567,,,,,,,,1.5,-1.96875,-0.7578125,0.064453125,0.146484375,-0.080078125,1.34375,-10.3359375,1.078125
4084568,,,,,,,,1.0703125,-1.27734375,-0.99609375,0.083984375,0.234375,-0.03515625,0.6953125,-9.57421875,0.88671875
4084569,,,,,,,,0.53515625,-0.92578125,-0.96484375,0.123046875,0.25390625,0.0390625,0.15625,-9.4921875,1.15625
4084570,36.01253466666667,129.31936733333333,69.17465293915228,14.942782232346431,0.9,47.0,,-0.15625,-1.22265625,-0.75,0.181640625,0.263671875,0.08203125,-0.26171875,-10.5703125,0.88671875
4084571,,,,,,,,-0.26171875,-2.17578125,-1.02734375,0.203125,0.349609375,0.04296875,-0.1875,-11.06640625,1.1953125
4084572,,,,,,,,-0.1796875,-2.44921875,-0.765625,0.201171875,0.455078125,-0.021484375,-0.0703125,-11.02734375,1.42578125
4084573,,,,,,,,0.171875,-2.48828125,-0.0703125,0.193359375,0.583984375,-0.091796875,0.42578125,-11.37890625,2.07421875
4084574,,,,,,,,0.44140625,-2.75,0.08203125,0.185546875,0.681640625,-0.14453125,1.15234375,-12.671875,2.03515625
4084575,,,,,,,,2.234375,-5.69921875,0.59765625,0.138671875,0.818359375,-0.2265625,2.2265625,-14.32421875,2.61328125
4084576,,,,,,,,2.6875,-5.8828125,1.19921875,0.115234375,0.818359375,-0.248046875,2.6875,-14.515625,3.22265625
4084577,,,,,,,,4.78515625,-5.0,1.84375,0.052734375,0.716796875,-0.341796875,4.79296875,-13.63671875,3.875
4084578,,,,,,,,4.85546875,-4.6171875,1.9609375,0.017578125,0.73046875,-0.400390625,4.87109375,-13.25390625,3.9921875
4084579,,,,,,,,2.890625,-3.8359375,2.7265625,-0.041015625,0.93359375,-0.5859375,2.953125,-12.48828125,4.7578125
4084580,36.01253533333333,129.31936816666666,69.24977686861625,15.016755646135831,1.0,47.0,,2.25390625,-3.828125,2.765625,0.181640625,0.263671875,0.08203125,-0.26171875,-10.5703125,0.88671875
4084581,,,,,,,,0.76953125,-4.1640625,2.734375,-0.01953125,0.298828125,-0.357421875,0.88671875,-12.83203125,4.7578125
4084582,,,,,,,,0.59375,-4.00390625,2.54296875,0.013671875,-0.134765625,-0.0703125,0.734375,-12.671875,4.56640625
4084583,,,,,,,,1.11328125,-3.0390625,1.60546875,0.0625,-0.369140625,-0.04296875,1.26953125,-11.72265625,3.64453125
4084584,,,,,,,,1.6328125,-2.03515625,1.109375,0.03515625,-0.494140625,-0.13671875,1.8046875,-10.71875,3.1484375
4084585,,,,,,,,1.75390625,-1.64453125,0.80859375,-0.015625,-0.576171875,-0.236328125,1.95703125,-10.3359375,2.83984375
4084586,,,,,,,,1.84765625,-1.4921875,0.7265625,-0.048828125,-0.62109375,-0.25390625,2.07421875,-10.19140625,2.765625
4084587,,,,,,,,1.921875,-1.59765625,0.7734375,-0.1328125,-0.703125,-0.20703125,2.1875,-10.296875,2.8046875
4084588,,,,,,,,1.77734375,-1.91796875,1.0234375,-0.216796875,-0.685546875,-0.119140625,2.07421875,-10.64453125,3.03125
4084589,,,,,,,,1.36328125,-1.796875,0.7421875,-0.294921875,-0.501953125,-0.103515625,1.69140625,-10.53515625,2.7265625
4084590,36.012535666666665,129.3193686666667,69.29485128876424,15.053742412171172,0.9,51.0,,0.91015625,-1.19921875,0.4765625,-0.36328125,-0.1953125,-0.119140625,1.26953125,-9.95703125,2.421875
4084591,,,,,,,,0.43359375,-0.4921875,-0.03125,-0.38671875,-0.08984375,-0.1015625,0.80859375,-9.265625,1.8828125
4084592,,,,,,,,0.3046875,0.05859375,-0.03125,-0.388671875,-0.087890625,-0.056640625,0.6953125,-8.7265625,1.84375
4084593,,,,,,,,0.36328125,0.54296875,-0.14453125,-0.35546875,-0.1875,-0.013671875,0.76953125,-8.26953125,1.69140625
4084594,,,,,,,,0.34765625,1.015625,-0.37109375,-0.33203125,-0.17578125,-0.05859375,0.76953125,-7.81640625,1.42578125
4084595,,,,,,,,0.33203125,1.33203125,-0.49609375,-0.314453125,-0.14453125,-0.10546875,0.76953125,-7.5,1.26953125
4084596,,,,,,,,0.36328125,1.484375,-0.5234375,-0.31640625,-0.134765625,-0.10546875,0.80859375,-7.35546875,1.234375
4084597,,,,,,,,0.46484375,1.66015625,-0.4921875,-0.322265625,-0.1328125,-0.080078125,0.92578125,-7.19921875,1.234375
4084598,,,,,,,,0.640625,2.05078125,-0.5078125,-0.33203125,-0.125,-0.04296875,1.1171875,-6.8125,1.1953125
4084599,,,,,,,,0.79296875,2.328125,-0.5546875,-0.3359375,-0.11328125,-0.0078125,1.26953125,-6.546875,1.1171875
4084600,36.012535666666665,129.31936833333333,69.2648014816817,15.053742175174246,0.5,50.0,0.0,1.015625,2.49609375,-0.67578125,-0.328125,-0.109375,0.01953125,1.5,-6.39453125,0.96484375
4084601,,,,,,,,1.16015625,2.54296875,-0.76953125,-0.30859375,-0.1328125,0.0234375,1.65234375,-6.3515625,0.84765625
4084602,,,,,,,,1.15234375,2.51171875,-0.8515625,-0.283203125,-0.150390625,0.00390625,1.65234375,-6.390625,0.734375
4084603,,,,,,,,1.19140625,2.52734375,-0.7578125,-0.271484375,-0.166015625,0.001953125,1.69140625,-6.390625,0.8125
4084604,,,,,,,,1.10546875,2.49609375,-0.66796875,-0.23828125,-0.18359375,-0.01171875,1.61328125,-6.43359375,0.88671875
4084605,,,,,,,,0.9453125,2.66015625,-0.60546875,-0.203125,-0.181640625,-0.017578125,1.4609375,-6.2734375,0.92578125
4084606,,,,,,,,0.890625,2.66796875,-0.62890625,-0.166015625,-0.181640625,-0.005859375,1.421875,-6.2734375,0.88671875
4084607,,,,,,,,0.9296875,2.66796875,-0.7265625,-0.13671875,-0.193359375,0.0234375,1.4609375,-6.2734375,0.7734375
4084608,,,,,,,,0.921875,2.67578125,-0.7578125,-0.11328125,-0.201171875,0.0390625,1.4609375,-6.2734375,0.734375
4084609,,,,,,,,0.9609375,2.484375,-0.86328125,-0.083984375,-0.234375,0.1015625,1.5,-6.46875,0.62109375
4084610,36.012536,129.31936833333333,69.26480118974773,15.090728586661648,0.4,50.0,,0.9296875,2.03125,-1.03125,-0.328125,-0.109375,0.01953125,1.5,-6.39453125,0.96484375
4084611,,,,,,,,0.8125,1.50390625,-0.95703125,-0.0546875,-0.2421875,0.189453125,1.34375,-7.46484375,0.50390625
4084612,,,,,,,,0.8671875,0.96484375,-0.7578125,-0.0546875,-0.220703125,0.201171875,1.3828125,-8.0,0.6953125
4084613,,,,,,,,0.953125,0.09375,-0.44921875,-0.044921875,-0.177734375,0.22265625,1.4609375,-8.8828125,1.00390625
4084614,,,,,,,,1.04296875,-0.78125,-0.2890625,-0.044921875,-0.123046875,0.24609375,1.53515625,-9.765625,1.15625
4084615,,,,,,,,1.0390625,-1.39453125,-0.05078125,-0.041015625,-0.060546875,0.296875,1.5,-10.37890625,1.38671875
4084616,,,,,,,,1.0078125,-1.5,0.109375,-0.046875,-0.046875,0.310546875,1.4609375,-10.4921875,1.5390625
4084617,,,,,,,,0.9140625,-1.578125,0.23046875,-0.046875,-0.029296875,0.34765625,1.34375,-10.57421875,1.65234375
4084618,,,,,,,,0.9765625,-1.64453125,0.26953125,-0.048828125,-0.01953125,0.375,1.3828125,-10.640625,1.69140625
4084619,,,,,,,,0.96875,-1.80078125,0.125,-0.046875,-0.029296875,0.384765625,1.34375,-10.80078125,1.5390625
4084620,36.0125365,129.31936816666666,69.2497758479624,15.146208085879266,0.5,37.0,,0.82421875,-2.01953125,0.046875,-0.037109375,-0.078125,0.3515625,1.15234375,-11.02734375,1.4609375
4084621,,,,,,,,0.62109375,-2.16796875,-0.05859375,-0.033203125,-0.08984375,0.287109375,0.92578125,-11.1796875,1.34765625
4084622,,,,,,,,0.51953125,-1.9765625,-0.09765625,-0.03515625,-0.080078125,0.244140625,0.80859375,-10.9921875,1.30859375
4084623,,,,,,,,0.56640625,-1.62109375,-0.09765625,-0.037109375,-0.06640625,0.224609375,0.84765625,-10.640625,1.30859375
4084624,,,,,,,,0.92578125,-0.97265625,-0.203125,-0.05078125,-0.0234375,0.201171875,1.19140625,-9.9921875,1.1953125
4084625,,,,,,,,1.2109375,-0.96484375,-0.3515625,-0.06640625,0.064453125,0.177734375,1.4609375,-9.9921875,1.0390625
4084626,,,,,,,,1.609375,-1.9140625,-0.37109375,-0.0703125,0.107421875,0.154296875,1.84375,-10.95703125,1.00390625
4084627,,,,,,,,1.5703125,-3.5546875,-0.44921875,-0.0703125,0.189453125,0.13671875,1.8046875,-12.60546875,0.92578125
4084628,,,,,,,,1.34765625,-3.97265625,-0.48046875,-0.076171875,0.2578125,0.125,1.57421875,-13.015625,0.88671875
4084629,,,,,,,,-0.20703125,-3.0078125,0.83203125,-0.0859375,0.439453125,0.09375,0.00390625,-12.0625,2.19140625
4084630,36.01253716666667,129.31936833333333,69.26480016932373,15.220181025872186,0.6000000000000001,33.0,,-0.85546875,-2.50390625,1.7578125,-0.1171875,0.666015625,0.01953125,-0.64453125,-11.5625,3.109375
4084631,,,,,,,,-1.1484375,-3.33984375,2.265625,-0.064453125,0.8671875,0.044921875,-0.953125,-12.41015625,3.609375
4084632,,,,,,,,-1.2109375,-3.25390625,2.1484375,0.015625,0.73828125,0.220703125,-1.03125,-12.33203125,3.4921875
4084633,,,,,,,,-1.5390625,-2.44921875,2.45703125,0.0390625,0.6328125,0.326171875,-1.375,-11.52734375,3.80078125
4084634,,,,,,,,-1.5,-2.25,2.53125,-0.01171875,0.615234375,0.154296875,-1.14453125,-11.30078125,3.9140625
4084635,,,,,,,,-0.79296875,-2.328125,2.5234375,-0.041015625,0.57421875,-0.05859375,-0.68359375,-11.4140625,3.875
4084636,,,,,,,,-0.2578125,-2.43359375,2.609375,-0.05078125,0.2890625,-0.021484375,-0.1484375,-11.52734375,3.953125
4084637,,,,,,,,0.203125,-2.46484375,2.68359375,-0.0859375,0.060546875,0.005859375,0.3125,-11.5625,4.02734375
4084638,,,,,,,,0.578125,-2.53125,2.5703125,-0.08984375,0.03125,-0.009765625,0.6953125,-11.64453125,3.9140625
4084639,,,,,,,,0.65234375,-2.33984375,2.47265625,-0.091796875,0.029296875,-0.009765625,0.76953125,-11.44921875,3.80078125
4084640,36.01253766666667,129.31936833333333,69.26479973165266,15.275660642382054,0.7000000000000001,31.0,,0.42578125,-2.02734375,2.44140625,-0.1171875,0.666015625,0.01953125,0.54296875,-11.140625,3.76171875
4084641,,,,,,,,-0.265625,-1.51171875,2.40234375,-0.05078125,-0.0859375,0.12109375,-0.1484375,-10.640625,3.72265625
4084642,,,,,,,,-0.44140625,-1.390625,2.2109375,-0.013671875,-0.0859375,0.146484375,-0.33984375,-10.53515625,3.53125
4084643,,,,,,,,-0.38671875,-1.3515625,1.89453125,0.048828125,-0.099609375,0.212890625,-0.30078125,-10.49609375,3.22265625
4084644,,,,,,,,-0.37890625,-1.0,1.54296875,0.1171875,-0.126953125,0.23828125,-0.30078125,-10.15234375,2.87890625
4084645,,,,,,,,-0.28125,-0.76171875,1.375,0.16796875,-0.1015625,0.212890625,-0.2265625,-9.9140625,2.7265625
4084646,,,,,,,,-0.15625,-0.53125,1.13671875,0.185546875,-0.072265625,0.189453125,-0.109375,-9.6875,2.49609375
4084647,,,,,,,,0.07421875,-0.265625,0.921875,0.20703125,-0.03125,0.169921875,0.12109375,-9.421875,2.3046875
4084648,,,,,,,,0.28125,0.2421875,0.62890625,0.2109375,-0.0078125,0.17578125,0.3125,-8.92578125,2.03515625
4084649,,,,,,,,0.41015625,0.81640625,0.30859375,0.208984375,-0.00390625,0.166015625,0.42578125,-8.34375,1.73046875
4084650,36.01253783333333,129.31936783333333,69.21972487812569,15.29415349253641,0.4,27.0,,0.50390625,1.19921875,0.1640625,-0.1171875,0.666015625,0.01953125,0.54296875,-11.140625,3.76171875
4084651,,,,,,,,0.55078125,1.70703125,-0.16015625,0.21875,-0.015625,0.134765625,0.54296875,-7.46484375,1.30859375
4084652,,,,,,,,0.43359375,2.04296875,-0.3359375,0.236328125,-0.03125,0.126953125,0.42578125,-7.1171875,1.15625
4084653,,,,,,,,0.37109375,2.2421875,-0.51953125,0.26171875,-0.041015625,0.09375,0.34765625,-6.9296875,1.00390625
4084654,,,,,,,,0.2265625,2.2421875,-0.7578125,0.283203125,-0.037109375,0.060546875,0.1953125,-6.9296875,0.8125
4084655,,,,,,,,-0.00390625,2.125,-0.90625,0.27734375,-0.037109375,0.037109375,-0.03515625,-7.05078125,0.6953125
4084656,,,,,,,,-0.421875,2.08984375,-0.890625,0.26953125,-0.046875,0.017578125,-0.453125,-7.08203125,0.734375
4084657,,,,,,,,-0.5859375,2.04296875,-0.9140625,0.248046875,-0.0546875,0.00390625,-0.609375,-7.12109375,0.734375
4084658,,,,,,,,-0.73046875,2.08203125,-1.05859375,0.21484375,-0.0625,-0.00390625,-0.76171875,-7.08203125,0.62109375
4084659,,,,,,,,-0.77734375,2.01171875,-1.23828125,0.15625,-0.12109375,-0.013671875,-0.80078125,-7.15625,0.46484375
4084660,36.012538,129.31936783333333,69.21972473238857,15.312646697935548,0.4,29.0,,-0.71484375,1.8515625,-1.328125,0.1171875,-0.17578125,-0.033203125,0.54296875,-11.140625,3.76171875
4084661,,,,,,,,-0.53125,1.78125,-1.18359375,0.0703125,-0.21484375,-0.064453125,-0.53125,-7.390625,0.54296875
4084662,,,,,,,,-0.4609375,1.7421875,-1.22265625,0.048828125,-0.232421875,-0.076171875,-0.453125,-7.4296875,0.50390625
4084663,,,,,,,,-0.27734375,1.8203125,-1.0703125,0.017578125,-0.234375,-0.107421875,-0.26171875,-7.35546875,0.65625
4084664,,,,,,,,-0.33984375,1.8984375,-1.11328125,-0.015625,-0.240234375,-0.142578125,-0.30078125,-7.2734375,0.62109375
4084665,,,,,,,,-0.40234375,1.78125,-1.23046875,-0.044921875,-0.251953125,-0.1875,-0.33984375,-7.39453125,0.50390625
4084666,,,,,,,,-0.44921875,1.7421875,-1.26953125,-0.0546875,-0.2578125,-0.205078125,-0.37890625,-7.43359375,0.46484375
4084667,,,,,,,,-0.52734375,1.3671875,-1.375,-0.076171875,-0.294921875,-0.23046875,-0.41796875,-7.8125,0.3515625
4084668,,,,,,,,-0.359375,0.87109375,-1.28125,-0.083984375,-0.3125,-0.2265625,-0.2265625,-8.3046875,0.4296875
4084669,,,,,,,,-0.2734375,0.6015625,-1.16796875,-0.09765625,-0.30078125,-0.244140625,-0.109375,-8.58203125,0.54296875
4084670,36.0125385,129.3193685,69.27982390482032,15.36812678822653,0.7000000000000001,30.0,,-0.07421875,0.2578125,-1.0078125,0.1171875,-0.17578125,-0.033203125,0.54296875,-11.140625,3.76171875
4084671,,,,,,,,0.046875,-0.125,-0.875,-0.095703125,-0.19921875,-0.31640625,0.2734375,-9.30859375,0.8125
4084672,,,,,,,,0.0546875,-0.42578125,-0.71484375,-0.078125,-0.138671875,-0.337890625,0.3125,-9.609375,0.96484375
4084673,,,,,,,,0.11328125,-0.5859375,-0.71484375,-0.068359375,-0.126953125,-0.345703125,0.38671875,-9.765625,0.96484375
4084674,,,,,,,,0.21484375,-1.10546875,-0.74609375,-0.03125,-0.080078125,-0.349609375,0.54296875,-10.296875,0.92578125
4084675,,,,,,,,0.48828125,-1.49609375,-0.5859375,-0.015625,-0.05078125,-0.333984375,0.84765625,-10.6796875,1.078125
4084676,,,,,,,,0.52734375,-1.57421875,-0.39453125,0.01171875,-0.01953125,-0.3203125,0.92578125,-10.7578125,1.26953125
4084677,,,,,,,,0.48828125,-1.49609375,-0.46875,0.029296875,0.029296875,-0.28125,0.92578125,-10.6796875,1.1953125
4084678,,,,,,,,0.47265625,-1.46484375,-0.546875,0.041015625,0.041015625,-0.2578125,0.92578125,-10.64453125,1.1171875
4084679,,,,,,,,0.44921875,-1.3046875,-0.59375,0.05078125,0.056640625,-0.185546875,0.92578125,-10.4921875,1.078125
4084680,36.012539,129.3193695,69.36997287830641,15.423607115940037,0.8,42.0,,0.27734375,-0.6171875,-0.6328125,0.1171875,-0.17578125,-0.033203125,0.76953125,-9.8046875,1.0390625
4084681,,,,,,,,-0.10546875,-0.1640625,-0.76171875,0.08984375,0.107421875,-0.013671875,0.38671875,-9.34375,0.92578125
4084682,,,,,,,,-0.49609375,0.03515625,-0.80859375,0.115234375,0.154296875,0.0234375,0.00390625,-9.1484375,0.88671875
4084683,,,,,,,,-0.6796875,0.07421875,-0.73828125,0.126953125,0.171875,0.041015625,-0.1875,-9.11328125,0.96484375
4084684,,,,,,,,-1.359375,-0.30859375,-0.671875,0.154296875,0.21875,0.046875,-0.875,-9.49609375,1.0390625
4084685,,,,,,,,-0.96875,-2.1953125,-1.0390625,0.169921875,0.318359375,0.0234375,-0.4921875,-11.375,0.6953125
4084686,,,,,,,,-0.3203125,-2.4921875,-0.1796875,0.173828125,0.48828125,-0.0546875,0.15625,-11.68359375,1.578125
4084687,,,,,,,,0.9921875,-2.921875,0.68359375,0.1640625,0.638671875,-0.1640625,1.4609375,-12.1015625,2.45703125
4084688,,,,,,,,1.48046875,-3.53515625,0.5234375,0.140625,0.748046875,-0.220703125,1.95703125,-12.7109375,2.3046875
4084689,,,,,,,,2.5078125,-5.11328125,1.12109375,0.091796875,0.927734375,-0.341796875,2.9921875,-14.28515625,2.91796875
4084690,36.01253966666666,129.3193705,69.46012170615488,15.497580649667054,1.1,44.0,,3.51171875,-4.30078125,2.40625,0.064453125,0.91015625,-0.455078125,4.02734375,-13.48046875,4.21875
4084691,,,,,,,,3.36328125,-3.734375,2.5546875,0.048828125,0.955078125,-0.4375,3.91015625,-12.91015625,4.375
4084692,,,,,,,,2.97265625,-3.53515625,2.66015625,0.048828125,0.98828125,-0.404296875,3.52734375,-12.71484375,4.48828125
4084693,,,,,,,,1.03515625,-3.6953125,2.76953125,0.0703125,0.806640625,-0.341796875,1.61328125,-12.87109375,4.60546875
4084694,,,,,,,,0.078125,-3.87890625,2.60546875,0.08984375,0.5859375,-0.294921875,0.65625,-13.0546875,4.44921875
4084695,,,,,,,,-0.4453125,-3.765625,1.94140625,0.140625,0.20703125,-0.19140625,0.15625,-12.94921875,3.80078125
4084696,,,,,,,,-0.34375,-3.53515625,1.6953125,0.181640625,-0.080078125,-0.12109375,0.2734375,-12.71484375,3.5703125
4084697,,,,,,,,0.328125,-2.4609375,1.33203125,0.177734375,-0.287109375,-0.091796875,0.9609375,-11.64453125,3.22265625
4084698,,,,,,,,0.55078125,-2.15625,1.2109375,0.15234375,-0.353515625,-0.103515625,1.19140625,-11.3359375,3.109375
4084699,,,,,,,,1.140625,-1.12109375,0.69921875,0.078125,-0.435546875,-0.146484375,1.8046875,-10.296875,2.61328125
4084700,36.0125405,129.31937166666665,69.56529528691149,15.590047510579666,1.2000000000000002,46.0,0.0,3.51171875,-4.30078125,2.40625,-0.00390625,-0.48046875,-0.166015625,1.69140625,-10.15234375,2.49609375
4084701,,,,,,,,0.91796875,-1.0,0.55078125,-0.09375,-0.494140625,-0.158203125,1.65234375,-10.45703125,2.421875
4084702,,,,,,,,0.87109375,-1.296875,0.4921875,-0.203125,-0.326171875,-0.126953125,1.5,-10.53515625,2.3046875
4084703,,,,,,,,0.6640625,-1.3203125,0.359375,-0.244140625,-0.177734375,-0.125,1.30859375,-10.4140625,2.15234375
4084704,,,,,,,,0.41796875,-1.015625,0.26953125,-0.27734375,-0.029296875,-0.166015625,0.9609375,-9.8046875,1.9609375
4084705,,,,,,,,0.01171875,-0.1171875,0.03125,-0.3046875,0.060546875,-0.16796875,0.734375,-8.92578125,1.69140625
4084706,,,,,,,,-0.1171875,0.50390625,-0.203125,-0.306640625,0.01953125,-0.12890625,0.734375,-8.58203125,1.5
4084707,,,,,,,,-0.140625,0.81640625,-0.296875,-0.296875,-0.03515625,-0.087890625,0.734375,-8.30859375,1.34765625
4084708,,,,,,,,-0.1484375,1.28515625,-0.4921875,-0.29296875,-0.09765625,-0.07421875,0.734375,-7.7734375,1.15625
4084709,,,,,,,,-0.1171875,1.8671875,-0.625,-0.306640625,-0.109375,-0.0625,0.734375,-7.390625,1.078125
4084710,36.01254083333333,129.31937216666665,69.6103696986742,15.627034278107402,0.9,48.0,,3.51171875,-4.30078125,2.40625,-0.314453125,-0.109375,-0.033203125,1.69140625,-10.15234375,2.49609375
4084711,,,,,,,,0.25,2.57421875,-0.828125,-0.333984375,-0.1171875,0.00390625,1.1171875,-6.6953125,0.8125
4084712,,,,,,,,0.44140625,2.8203125,-0.875,-0.34375,-0.1328125,0.041015625,1.30859375,-6.47265625,0.734375
4084713,,,,,,,,0.73828125,3.046875,-0.921875,-0.341796875,-0.14453125,0.064453125,1.61328125,-6.24609375,0.65625
4084714,,,,,,,,0.85546875,2.94921875,-0.94921875,-0.3203125,-0.14453125,0.0703125,1.73046875,-6.35546875,0.58203125
4084715,,,,,,,,0.9296875,2.61328125,-1.1484375,-0.30078125,-0.126953125,0.0625,1.8046875,-6.69921875,0.3515625
4084716,,,,,,,,0.78515625,2.3203125,-1.27734375,-0.265625,-0.11328125,0.02734375,1.65234375,-7.01171875,0.19921875
4084717,,,,,,,,0.515625,2.16796875,-1.1796875,-0.2265625,-0.11328125,-0.025390625,1.3828125,-7.15625,0.2734375
4084718,,,,,,,,0.234375,2.24609375,-1.0,-0.197265625,-0.140625,-0.0546875,1.1171875,-7.078125,0.4296875
4084719,,,,,,,,0.1484375,2.3671875,-0.85546875,-0.1484375,-0.16796875,0.01171875,1.0390625,-6.96875,0.54296875
4084720,36.0125415,129.31937299999998,69.68549362087131,15.701007696253008,1.0,47.0,,0.1484375,2.4140625,-0.7265625,-0.11328125,-0.1953125,0.091796875,1.0390625,-6.9296875,0.65625
4084721,,,,,,,,0.234375,2.14453125,-0.83203125,-0.095703125,-0.234375,0.185546875,1.1171875,-7.1953125,0.54296875
4084722,,,,,,,,0.27734375,1.9140625,-0.86328125,-0.087890625,-0.2734375,0.2421875,1.15234375,-7.43359375,0.50390625
4084723,,,,,,,,0.265625,1.73046875,-0.9296875,-0.076171875,-0.314453125,0.275390625,1.1171875,-7.6171875,0.4296875
4084724,,,,,,,,0.2109375,1.1953125,-0.87890625,-0.07421875,-0.328125,0.265625,1.0390625,-8.15625,0.46484375
4084725,,,,,,,,0.3046875,0.8515625,-0.71484375,-0.064453125,-0.34765625,0.255859375,1.1171875,-8.5,0.62109375
4084726,,,,,,,,0.44140625,0.20703125,-0.5078125,-0.064453125,-0.3359375,0.265625,1.23046875,-9.1484375,0.8125
4084727,,,,,,,,0.49609375,-0.359375,-0.234375,-0.05859375,-0.314453125,0.267578125,1.26953125,-9.73046875,1.078125
4084728,,,,,,,,0.50390625,-0.51171875,-0.1171875,-0.05859375,-0.2890625,0.271484375,1.26953125,-9.87890625,1.1953125
4084729,,,,,,,,0.18359375,-0.78125,0.04296875,-0.0625,-0.234375,0.287109375,0.92578125,-10.15234375,1.34765625
4084730,36.0125425,129.31937383333334,69.76061725097316,15.811967526158217,1.1,44.0,,0.015625,-0.8203125,0.12890625,-0.072265625,-0.177734375,0.30859375,0.734375,-10.19140625,1.42578125
4084731,,,,,,,,-0.078125,-1.05078125,0.10546875,-0.068359375,-0.14453125,0.330078125,0.6171875,-10.41796875,1.38671875
4084732,,,,,,,,0.0703125,-1.5,0.11328125,-0.064453125,-0.1484375,0.3359375,0.734375,-10.87890625,1.38671875
4084733,,,,,,,,0.17578125,-1.9609375,0.12109375,-0.060546875,-0.14453125,0.302734375,0.80859375,-11.33984375,1.38671875
4084734,,,,,,,,0.0390625,-2.3359375,0.12890625,-0.048828125,-0.11328125,0.208984375,0.65625,-11.72265625,1.38671875
4084735,,,,,,,,-0.10546875,-1.9921875,0.25,-0.037109375,-0.056640625,0.12109375,0.50390625,-11.37890625,1.5
4084736,,,,,,,,-0.09765625,-1.67578125,0.28125,-0.037109375,-0.03125,0.0859375,0.50390625,-11.06640625,1.5390625
4084737,,,,,,,,0.0234375,-0.48828125,0.05859375,-0.029296875,0.037109375,0.03125,0.6171875,-9.875,1.30859375
4084738,,,,,,,,0.33203125,0.390625,-0.24609375,-0.015625,0.072265625,0.005859375,0.92578125,-9.0,1.00390625
4084739,,,,,,,,0.71484375,0.5078125,-0.35546875,-0.001953125,0.078125,-0.017578125,1.30859375,-8.8828125,0.88671875
4084740,36.01254333333333,129.31937466666668,69.83574102137406,15.904434150760189,1.1,41.0,,1.12890625,-0.91015625,-0.4296875,0.005859375,0.091796875,-0.046875,0.734375,-10.19140625,1.42578125
4084741,,,,,,,,1.234375,-2.328125,-0.66015625,0.0078125,0.185546875,-0.068359375,1.84375,-11.72265625,0.58203125
4084742,,,,,,,,0.84375,-3.01953125,-0.46875,-0.009765625,0.376953125,-0.08203125,1.4609375,-12.41015625,0.7734375
4084743,,,,,,,,-0.6953125,-0.48828125,0.2109375,-0.041015625,0.826171875,-0.171875,-0.0703125,-9.875,1.4609375
4084744,,,,,,,,-0.734375,-0.22265625,0.41015625,-0.05078125,0.9921875,-0.212890625,-0.109375,-9.61328125,1.65234375
4084745,,,,,,,,-0.703125,-1.29296875,0.86328125,0.017578125,1.099609375,-0.1875,-0.0703125,-10.68359375,2.11328125
4084746,,,,,,,,-0.62890625,-4.01171875,1.5390625,0.142578125,0.787109375,0.091796875,-0.1484375,-14.171875,3.03125
4084747,,,,,,,,-0.7734375,-4.7734375,1.7578125,0.12890625,0.73046875,0.166015625,-0.72265625,-15.24609375,3.80078125
4084748,,,,,,,,-1.9296875,-5.99609375,3.19921875,0.041015625,0.9921875,0.029296875,-1.71875,-14.44140625,4.87109375
4084749,,,,,,,,-2.3046875,-5.0390625,3.57421875,0.0078125,1.046875,-0.017578125,-1.56640625,-13.4375,4.52734375
4084750,36.0125445,129.3193755,69.9108644981735,16.033887185940983,1.4000000000000001,38.0,,1.12890625,-0.91015625,-0.4296875,-0.01171875,0.916015625,0.0546875,-0.83984375,-12.75,4.18359375
4084751,,,,,,,,-1.046875,-3.0390625,2.71484375,-0.025390625,0.4921875,0.18359375,-0.0703125,-11.984375,3.8359375
4084752,,,,,,,,-0.52734375,-2.3828125,2.33203125,-0.05859375,-0.287109375,0.11328125,-0.0703125,-11.4453125,3.22265625
4084753,,,,,,,,-0.7109375,-1.8828125,1.765625,-0.0859375,-0.54296875,0.07421875,-0.26171875,-11.22265625,3.1484375
4084754,,,,,,,,-0.9765625,-1.59765625,2.04296875,-0.07421875,-0.578125,0.1171875,-0.453125,-11.0234375,3.33984375
4084755,,,,,,,,-1.1328125,-1.4453125,1.66796875,-0.029296875,-0.544921875,0.126953125,-0.609375,-10.87890625,2.95703125
4084756,,,,,,,,-1.0859375,-1.37109375,1.55078125,0.001953125,-0.505859375,0.109375,-0.5703125,-10.80078125,2.83984375
4084757,,,,,,,,-0.6640625,-0.98046875,1.24609375,0.078125,-0.435546875,0.048828125,-0.1484375,-10.41796875,2.53515625
4084758,,,,,,,,-0.43359375,-0.59765625,1.0078125,0.14453125,-0.39453125,0.0078125,0.08203125,-10.03125,2.3046875
4084759,,,,,,,,-0.17578125,0.1015625,0.6875,0.185546875,-0.32421875,-0.06640625,0.34765625,-9.34375,2.0
4084760,36.01254516666667,129.31937616666667,69.97096351383408,16.107860487869736,1.1,38.0,,0.00390625,0.67578125,0.40234375,-0.01171875,0.916015625,0.0546875,-0.83984375,-12.75,4.18359375
4084761,,,,,,,,0.30078125,1.40234375,0.03515625,0.19921875,-0.228515625,-0.09375,0.92578125,-7.69921875,1.234375
4084762,,,,,,,,0.3984375,1.86328125,-0.1328125,0.19140625,-0.232421875,-0.044921875,0.88671875,-7.3515625,1.15625
4084763,,,,,,,,0.23828125,2.21484375,-0.2734375,0.197265625,-0.220703125,-0.017578125,0.734375,-7.078125,1.15625
4084764,,,,,,,,-0.02734375,2.5546875,-0.296875,0.216796875,-0.173828125,0.013671875,0.54296875,-6.73828125,1.078125
4084765,,,,,,,,-0.19140625,2.90625,-0.51953125,0.234375,-0.13671875,0.025390625,0.34765625,-6.51171875,0.88671875
4084766,,,,,,,,-0.3828125,3.08984375,-0.65625,0.248046875,-0.12109375,0.04296875,0.04296875,-6.39453125,0.734375
4084767,,,,,,,,-0.6484375,3.01171875,-0.796875,0.24609375,-0.12890625,0.041015625,-0.2265625,-6.46875,0.6953125
4084768,,,,,,,,-1.0703125,2.9296875,-0.828125,0.251953125,-0.138671875,0.037109375,-0.609375,-6.47265625,0.6953125
4084769,,,,,,,,-1.41015625,2.890625,-0.8984375,0.240234375,-0.138671875,0.0390625,-0.83984375,-6.546875,0.65625
4084770,36.01254566666667,129.31937666666667,70.01603777383488,16.1633404628535,1.0,43.0,,-1.484375,2.69921875,-1.11328125,-0.01171875,0.916015625,0.0546875,-0.9140625,-6.734375,0.46484375
4084771,,,,,,,,-1.40234375,2.421875,-1.08984375,0.197265625,-0.150390625,0.07421875,-0.83984375,-7.0078125,0.50390625
4084772,,,,,,,,-1.36328125,2.3828125,-1.09765625,0.18359375,-0.16796875,0.078125,-0.80078125,-7.046875,0.50390625
4084773,,,,,,,,-1.046875,2.1171875,-1.03515625,0.1484375,-0.193359375,0.0625,-0.4921875,-7.31640625,0.58203125
4084774,,,,,,,,-0.85546875,1.96484375,-0.8984375,0.123046875,-0.189453125,0.04296875,-0.30078125,-7.46484375,0.734375
4084775,,,,,,,,-0.85546875,1.92578125,-0.859375,0.08984375,-0.162109375,0.005859375,-0.30078125,-7.50390625,0.7734375
4084776,,,,,,,,-0.82421875,1.95703125,-0.75390625,0.068359375,-0.154296875,-0.0078125,-0.26171875,-7.46484375,0.88671875
4084777,,,,,,,,-0.86328125,1.96484375,-0.875,0.0390625,-0.1484375,-0.025390625,-0.30078125,-7.46484375,0.7734375
4084778,,,,,,,,-0.86328125,1.84765625,-1.02734375,0.021484375,-0.173828125,-0.03125,-0.30078125,-7.578125,0.62109375
4084779,,,,,,,,-0.796875,1.578125,-1.15234375,0.021484375,-0.19140625,-0.033203125,-0.2265625,-7.8515625,0.50390625
4084780,36.01254666666667,129.3193775,70.09116139309825,16.274300296334786,1.1,41.0,,-0.765625,1.3125,-1.07421875,-0.01171875,0.916015625,0.0546875,-0.1875,-8.1171875,0.58203125
4084781,,,,,,,,-0.6484375,0.8046875,-0.8828125,0.01171875,-0.302734375,-0.0390625,-0.0703125,-8.62109375,0.7734375
4084782,,,,,,,,-0.62890625,0.421875,-0.69140625,0.009765625,-0.32421875,-0.041015625,-0.03515625,-9.0,0.96484375
4084783,,,,,,,,-0.55078125,0.19140625,-0.5703125,0.01171875,-0.28515625,-0.05859375,0.04296875,-9.2265625,1.078125
4084784,,,,,,,,-0.48828125,-0.12109375,-0.4921875,0.021484375,-0.2265625,-0.072265625,0.12109375,-9.53515625,1.15625
4084785,,,,,,,,-0.4609375,-0.2734375,-0.4921875,0.03125,-0.2109375,-0.076171875,0.15625,-9.69140625,1.15625
4084786,,,,,,,,-0.46875,-0.390625,-0.4921875,0.041015625,-0.20703125,-0.08203125,0.15625,-9.8046875,1.15625
4084787,,,,,,,,-0.3984375,-0.58984375,-0.5,0.056640625,-0.216796875,-0.072265625,0.234375,-9.9921875,1.15625
4084788,,,,,,,,-0.328125,-0.85546875,-0.5078125,0.06640625,-0.212890625,-0.060546875,0.3125,-10.26171875,1.15625
4084789,,,,,,,,-0.26171875,-0.93359375,-0.59375,0.078125,-0.212890625,-0.04296875,0.38671875,-10.33984375,1.078125
4084790,36.0125475,129.31937816666667,70.15126025545644,16.366766802785786,1.0,42.0,,-0.30859375,-1.1640625,-0.6328125,-0.01171875,0.916015625,0.0546875,-0.1875,-8.1171875,0.58203125
4084791,,,,,,,,-0.16015625,-1.4375,-0.640625,0.080078125,-0.095703125,-0.017578125,0.50390625,-10.83984375,1.0390625
4084792,,,,,,,,0.078125,-1.39453125,-0.4921875,0.083984375,-0.033203125,0.021484375,0.734375,-10.796875,1.1953125
4084793,,,,,,,,0.12109375,-1.01953125,-0.38671875,0.08984375,0.033203125,0.06640625,0.76953125,-10.4140625,1.30859375
4084794,,,,,,,,-0.13671875,-0.328125,-0.546875,0.099609375,0.12109375,0.08984375,0.50390625,-9.7265625,1.15625
4084795,,,,,,,,-0.51171875,0.16796875,-0.74609375,0.111328125,0.173828125,0.095703125,0.12109375,-9.23046875,0.96484375
4084796,,,,,,,,-0.66015625,0.24609375,-0.6796875,0.125,0.18359375,0.10546875,-0.03515625,-9.1484375,1.0390625
4084797,,,,,,,,-1.1015625,-0.13671875,-0.578125,0.15625,0.16015625,0.12890625,-0.4921875,-9.53515625,1.15625
4084798,,,,,,,,-1.046875,-1.62890625,-0.86328125,0.185546875,0.208984375,0.1171875,-0.453125,-11.02734375,0.88671875
4084799,,,,,,,,-0.53515625,-1.83203125,-0.1875,0.203125,0.330078125,0.0625,0.04296875,-11.22265625,1.578125
4084800,36.01254816666667,129.319379,70.22638416740519,16.44074022568444,1.0,44.0,0.0,0.28515625,-1.26171875,0.8515625,0.197265625,0.5390625,-0.060546875,-0.1875,-8.1171875,0.58203125
4084801,,,,,,,,0.70703125,-2.375,0.63671875,0.171875,0.76171875,-0.17578125,1.26953125,-11.7578125,2.45703125
4084802,,,,,,,,1.2734375,-3.6015625,0.69921875,0.13671875,0.884765625,-0.287109375,1.84375,-12.98828125,2.53515625
4084803,,,,,,,,2.71484375,-4.10546875,1.71875,0.119140625,0.755859375,-0.28125,3.30078125,-13.4765625,3.5703125
4084804,,,,,,,,3.47265625,-4.06640625,2.5,0.076171875,0.806640625,-0.255859375,4.06640625,-13.4375,4.375
4084805,,,,,,,,2.12109375,-3.80859375,3.140625,0.0625,0.953125,-0.337890625,2.72265625,-13.171875,5.0234375
4084806,,,,,,,,0.3359375,-4.3046875,2.51953125,0.095703125,0.76171875,-0.345703125,0.9609375,-13.67578125,4.41015625
4084807,,,,,,,,0.09375,-4.421875,2.23046875,0.15625,0.240234375,-0.130859375,0.734375,-13.7890625,4.14453125
4084808,,,,,,,,0.3515625,-3.69140625,1.78515625,0.17578125,-0.08203125,-0.06640625,1.0,-13.0546875,3.72265625
4084809,,,,,,,,0.52734375,-2.54296875,1.30859375,0.1484375,-0.2421875,-0.115234375,1.19140625,-11.90625,3.26171875
4084810,36.012548833333334,129.31938,70.31653297547746,16.51471376857057,1.1,46.0,,0.4375,-1.85546875,0.91796875,0.197265625,0.5390625,-0.060546875,1.1171875,-11.21875,2.87890625
4084811,,,,,,,,0.3046875,-1.5078125,0.8359375,0.021484375,-0.43359375,-0.126953125,1.0,-10.87890625,2.8046875
4084812,,,,,,,,0.16796875,-1.078125,0.57421875,-0.0625,-0.5546875,-0.03515625,0.88671875,-10.45703125,2.53515625
4084813,,,,,,,,0.04296875,-0.62109375,0.20703125,-0.150390625,-0.537109375,0.02734375,0.76953125,-9.9921875,2.15234375
4084814,,,,,,,,-0.0078125,-0.296875,-0.078125,-0.228515625,-0.3515625,-0.033203125,0.734375,-9.69140625,1.84375
4084815,,,,,,,,-0.32421875,0.24609375,-0.3515625,-0.248046875,-0.267578125,-0.115234375,0.42578125,-9.1484375,1.5390625
4084816,,,,,,,,-0.41015625,0.4765625,-0.34375,-0.263671875,-0.23046875,-0.162109375,0.34765625,-8.92578125,1.5390625
4084817,,,,,,,,-0.66015625,1.1796875,-0.51171875,-0.279296875,-0.19140625,-0.20703125,0.12109375,-8.23828125,1.34765625
4084818,,,,,,,,-0.72265625,1.6015625,-0.6328125,-0.296875,-0.166015625,-0.220703125,0.08203125,-7.81640625,1.1953125
4084819,,,,,,,,-0.5546875,2.1484375,-0.79296875,-0.314453125,-0.1640625,-0.21484375,0.2734375,-7.27734375,1.00390625
4084820,36.01254933333333,129.3193805,70.3616072327952,16.570193746170922,1.0,47.0,,-0.38671875,2.421875,-0.88671875,0.197265625,0.5390625,-0.060546875,0.46484375,-7.01171875,0.88671875
4084821,,,,,,,,-0.02734375,2.8125,-0.9609375,-0.365234375,-0.150390625,-0.23828125,0.84765625,-6.625,0.7734375
4084822,,,,,,,,0.0703125,2.96875,-0.90625,-0.375,-0.138671875,-0.244140625,0.9609375,-6.46875,0.8125
4084823,,,,,,,,0.33984375,3.28125,-1.0078125,-0.3828125,-0.12890625,-0.25,1.26953125,-6.16796875,0.65625
4084824,,,,,,,,0.4375,3.44140625,-1.01953125,-0.380859375,-0.11328125,-0.25,1.3828125,-6.0078125,0.62109375
4084825,,,,,,,,0.4921875,3.52734375,-0.9140625,-0.359375,-0.091796875,-0.236328125,1.4609375,-5.93359375,0.6953125
4084826,,,,,,,,0.515625,3.44921875,-0.9296875,-0.349609375,-0.06640625,-0.2421875,1.5,-6.01171875,0.65625
4084827,,,,,,,,0.52734375,3.21875,-0.8984375,-0.310546875,-0.052734375,-0.21875,1.53515625,-6.24609375,0.65625
4084828,,,,,,,,0.58984375,2.9140625,-0.94140625,-0.275390625,-0.037109375,-0.212890625,1.61328125,-6.55078125,0.58203125
4084829,,,,,,,,0.64453125,2.578125,-1.0703125,-0.236328125,-0.05078125,-0.1953125,1.69140625,-6.89453125,0.4296875
4084830,36.012550000000005,129.31938166666666,70.46678094062779,16.644167412076072,1.1,51.0,,0.67578125,2.5,-0.98828125,0.197265625,0.5390625,-0.060546875,0.46484375,-7.01171875,0.88671875
4084831,,,,,,,,0.6875,2.26953125,-1.0859375,-0.185546875,-0.07421875,-0.185546875,1.765625,-7.1953125,0.390625
4084832,,,,,,,,0.63671875,2.1171875,-0.94921875,-0.150390625,-0.080078125,-0.16796875,1.73046875,-7.35546875,0.50390625
4084833,,,,,,,,0.54296875,1.88671875,-0.89453125,-0.10546875,-0.10546875,-0.056640625,1.65234375,-7.58203125,0.54296875
4084834,,,,,,,,0.46484375,1.58203125,-0.84765625,-0.07421875,-0.123046875,0.037109375,1.57421875,-7.8828125,0.58203125
4084835,,,,,,,,0.3828125,1.3515625,-0.765625,-0.04296875,-0.138671875,0.12890625,1.5,-8.12109375,0.65625
4084836,,,,,,,,0.28125,0.9296875,-0.6875,-0.01953125,-0.16015625,0.212890625,1.3828125,-8.54296875,0.734375
4084837,,,,,,,,0.3046875,0.4375,-0.56640625,0.001953125,-0.1875,0.279296875,1.3828125,-9.0390625,0.84765625
4084838,,,,,,,,0.19140625,-0.05859375,-0.3671875,0.037109375,-0.224609375,0.341796875,1.23046875,-9.53515625,1.0390625
4084839,,,,,,,,0.0625,-0.09765625,-0.25,0.052734375,-0.236328125,0.373046875,1.078125,-9.57421875,1.15625
4084840,36.01255066666667,129.3193825,70.54190484488088,16.718140836751765,1.1,48.0,,-0.2421875,-0.05078125,-0.06640625,0.197265625,0.5390625,-0.060546875,0.46484375,-7.01171875,0.88671875
4084841,,,,,,,,-0.3203125,-0.05078125,0.01171875,0.05859375,-0.255859375,0.435546875,0.6171875,-9.53125,1.42578125
4084842,,,,,,,,-0.265625,-0.2421875,-0.15234375,0.056640625,-0.251953125,0.43359375,0.6171875,-9.73046875,1.26953125
4084843,,,,,,,,-0.2421875,-0.39453125,-0.3125,0.06640625,-0.2421875,0.408203125,0.6171875,-9.875,1.1171875
4084844,,,,,,,,-0.05859375,-1.0859375,-0.34375,0.060546875,-0.236328125,0.345703125,0.76953125,-10.57421875,1.078125
4084845,,,,,,,,-0.02734375,-1.5078125,-0.16015625,0.044921875,-0.1875,0.21484375,0.76953125,-10.9921875,1.26953125
4084846,,,,,,,,-0.125,-1.34375,-0.08203125,0.029296875,-0.052734375,0.11328125,0.65625,-10.83984375,1.34765625
4084847,,,,,,,,0.11328125,-0.84765625,-0.2421875,0.013671875,0.04296875,0.056640625,0.88671875,-10.3359375,1.1953125
4084848,,,,,,,,0.2734375,-0.65625,-0.3515625,0.01171875,0.072265625,0.041015625,1.0390625,-10.1484375,1.078125
4084849,,,,,,,,0.6953125,-0.39453125,-0.3984375,0.001953125,0.12109375,0.001953125,1.4609375,-9.875,1.0390625
4084850,36.01255166666667,129.31938350000001,70.6320533545723,16.829100794242233,1.2000000000000002,42.0,,1.0390625,-1.16015625,-0.359375,-0.001953125,0.134765625,-0.033203125,1.8046875,-10.640625,1.078125
4084851,,,,,,,,1.0703125,-3.18359375,-0.625,-0.01171875,0.19140625,-0.05078125,1.84375,-12.67578125,0.8125
4084852,,,,,,,,0.11328125,-4.5625,0.26171875,-0.009765625,0.294921875,-0.052734375,0.88671875,-14.0546875,1.69140625
4084853,,,,,,,,-1.0,-4.10546875,1.83203125,-0.005859375,0.375,-0.046875,-0.2265625,-13.59765625,3.26171875
4084854,,,,,,,,-1.53515625,-3.375,2.5625,-0.01171875,0.5703125,-0.05859375,-0.76171875,-12.8671875,3.9921875
4084855,,,,,,,,-1.3046875,-2.953125,1.7109375,-0.005859375,0.798828125,-0.099609375,-0.53125,-12.4453125,3.1484375
4084856,,,,,,,,-1.3359375,-2.1484375,1.80859375,0.029296875,0.798828125,-0.025390625,-0.5703125,-11.64453125,3.26171875
4084857,,,,,,,,-1.51953125,-1.0703125,2.4921875,0.025390625,0.537109375,-0.037109375,-0.76171875,-10.5703125,3.953125
4084858,,,,,,,,-1.09765625,-1.22265625,2.26171875,0.015625,0.421875,-0.109375,-0.33984375,-10.71875,3.72265625
4084859,,,,,,,,-0.0390625,-2.03515625,2.29296875,-0.013671875,0.21875,-0.189453125,0.734375,-11.52734375,3.76171875
4084860,36.01255266666667,129.3193845,70.72220185981034,16.94006075345508,1.3,42.0,,0.36328125,-2.37890625,2.55859375,-0.001953125,0.134765625,-0.033203125,1.8046875,-10.640625,1.078125
4084861,,,,,,,,0.1640625,-2.76171875,2.4453125,0.0,-0.05078125,-0.1015625,0.9609375,-12.25,3.9140625
4084862,,,,,,,,-0.53125,-2.5546875,2.484375,0.033203125,-0.005859375,-0.01953125,0.2734375,-12.06640625,3.953125
4084863,,,,,,,,-1.18359375,-1.98828125,2.24609375,0.078125,-0.021484375,0.138671875,-0.37890625,-11.48828125,3.72265625
4084864,,,,,,,,-1.2734375,-1.51953125,2.0078125,0.099609375,-0.072265625,0.26953125,-0.4921875,-11.02734375,3.4921875
4084865,,,,,,,,-0.8203125,-1.0234375,1.609375,0.109375,-0.1328125,0.3125,-0.0703125,-10.53515625,3.109375
4084866,,,,,,,,-0.4375,-0.86328125,1.171875,0.12890625,-0.23046875,0.283203125,0.2734375,-10.375,2.6875
4084867,,,,,,,,-0.4140625,-0.73828125,1.04296875,0.142578125,-0.2421875,0.271484375,0.2734375,-10.26171875,2.57421875
4084868,,,,,,,,-0.390625,-0.5546875,0.91796875,0.146484375,-0.205078125,0.291015625,0.2734375,-10.07421875,2.45703125
4084869,,,,,,,,-0.0625,0.2578125,0.4375,0.162109375,-0.14453125,0.302734375,0.578125,-9.265625,2.0
4084870,36.01255316666666,129.31938533333332,70.79732590590297,16.995540973877983,1.2000000000000002,44.0,,0.16796875,1.03125,0.10546875,-0.001953125,0.134765625,-0.033203125,0.76953125,-8.5,1.69140625
4084871,,,,,,,,0.19140625,1.453125,0.0078125,0.189453125,-0.091796875,0.23828125,0.76953125,-8.08203125,1.6171875
4084872,,,,,,,,0.23828125,1.63671875,-0.078125,0.19921875,-0.11328125,0.220703125,0.80859375,-7.8828125,1.5390625
4084873,,,,,,,,0.1484375,2.2109375,-0.32421875,0.212890625,-0.138671875,0.232421875,0.6953125,-7.3125,1.30859375
4084874,,,,,,,,0.09375,2.78515625,-0.578125,0.23828125,-0.13671875,0.23828125,0.6171875,-6.734375,1.078125
4084875,,,,,,,,-0.07421875,3.0546875,-0.68359375,0.263671875,-0.1328125,0.25,0.42578125,-6.46875,1.00390625
4084876,,,,,,,,-0.1796875,3.13671875,-0.76953125,0.267578125,-0.123046875,0.244140625,0.3125,-6.39453125,0.92578125
4084877,,,,,,,,-0.35546875,3.08984375,-0.80078125,0.283203125,-0.1171875,0.2421875,0.12109375,-6.43359375,0.92578125
4084878,,,,,,,,-0.75390625,3.08984375,-0.9296875,0.298828125,-0.115234375,0.23828125,-0.30078125,-6.4296875,0.8125
4084879,,,,,,,,-0.9375,3.046875,-1.03125,0.302734375,-0.125,0.232421875,-0.4921875,-6.46875,0.734375
4084880,36.01255383333333,129.31938616666667,70.87244980865323,17.06951440164084,1.1,47.0,,-1.21484375,3.0078125,-1.19140625,0.2890625,-0.119140625,0.216796875,-0.80078125,-6.51171875,0.62109375
4084881,,,,,,,,-1.3046875,2.76953125,-1.33203125,0.265625,-0.125,0.216796875,-0.9140625,-6.734375,0.50390625
4084882,,,,,,,,-1.20703125,2.4921875,-1.39453125,0.234375,-0.125,0.205078125,-0.83984375,-7.0078125,0.46484375
4084883,,,,,,,,-1.07421875,2.2265625,-1.41796875,0.201171875,-0.12109375,0.17578125,-0.72265625,-7.27734375,0.46484375
4084884,,,,,,,,-0.72265625,1.8359375,-1.43359375,0.15625,-0.1171875,0.12890625,-0.37890625,-7.66015625,0.46484375
4084885,,,,,,,,-0.5234375,1.60546875,-1.29296875,0.123046875,-0.130859375,0.125,-0.1875,-7.88671875,0.62109375
4084886,,,,,,,,-0.515625,1.52734375,-1.21875,0.095703125,-0.130859375,0.123046875,-0.1875,-7.96484375,0.6953125
4084887,,,,,,,,-0.390625,1.4140625,-1.03515625,0.076171875,-0.130859375,0.111328125,-0.0703125,-8.078125,0.88671875
4084888,,,,,,,,-0.421875,1.6328125,-1.08984375,0.05859375,-0.14453125,0.064453125,-0.109375,-7.85546875,0.84765625
4084889,,,,,,,,-0.453125,1.671875,-1.203125,0.048828125,-0.1640625,0.0390625,-0.1484375,-7.8125,0.734375
4084890,36.01255466666667,129.319387,70.94757355905145,17.161981036812772,1.2000000000000002,46.0,,-0.375,1.59765625,-1.2890625,0.041015625,-0.2109375,0.02734375,-0.0703125,-7.8828125,0.65625
4084891,,,,,,,,-0.23046875,1.328125,-1.09765625,0.029296875,-0.298828125,0.048828125,0.08203125,-8.16015625,0.84765625
4084892,,,,,,,,-0.109375,1.08984375,-0.90625,0.02734375,-0.31640625,0.068359375,0.1953125,-8.3828125,1.0390625
4084893,,,,,,,,-0.0390625,0.859375,-0.8359375,0.02734375,-0.3125,0.064453125,0.2734375,-8.62109375,1.1171875
4084894,,,,,,,,-0.03125,0.5546875,-0.7109375,0.0390625,-0.2890625,0.0546875,0.2734375,-8.921875,1.234375
4084895,,,,,,,,-0.22265625,0.0546875,-0.64453125,0.056640625,-0.251953125,0.0390625,0.08203125,-9.42578125,1.30859375
4084896,,,,,,,,-0.17578125,-0.41015625,-0.5,0.080078125,-0.228515625,0.02734375,0.12109375,-9.87890625,1.4609375
4084897,,,,,,,,-0.1484375,-0.71875,-0.3515625,0.09765625,-0.208984375,0.01953125,0.15625,-10.19140625,1.6171875
4084898,,,,,,,,-0.0703125,-0.765625,-0.390625,0.1015625,-0.201171875,0.021484375,0.234375,-10.23046875,1.578125
4084899,,,,,,,,0.04296875,-0.80078125,-0.3671875,0.119140625,-0.15625,0.001953125,0.34765625,-10.26171875,1.6171875
4084900,36.012555166666665,129.31938833333334,71.06777230291883,17.217461624735247,1.1,48.0,0.0,0.15234375,-0.7734375,-0.56640625,0.041015625,-0.2109375,0.02734375,0.46484375,-10.2265625,1.42578125
4084901,,,,,,,,0.18359375,-0.84765625,-0.84375,0.1328125,-0.11328125,-0.017578125,0.50390625,-10.296875,1.15625
4084902,,,,,,,,0.15234375,-0.85546875,-0.8515625,0.140625,-0.099609375,-0.015625,0.46484375,-10.296875,1.15625
4084903,,,,,,,,0.265625,-0.7890625,-0.8984375,0.14453125,-0.068359375,0.0,0.578125,-10.23046875,1.1171875
4084904,,,,,,,,0.23046875,-0.25,-0.890625,0.142578125,0.060546875,0.029296875,0.54296875,-9.6875,1.15625
4084905,,,,,,,,-0.18359375,0.31640625,-1.09765625,0.140625,0.224609375,0.013671875,0.12109375,-9.109375,0.96484375
4084906,,,,,,,,-0.40625,0.31640625,-0.9921875,0.142578125,0.26953125,0.001953125,-0.109375,-9.11328125,1.078125
4084907,,,,,,,,-0.62890625,-1.140625,-1.23828125,0.138671875,0.349609375,0.01171875,-0.33984375,-10.5703125,0.84765625
4084908,,,,,,,,-0.27734375,-2.7578125,-1.09765625,0.119140625,0.435546875,-0.001953125,0.00390625,-12.18359375,1.00390625
4084909,,,,,,,,0.3359375,-3.90625,-0.33203125,0.115234375,0.498046875,-0.017578125,0.6171875,-13.33203125,1.76953125
4084910,36.01255583333333,129.31938916666667,71.14289619708823,17.29143505514638,1.1,47.0,,1.26953125,-4.09765625,0.9609375,0.041015625,-0.2109375,0.02734375,1.53515625,-13.515625,3.0703125
4084911,,,,,,,,2.16015625,-4.05859375,1.4921875,0.01953125,0.9609375,-0.208984375,2.41796875,-13.4765625,3.609375
4084912,,,,,,,,2.57421875,-5.015625,1.18359375,-0.0078125,1.107421875,-0.333984375,2.83984375,-14.4375,3.30078125
4084913,,,,,,,,2.87890625,-4.41015625,1.64453125,0.005859375,1.09375,-0.37890625,3.14453125,-13.8203125,3.76171875
4084914,,,,,,,,3.62890625,-2.45703125,2.01953125,0.0234375,0.880859375,-0.365234375,3.91015625,-11.87109375,4.14453125
4084915,,,,,,,,3.421875,-2.2265625,2.0859375,0.03125,0.68359375,-0.236328125,3.71875,-11.64453125,4.21875
4084916,,,,,,,,1.80859375,-2.6875,2.26953125,0.06640625,0.544921875,-0.19921875,2.11328125,-12.10546875,4.41015625
4084917,,,,,,,,0.06640625,-3.60546875,2.33984375,0.130859375,0.05078125,-0.138671875,0.38671875,-13.015625,4.48828125
4084918,,,,,,,,0.01953125,-3.72265625,2.1015625,0.13671875,-0.0234375,-0.10546875,0.34765625,-13.13671875,4.2578125
4084919,,,,,,,,0.7421875,-3.30859375,1.62890625,0.138671875,-0.123046875,-0.060546875,1.078125,-12.7109375,3.80078125
4084920,36.012556333333336,129.31939033333336,71.24807004185398,17.346915525109463,1.2000000000000002,51.0,,1.30859375,-2.48828125,1.84765625,0.041015625,-0.2109375,0.02734375,1.53515625,-13.515625,3.0703125
4084921,,,,,,,,1.67578125,-1.578125,1.421875,0.0,-0.310546875,-0.15234375,2.03515625,-10.99609375,3.609375
4084922,,,,,,,,1.4140625,-0.92578125,0.69921875,-0.0546875,-0.33984375,-0.19140625,1.8046875,-10.33984375,2.87890625
4084923,,,,,,,,1.12109375,-0.7265625,0.40234375,-0.109375,-0.365234375,-0.1640625,1.53515625,-10.15234375,2.57421875
4084924,,,,,,,,0.9765625,-0.8046875,0.1484375,-0.1796875,-0.384765625,-0.107421875,1.421875,-10.23046875,2.3046875
4084925,,,,,,,,0.84765625,-0.671875,0.0859375,-0.22265625,-0.318359375,-0.087890625,1.30859375,-10.109375,2.2265625
4084926,,,,,,,,0.68359375,-0.39453125,-0.01953125,-0.240234375,-0.2578125,-0.09375,1.15234375,-9.8359375,2.11328125
4084927,,,,,,,,0.40234375,0.33203125,-0.2578125,-0.265625,-0.1328125,-0.158203125,0.88671875,-9.11328125,1.84375
4084928,,,,,,,,0.37109375,0.80859375,-0.484375,-0.279296875,-0.017578125,-0.2109375,0.88671875,-8.65234375,1.578125
4084929,,,,,,,,0.23828125,1.3125,-0.69140625,-0.283203125,-0.017578125,-0.189453125,0.76953125,-8.15625,1.34765625
4084930,36.01255666666667,129.319391,71.30816933553245,17.383902423930667,1.1,54.0,,0.1796875,1.88671875,-0.8984375,-0.275390625,-0.04296875,-0.177734375,0.734375,-7.578125,1.1171875
4084931,,,,,,,,0.30859375,2.2109375,-0.8671875,-0.27734375,-0.052734375,-0.1875,0.88671875,-7.27734375,1.1171875
4084932,,,,,,,,0.484375,2.62890625,-1.07421875,-0.294921875,-0.048828125,-0.171875,1.078125,-6.8515625,0.88671875
4084933,,,,,,,,0.58203125,2.8671875,-1.1171875,-0.3125,-0.044921875,-0.140625,1.19140625,-6.62890625,0.8125
4084934,,,,,,,,0.7578125,3.14453125,-1.2421875,-0.333984375,-0.044921875,-0.103515625,1.3828125,-6.35546875,0.65625
4084935,,,,,,,,0.89453125,3.49609375,-1.38671875,-0.333984375,-0.056640625,-0.072265625,1.53515625,-6.0078125,0.46484375
4084936,,,,,,,,0.96484375,3.46484375,-1.390625,-0.328125,-0.072265625,-0.048828125,1.61328125,-6.046875,0.4296875
4084937,,,,,,,,1.1484375,3.20703125,-1.4765625,-0.30078125,-0.0859375,-0.048828125,1.8046875,-6.31640625,0.3125
4084938,,,,,,,,1.02734375,2.9375,-1.4140625,-0.275390625,-0.08984375,-0.060546875,1.69140625,-6.58984375,0.3515625
4084939,,,,,,,,0.86328125,2.71484375,-1.3515625,-0.25,-0.11328125,-0.076171875,1.4609375,-6.9296875,0.390625
4084940,36.01255716666667,129.3193916666667,71.3682684806913,17.439382527893216,1.0,55.0,,0.1796875,1.88671875,-0.8984375,-0.275390625,-0.04296875,-0.177734375,1.3828125,-7.12109375,0.58203125
4084941,,,,,,,,0.6875,2.41015625,-1.06640625,-0.203125,-0.126953125,0.0,1.3828125,-7.1171875,0.65625
4084942,,,,,,,,0.71875,2.41015625,-0.96875,-0.1875,-0.1640625,0.056640625,1.421875,-7.1171875,0.6953125
4084943,,,,,,,,0.7578125,2.33984375,-1.06640625,-0.162109375,-0.19921875,0.11328125,1.4609375,-7.1953125,0.58203125
4084944,,,,,,,,0.95703125,1.95703125,-1.28125,-0.154296875,-0.248046875,0.169921875,1.65234375,-7.58203125,0.3515625
4084945,,,,,,,,0.88671875,1.61328125,-1.21875,-0.14453125,-0.294921875,0.205078125,1.57421875,-7.921875,0.390625
4084946,,,,,,,,0.86328125,1.4296875,-1.203125,-0.1484375,-0.306640625,0.21875,1.53515625,-8.12109375,0.390625
4084947,,,,,,,,0.65234375,0.546875,-0.8515625,-0.13671875,-0.310546875,0.234375,1.30859375,-9.00390625,0.734375
4084948,,,,,,,,0.55859375,0.01171875,-0.4375,-0.12109375,-0.283203125,0.259765625,1.19140625,-9.53515625,1.1171875
4084949,,,,,,,,0.5,-0.2109375,-0.23046875,-0.107421875,-0.255859375,0.275390625,1.1171875,-9.765625,1.30859375
4084950,36.012557666666666,129.31939233333333,71.4283676223128,17.494862633205287,1.0,51.0,,0.25390625,-0.36328125,-0.09765625,-0.099609375,-0.220703125,0.27734375,0.80859375,-9.9140625,1.42578125
4084951,,,,,,,,0.31640625,-0.5546875,0.0234375,-0.0859375,-0.2109375,0.267578125,0.88671875,-10.11328125,1.5390625
4084952,,,,,,,,0.37109375,-0.59375,-0.0078125,-0.0859375,-0.23046875,0.259765625,0.92578125,-10.1484375,1.5
4084953,,,,,,,,0.30859375,-0.8984375,0.0859375,-0.08984375,-0.255859375,0.232421875,0.84765625,-10.45703125,1.578125
4084954,,,,,,,,0.25390625,-0.96875,-0.08984375,-0.09375,-0.259765625,0.15234375,0.76953125,-10.53515625,1.38671875
4084955,,,,,,,,0.2265625,-1.0546875,-0.34375,-0.08984375,-0.248046875,0.11328125,0.734375,-10.609375,1.1171875
4084956,,,,,,,,0.234375,-1.12109375,-0.4140625,-0.095703125,-0.220703125,0.08203125,0.734375,-10.68359375,1.0390625
4084957,,,,,,,,0.1875,-1.2734375,-0.328125,-0.09375,-0.173828125,0.041015625,0.6953125,-10.83984375,1.1171875
4084958,,,,,,,,0.33984375,-0.77734375,0.0234375,-0.08984375,-0.107421875,-0.009765625,0.84765625,-10.33984375,1.4609375
4084959,,,,,,,,0.4453125,-0.47265625,0.078125,-0.083984375,-0.0625,-0.037109375,0.9609375,-10.03125,1.5
4084960,36.01255833333333,129.31939333333332,71.51851640956242,17.56883618903066,1.0,49.0,,1.05859375,-0.01171875,-0.21875,-0.08203125,0.056640625,-0.091796875,1.57421875,-9.57421875,1.1953125
4084961,,,,,,,,1.46484375,-0.43359375,-0.328125,-0.0703125,0.16015625,-0.146484375,1.99609375,-9.9921875,1.078125
4084962,,,,,,,,1.6484375,-2.234375,-0.171875,-0.064453125,0.220703125,-0.17578125,2.1875,-11.80078125,1.234375
4084963,,,,,,,,1.08203125,-4.30078125,-0.00390625,-0.05859375,0.302734375,-0.189453125,1.65234375,-13.86328125,1.38671875
4084964,,,,,,,,0.30859375,-4.26171875,0.9140625,-0.0546875,0.48046875,-0.1875,0.88671875,-13.82421875,2.3046875
4084965,,,,,,,,-1.0390625,-2.5,2.02734375,-0.05078125,0.705078125,-0.134765625,-0.453125,-12.06640625,3.41796875
4084966,,,,,,,,-1.26953125,-2.30859375,2.1015625,-0.046875,0.798828125,-0.107421875,-0.68359375,-11.87109375,3.4921875
4084967,,,,,,,,-1.30859375,-2.6171875,2.0625,-0.0234375,0.890625,-0.099609375,-0.72265625,-12.1796875,3.453125
4084968,,,,,,,,-1.69140625,-1.765625,2.9453125,0.01953125,0.79296875,-0.052734375,-1.10546875,-11.33984375,4.3359375
4084969,,,,,,,,-1.8359375,-1.7734375,3.3515625,0.044921875,0.51171875,0.09765625,-1.2578125,-11.3359375,4.7578125
4084970,36.01255916666666,129.31939416666668,71.59364015125279,17.6613028284994,1.2000000000000002,45.0,,-1.140625,-2.00390625,3.11328125,-0.08203125,0.056640625,-0.091796875,-0.5703125,-11.56640625,4.52734375
4084971,,,,,,,,-0.2578125,-2.04296875,2.9609375,0.001953125,0.42578125,-0.115234375,0.3125,-11.6015625,4.375
4084972,,,,,,,,0.390625,-2.1171875,2.9609375,-0.017578125,0.14453125,-0.01953125,0.9609375,-11.6796875,4.375
4084973,,,,,,,,0.69140625,-2.0703125,2.546875,-0.04296875,-0.064453125,-0.04296875,1.26953125,-11.640625,3.953125
4084974,,,,,,,,0.29296875,-1.91796875,2.39453125,-0.029296875,-0.130859375,-0.078125,0.88671875,-11.48828125,3.80078125
4084975,,,,,,,,-0.703125,-1.57421875,2.35546875,0.017578125,-0.197265625,0.03125,-0.109375,-11.140625,3.76171875
4084976,,,,,,,,-1.33984375,-1.15234375,2.078125,0.060546875,-0.23828125,0.224609375,-0.76171875,-10.72265625,3.4921875
4084977,,,,,,,,-1.015625,-0.83203125,1.6875,0.115234375,-0.20703125,0.232421875,-0.453125,-10.4140625,3.109375
4084978,,,,,,,,-0.78125,-0.90625,1.609375,0.1484375,-0.21484375,0.2265625,-0.2265625,-10.49609375,3.03125
4084979,,,,,,,,-0.42578125,-0.80078125,1.28125,0.20703125,-0.21875,0.173828125,0.12109375,-10.37890625,2.7265625
4084980,36.01256,129.31939516666668,71.68378878641452,17.753769592200605,1.2000000000000002,45.0,,-1.140625,-2.00390625,3.11328125,0.2578125,-0.140625,0.0703125,0.2734375,-10.11328125,2.57421875
4084981,,,,,,,,-0.09765625,-0.0703125,0.890625,0.24609375,-0.0625,0.0625,0.50390625,-9.453125,2.3046875
4084982,,,,,,,,0.09375,0.3125,0.63671875,0.236328125,-0.021484375,0.08203125,0.65625,-9.07421875,2.03515625
4084983,,,,,,,,0.25390625,0.84765625,0.22265625,0.224609375,-0.03125,0.09765625,0.84765625,-8.50390625,1.73046875
4084984,,,,,,,,0.453125,1.34375,-0.03125,0.220703125,-0.05078125,0.123046875,0.9609375,-8.23828125,1.5390625
4084985,,,,,,,,0.5,1.64453125,-0.16796875,0.224609375,-0.0625,0.14453125,1.0,-7.73828125,1.38671875
4084986,,,,,,,,0.5078125,1.98828125,-0.25390625,0.2265625,-0.056640625,0.150390625,1.0,-7.58203125,1.34765625
4084987,,,,,,,,0.44921875,2.33203125,-0.3984375,0.2421875,-0.060546875,0.150390625,0.92578125,-7.234375,1.234375
4084988,,,,,,,,0.265625,2.80078125,-0.53125,0.26171875,-0.046875,0.15234375,0.734375,-6.7734375,1.1171875
4084989,,,,,,,,-0.01953125,3.13671875,-0.68359375,0.28125,-0.05859375,0.158203125,0.42578125,-6.43359375,1.00390625
4084990,36.012560666666666,129.31939599999998,71.75891266889458,17.827743027682047,1.2000000000000002,46.0,,-0.31640625,3.28515625,-0.79296875,0.2578125,-0.140625,0.0703125,0.2734375,-10.11328125,2.57421875
4084991,,,,,,,,-0.53125,3.359375,-0.91015625,0.3125,-0.080078125,0.171875,-0.109375,-6.20703125,0.84765625
4084992,,,,,,,,-0.66796875,3.28515625,-0.96875,0.314453125,-0.095703125,0.16796875,-0.26171875,-6.27734375,0.8125
4084993,,,,,,,,-0.69921875,3.23828125,-0.984375,0.310546875,-0.103515625,0.169921875,-0.30078125,-6.31640625,0.8125
4084994,,,,,,,,-0.9140625,3.15234375,-1.1328125,0.296875,-0.103515625,0.171875,-0.53125,-6.390625,0.6953125
4084995,,,,,,,,-1.05078125,3.0703125,-1.1796875,0.26171875,-0.115234375,0.1796875,-0.68359375,-6.47265625,0.6953125
4084996,,,,,,,,-1.03515625,2.83203125,-1.27734375,0.224609375,-0.10546875,0.18359375,-0.68359375,-6.69921875,0.62109375
4084997,,,,,,,,-0.9453125,2.41015625,-1.41015625,0.18359375,-0.1171875,0.18359375,-0.609375,-7.1171875,0.50390625
4084998,,,,,,,,-0.8984375,2.29296875,-1.45703125,0.1640625,-0.12109375,0.181640625,-0.5703125,-7.23828125,0.46484375
4084999,,,,,,,,-0.8359375,1.8203125,-1.40234375,0.111328125,-0.111328125,0.146484375,-0.53125,-7.69921875,0.54296875
4085000,36.012561166666664,129.31939633333334,71.78896201506109,17.883222890683456,1.0,44.0,0.0,-0.67578125,1.4375,-1.140625,0.2578125,-0.140625,0.0703125,0.2734375,-10.11328125,2.57421875
4085001,,,,,,,,-0.4375,1.3203125,-1.06640625,0.04296875,-0.041015625,0.09375,-0.1484375,-8.1953125,0.88671875
4085002,,,,,,,,-0.16015625,1.12890625,-1.1796875,0.013671875,0.0,0.0546875,0.12109375,-8.3828125,0.7734375
4085003,,,,,,,,-0.0390625,0.69921875,-1.2578125,-0.01171875,0.017578125,0.001953125,0.234375,-8.80859375,0.6953125
4085004,,,,,,,,-0.0859375,0.31640625,-1.1796875,-0.025390625,0.0,-0.064453125,0.1953125,-9.1875,0.7734375
4085005,,,,,,,,-0.015625,-0.06640625,-1.02734375,-0.029296875,-0.0234375,-0.10546875,0.2734375,-9.57421875,0.92578125
4085006,,,,,,,,0.015625,-0.296875,-0.90625,-0.029296875,-0.044921875,-0.119140625,0.3125,-9.80859375,1.0390625
4085007,,,,,,,,0.0,-0.45703125,-0.8671875,-0.0234375,-0.041015625,-0.12890625,0.3125,-9.95703125,1.078125
4085008,,,,,,,,0.10546875,-0.5703125,-0.8671875,-0.013671875,-0.0390625,-0.140625,0.42578125,-10.07421875,1.078125
4085009,,,,,,,,0.16015625,-0.76171875,-1.01171875,0.0,-0.064453125,-0.1640625,0.50390625,-10.26171875,0.92578125
4085010,36.01256183333333,129.3193975,71.8941356952948,17.95719657293998,1.0,46.0,,0.296875,-0.6953125,-0.93359375,0.2578125,-0.140625,0.0703125,0.2734375,-10.11328125,2.57421875
4085011,,,,,,,,0.2734375,-0.734375,-0.90625,0.02734375,-0.115234375,-0.1796875,0.65625,-10.23046875,1.0390625
4085012,,,,,,,,0.2578125,-1.125,-0.94140625,0.037109375,-0.10546875,-0.162109375,0.65625,-10.61328125,1.00390625
4085013,,,,,,,,0.2421875,-1.19921875,-0.94140625,0.041015625,-0.078125,-0.134765625,0.65625,-10.6796875,1.00390625
4085014,,,,,,,,0.46484375,-1.16015625,-0.8359375,0.037109375,-0.05859375,-0.08203125,0.88671875,-10.640625,1.1171875
4085015,,,,,,,,0.33984375,-0.7109375,-0.7890625,0.03515625,-0.0078125,-0.029296875,0.76953125,-10.19140625,1.15625
4085016,,,,,,,,-0.00390625,-0.2109375,-0.8359375,0.017578125,0.08203125,0.0,0.42578125,-9.69140625,1.1171875
4085017,,,,,,,,-0.80078125,-0.13671875,-0.7578125,0.005859375,0.14453125,0.0625,-0.37890625,-9.61328125,1.1953125
4085018,,,,,,,,-0.9140625,-0.51953125,-0.7578125,0.0,0.1484375,0.091796875,-0.4921875,-9.9921875,1.1953125
4085019,,,,,,,,-0.74609375,-2.05078125,-0.375,0.001953125,0.169921875,0.140625,-0.33984375,-11.52734375,1.578125
4085020,36.012562333333335,129.31939833333334,71.96925972770461,18.012676804724443,1.1,50.0,,-0.26171875,-2.93359375,0.11328125,0.2578125,-0.140625,0.0703125,0.2734375,-10.11328125,2.57421875
4085021,,,,,,,,0.77734375,-3.0859375,0.7734375,0.009765625,0.416015625,0.029296875,1.15234375,-12.5625,2.7265625
4085022,,,,,,,,1.4765625,-3.046875,1.00390625,0.0078125,0.6640625,-0.17578125,1.84375,-12.52734375,2.95703125
4085023,,,,,,,,1.8828125,-4.12109375,0.91796875,-0.00390625,0.783203125,-0.3515625,2.265625,-13.59375,2.87890625
4085024,,,,,,,,2.1640625,-3.58984375,1.68359375,-0.015625,0.70703125,-0.435546875,2.5703125,-13.05859375,3.64453125
4085025,,,,,,,,2.640625,-2.78515625,1.953125,-0.03515625,0.5546875,-0.40625,3.0703125,-12.25,3.9140625
4085026,,,,,,,,2.4921875,-2.90234375,2.44921875,-0.041015625,0.546875,-0.333984375,2.953125,-12.37109375,4.41015625
4085027,,,,,,,,1.3671875,-3.24609375,2.71875,-0.01953125,0.50390625,-0.29296875,1.84375,-12.71484375,4.6796875
4085028,,,,,,,,-0.14453125,-3.66015625,2.7578125,0.001953125,0.169921875,-0.208984375,0.34765625,-13.13671875,4.71875
4085029,,,,,,,,-0.08984375,-3.46875,1.9921875,0.0078125,0.009765625,-0.18359375,0.42578125,-12.94921875,3.953125
4085030,36.012563,129.3193995,72.07443340427061,18.086650488347754,1.2000000000000002,51.0,,0.8125,-2.328125,1.26171875,0.029296875,-0.13671875,-0.1875,1.34375,-11.80078125,3.22265625
4085031,,,,,,,,1.328125,-1.62109375,1.1796875,0.009765625,-0.2890625,-0.22265625,1.8828125,-11.10546875,3.1484375
4085032,,,,,,,,1.52734375,-1.0078125,0.95703125,-0.029296875,-0.3984375,-0.314453125,2.11328125,-10.4921875,2.91796875
4085033,,,,,,,,1.3203125,-0.93359375,0.95703125,-0.04296875,-0.435546875,-0.3515625,1.921875,-10.41796875,2.91796875
4085034,,,,,,,,0.84375,-0.78515625,0.8515625,-0.09375,-0.4921875,-0.357421875,1.5,-10.26171875,2.8046875
4085035,,,,,,,,0.51171875,-0.7421875,0.64453125,-0.205078125,-0.498046875,-0.27734375,1.23046875,-10.23046875,2.57421875
4085036,,,,,,,,0.44140625,-0.50390625,0.40625,-0.2734375,-0.365234375,-0.2265625,1.19140625,-9.9921875,2.3046875
4085037,,,,,,,,0.1875,0.04296875,0.16015625,-0.3046875,-0.267578125,-0.18359375,0.9609375,-9.453125,2.03515625
4085038,,,,,,,,0.05859375,0.5078125,0.0625,-0.326171875,-0.23046875,-0.189453125,0.84765625,-9.00390625,1.921875
4085039,,,,,,,,-0.01171875,0.96875,-0.04296875,-0.349609375,-0.18359375,-0.19140625,0.80859375,-8.54296875,1.76953125
4085040,36.012563500000006,129.3194005,72.16458233375768,18.142130846521148,1.2000000000000002,53.0,,-0.08203125,1.59765625,-0.234375,-0.341796875,-0.197265625,-0.146484375,1.34375,-11.80078125,3.22265625
4085041,,,,,,,,-0.05859375,2.09375,-0.35546875,-0.337890625,-0.224609375,-0.1171875,0.80859375,-7.43359375,1.38671875
4085042,,,,,,,,-0.11328125,2.44921875,-0.40234375,-0.330078125,-0.248046875,-0.10546875,0.76953125,-7.078125,1.30859375
4085043,,,,,,,,-0.00390625,2.9140625,-0.41015625,-0.32421875,-0.25,-0.095703125,0.88671875,-6.625,1.26953125
4085044,,,,,,,,0.01953125,3.26953125,-0.4921875,-0.330078125,-0.248046875,-0.06640625,0.92578125,-6.2734375,1.15625
4085045,,,,,,,,0.23828125,3.50390625,-0.4921875,-0.337890625,-0.248046875,-0.013671875,1.15234375,-6.046875,1.1171875
4085046,,,,,,,,0.30859375,3.50390625,-0.515625,-0.3359375,-0.248046875,0.005859375,1.23046875,-6.05078125,1.078125
4085047,,,,,,,,0.5703125,3.4765625,-0.63671875,-0.33984375,-0.251953125,0.0390625,1.5,-6.08984375,0.92578125
4085048,,,,,,,,0.65234375,3.29296875,-0.64453125,-0.318359375,-0.232421875,0.04296875,1.57421875,-6.2734375,0.88671875
4085049,,,,,,,,0.65234375,3.1015625,-0.7265625,-0.287109375,-0.220703125,0.01953125,1.57421875,-6.46875,0.7734375
4085050,36.01256416666667,129.31940116666667,72.22468131425408,18.216104162794384,1.2000000000000002,53.0,,0.64453125,2.9140625,-0.7734375,-0.341796875,-0.197265625,-0.146484375,1.34375,-11.80078125,3.22265625
4085051,,,,,,,,0.59765625,2.6484375,-0.7890625,-0.212890625,-0.17578125,-0.064453125,1.53515625,-6.9296875,0.65625
4085052,,,,,,,,0.57421875,2.3046875,-0.6015625,-0.142578125,-0.169921875,-0.056640625,1.53515625,-7.27734375,0.8125
4085053,,,,,,,,0.5390625,2.2265625,-0.55859375,-0.125,-0.166015625,-0.048828125,1.5,-7.3515625,0.84765625
4085054,,,,,,,,0.53125,2.07421875,-0.47265625,-0.078125,-0.158203125,-0.0234375,1.5,-7.5,0.92578125
4085055,,,,,,,,0.375,1.94921875,-0.50390625,-0.0390625,-0.15234375,0.0234375,1.34375,-7.62109375,0.88671875
4085056,,,,,,,,0.3828125,1.7578125,-0.6171875,-0.0078125,-0.162109375,0.0859375,1.34375,-7.81640625,0.7734375
4085057,,,,,,,,0.5,1.30078125,-0.54296875,0.025390625,-0.193359375,0.1796875,1.4609375,-8.26953125,0.84765625
4085058,,,,,,,,0.546875,1.14453125,-0.49609375,0.02734375,-0.20703125,0.20703125,1.5,-8.42578125,0.88671875
4085059,,,,,,,,0.578125,0.80078125,-0.3515625,0.052734375,-0.2421875,0.25390625,1.5,-8.765625,1.0390625
4085060,36.01256466666667,129.319402,72.29980534476655,18.27158439646317,1.2000000000000002,51.0,,0.484375,0.578125,-0.08203125,0.060546875,-0.220703125,0.259765625,1.34375,-11.80078125,3.22265625
4085061,,,,,,,,0.38671875,0.3046875,0.0703125,0.052734375,-0.197265625,0.27734375,1.26953125,-9.265625,1.4609375
4085062,,,,,,,,0.33203125,-0.00390625,0.1796875,0.052734375,-0.1953125,0.322265625,1.19140625,-9.5703125,1.578125
4085063,,,,,,,,0.36328125,-0.1953125,0.171875,0.046875,-0.189453125,0.36328125,1.19140625,-9.76953125,1.578125
4085064,,,,,,,,0.37109375,-0.42578125,0.2109375,0.01171875,-0.150390625,0.3671875,1.15234375,-9.9921875,1.6171875
4085065,,,,,,,,0.52734375,-0.84765625,0.41015625,-0.029296875,-0.109375,0.326171875,1.26953125,-10.4140625,1.80859375
4085066,,,,,,,,0.671875,-1.03125,0.4453125,-0.04296875,-0.080078125,0.30078125,1.3828125,-10.609375,1.84375
4085067,,,,,,,,0.58203125,-1.14453125,0.26171875,-0.052734375,-0.04296875,0.265625,1.26953125,-10.71875,1.65234375
4085068,,,,,,,,0.48828125,-1.06640625,0.1953125,-0.0625,-0.005859375,0.244140625,1.15234375,-10.64453125,1.578125
4085069,,,,,,,,0.19921875,-0.609375,0.1171875,-0.06640625,0.0390625,0.208984375,0.84765625,-10.1875,1.5
4085070,36.012565333333335,129.319403,72.3899541187588,18.345557961207984,1.3,48.0,,0.109375,-0.15625,0.05078125,-0.072265625,0.0859375,0.17578125,0.734375,-9.73046875,1.42578125
4085071,,,,,,,,0.27734375,0.53125,0.1328125,-0.060546875,0.1484375,0.1328125,0.88671875,-9.0390625,1.5
4085072,,,,,,,,0.59765625,0.6953125,0.1015625,-0.048828125,0.203125,0.111328125,1.19140625,-8.8828125,1.4609375
4085073,,,,,,,,1.13671875,-0.53125,-0.1328125,-0.048828125,0.2578125,0.09375,1.73046875,-10.11328125,1.234375
4085074,,,,,,,,1.37890625,-2.140625,-0.546875,-0.05078125,0.3359375,0.078125,1.95703125,-11.72265625,0.8125
4085075,,,,,,,,0.8125,-3.3671875,-0.42578125,-0.068359375,0.453125,0.05859375,1.3828125,-12.9453125,0.92578125
4085076,,,,,,,,0.32421875,-2.984375,0.1015625,-0.076171875,0.53515625,0.02734375,0.88671875,-12.56640625,1.4609375
4085077,,,,,,,,-1.35546875,-1.4140625,1.48828125,-0.1015625,0.771484375,-0.08203125,-0.80078125,-10.99609375,2.83984375
4085078,,,,,,,,-1.9375,-1.44921875,2.1953125,-0.119140625,1.013671875,-0.16015625,-1.375,-11.02734375,3.53125
4085079,,,,,,,,-1.74609375,-3.17578125,2.2265625,-0.0234375,1.025390625,-0.009765625,-1.18359375,-12.75,3.5703125
4085080,36.01256616666667,129.31940350000002,72.43502804897841,18.438024361626862,1.3,44.0,,-1.59765625,-3.90234375,2.45703125,0.033203125,0.69921875,0.3359375,-1.10546875,-13.7109375,3.9921875
4085081,,,,,,,,-1.63671875,-4.23828125,2.83203125,-0.064453125,0.673828125,-0.037109375,-1.375,-13.59375,4.60546875
4085082,,,,,,,,-1.8515625,-4.00390625,3.24609375,-0.09765625,0.6484375,-0.1484375,-1.3359375,-13.25,4.60546875
4085083,,,,,,,,-1.58203125,-3.359375,3.21484375,-0.14453125,0.478515625,-0.173828125,-0.76171875,-12.71484375,4.640625
4085084,,,,,,,,-0.87109375,-2.890625,3.18359375,-0.18359375,0.203125,-0.05078125,0.1953125,-12.21484375,4.21875
4085085,,,,,,,,-0.11328125,-2.4296875,2.73828125,-0.208984375,-0.0546875,-0.001953125,0.38671875,-11.83203125,3.8359375
4085086,,,,,,,,-0.10546875,-2.23046875,2.515625,-0.21484375,-0.177734375,0.001953125,0.12109375,-11.484375,3.72265625
4085087,,,,,,,,-0.53515625,-1.7734375,2.45703125,-0.205078125,-0.34375,0.001953125,-0.2265625,-11.22265625,3.875
4085088,,,,,,,,-0.91796875,-1.42578125,2.5546875,-0.15625,-0.421875,0.041015625,-0.41796875,-11.0234375,3.8359375
4085089,,,,,,,,-0.92578125,-1.2265625,2.2265625,-0.14453125,-0.41796875,0.0703125,-0.41796875,-10.83984375,3.4921875
4085090,36.012566666666665,129.31940433333332,72.51015207402187,18.493504597153184,1.3,43.0,,-0.80078125,-1.02734375,2.04296875,-0.08203125,-0.390625,0.107421875,-0.30078125,-10.64453125,3.30078125
4085091,,,,,,,,-0.6875,-0.609375,1.8515625,0.0,-0.375,0.080078125,-0.1875,-10.2265625,3.109375
4085092,,,,,,,,-0.71875,-0.25390625,1.66015625,0.052734375,-0.33984375,0.0234375,-0.2265625,-9.875,2.91796875
4085093,,,,,,,,-0.6484375,0.3203125,1.23046875,0.1015625,-0.283203125,0.005859375,-0.1484375,-9.30859375,2.49609375
4085094,,,,,,,,-0.41796875,0.5859375,0.9921875,0.130859375,-0.232421875,0.005859375,0.08203125,-9.04296875,2.265625
4085095,,,,,,,,-0.1875,1.0859375,0.6328125,0.14453125,-0.1953125,0.001953125,0.3125,-8.54296875,1.921875
4085096,,,,,,,,-0.07421875,1.5078125,0.46484375,0.150390625,-0.171875,0.0,0.42578125,-8.12109375,1.76953125
4085097,,,,,,,,0.02734375,2.04296875,0.25,0.162109375,-0.1484375,0.00390625,0.54296875,-7.58203125,1.578125
4085098,,,,,,,,0.03515625,2.5859375,0.07421875,0.173828125,-0.134765625,0.005859375,0.54296875,-7.05078125,1.42578125
4085099,,,,,,,,-0.00390625,2.80859375,0.01953125,0.203125,-0.10546875,0.0078125,0.42578125,-6.73828125,1.38671875
4085100,36.0125675,129.31940500000002,72.57025089840245,18.585971122465846,1.2000000000000002,42.0,0.0,-0.80078125,-1.02734375,2.04296875,-0.08203125,-0.390625,0.107421875,0.2734375,-6.55078125,1.1953125
4085101,,,,,,,,-0.3125,3.109375,-0.21875,0.244140625,-0.072265625,-0.001953125,0.08203125,-6.46875,1.1171875
4085102,,,,,,,,-0.5859375,3.1015625,-0.3671875,0.25,-0.05859375,-0.01171875,-0.30078125,-6.62890625,1.00390625
4085103,,,,,,,,-1.0078125,2.87109375,-0.47265625,0.248046875,-0.0703125,-0.033203125,-0.4921875,-6.734375,1.00390625
4085104,,,,,,,,-1.0859375,2.83203125,-0.58203125,0.23828125,-0.064453125,-0.037109375,-0.5703125,-6.7734375,0.92578125
4085105,,,,,,,,-1.16796875,2.671875,-0.60546875,0.208984375,-0.068359375,-0.037109375,-0.64453125,-6.93359375,0.92578125
4085106,,,,,,,,-1.16796875,2.6640625,-0.69921875,0.181640625,-0.068359375,-0.048828125,-0.64453125,-6.9296875,0.84765625
4085107,,,,,,,,-1.17578125,2.6953125,-0.7890625,0.150390625,-0.10546875,-0.06640625,-0.64453125,-6.89453125,0.7734375
4085108,,,,,,,,-1.1484375,2.578125,-0.921875,0.115234375,-0.142578125,-0.076171875,-0.609375,-7.0078125,0.65625
4085109,,,,,,,,-1.19140625,2.46484375,-0.8984375,0.068359375,-0.177734375,-0.078125,-0.64453125,-7.1171875,0.6953125
4085110,36.012568333333334,129.31940583333332,72.64537461517364,18.67843777102475,1.2000000000000002,43.0,,-1.24609375,2.3046875,-0.75390625,-0.08203125,-0.390625,0.107421875,0.2734375,-6.55078125,1.1953125
4085111,,,,,,,,-1.30078125,2.1875,-0.75390625,-0.015625,-0.244140625,-0.123046875,-0.72265625,-7.39453125,0.84765625
4085112,,,,,,,,-1.27734375,2.1875,-0.74609375,-0.056640625,-0.2421875,-0.13671875,-0.68359375,-7.390625,0.84765625
4085113,,,,,,,,-1.1796875,2.10546875,-0.9296875,-0.087890625,-0.23828125,-0.173828125,-0.5703125,-7.4609375,0.65625
4085114,,,,,,,,-1.125,2.10546875,-0.99609375,-0.119140625,-0.23828125,-0.21875,-0.4921875,-7.4609375,0.58203125
4085115,,,,,,,,-1.03515625,1.90625,-1.05859375,-0.146484375,-0.248046875,-0.23828125,-0.37890625,-7.66015625,0.50390625
4085116,,,,,,,,-0.7890625,1.453125,-0.96484375,-0.1640625,-0.25390625,-0.23828125,-0.109375,-8.12109375,0.58203125
4085117,,,,,,,,-0.46875,0.984375,-0.69140625,-0.169921875,-0.232421875,-0.248046875,0.234375,-8.578125,0.84765625
4085118,,,,,,,,-0.37890625,0.296875,-0.3984375,-0.16796875,-0.18359375,-0.27734375,0.34765625,-9.26953125,1.1171875
4085119,,,,,,,,-0.4453125,-0.1640625,-0.3046875,-0.146484375,-0.1171875,-0.3125,0.3125,-9.73046875,1.1953125
4085120,36.01256933333333,129.31940699999998,72.75054797210731,18.78939787471577,1.2000000000000002,44.0,,-0.5546875,-0.671875,-0.2890625,-0.1171875,-0.05078125,-0.33984375,0.234375,-10.2265625,1.1953125
4085121,,,,,,,,-0.71484375,-0.9765625,-0.2421875,-0.060546875,0.01953125,-0.357421875,0.12109375,-10.53515625,1.234375
4085122,,,,,,,,-0.74609375,-1.21484375,-0.2421875,-0.017578125,0.05078125,-0.3203125,0.12109375,-10.76171875,1.234375
4085123,,,,,,,,-0.55859375,-1.56640625,-0.28125,0.033203125,0.076171875,-0.25,0.34765625,-11.1015625,1.1953125
4085124,,,,,,,,-0.37890625,-1.7578125,-0.28125,0.04296875,0.076171875,-0.22265625,0.54296875,-11.30078125,1.1953125
4085125,,,,,,,,-0.3125,-1.7265625,-0.17578125,0.0546875,0.095703125,-0.162109375,0.6171875,-11.2578125,1.30859375
4085126,,,,,,,,-0.328125,-1.34375,-0.18359375,0.0625,0.125,-0.1015625,0.6171875,-10.875,1.30859375
4085127,,,,,,,,-0.55859375,-0.85546875,-0.18359375,0.072265625,0.150390625,-0.068359375,0.38671875,-10.37890625,1.30859375
4085128,,,,,,,,-1.0546875,-0.171875,-0.3125,0.083984375,0.181640625,0.001953125,-0.109375,-9.69140625,1.1953125
4085129,,,,,,,,-1.27734375,0.02734375,-0.3203125,0.091796875,0.205078125,0.02734375,-0.33984375,-9.49609375,1.1953125
4085130,36.01257,129.31940816666665,72.85572163272951,18.863371568620504,1.2000000000000002,47.0,,-1.796875,0.29296875,-0.375,-0.1171875,-0.05078125,-0.33984375,0.234375,-10.2265625,1.1953125
4085131,,,,,,,,-2.171875,-0.01171875,-0.96484375,0.177734375,0.20703125,0.09375,-1.2578125,-9.53125,0.58203125
4085132,,,,,,,,-2.04296875,-0.1796875,-1.03515625,0.2265625,0.2890625,0.00390625,-1.14453125,-9.69140625,0.54296875
4085133,,,,,,,,-1.96484375,-0.02734375,-0.859375,0.236328125,0.330078125,-0.041015625,-1.06640625,-9.53125,0.734375
4085134,,,,,,,,-1.66015625,0.1171875,-0.34765625,0.236328125,0.4453125,-0.126953125,-0.76171875,-9.38671875,1.26953125
4085135,,,,,,,,-1.390625,-1.30078125,-0.140625,0.21875,0.6171875,-0.208984375,-0.4921875,-10.796875,1.5
4085136,,,,,,,,-0.01953125,-5.7578125,0.171875,0.18359375,0.763671875,-0.267578125,0.88671875,-15.24609375,1.84375
4085137,,,,,,,,2.33203125,-8.1015625,2.78515625,0.1171875,0.794921875,-0.384765625,3.26171875,-17.578125,4.48828125
4085138,,,,,,,,4.23046875,-6.609375,4.46484375,0.115234375,0.833984375,-0.4375,5.17578125,-16.0859375,6.17578125
4085139,,,,,,,,4.359375,-4.77734375,4.29296875,0.087890625,1.05078125,-0.607421875,5.328125,-14.2421875,6.01953125
4085140,36.012571,129.3194093333333,72.96089498255765,18.97433167564219,1.3,47.0,,1.84765625,-3.29296875,3.34375,-0.1171875,-0.05078125,-0.33984375,0.234375,-10.2265625,1.1953125
4085141,,,,,,,,-0.32421875,-3.796875,3.08203125,0.177734375,0.7265625,-0.8203125,0.76953125,-13.25,4.87109375
4085142,,,,,,,,-0.8359375,-3.58203125,2.5625,0.28125,-0.21484375,-0.369140625,0.3125,-13.015625,4.375
4085143,,,,,,,,-0.32421875,-2.85546875,1.83984375,0.35546875,-0.70703125,-0.06640625,0.84765625,-12.29296875,3.68359375
4085144,,,,,,,,0.25,-1.5234375,1.15625,0.3359375,-0.75,-0.201171875,1.4609375,-10.95703125,3.03125
4085145,,,,,,,,0.36328125,-0.56640625,0.8671875,0.25,-0.76953125,-0.267578125,1.61328125,-9.99609375,2.765625
4085146,,,,,,,,0.38671875,-0.41796875,0.8203125,0.201171875,-0.796875,-0.25,1.65234375,-9.8359375,2.7265625
4085147,,,,,,,,0.5859375,-0.87890625,0.58203125,0.103515625,-0.802734375,-0.10546875,1.8828125,-10.30078125,2.49609375
4085148,,,,,,,,0.609375,-1.421875,0.58203125,0.01953125,-0.642578125,0.01953125,1.921875,-10.83984375,2.49609375
4085149,,,,,,,,0.4453125,-1.30078125,0.58984375,-0.052734375,-0.373046875,0.0234375,1.765625,-10.72265625,2.49609375
4085150,36.012572,129.31941083333334,73.09611812739115,19.085292033570866,1.4000000000000001,51.0,,-0.01953125,-0.3359375,0.40625,-0.083984375,-0.111328125,-0.052734375,1.30859375,-9.76953125,2.3046875
4085151,,,,,,,,-0.328125,0.24609375,0.1171875,-0.109375,0.07421875,-0.119140625,1.0,-9.19140625,2.0
4085152,,,,,,,,-0.7265625,0.9375,-0.2578125,-0.107421875,0.1171875,-0.130859375,0.6171875,-8.50390625,1.6171875
4085153,,,,,,,,-0.734375,1.08984375,-0.3359375,-0.109375,0.091796875,-0.10546875,0.6171875,-8.34765625,1.5390625
4085154,,,,,,,,-0.7734375,1.48046875,-0.48828125,-0.111328125,0.005859375,-0.033203125,0.578125,-7.96484375,1.38671875
4085155,,,,,,,,-0.6171875,1.82421875,-0.58984375,-0.130859375,-0.015625,-0.009765625,0.734375,-7.6171875,1.26953125
4085156,,,,,,,,-0.42578125,2.1328125,-0.6875,-0.1640625,0.009765625,0.0078125,0.92578125,-7.31640625,1.15625
4085157,,,,,,,,-0.2265625,2.63671875,-0.796875,-0.189453125,0.05078125,0.046875,1.1171875,-6.81640625,1.0390625
4085158,,,,,,,,-0.11328125,2.8671875,-0.90234375,-0.205078125,0.056640625,0.072265625,1.23046875,-6.5859375,0.92578125
4085159,,,,,,,,-0.06640625,3.18359375,-0.91796875,-0.2265625,0.04296875,0.125,1.26953125,-6.27734375,0.88671875
4085160,36.01257283333334,129.31941166666667,73.1712418345041,19.17775868768311,1.2000000000000002,51.0,,0.140625,3.53515625,-1.046875,-0.083984375,-0.111328125,-0.052734375,1.30859375,-9.76953125,2.3046875
4085161,,,,,,,,0.32421875,3.65625,-1.1015625,-0.212890625,-0.083984375,0.1953125,1.61328125,-5.8203125,0.65625
4085162,,,,,,,,0.41796875,3.58984375,-1.23046875,-0.18359375,-0.130859375,0.1953125,1.69140625,-5.890625,0.50390625
4085163,,,,,,,,0.42578125,3.59765625,-1.26953125,-0.166015625,-0.13671875,0.197265625,1.69140625,-5.890625,0.46484375
4085164,,,,,,,,0.40234375,3.48046875,-1.20703125,-0.138671875,-0.1484375,0.1640625,1.65234375,-6.0078125,0.50390625
4085165,,,,,,,,0.1875,3.4140625,-1.3046875,-0.0859375,-0.17578125,0.158203125,1.421875,-6.0859375,0.390625
4085166,,,,,,,,0.125,3.375,-1.296875,-0.052734375,-0.205078125,0.18359375,1.34375,-6.12890625,0.390625
4085167,,,,,,,,0.06640625,3.19140625,-1.2890625,-0.025390625,-0.22265625,0.2421875,1.26953125,-6.31640625,0.390625
4085168,,,,,,,,-0.00390625,3.06640625,-1.328125,-0.015625,-0.2421875,0.2734375,1.19140625,-6.4296875,0.3515625
4085169,,,,,,,,0.02734375,2.38671875,-1.21484375,0.0078125,-0.259765625,0.34375,1.19140625,-7.1171875,0.46484375
4085170,36.01257366666667,129.31941266666666,73.26139043744888,19.27022546696899,1.2000000000000002,50.0,,0.140625,3.53515625,-1.046875,0.025390625,-0.265625,0.4375,1.23046875,-7.4609375,0.50390625
4085171,,,,,,,,0.16796875,1.55078125,-1.16796875,0.017578125,-0.2578125,0.478515625,1.23046875,-8.1953125,0.58203125
4085172,,,,,,,,0.21484375,0.86328125,-1.015625,0.017578125,-0.2421875,0.5078125,1.26953125,-8.6484375,0.65625
4085173,,,,,,,,0.22265625,0.36328125,-0.83203125,0.013671875,-0.22265625,0.529296875,1.23046875,-9.1484375,0.84765625
4085174,,,,,,,,0.03125,-0.171875,-0.4296875,0.01953125,-0.189453125,0.5390625,1.0,-9.69140625,1.234375
4085175,,,,,,,,-0.3125,-0.48046875,0.05859375,0.025390625,-0.14453125,0.52734375,0.578125,-9.99609375,1.73046875
4085176,,,,,,,,-0.48046875,-0.51953125,0.328125,0.0234375,-0.12890625,0.52734375,0.38671875,-10.03515625,2.0
4085177,,,,,,,,-0.31640625,-0.546875,0.25,0.03125,-0.09765625,0.541015625,0.50390625,-10.07421875,1.921875
4085178,,,,,,,,0.2734375,-1.0,-0.32421875,0.03515625,-0.08203125,0.544921875,1.0390625,-10.53515625,1.34765625
4085179,,,,,,,,0.28125,-1.3046875,-0.37109375,0.04296875,-0.095703125,0.431640625,1.0,-10.8359375,1.30859375
4085180,36.012574666666666,129.31941383333333,73.36656377942003,19.38118557754661,1.2000000000000002,47.0,,-0.03125,-1.54296875,-0.33984375,0.025390625,-0.265625,0.4375,0.65625,-11.06640625,1.34765625
4085181,,,,,,,,-0.24609375,-1.46875,-0.33984375,0.025390625,-0.060546875,0.115234375,0.42578125,-10.99609375,1.34765625
4085182,,,,,,,,-0.31640625,-1.046875,-0.5234375,-0.01171875,0.037109375,0.0703125,0.34765625,-10.5703125,1.15625
4085183,,,,,,,,-0.23046875,-0.9296875,-0.5234375,-0.0234375,0.072265625,0.068359375,0.42578125,-10.453125,1.15625
4085184,,,,,,,,0.0,-0.89453125,-0.5234375,-0.04296875,0.125,0.025390625,0.65625,-10.4140625,1.15625
4085185,,,,,,,,0.4296875,-1.7265625,-0.24609375,-0.0703125,0.16796875,-0.04296875,1.078125,-11.2578125,1.42578125
4085186,,,,,,,,0.65234375,-3.91015625,-0.35546875,-0.107421875,0.27734375,-0.107421875,1.30859375,-13.44140625,1.30859375
4085187,,,,,,,,-0.078125,-4.41015625,0.46484375,-0.146484375,0.408203125,-0.111328125,0.578125,-13.94140625,2.11328125
4085188,,,,,,,,-0.57421875,-3.71875,1.1640625,-0.158203125,0.49609375,-0.119140625,0.08203125,-13.25390625,2.8046875
4085189,,,,,,,,-1.6953125,-2.76171875,1.515625,-0.189453125,0.69140625,-0.138671875,-1.03125,-12.29296875,3.1484375
4085190,36.01257566666666,129.31941483333333,73.45671222343213,19.49214556461447,1.4000000000000001,44.0,,-1.84765625,-3.48828125,1.53125,0.025390625,-0.265625,0.4375,-1.18359375,-13.015625,3.1484375
4085191,,,,,,,,-2.23046875,-2.44921875,2.390625,-0.177734375,0.80078125,-0.154296875,-1.56640625,-11.984375,3.9921875
4085192,,,,,,,,-2.65234375,-1.875,2.97265625,-0.154296875,0.517578125,-0.060546875,-1.98828125,-11.41796875,4.56640625
4085193,,,,,,,,-1.88671875,-2.2109375,2.6328125,-0.19921875,0.57421875,-0.203125,-1.22265625,-11.76171875,4.21875
4085194,,,,,,,,0.08984375,-2.74609375,2.83984375,-0.2109375,0.5625,-0.248046875,0.76953125,-12.2890625,4.41015625
4085195,,,,,,,,0.95703125,-2.66796875,2.703125,-0.216796875,0.185546875,-0.150390625,1.65234375,-12.2109375,4.2578125
4085196,,,,,,,,0.98046875,-2.28515625,2.3046875,-0.232421875,0.017578125,-0.25,1.69140625,-11.83203125,3.8359375
4085197,,,,,,,,0.49609375,-1.8203125,2.24609375,-0.17578125,0.01171875,-0.3203125,1.23046875,-11.37890625,3.76171875
4085198,,,,,,,,-0.71484375,-1.20703125,1.79296875,-0.099609375,-0.107421875,-0.16796875,0.04296875,-10.7578125,3.30078125
4085199,,,,,,,,-1.19140625,-0.890625,1.80078125,-0.033203125,-0.21875,0.0078125,-0.41796875,-10.45703125,3.30078125
4085200,36.01257666666667,129.31941566666669,73.5318357715815,19.603105427893656,1.4000000000000001,43.0,0.0,-1.14453125,-0.65625,1.83984375,0.025390625,-0.265625,0.4375,-0.37890625,-10.23046875,3.33984375
4085201,,,,,,,,-0.63671875,-0.81640625,1.5703125,0.119140625,-0.220703125,0.11328125,0.12109375,-10.37890625,3.0703125
4085202,,,,,,,,-0.4296875,-0.6171875,1.203125,0.203125,-0.2109375,0.10546875,0.3125,-10.1875,2.7265625
4085203,,,,,,,,-0.31640625,-0.43359375,0.91015625,0.26171875,-0.1328125,0.060546875,0.42578125,-9.9921875,2.45703125
4085204,,,,,,,,-0.078125,-0.04296875,0.7265625,0.27734375,-0.046875,0.037109375,0.65625,-9.61328125,2.3046875
4085205,,,,,,,,0.12109375,0.33203125,0.43359375,0.2734375,0.01953125,0.0625,0.84765625,-9.2265625,2.03515625
4085206,,,,,,,,0.12109375,0.5234375,0.265625,0.265625,0.02734375,0.083984375,0.84765625,-9.0390625,1.8828125
4085207,,,,,,,,0.17578125,1.1015625,-0.0390625,0.251953125,0.037109375,0.119140625,0.88671875,-8.4609375,1.6171875
4085208,,,,,,,,0.19140625,1.55859375,-0.21875,0.255859375,0.0390625,0.13671875,0.88671875,-8.0,1.4609375
4085209,,,,,,,,0.08984375,1.98046875,-0.32421875,0.2578125,0.017578125,0.1640625,0.76953125,-7.58203125,1.38671875
4085210,36.012576833333334,129.31941616666666,73.57691030050118,19.62159901052179,1.2000000000000002,45.0,,-0.0078125,2.25,-0.42578125,0.025390625,-0.265625,0.4375,0.65625,-7.31640625,1.30859375
4085211,,,,,,,,-0.25390625,2.69921875,-0.5703125,0.291015625,-0.00390625,0.18359375,0.38671875,-6.85546875,1.1953125
4085212,,,,,,,,-0.4296875,2.9296875,-0.71875,0.298828125,-0.02734375,0.19140625,0.1953125,-6.625,1.078125
4085213,,,,,,,,-0.828125,2.96875,-0.94140625,0.296875,-0.05859375,0.1953125,-0.2265625,-6.5859375,0.88671875
4085214,,,,,,,,-1.0390625,2.921875,-1.0390625,0.3046875,-0.091796875,0.1875,-0.453125,-6.62890625,0.8125
4085215,,,,,,,,-1.29296875,2.9140625,-1.1484375,0.296875,-0.12890625,0.181640625,-0.72265625,-6.62890625,0.734375
4085216,,,,,,,,-1.31640625,2.8671875,-1.2578125,0.283203125,-0.154296875,0.18359375,-0.76171875,-6.66796875,0.65625
4085217,,,,,,,,-1.33984375,2.8671875,-1.39453125,0.251953125,-0.150390625,0.15625,-0.80078125,-6.66796875,0.54296875
4085218,,,,,,,,-1.28515625,2.78515625,-1.41796875,0.22265625,-0.146484375,0.1484375,-0.76171875,-6.73828125,0.54296875
4085219,,,,,,,,-1.19921875,2.515625,-1.44140625,0.185546875,-0.154296875,0.126953125,-0.68359375,-7.01171875,0.54296875
4085220,36.0125775,129.31941700000002,73.6520341557769,19.69557246242746,1.2000000000000002,48.0,,-1.0390625,2.28515625,-1.37890625,0.140625,-0.171875,0.12109375,-0.53125,-7.234375,0.62109375
4085221,,,,,,,,-0.9921875,2.15625,-1.3515625,0.10546875,-0.171875,0.09375,-0.4921875,-7.3515625,0.65625
4085222,,,,,,,,-0.91015625,2.1171875,-1.28125,0.0703125,-0.162109375,0.05078125,-0.41796875,-7.390625,0.734375
4085223,,,,,,,,-0.91015625,2.1171875,-1.28125,0.041015625,-0.154296875,0.0,-0.41796875,-7.390625,0.734375
4085224,,,,,,,,-0.83203125,1.99609375,-1.3671875,0.017578125,-0.150390625,-0.046875,-0.33984375,-7.5,0.65625
4085225,,,,,,,,-0.83984375,1.88671875,-1.40234375,-0.00390625,-0.181640625,-0.08984375,-0.33984375,-7.62109375,0.62109375
4085226,,,,,,,,-0.77734375,1.45703125,-1.44140625,-0.017578125,-0.212890625,-0.109375,-0.26171875,-8.0390625,0.58203125
4085227,,,,,,,,-0.609375,0.9140625,-1.359375,-0.03515625,-0.248046875,-0.126953125,-0.0703125,-8.58203125,0.65625
4085228,,,,,,,,-0.42578125,0.6484375,-1.203125,-0.0390625,-0.24609375,-0.12890625,0.12109375,-8.84765625,0.8125
4085229,,,,,,,,-0.3203125,0.1953125,-1.00390625,-0.041015625,-0.212890625,-0.1484375,0.234375,-9.30859375,1.00390625
4085230,36.012578500000004,129.31941783333332,73.72715769613113,19.80653232724599,1.2000000000000002,46.0,,-0.3828125,-0.12109375,-0.8828125,-0.04296875,-0.166015625,-0.166015625,0.1953125,-9.61328125,1.1171875
4085231,,,,,,,,-0.47265625,-0.50390625,-0.8828125,-0.04296875,-0.123046875,-0.185546875,0.12109375,-9.99609375,1.1171875
4085232,,,,,,,,-0.4140625,-0.84765625,-0.875,-0.037109375,-0.107421875,-0.177734375,0.1953125,-10.33984375,1.1171875
4085233,,,,,,,,-0.19921875,-1.125,-0.796875,-0.029296875,-0.08984375,-0.150390625,0.42578125,-10.61328125,1.1953125
4085234,,,,,,,,-0.015625,-1.19921875,-0.8671875,-0.017578125,-0.07421875,-0.125,0.6171875,-10.68359375,1.1171875
4085235,,,,,,,,0.078125,-1.359375,-1.01171875,0.001953125,-0.025390625,-0.119140625,0.734375,-10.83984375,0.96484375
4085236,,,,,,,,0.3359375,-1.66796875,-0.97265625,0.0234375,0.009765625,-0.111328125,1.0,-11.140625,1.00390625
4085237,,,,,,,,0.48046875,-1.5234375,-0.98046875,0.0390625,0.015625,-0.05859375,1.15234375,-10.99609375,1.00390625
4085238,,,,,,,,0.328125,-0.83203125,-1.05859375,0.056640625,0.01953125,-0.0078125,1.0,-10.30078125,0.92578125
4085239,,,,,,,,-0.16015625,-0.41015625,-1.14453125,0.06640625,0.095703125,0.0078125,0.50390625,-9.875,0.84765625
4085240,36.01257933333333,129.31941933333334,73.86238097167404,19.89899949006076,1.3,50.0,,-0.8046875,-0.02734375,-1.1953125,0.1015625,0.181640625,0.044921875,0.1953125,-9.61328125,1.1171875
4085241,,,,,,,,-1.32421875,-0.6015625,-1.08203125,0.123046875,0.181640625,0.115234375,-0.68359375,-10.0703125,0.92578125
4085242,,,,,,,,-1.31640625,-1.0703125,-1.2109375,0.138671875,0.1796875,0.138671875,-0.68359375,-10.53125,0.8125
4085243,,,,,,,,-0.99609375,-1.9140625,-1.21875,0.15625,0.25,0.130859375,-0.37890625,-11.37890625,0.8125
4085244,,,,,,,,-0.3203125,-2.234375,-0.40234375,0.154296875,0.4453125,0.01171875,0.2734375,-11.68359375,1.65234375
4085245,,,,,,,,0.4609375,-2.234375,0.2734375,0.14453125,0.63671875,-0.10546875,1.0390625,-11.68359375,2.34375
4085246,,,,,,,,0.69140625,-2.65625,0.11328125,0.123046875,0.759765625,-0.185546875,1.26953125,-12.10546875,2.19140625
4085247,,,,,,,,1.79296875,-3.66015625,1.28515625,0.078125,0.912109375,-0.296875,2.37890625,-13.09765625,3.37890625
4085248,,,,,,,,2.7734375,-3.30859375,1.8125,0.025390625,0.724609375,-0.333984375,3.375,-12.75390625,3.9140625
4085249,,,,,,,,2.84375,-3.34765625,2.08203125,0.015625,0.68359375,-0.337890625,3.453125,-12.79296875,4.18359375
4085250,36.01258033333333,129.3194205,73.96755429819203,20.00995960959905,1.3,49.0,,2.3671875,-3.34765625,2.76171875,0.1015625,0.181640625,0.044921875,0.1953125,-9.61328125,1.1171875
4085251,,,,,,,,0.8125,-3.5078125,3.0234375,0.015625,0.623046875,-0.36328125,1.4609375,-12.9453125,5.140625
4085252,,,,,,,,-0.12109375,-3.69921875,2.83203125,0.041015625,0.2265625,-0.30078125,0.54296875,-13.1328125,4.94921875
4085253,,,,,,,,-0.484375,-3.58203125,2.25,0.064453125,0.087890625,-0.2734375,0.1953125,-13.015625,4.375
4085254,,,,,,,,0.21484375,-2.671875,1.390625,0.115234375,-0.310546875,-0.224609375,0.92578125,-12.10546875,3.53125
4085255,,,,,,,,1.0234375,-1.66796875,1.23828125,0.083984375,-0.486328125,-0.24609375,1.765625,-11.10546875,3.37890625
4085256,,,,,,,,1.16015625,-0.86328125,0.85546875,0.01953125,-0.5625,-0.306640625,1.95703125,-10.30078125,2.99609375
4085257,,,,,,,,0.89453125,-1.0234375,0.78515625,-0.07421875,-0.603515625,-0.2734375,1.73046875,-10.45703125,2.91796875
4085258,,,,,,,,0.640625,-1.171875,0.6796875,-0.11328125,-0.61328125,-0.23046875,1.5,-10.61328125,2.8046875
4085259,,,,,,,,0.53125,-1.1328125,0.46484375,-0.19140625,-0.494140625,-0.171875,1.421875,-10.57421875,2.57421875
4085260,36.012581,129.319422,74.10277772176397,20.083933570853233,1.4000000000000001,54.0,,0.35546875,-0.78125,0.296875,0.1015625,0.181640625,0.044921875,0.1953125,-9.61328125,1.1171875
4085261,,,,,,,,0.0703125,0.109375,-0.1015625,-0.2421875,-0.13671875,-0.185546875,1.0,-9.34765625,1.9609375
4085262,,,,,,,,-0.07421875,0.6171875,-0.30859375,-0.251953125,-0.046875,-0.23828125,0.88671875,-8.84765625,1.73046875
4085263,,,,,,,,-0.16015625,0.80859375,-0.40625,-0.25390625,-0.03515625,-0.23828125,0.80859375,-8.6484375,1.6171875
4085264,,,,,,,,-0.18359375,1.19140625,-0.61328125,-0.236328125,-0.05859375,-0.181640625,0.80859375,-8.26953125,1.38671875
4085265,,,,,,,,-0.12109375,1.46484375,-0.71484375,-0.228515625,-0.080078125,-0.140625,0.88671875,-8.0,1.26953125
4085266,,,,,,,,-0.13671875,1.85546875,-0.84375,-0.21875,-0.060546875,-0.142578125,0.88671875,-7.62109375,1.1171875
4085267,,,,,,,,-0.11328125,2.28515625,-0.98046875,-0.23046875,-0.0234375,-0.15234375,0.92578125,-7.1953125,0.96484375
4085268,,,,,,,,-0.0078125,2.4375,-1.00390625,-0.23828125,0.005859375,-0.150390625,1.0390625,-7.046875,0.92578125
4085269,,,,,,,,-0.046875,2.63671875,-0.98046875,-0.263671875,0.03125,-0.07421875,1.15234375,-6.625,0.84765625
4085270,36.01258133333333,129.3194225,74.14785209322628,20.120920362699085,1.2000000000000002,55.0,,0.35546875,-0.78125,0.296875,0.1015625,0.181640625,0.044921875,1.53515625,-6.390625,0.65625
4085271,,,,,,,,0.55859375,3.18359375,-1.1796875,-0.28515625,0.009765625,0.03515625,1.69140625,-6.35546875,0.58203125
4085272,,,,,,,,0.67578125,3.12109375,-1.33203125,-0.26171875,-0.015625,0.017578125,1.84375,-6.5859375,0.3515625
4085273,,,,,,,,0.828125,2.859375,-1.5,-0.232421875,-0.03515625,-0.021484375,1.921875,-6.69921875,0.23828125
4085274,,,,,,,,0.7890625,2.70703125,-1.58984375,-0.201171875,-0.044921875,-0.056640625,1.8828125,-7.05078125,0.12109375
4085275,,,,,,,,0.7421875,2.41015625,-1.56640625,-0.17578125,-0.068359375,-0.08203125,1.765625,-7.16015625,0.19921875
4085276,,,,,,,,0.54296875,2.21875,-1.47265625,-0.1328125,-0.09765625,-0.068359375,1.53515625,-7.3125,0.23828125
4085277,,,,,,,,0.3828125,2.171875,-1.3828125,-0.087890625,-0.12890625,-0.01953125,1.421875,-7.3515625,0.390625
4085278,,,,,,,,0.18359375,2.1328125,-1.14453125,-0.052734375,-0.169921875,0.06640625,1.26953125,-7.39453125,0.54296875
4085279,,,,,,,,0.12109375,2.09375,-1.09765625,-0.02734375,-0.216796875,0.185546875,1.19140625,-7.4296875,0.58203125
4085280,36.012581833333336,129.3194235,74.2380009866983,20.176400741984548,1.2000000000000002,53.0,,0.17578125,2.02734375,-1.12890625,0.001953125,-0.265625,0.28515625,1.23046875,-7.5,0.54296875
4085281,,,,,,,,0.23828125,1.51953125,-1.12109375,0.015625,-0.31640625,0.353515625,1.26953125,-8.0,0.54296875
4085282,,,,,,,,0.29296875,1.375,-1.12109375,0.021484375,-0.328125,0.37109375,1.30859375,-8.15625,0.54296875
4085283,,,,,,,,0.28515625,0.9921875,-1.04296875,0.03125,-0.35546875,0.36328125,1.26953125,-8.5390625,0.62109375
4085284,,,,,,,,0.30859375,0.37890625,-0.84375,0.04296875,-0.369140625,0.33203125,1.26953125,-9.15234375,0.8125
4085285,,,,,,,,0.1796875,0.03515625,-0.5390625,0.041015625,-0.359375,0.3203125,1.1171875,-9.4921875,1.1171875
4085286,,,,,,,,0.0859375,-0.2265625,-0.30859375,0.0390625,-0.31640625,0.318359375,1.0,-9.76953125,1.34765625
4085287,,,,,,,,0.03515625,-0.34765625,-0.0703125,0.03125,-0.265625,0.326171875,0.92578125,-9.875,1.578125
4085288,,,,,,,,-0.08984375,-0.234375,-0.03125,0.009765625,-0.1875,0.326171875,0.76953125,-9.765625,1.578125
4085289,,,,,,,,-0.07421875,-0.234375,-0.078125,0.0,-0.16796875,0.3125,0.84765625,-9.7265625,1.42578125
