time,latitude,longitude,enu_x,enu_y,speed,course,ecg,accX,accY,accZ,gyrX,gyrY,gyrZ,eulR,eulP,eulY
2455700,36.01279316666667,129.31897183333334,33.520448918535976,43.62553619891636,1.8,246.0,0.0,-3.796875,10.92578125,2.8828125,-3.21484375,-0.587890625,-1.548828125,-2.609375,1.73828125,0.4296875
2455701,,,,,,,,-5.40625,10.6171875,3.1171875,-3.541015625,-0.708984375,-1.552734375,-4.1015625,1.546875,0.3515625
2455702,,,,,,,,-6.75,9.55859375,3.4921875,-3.69921875,-0.87109375,-1.55078125,-5.328125,0.62890625,0.390625
2455703,,,,,,,,-8.68359375,6.8515625,4.73046875,-3.7421875,-1.09765625,-1.501953125,-7.16796875,-1.9375,1.30859375
2455704,,,,,,,,-10.5234375,0.78515625,8.01171875,-3.578125,-1.25,-1.3203125,-8.93359375,-7.83984375,4.26171875
2455705,,,,,,,,-11.14453125,-5.62109375,11.4921875,-3.1328125,-1.341796875,-1.0390625,-9.50390625,-14.08203125,7.4375
2455706,,,,,,,,-11.19921875,-12.73828125,16.23828125,-2.8515625,-1.37109375,-0.875,-9.54296875,-21.12890625,12.03515625
2455707,,,,,,,,-8.546875,-21.25390625,20.6171875,-2.208984375,-1.3984375,-0.5703125,-6.8984375,-29.51953125,16.2109375
2455708,,,,,,,,-5.91015625,-26.44140625,21.76953125,-1.220703125,-1.34375,-0.408203125,-4.29296875,-34.609375,17.20703125
2455709,,,,,,,,-8.31640625,-15.39453125,16.36328125,0.71484375,-1.3125,-0.662109375,-6.74609375,-23.5390625,11.76953125
2455710,36.012793,129.31897033333334,33.38522530482969,43.607042477428934,1.3,245.0,,-11.38671875,-7.78125,13.2734375,-1.5390625,-1.5546875,-1.951171875,-9.76953125,-15.92578125,8.703125
2455711,,,,,,,,-6.47265625,-13.73046875,17.28515625,-2.82421875,-1.42578125,-3.638671875,-4.63671875,-21.625,12.41796875
2455712,,,,,,,,-6.5,-14.66796875,16.09375,-2.4453125,-1.353515625,-3.494140625,-4.5625,-22.46875,11.1171875
2455713,,,,,,,,-8.6328125,-15.13671875,13.890625,-1.88671875,-1.533203125,-1.873046875,-6.5546875,-22.7734375,8.7421875
2455714,,,,,,,,-13.03515625,-14.76953125,13.38671875,-1.98046875,-1.62890625,-1.015625,-10.95703125,-22.3515625,8.16796875
2455715,,,,,,,,-13.51953125,-14.92578125,13.15234375,-2.5390625,-1.828125,-0.34375,-11.49609375,-22.390625,7.74609375
2455716,,,,,,,,-12.3984375,-14.24609375,12.3515625,-2.814453125,-1.904296875,-0.40234375,-10.421875,-21.625,6.828125
2455717,,,,,,,,-11.73828125,-13.63671875,12.078125,-3.513671875,-2.076171875,-0.22265625,-9.3125,-20.09765625,5.90625
2455718,,,,,,,,-11.1484375,-12.97265625,11.7890625,-3.44921875,-2.130859375,-0.015625,-8.390625,-18.1015625,5.02734375
2455719,,,,,,,,-9.5859375,-9.109375,10.81640625,-3.056640625,-2.203125,0.18359375,-7.96875,-15.9609375,4.56640625
2455720,36.0127935,129.3189685,33.21995170131794,43.66252147017114,1.4000000000000001,267.0,,-8.84765625,-7.203125,10.09375,-2.685546875,-2.30859375,0.138671875,-7.39453125,-13.89453125,3.6484375
2455721,,,,,,,,-8.15234375,-4.41796875,10.765625,-2.626953125,-2.353515625,0.158203125,-6.97265625,-10.86328125,4.03125
2455722,,,,,,,,-7.98828125,-4.13671875,10.56640625,-2.685546875,-2.287109375,0.30859375,-6.97265625,-10.4375,3.68359375
2455723,,,,,,,,-7.43359375,-3.078125,10.04296875,-2.533203125,-2.251953125,0.59765625,-6.62890625,-9.21875,2.99609375
2455724,,,,,,,,-7.2578125,-2.265625,10.08203125,-2.423828125,-2.224609375,0.73046875,-6.5546875,-8.33984375,2.95703125
2455725,,,,,,,,-6.34765625,0.87890625,10.46875,-2.23828125,-2.125,0.84765625,-5.859375,-5.04296875,3.2265625
2455726,,,,,,,,-6.0078125,2.2734375,10.4453125,-2.173828125,-2.072265625,0.83203125,-5.6328125,-3.5859375,3.1484375
2455727,,,,,,,,-4.484375,5.6640625,10.52734375,-2.1015625,-1.87109375,0.84765625,-4.40625,0.015625,3.07421875
2455728,,,,,,,,-2.50390625,8.5859375,10.21484375,-1.62890625,-1.724609375,0.892578125,-2.72265625,3.1171875,2.65234375
2455729,,,,,,,,-1.2421875,8.37890625,8.7890625,-1.162109375,-1.578125,0.69921875,-1.7265625,3.0390625,1.15625
2455730,36.012795,129.31896583333335,32.9795534166529,43.828959420065964,2.6,292.0,,-2.37890625,5.1796875,7.87890625,-0.74609375,-1.568359375,0.470703125,-3.0234375,-0.1015625,0.23828125
2455731,,,,,,,,-3.6875,3.3125,8.20703125,-0.3359375,-1.484375,0.205078125,-4.48828125,-1.9375,0.58203125
2455732,,,,,,,,-4.54296875,2.26953125,8.92578125,-0.220703125,-1.40625,0.0703125,-5.40234375,-2.97265625,1.30859375
2455733,,,,,,,,-3.9375,1.88671875,9.0859375,-0.283203125,-1.265625,-0.1328125,-4.90625,-3.35546875,1.5
2455734,,,,,,,,-2.28125,2.0234375,8.91796875,-0.609375,-1.10546875,-0.263671875,-3.33984375,-3.203125,1.34765625
2455735,,,,,,,,0.01953125,1.921875,9.37109375,-0.556640625,-1.013671875,-0.451171875,-1.11328125,-3.28515625,1.80859375
2455736,,,,,,,,1.1171875,1.5625,9.515625,-0.326171875,-0.99609375,-0.619140625,-0.0390625,-3.62890625,1.9609375
2455737,,,,,,,,1.8125,1.01171875,9.19921875,0.234375,-0.974609375,-0.96875,0.609375,-4.19921875,1.69140625
2455738,,,,,,,,2.2578125,-1.34765625,9.5234375,0.490234375,-0.998046875,-1.1328125,1.03125,-6.609375,2.078125
2455739,,,,,,,,2.1875,-2.33984375,9.8828125,0.455078125,-1.01171875,-1.193359375,0.953125,-7.64453125,2.4609375
2455740,36.0127965,129.318964,32.814279405817025,43.99539765921415,2.3000000000000003,302.0,,1.25390625,-6.29296875,12.62109375,-0.74609375,-1.568359375,0.470703125,-3.0234375,-0.1015625,0.23828125
2455741,,,,,,,,1.1171875,-9.48828125,17.1171875,0.35546875,-0.876953125,-1.634765625,-0.1171875,-14.9609375,9.890625
2455742,,,,,,,,2.77734375,-9.01171875,18.43359375,0.296875,-0.734375,-1.736328125,1.56640625,-14.5390625,11.26953125
2455743,,,,,,,,3.4921875,-7.4921875,16.9921875,0.267578125,-0.529296875,-1.7265625,2.3359375,-13.0859375,9.890625
2455744,,,,,,,,5.83984375,-5.7578125,13.0390625,0.416015625,-0.169921875,-1.7109375,4.78515625,-11.44140625,6.0234375
2455745,,,,,,,,7.078125,-7.0390625,15.38671875,0.59375,0.162109375,-1.73046875,6.125,-12.78515625,8.43359375
2455746,,,,,,,,6.15234375,-8.1875,15.96875,0.650390625,0.283203125,-1.748046875,5.24609375,-13.97265625,9.046875
2455747,,,,,,,,4.41796875,-10.7421875,16.95703125,0.958984375,0.564453125,-1.572265625,3.63671875,-16.61328125,10.12109375
2455748,,,,,,,,2.9765625,-12.83203125,17.59765625,0.873046875,0.74609375,-1.146484375,2.3359375,-18.7890625,10.84765625
2455749,,,,,,,,1.03515625,-12.6875,17.16796875,0.5234375,0.921875,-0.60546875,0.49609375,-18.71875,10.50390625
2455750,36.01279833333333,129.31896216666667,32.649005265302065,44.198822311219836,2.3000000000000003,309.0,,0.44140625,-8.953125,15.375,-0.74609375,-1.568359375,0.470703125,-0.00390625,-15.0390625,8.78125
2455751,,,,,,,,0.44921875,-6.9140625,14.14453125,0.841796875,1.087890625,0.337890625,0.11328125,-13.125,7.70703125
2455752,,,,,,,,-0.04296875,-6.0625,14.06640625,1.12109375,1.193359375,0.33984375,-0.30859375,-12.3984375,7.78515625
2455753,,,,,,,,-0.97265625,-2.7890625,13.75,1.27734375,1.3125,0.369140625,-1.19140625,-9.22265625,7.59375
2455754,,,,,,,,-0.50390625,-1.40625,12.58203125,1.330078125,1.357421875,0.400390625,-0.69140625,-7.87890625,6.48046875
2455755,,,,,,,,3.65625,3.59765625,7.01171875,1.400390625,1.384765625,0.458984375,3.52734375,-2.97265625,1.04296875
2455756,,,,,,,,5.1015625,8.6015625,4.83984375,1.5078125,1.408203125,0.396484375,5.015625,1.9296875,-0.98828125
2455757,,,,,,,,4.71875,10.15234375,5.52734375,1.615234375,1.478515625,0.279296875,4.67578125,3.42578125,-0.22265625
2455758,,,,,,,,4.33203125,11.2109375,7.79296875,1.529296875,1.681640625,-0.048828125,4.36328125,4.38671875,2.19140625
2455759,,,,,,,,4.6328125,9.6484375,7.8359375,1.181640625,1.71875,-0.20703125,4.71484375,2.7734375,2.3046875
2455760,36.012800166666665,129.31895916666664,32.37855716041204,44.40224658140424,3.4000000000000004,309.0,,5.37890625,5.51953125,8.28125,0.21875,1.6171875,-0.21875,5.546875,-1.40234375,2.84375
2455761,,,,,,,,5.1640625,3.6796875,8.27734375,-0.3828125,1.490234375,-0.1015625,5.44140625,-3.2421875,2.87890625
2455762,,,,,,,,4.59765625,3.7890625,8.37890625,-0.501953125,1.4453125,-0.076171875,4.8984375,-3.125,2.99609375
2455763,,,,,,,,1.15234375,6.5546875,7.6875,-0.34375,1.158203125,0.390625,1.56640625,-0.328125,2.34375
2455764,,,,,,,,0.76953125,5.96875,6.28515625,-0.44921875,0.955078125,0.263671875,1.21875,-0.90625,0.96484375
2455765,,,,,,,,1.3984375,4.53125,5.51953125,-0.87109375,0.67578125,-0.091796875,1.875,-2.32421875,0.19921875
2455766,,,,,,,,1.3359375,4.16015625,5.4140625,-1.025390625,0.505859375,-0.28515625,1.8359375,-2.66796875,0.0859375
2455767,,,,,,,,2.58984375,4.10546875,5.2890625,-1.24609375,0.021484375,-0.69140625,4.86328125,-4.19921875,-1.484375
2455768,,,,,,,,4.30078125,2.53515625,3.8984375,-1.32421875,-0.126953125,-0.759765625,5.015625,-6.19140625,-1.5234375
2455769,,,,,,,,2.03125,-4.66015625,5.359375,-1.67578125,-0.634765625,-0.767578125,-1.15234375,-14.1953125,4.56640625
2455770,36.012802,129.31895683333332,32.168208482755816,44.60567107916688,3.2,310.0,,5.37890625,5.51953125,8.28125,-1.703125,-0.7109375,-0.673828125,-9.3125,-21.62890625,17.58984375
2455771,,,,,,,,-9.67578125,-20.19140625,24.921875,-2.232421875,-0.888671875,-0.0546875,-6.515625,-27.3359375,16.82421875
2455772,,,,,,,,-7.125,-20.9296875,22.47265625,-2.7734375,-1.123046875,0.087890625,-3.6015625,-24.73046875,12.19140625
2455773,,,,,,,,-3.0625,-16.4375,15.359375,-2.8515625,-1.51171875,0.2109375,-2.03125,-20.74609375,7.6328125
2455774,,,,,,,,-2.70703125,-13.14453125,12.33203125,-1.978515625,-1.623046875,0.0234375,-2.22265625,-19.328125,6.48046875
2455775,,,,,,,,-5.7109375,-11.40625,11.69140625,-0.73046875,-1.958984375,-0.69921875,-5.328125,-17.49609375,5.75390625
2455776,,,,,,,,-6.20703125,-11.0546875,12.00390625,-0.830078125,-2.158203125,-1.060546875,-5.90234375,-17.109375,6.05859375
2455777,,,,,,,,-1.09375,-10.91015625,7.83203125,-2.6015625,-2.208984375,-1.498046875,-0.8828125,-16.80078125,1.76953125
2455778,,,,,,,,-2.09765625,-10.61328125,8.8984375,-2.908203125,-2.150390625,-1.22265625,-1.91796875,-16.41796875,2.765625
2455779,,,,,,,,-5.7734375,-6.55859375,11.375,-2.8984375,-1.955078125,-0.296875,-5.7109375,-12.12890625,5.0625
2455780,36.01280416666667,129.31895383333332,31.89776026976021,44.84608177452747,3.2,311.0,,-5.59375,-4.30078125,10.87109375,-1.703125,-0.7109375,-0.673828125,-9.3125,-21.62890625,17.58984375
2455781,,,,,,,,-4.84765625,-1.890625,10.4453125,-2.94921875,-2.693359375,0.826171875,-5.01953125,-7.23046875,3.953125
2455782,,,,,,,,-2.57421875,2.6015625,10.36328125,-2.935546875,-3.005859375,1.74609375,-3.14453125,-2.4765625,3.71875
2455783,,,,,,,,-3.58203125,3.16015625,10.37109375,-2.98828125,-3.03125,1.765625,-4.2890625,-1.82421875,3.68359375
2455784,,,,,,,,-4.96484375,1.8125,10.15234375,-2.505859375,-2.921875,1.427734375,-6.24609375,-2.8203125,3.33984375
2455785,,,,,,,,-6.83203125,0.5859375,9.5625,-2.474609375,-2.724609375,1.345703125,-8.234375,-3.96875,2.7265625
2455786,,,,,,,,-7.75,-0.34375,9.2734375,-2.6640625,-2.51953125,1.251953125,-9.27734375,-4.8125,2.421875
2455787,,,,,,,,-9.5703125,-4.015625,9.3203125,-3.064453125,-2.24609375,1.068359375,-11.3046875,-8.296875,2.421875
2455788,,,,,,,,-9.62109375,-5.265625,9.49609375,-3.130859375,-2.177734375,1.0,-11.45703125,-9.4453125,2.57421875
2455789,,,,,,,,-6.4453125,-6.7734375,14.6171875,-2.6484375,-1.912109375,0.88671875,-8.546875,-10.67578125,7.6328125
2455790,36.01280716666667,129.3189505,31.597262039622866,45.17895840250175,4.3,315.0,,-4.1953125,-2.78515625,15.3515625,-1.1015625,-1.1875,0.91015625,-6.515625,-6.49609375,8.36328125
2455791,,,,,,,,-1.265625,4.31640625,7.03125,-0.1953125,-0.8125,0.771484375,-3.68359375,0.62890625,0.0859375
2455792,,,,,,,,-0.8046875,4.8671875,6.66796875,0.28515625,-0.85546875,-0.5625,-3.296875,1.39453125,0.0078125
2455793,,,,,,,,-1.04296875,5.4375,6.796875,0.19140625,-0.7890625,-1.916015625,-3.91015625,1.9296875,0.3515625
2455794,,,,,,,,-2.16796875,6.9375,8.11328125,0.037109375,-0.458984375,-2.025390625,-4.87109375,3.69140625,1.80859375
2455795,,,,,,,,-2.0234375,7.36328125,8.3203125,0.49609375,-0.224609375,-1.21875,-4.484375,3.42578125,1.6171875
2455796,,,,,,,,-1.01171875,5.80078125,7.98828125,0.947265625,-0.126953125,-0.791015625,-3.44921875,1.81640625,1.30859375
2455797,,,,,,,,5.31640625,-3.140625,13.97265625,1.787109375,0.033203125,-0.2421875,2.91015625,-7.2265625,7.359375
2455798,,,,,,,,6.44921875,-8.61328125,18.796875,2.869140625,0.234375,0.04296875,4.05859375,-12.8515625,12.3046875
2455799,,,,,,,,4.74609375,-17.3671875,18.74609375,3.21484375,0.662109375,0.185546875,2.37109375,-21.82421875,12.41796875
2455800,36.01281016666667,129.31894816666667,31.386912933145577,45.51183536302056,4.0,320.0,0.0,-4.1953125,-2.78515625,15.3515625,2.509765625,1.017578125,0.328125,-6.515625,-6.49609375,8.36328125
2455801,,,,,,,,14.50390625,-13.86328125,13.84375,1.505859375,1.486328125,0.05859375,12.25390625,-18.75,7.859375
2455802,,,,,,,,13.015625,-8.4375,12.82421875,2.240234375,1.943359375,-0.193359375,10.875,-13.47265625,6.94140625
2455803,,,,,,,,11.01953125,-6.84375,14.05078125,3.94140625,2.25390625,-0.603515625,9.11328125,-12.20703125,8.43359375
2455804,,,,,,,,7.8671875,-6.7109375,12.34765625,3.498046875,2.08984375,-1.015625,6.125,-12.32421875,6.94140625
2455805,,,,,,,,7.08984375,-8.0234375,11.28515625,2.28125,1.96875,-0.84765625,5.51171875,-13.8125,6.05859375
2455806,,,,,,,,5.671875,-7.41015625,10.87109375,1.923828125,1.9375,-0.3671875,4.171875,-13.27734375,5.71484375
2455807,,,,,,,,2.40625,-5.078125,11.3125,2.017578125,1.8046875,0.75,0.9921875,-11.05859375,6.2890625
2455808,,,,,,,,-4.6484375,-1.3515625,13.79296875,2.322265625,1.48046875,1.79296875,-6.0546875,-7.4921875,9.0078125
2455809,,,,,,,,-5.046875,-0.0703125,12.51171875,2.35546875,1.318359375,2.025390625,-6.4765625,-6.265625,7.82421875
2455810,36.01281316666667,129.31894499999999,31.101439592483104,45.84471206240261,4.1000000000000005,321.0,,-4.03515625,2.86328125,6.37890625,2.630859375,1.193359375,2.384765625,-6.515625,-6.49609375,8.36328125
2455811,,,,,,,,4.2734375,0.59765625,1.65234375,3.255859375,1.77734375,1.830078125,2.640625,-5.84375,-2.51953125
2455812,,,,,,,,9.61328125,-2.28125,2.4140625,3.177734375,1.958984375,1.212890625,7.96484375,-8.796875,-1.640625
2455813,,,,,,,,14.58203125,-2.58984375,9.12890625,1.494140625,2.412109375,-0.2421875,13.05859375,-9.29296875,5.41015625
2455814,,,,,,,,8.7734375,1.47265625,10.4453125,1.314453125,2.203125,-0.16796875,7.31640625,-5.26953125,6.7890625
2455815,,,,,,,,4.421875,6.12109375,10.10546875,1.43359375,1.943359375,0.33203125,3.0234375,-0.67578125,6.55859375
2455816,,,,,,,,4.3125,9.47265625,9.11328125,0.150390625,1.837890625,-0.138671875,2.984375,2.62109375,5.71484375
2455817,,,,,,,,7.0625,10.20703125,7.88671875,-0.75,1.57421875,-0.66015625,5.78515625,3.34765625,4.48828125
2455818,,,,,,,,7.7890625,11.33203125,5.8984375,-1.35546875,1.123046875,-1.650390625,6.62890625,4.49609375,2.4609375
2455819,,,,,,,,7.2109375,11.66015625,5.73046875,-1.130859375,0.95703125,-1.978515625,6.12890625,4.83984375,2.26953125
2455820,36.01281633333333,129.31894116666666,30.75586681200682,46.19608176707245,4.9,318.0,,6.2421875,12.12890625,4.96875,-0.345703125,0.52734375,-1.978515625,5.32421875,5.30078125,1.5
2455821,,,,,,,,5.14453125,9.76171875,5.0234375,-0.48828125,0.240234375,-1.43359375,4.36328125,2.92578125,1.578125
2455822,,,,,,,,-5.90234375,-15.4453125,21.51953125,-1.439453125,-0.109375,-0.56640625,-6.58984375,-22.2421875,18.05078125
2455823,,,,,,,,-12.78515625,-27.328125,30.9609375,-1.716796875,-0.2890625,-0.482421875,-13.44921875,-34.078125,27.4375
2455824,,,,,,,,-8.65625,-29.859375,10.51953125,-1.5078125,-0.62890625,-0.060546875,-9.3125,-36.53125,6.90234375
2455825,,,,,,,,1.7734375,-4.69140625,5.3046875,-1.166015625,-0.634765625,0.634765625,1.0703125,-11.32421875,1.65625
2455826,,,,,,,,3.0234375,-1.58203125,0.4921875,1.3515625,-0.615234375,0.46484375,2.2578125,-8.22265625,-3.09375
2455827,,,,,,,,0.12109375,-4.9296875,10.21875,-1.31640625,-1.103515625,0.076171875,-0.69140625,-11.59375,6.7109375
2455828,,,,,,,,2.203125,-8.0546875,12.3203125,-2.38671875,-1.17578125,-0.466796875,1.375,-14.69921875,8.78125
2455829,,,,,,,,0.02734375,-9.93359375,11.76953125,-2.921875,-1.412109375,-2.259765625,-0.69140625,-16.4921875,8.08984375
2455830,36.01281933333333,129.31893783333334,30.455368668527136,46.528958434479286,4.4,317.0,,-2.1484375,-6.25,10.48828125,-0.345703125,0.52734375,-1.978515625,5.32421875,5.30078125,1.5
2455831,,,,,,,,-2.171875,0.51171875,6.4453125,-3.5546875,-2.0703125,1.982421875,-2.9921875,-5.80859375,2.421875
2455832,,,,,,,,-2.65625,1.0859375,5.86328125,-3.380859375,-2.44921875,2.57421875,-3.6015625,-5.16015625,1.76953125
2455833,,,,,,,,-4.33984375,2.828125,6.82421875,-2.7265625,-2.830078125,2.80078125,-5.5546875,-3.28125,2.61328125
2455834,,,,,,,,-4.58203125,3.609375,7.3984375,-2.5703125,-2.943359375,2.546875,-5.94140625,-2.4375,3.1484375
2455835,,,,,,,,-5.88671875,4.08984375,7.31640625,-2.583984375,-3.0,1.916015625,-7.5078125,-1.82421875,2.99609375
2455836,,,,,,,,-7.7734375,2.5546875,5.30078125,-2.703125,-2.759765625,1.708984375,-9.6171875,-3.2421875,0.92578125
2455837,,,,,,,,-9.65625,-0.11328125,4.03125,-2.78515625,-2.46484375,1.697265625,-11.609375,-5.84765625,-0.375
2455838,,,,,,,,-10.2265625,-5.1640625,3.7421875,-2.576171875,-1.81640625,1.36328125,-12.453125,-10.7109375,-0.7578125
2455839,,,,,,,,-9.3828125,-6.18359375,4.65234375,-2.427734375,-1.673828125,1.181640625,-11.69140625,-11.66796875,0.12109375
2455840,36.01282283333333,129.31893399999998,30.10979581106349,46.91731457813433,5.0,318.0,,-3.90234375,-6.01953125,10.02734375,-0.345703125,0.52734375,-1.978515625,5.32421875,5.30078125,1.5
2455841,,,,,,,,2.26171875,-1.74609375,13.78125,-1.822265625,-1.1875,0.810546875,-0.26953125,-7.03515625,9.1640625
2455842,,,,,,,,-0.55859375,3.6015625,8.265625,-0.7578125,-1.0,1.115234375,-3.18359375,-1.6328125,3.6484375
2455843,,,,,,,,0.33984375,7.265625,3.6875,0.2734375,-0.765625,1.10546875,-2.375,2.046875,-0.875
2455844,,,,,,,,2.41015625,7.6875,1.48046875,-0.466796875,-0.734375,-0.765625,-0.38671875,2.4296875,-2.98046875
2455845,,,,,,,,-0.1875,4.1171875,1.9609375,0.1640625,-0.712890625,-1.609375,-2.875,-1.2109375,-2.4453125
2455846,,,,,,,,-3.71484375,3.97265625,4.80859375,1.091796875,-0.802734375,-1.041015625,-6.36328125,-1.44140625,0.50390625
2455847,,,,,,,,-4.33984375,5.9140625,7.63671875,1.41796875,-0.6171875,-0.494140625,-6.96875,0.3984375,3.45703125
2455848,,,,,,,,-1.46875,2.97265625,7.9296875,1.3046875,-0.259765625,-0.291015625,-4.1015625,-2.62890625,3.875
2455849,,,,,,,,7.96875,-9.89453125,14.9765625,1.38671875,0.103515625,-0.29296875,5.359375,-15.57421875,11.0390625
2455850,36.01282683333333,129.318931,29.839347037559364,47.36115060824061,5.1000000000000005,322.0,,10.66796875,-17.51171875,17.609375,1.73828125,0.533203125,-0.208984375,5.32421875,5.30078125,1.5
2455851,,,,,,,,10.57421875,-22.97265625,13.45703125,2.052734375,1.0,0.05078125,8.04296875,-28.828125,9.77734375
2455852,,,,,,,,16.1796875,-22.2421875,12.296875,1.884765625,1.640625,0.71484375,13.671875,-28.1796875,8.7421875
2455853,,,,,,,,14.52734375,-17.14453125,11.62890625,1.775390625,1.890625,0.78515625,12.02734375,-23.1171875,8.12890625
2455854,,,,,,,,8.54296875,-7.99609375,10.9140625,1.955078125,2.0546875,-0.041015625,6.08984375,-14.0390625,7.515625
2455855,,,,,,,,6.5546875,-6.81640625,12.87890625,2.87109375,2.244140625,-0.564453125,4.2109375,-12.96875,9.62109375
2455856,,,,,,,,1.6171875,-4.91796875,13.06640625,1.85546875,1.46484375,-0.470703125,-0.578125,-11.2421875,10.04296875
2455857,,,,,,,,-1.1171875,-1.640625,10.0,1.2265625,1.279296875,-0.138671875,-3.2578125,-8.03515625,7.09375
2455858,,,,,,,,-1.6015625,-0.6875,8.53515625,1.267578125,1.275390625,0.2890625,-3.71875,-7.109375,5.67578125
2455859,,,,,,,,-3.15625,4.484375,4.3125,2.0625,1.013671875,1.453125,-5.2890625,-1.9765625,1.578125
2455860,36.012830666666666,129.31892783333333,29.553873506308694,47.78649339102478,4.9,324.0,,-2.31640625,8.0234375,1.50390625,3.6953125,0.765625,2.814453125,-4.6328125,1.5078125,-0.91015625
2455861,,,,,,,,2.0234375,6.37890625,-2.203125,4.0078125,1.0390625,2.70703125,-0.4609375,-0.17578125,-4.3203125
2455862,,,,,,,,7.08984375,0.578125,-2.72265625,3.42578125,1.4921875,2.1484375,4.48046875,-6.00390625,-4.58984375
2455863,,,,,,,,9.44140625,-2.9765625,-2.2109375,2.962890625,1.75390625,1.853515625,6.77734375,-9.56640625,-3.9765625
2455864,,,,,,,,14.578125,-9.375,-0.16015625,2.484375,1.845703125,1.47265625,11.8359375,-15.9609375,-1.75390625
2455865,,,,,,,,13.52734375,-10.1015625,3.68359375,1.7578125,1.41015625,1.67578125,9.53515625,-16.53125,4.453125
2455866,,,,,,,,8.375,-5.97265625,10.9140625,1.810546875,1.451171875,1.681640625,3.67578125,-7.609375,10.4609375
2455867,,,,,,,,6.015625,3.3359375,10.2109375,0.86328125,1.49609375,0.7109375,4.51953125,2.58203125,5.87109375
2455868,,,,,,,,7.58203125,9.11328125,6.9921875,-0.10546875,1.30859375,0.001953125,5.3984375,4.95703125,4.48828125
2455869,,,,,,,,8.74609375,13.3359375,4.54296875,-2.05078125,0.765625,-1.6015625,5.58984375,7.75390625,2.8046875
2455870,36.012834500000004,129.31892383333334,29.193275772413124,48.21183593333116,5.5,321.0,,9.24609375,13.81640625,3.03515625,-1.87890625,0.404296875,-2.9375,6.6640625,6.14453125,1.5390625
2455871,,,,,,,,10.25390625,10.546875,2.9453125,-1.435546875,-0.009765625,-3.0859375,6.96875,3.04296875,1.578125
2455872,,,,,,,,9.26171875,6.0,3.390625,-0.845703125,-0.162109375,-1.89453125,6.81640625,-0.7109375,2.0
2455873,,,,,,,,8.9375,3.5546875,3.62109375,-0.48046875,-0.1015625,-1.123046875,6.546875,-3.1640625,2.23046875
2455874,,,,,,,,-2.125,-11.64453125,22.2890625,-0.2578125,-0.1484375,0.05078125,-4.484375,-18.37109375,20.921875
2455875,,,,,,,,-9.46484375,-38.19140625,19.5546875,-0.62109375,-0.126953125,0.48828125,-11.83984375,-44.9140625,18.203125
2455876,,,,,,,,0.06640625,-29.24609375,2.00390625,-0.501953125,0.005859375,0.44140625,-2.33984375,-35.95703125,0.66015625
2455877,,,,,,,,7.67578125,-5.04296875,-1.95703125,-0.05859375,-0.07421875,0.345703125,5.24609375,-11.7421875,-3.28515625
2455878,,,,,,,,8.84765625,-1.6484375,-0.16796875,3.279296875,-0.37890625,0.626953125,6.39453125,-8.375,-1.33203125
2455879,,,,,,,,15.09375,4.07421875,5.7578125,-0.654296875,-1.044921875,0.271484375,12.60546875,-2.66796875,4.7578125
2455880,36.012838333333335,129.31892000000002,28.847702918286426,48.637178539423864,5.4,321.0,,6.75,-10.06640625,3.203125,-3.638671875,-1.04296875,-1.1796875,4.2890625,-16.80078125,2.078125
2455881,,,,,,,,2.83984375,-9.96875,2.703125,-4.94921875,-1.169921875,-1.130859375,0.49609375,-16.69140625,1.2734375
2455882,,,,,,,,-0.2890625,-4.28515625,2.19921875,-5.58203125,-1.365234375,-0.359375,-2.609375,-10.98046875,0.62109375
2455883,,,,,,,,-1.9140625,4.69140625,1.52734375,-5.09765625,-2.212890625,2.935546875,-4.40625,-1.82421875,-0.48828125
2455884,,,,,,,,-1.90625,7.01953125,1.22265625,-4.53125,-2.57421875,3.482421875,-4.52734375,0.58984375,-0.91015625
2455885,,,,,,,,-2.3125,8.1484375,0.2734375,-4.29296875,-2.9921875,3.62109375,-5.2109375,1.890625,-2.0234375
2455886,,,,,,,,-4.85546875,4.875,0.11328125,-4.27734375,-3.125,3.3828125,-7.89453125,-1.2890625,-2.25390625
2455887,,,,,,,,-7.4765625,-0.3984375,0.5390625,-3.787109375,-2.826171875,2.91796875,-10.76953125,-6.3828125,-1.9453125
2455888,,,,,,,,-9.59765625,-4.34765625,0.89453125,-3.001953125,-2.376953125,2.537109375,-13.10546875,-10.17578125,-1.67578125
2455889,,,,,,,,-8.265625,-15.8046875,0.38671875,-2.349609375,-1.42578125,1.97265625,-12.03125,-21.4375,-2.25390625
2455890,36.012842,129.31891583333334,28.472080467201014,49.044027857130615,5.5,319.0,,-4.5,-17.0859375,1.0625,-2.298828125,-1.005859375,1.390625,-8.390625,-22.62890625,-1.640625
2455891,,,,,,,,-1.3515625,-7.48046875,3.73828125,-1.41796875,-0.919921875,-0.236328125,-5.328125,-12.9296875,0.96484375
2455892,,,,,,,,-1.6796875,1.59375,6.87890625,-0.7421875,-0.9296875,-1.484375,-5.6328125,-3.890625,4.10546875
2455893,,,,,,,,-2.37109375,4.07421875,7.515625,-0.771484375,-0.978515625,-1.77734375,-6.28515625,-1.44140625,4.7578125
2455894,,,,,,,,-6.89453125,11.125,11.59765625,-0.888671875,-0.94140625,-1.98046875,-10.73046875,5.53125,8.85546875
2455895,,,,,,,,-7.4140625,12.8125,8.3359375,-1.150390625,-0.703125,-2.197265625,-11.15234375,7.140625,5.6015625
2455896,,,,,,,,-5.09765625,12.078125,3.515625,-1.658203125,-0.125,-2.6171875,-8.69921875,6.3359375,0.734375
2455897,,,,,,,,-3.421875,11.2734375,1.81640625,-1.26171875,0.2578125,-2.90625,-6.86328125,5.453125,-1.02734375
2455898,,,,,,,,-1.67578125,11.24609375,1.53515625,-0.376953125,0.388671875,-3.02734375,-5.01953125,5.375,-1.33203125
2455899,,,,,,,,1.18359375,8.96484375,1.75390625,1.455078125,0.443359375,-2.845703125,-1.95703125,2.9609375,-1.06640625
2455900,36.0128465,129.318912,28.126507443423858,49.5433433182966,5.9,322.0,0.0,16.83984375,-5.328125,6.86328125,-2.298828125,-1.005859375,1.390625,-8.390625,-22.62890625,-1.640625
2455901,,,,,,,,22.01171875,-26.47265625,19.40234375,3.970703125,0.544921875,-1.240234375,19.15234375,-32.7734375,16.94140625
2455902,,,,,,,,19.203125,-37.46875,14.4453125,4.919921875,1.162109375,-0.640625,16.4296875,-43.921875,12.265625
2455903,,,,,,,,15.7578125,-39.66796875,9.5234375,5.287109375,1.388671875,-0.40625,13.0234375,-46.1796875,7.515625
2455904,,,,,,,,14.8984375,-18.3671875,0.55859375,2.140625,2.033203125,0.322265625,12.21875,-25.04296875,-1.02734375
2455905,,,,,,,,8.69921875,-2.19921875,5.98046875,3.44140625,2.380859375,-0.78515625,6.08984375,-8.9453125,4.56640625
2455906,,,,,,,,4.7421875,-1.21484375,8.50390625,3.9375,1.73046875,-1.513671875,2.2578125,-8.0625,7.32421875
2455907,,,,,,,,2.88671875,-0.44140625,9.52734375,-0.12109375,0.794921875,-1.921875,-2.33984375,-6.265625,9.01171875
2455908,,,,,,,,-0.05078125,0.703125,9.95703125,-0.888671875,1.130859375,-1.431640625,-3.52734375,-5.1953125,7.09375
2455909,,,,,,,,-0.93359375,2.35546875,6.5,0.18359375,1.431640625,0.70703125,-2.30078125,-4.19921875,4.4140625
2455910,36.012851,129.31890866666666,27.826008984921323,50.042658936110136,5.6000000000000005,326.0,,1.08203125,4.609375,3.6484375,1.744140625,1.232421875,2.189453125,-1.53515625,-1.515625,1.66015625
2455911,,,,,,,,0.09765625,7.20703125,0.4609375,3.013671875,1.37109375,2.611328125,-2.21875,0.20703125,-0.375
2455912,,,,,,,,0.2109375,7.65234375,-0.7421875,3.4765625,1.564453125,2.658203125,-2.1875,0.66796875,-1.484375
2455913,,,,,,,,3.83203125,5.08203125,-0.01953125,3.482421875,1.923828125,2.623046875,1.26171875,-1.859375,-0.52734375
2455914,,,,,,,,6.09375,2.30859375,1.171875,3.0390625,2.015625,2.451171875,3.4453125,-4.62109375,0.7734375
2455915,,,,,,,,15.3515625,-10.44140625,4.03125,2.005859375,2.232421875,2.07421875,12.484375,-17.30078125,3.875
2455916,,,,,,,,7.97265625,-13.66796875,0.8828125,1.798828125,1.45703125,1.826171875,4.86328125,-20.44140625,0.890625
2455917,,,,,,,,4.5390625,-7.02734375,-0.1015625,2.45703125,1.123046875,1.685546875,1.375,-13.77734375,-0.03125
2455918,,,,,,,,6.3359375,4.94921875,1.89453125,2.96875,1.328125,0.19140625,3.06640625,-1.74609375,2.26953125
2455919,,,,,,,,10.11328125,12.08203125,3.921875,2.359375,1.31640625,-0.982421875,6.8515625,5.37890625,4.375
2455920,36.012854999999995,129.31890383333334,27.3902871602293,50.486494522030696,6.1000000000000005,320.0,,9.09765625,17.859375,5.7421875,1.0859375,0.994140625,-3.685546875,6.08984375,11.05078125,6.3671875
2455921,,,,,,,,4.22265625,16.4453125,1.03125,-1.7578125,0.09375,-4.876953125,1.68359375,9.4375,1.65625
2455922,,,,,,,,6.1953125,13.18359375,-0.515625,-2.63671875,-0.171875,-4.75390625,3.828125,6.10546875,0.046875
2455923,,,,,,,,5.91796875,12.3984375,-0.359375,-1.15625,0.103515625,-2.453125,3.98046875,5.1875,0.0078125
2455924,,,,,,,,5.15234375,7.06640625,3.1796875,-0.072265625,0.17578125,-0.939453125,3.33203125,-0.17578125,3.53125
2455925,,,,,,,,1.546875,-14.68359375,3.76171875,0.1796875,0.275390625,-0.01953125,-0.234375,-21.9296875,4.14453125
2455926,,,,,,,,-6.57421875,-31.42578125,15.96484375,-0.259765625,0.177734375,0.234375,-8.35546875,-38.671875,16.36328125
2455927,,,,,,,,-27.12890625,-56.82421875,30.9765625,-1.2109375,-0.03515625,0.529296875,-28.92578125,-64.07421875,31.34375
2455928,,,,,,,,3.9765625,-29.39453125,11.85546875,-0.669921875,-0.060546875,0.908203125,2.140625,-36.64453125,12.19140625
2455929,,,,,,,,16.3125,-13.11328125,-2.00390625,-0.3828125,0.015625,1.30859375,14.4375,-20.36328125,-1.67578125
2455930,36.012859000000006,129.31889966666668,27.014664742024276,50.93033031619402,5.9,320.0,,21.6171875,5.171875,1.41015625,0.919921875,-0.16796875,2.728515625,19.61328125,-2.0546875,1.76953125
2455931,,,,,,,,18.12109375,3.6484375,2.6484375,1.83203125,-0.345703125,3.0390625,15.890625,-3.5078125,3.1875
2455932,,,,,,,,7.55078125,-1.1875,-0.96875,-1.451171875,-1.197265625,-1.431640625,5.28515625,-8.33984375,-0.375
2455933,,,,,,,,0.98046875,-0.83203125,-1.87890625,-4.412109375,-2.3046875,-2.9453125,-1.07421875,-8.06640625,-1.44921875
2455934,,,,,,,,-1.046875,5.6796875,-2.15625,-6.197265625,-2.052734375,-1.6171875,-2.9140625,-1.6328125,-2.0625
2455935,,,,,,,,-2.21875,11.42578125,-0.4609375,-3.81640625,-2.830078125,2.1015625,-4.1015625,4.11328125,-0.7578125
2455936,,,,,,,,-2.4765625,12.015625,-0.24609375,-3.599609375,-2.900390625,2.814453125,-4.4453125,4.7265625,-0.64453125
2455937,,,,,,,,-8.48828125,6.3828125,-0.79296875,-2.810546875,-3.064453125,3.5546875,-10.6875,-0.828125,-1.33203125
2455938,,,,,,,,-13.69921875,4.19140625,-0.1015625,-1.939453125,-2.888671875,3.53125,-16.1640625,-2.93359375,-0.71875
2455939,,,,,,,,-17.1875,-0.09375,0.77734375,-1.900390625,-2.18359375,2.791015625,-19.88671875,-7.1484375,0.12109375
2455940,36.012863,129.31889516666666,26.608992680314582,51.374166033999195,6.0,318.0,,-16.88671875,-11.50390625,-0.08203125,-3.890625,-1.0078125,1.494140625,-19.80859375,-18.44921875,-0.94921875
2455941,,,,,,,,-1.828125,-23.5859375,2.87109375,-4.1015625,-0.689453125,0.892578125,-4.828125,-30.4765625,1.76953125
2455942,,,,,,,,4.0625,-20.73828125,5.69921875,-3.5703125,-0.578125,0.546875,1.03125,-27.60546875,4.48828125
2455943,,,,,,,,12.3515625,-9.26171875,14.1171875,-1.400390625,-0.63671875,-0.087890625,9.3046875,-16.109375,12.765625
2455944,,,,,,,,13.203125,1.02734375,19.85546875,0.326171875,-0.68359375,-0.548828125,10.1875,-5.84765625,18.5078125
2455945,,,,,,,,-1.3984375,10.34765625,-0.41796875,2.732421875,-0.939453125,0.05859375,-4.41015625,3.38671875,-1.44921875
2455946,,,,,,,,-8.46484375,13.7421875,-1.0859375,-0.775390625,-0.890625,-2.888671875,-11.37890625,6.71875,-1.984375
2455947,,,,,,,,-8.8515625,14.125,-1.0234375,-1.837890625,-0.328125,-4.12109375,-11.6484375,7.0625,-1.9453125
2455948,,,,,,,,-8.7578125,14.58984375,-1.41015625,-2.3984375,0.57421875,-4.234375,-11.23046875,7.41015625,-2.48046875
2455949,,,,,,,,-8.21875,14.19921875,-0.89453125,-1.55859375,0.130859375,-2.826171875,-10.42578125,6.94921875,-2.09765625
2455950,36.012867166666666,129.31889099999998,26.233370284318855,51.83649506719202,6.1000000000000005,320.0,,-6.62890625,12.94140625,-0.08203125,0.06640625,0.05859375,-1.65234375,-19.80859375,-18.44921875,-0.94921875
2455951,,,,,,,,-5.3515625,4.109375,-0.4453125,2.083984375,0.208984375,-0.955078125,-7.28515625,-3.2421875,-1.6015625
2455952,,,,,,,,-3.62109375,-1.23828125,-0.80859375,2.89453125,0.416015625,-0.66015625,-5.51953125,-8.60546875,-1.87109375
2455953,,,,,,,,12.421875,-18.53515625,4.015625,3.83984375,1.013671875,-0.181640625,10.5703125,-25.953125,3.2265625
2455954,,,,,,,,38.83984375,-52.421875,32.60546875,3.90625,1.234375,0.02734375,37.00390625,-59.859375,31.95703125
2455955,,,,,,,,14.22265625,-51.5546875,20.59375,4.052734375,1.65625,0.73046875,12.37109375,-59.01953125,20.234375
2455956,,,,,,,,14.03125,-26.37890625,0.97265625,4.595703125,2.115234375,1.7265625,12.1015625,-33.84765625,0.92578125
2455957,,,,,,,,12.9453125,-17.46875,-3.77734375,4.11328125,2.248046875,2.189453125,10.953125,-24.92578125,-3.66796875
2455958,,,,,,,,7.578125,3.8671875,4.18359375,-0.44921875,1.638671875,1.3984375,5.36328125,-3.546875,4.22265625
2455959,,,,,,,,-3.73046875,7.21484375,8.8203125,5.794921875,1.64453125,-1.546875,-5.94140625,-0.21484375,9.05078125
2455960,36.01287183333333,129.31888683333332,25.857747766265092,52.35430373663684,6.0,323.0,,-6.65625,4.83203125,6.93359375,0.06640625,0.05859375,-1.65234375,-19.80859375,-18.44921875,-0.94921875
2455961,,,,,,,,-4.98828125,6.75,5.27734375,0.40234375,0.9609375,-0.3671875,-6.7421875,-0.7890625,6.13671875
2455962,,,,,,,,-1.0859375,9.99609375,-0.09375,1.9296875,1.1875,1.994140625,-2.91796875,2.46484375,0.8515625
2455963,,,,,,,,-0.71484375,11.03125,-3.03125,2.90234375,1.265625,2.65625,-2.64453125,3.54296875,-1.984375
2455964,,,,,,,,-0.265625,12.32421875,-5.46484375,3.947265625,1.4921875,3.076171875,-2.4140625,4.9140625,-4.16796875
2455965,,,,,,,,9.640625,0.19140625,0.69140625,2.744140625,2.083984375,1.84375,7.08984375,-6.99609375,2.49609375
2455966,,,,,,,,20.0234375,-13.0234375,3.15625,1.13671875,1.7890625,1.841796875,17.3125,-20.1328125,5.0625
2455967,,,,,,,,17.8515625,-17.64453125,0.19140625,0.92578125,0.994140625,2.177734375,14.9765625,-24.69140625,2.15234375
2455968,,,,,,,,11.5703125,-16.4296875,-3.984375,1.51171875,0.51953125,2.17578125,8.6171875,-23.4296875,-1.984375
2455969,,,,,,,,8.4921875,-9.22265625,-6.140625,3.49609375,0.37109375,1.77734375,5.3984375,-16.11328125,-3.9375
2455970,36.012876,129.318882,25.422026100081684,52.81663262893469,6.5,319.0,,10.2578125,5.484375,-5.10546875,4.498046875,1.103515625,0.244140625,-19.80859375,-18.44921875,-0.94921875
2455971,,,,,,,,7.44140625,15.0390625,-0.87109375,3.33984375,1.205078125,-2.58984375,4.32421875,8.33203125,1.84765625
2455972,,,,,,,,5.96875,16.76953125,-0.3515625,2.47265625,1.08203125,-3.466796875,2.9453125,10.046875,2.4609375
2455973,,,,,,,,3.4609375,17.69921875,-0.24609375,-0.11328125,0.513671875,-4.162109375,0.6875,10.89453125,2.65234375
2455974,,,,,,,,1.44140625,17.2109375,-1.5390625,-4.05078125,-0.3203125,-4.31640625,-1.03515625,10.2421875,1.234375
2455975,,,,,,,,5.0703125,12.9140625,0.5,-4.98828125,-0.392578125,-3.34375,3.0625,5.61328125,2.765625
2455976,,,,,,,,5.9765625,9.3203125,2.28125,-2.48828125,-0.009765625,-1.703125,4.171875,1.890625,4.30078125
2455977,,,,,,,,5.44140625,3.0546875,2.70703125,-1.0234375,0.193359375,-0.1328125,3.71484375,-4.4296875,4.6015625
2455978,,,,,,,,4.93359375,-4.4921875,3.01953125,-0.884765625,0.017578125,1.21484375,3.17578125,-11.9765625,4.87109375
2455979,,,,,,,,1.65625,-26.640625,6.4609375,-1.33984375,-0.064453125,1.69140625,-0.15625,-34.12109375,8.28125
2455980,36.01288,129.31887716666668,24.986304531983258,53.260468335988975,6.2,317.0,,-24.51171875,-65.67578125,33.44140625,-2.4609375,-0.3828125,1.7578125,-19.80859375,-18.44921875,-0.94921875
2455981,,,,,,,,-6.09375,-52.2734375,6.7578125,-1.255859375,-0.474609375,1.404296875,-6.09375,-52.2734375,16.5546875
2455982,,,,,,,,10.1484375,-18.71875,-19.484375,0.91796875,-0.60546875,0.892578125,10.1484375,-18.71875,-9.68359375
2455983,,,,,,,,9.87890625,-0.90625,-14.16015625,2.66796875,-1.51171875,1.9921875,9.87890625,-0.90625,-4.359375
2455984,,,,,,,,4.7109375,4.19140625,-4.3515625,-1.947265625,-1.435546875,-0.826171875,4.7109375,4.19140625,5.4453125
2455985,,,,,,,,0.265625,-0.63671875,-5.04296875,-5.5859375,-2.13671875,-2.57421875,0.265625,-0.63671875,4.76171875
2455986,,,,,,,,4.7109375,7.140625,-7.68359375,-7.232421875,-1.9921875,-1.392578125,4.7109375,7.140625,2.11328125
2455987,,,,,,,,1.0703125,7.0625,-14.50390625,-5.96875,-2.240234375,0.55859375,1.0703125,7.0625,-4.703125
2455988,,,,,,,,-5.59375,-1.59375,-13.96875,-3.8671875,-2.845703125,2.08203125,-5.59375,-1.59375,-4.16796875
2455989,,,,,,,,-17.6640625,-12.16796875,-15.15625,-1.955078125,-3.357421875,2.412109375,-17.66796875,-12.16796875,-5.35546875
2455990,36.012884,129.31887283333333,24.595657517878685,53.704304192655925,6.1000000000000005,317.0,,-24.55859375,-19.3671875,-13.27734375,-0.568359375,-2.759765625,2.275390625,-24.5546875,-19.3671875,-3.4765625
2455991,,,,,,,,-26.85546875,-26.1484375,-13.203125,-2.375,-1.384765625,2.232421875,-26.8515625,-26.1484375,-3.40234375
2455992,,,,,,,,-16.20703125,-20.2890625,-8.375,-2.779296875,-0.53125,2.265625,-16.20703125,-20.2890625,1.42578125
2455993,,,,,,,,-11.83984375,-15.921875,-5.08203125,-2.515625,-0.125,2.0859375,-11.83984375,-15.921875,4.71875
2455994,,,,,,,,-3.06640625,1.01171875,1.5859375,-1.4296875,0.2578125,0.833984375,-3.06640625,1.01171875,11.38671875
2455995,,,,,,,,2.6796875,4.421875,-4.16015625,-0.853515625,-0.302734375,-0.896484375,2.6796875,4.421875,5.64453125
2455996,,,,,,,,4.2890625,8.7109375,-6.61328125,-0.099609375,-1.0546875,-2.13671875,4.2890625,8.71484375,3.1875
2455997,,,,,,,,1.72265625,7.63671875,-7.9140625,3.833984375,-0.6328125,-3.107421875,1.72265625,7.63671875,1.88671875
2455998,,,,,,,,-0.15625,6.4140625,-9.33203125,4.404296875,-0.03125,-3.2734375,-0.15625,6.4140625,0.46875
2455999,,,,,,,,-2.03125,5.2265625,-9.984375,2.115234375,0.36328125,-2.7734375,-2.03125,5.2265625,-0.18359375
2456000,36.01288833333333,129.31886799999998,24.159935931547082,54.18512635409712,6.4,317.0,0.0,-4.25390625,2.2734375,-10.90234375,-0.568359375,-2.759765625,2.275390625,-24.5546875,-19.3671875,-3.4765625
2456001,,,,,,,,-4.37109375,0.66796875,-12.015625,-0.802734375,0.5390625,-0.66796875,-4.37109375,0.66796875,-2.21484375
2456002,,,,,,,,-4.40625,-0.484375,-13.27734375,-0.150390625,0.4609375,0.078125,-4.40625,-0.484375,-3.4765625
2456003,,,,,,,,-6.58984375,-5.04296875,-12.08984375,1.486328125,0.36328125,0.40234375,-6.5859375,-5.04296875,-2.2890625
2456004,,,,,,,,-7.3203125,-11.40234375,-11.4375,3.12890625,0.478515625,0.20703125,-7.3203125,-11.3984375,-1.640625
2456005,,,,,,,,2.1796875,-30.32421875,-6.8046875,3.7578125,0.736328125,-0.0546875,2.1796875,-30.3203125,2.99609375
2456006,,,,,,,,18.34765625,-42.734375,4.49609375,3.666015625,0.8515625,-0.107421875,18.34765625,-42.73828125,14.296875
2456007,,,,,,,,2.87109375,-47.33203125,12.2734375,3.119140625,1.37109375,0.494140625,2.87109375,-47.33203125,22.07421875
2456008,,,,,,,,1.875,-21.51171875,-11.9375,3.837890625,1.5234375,2.185546875,1.875,-21.5078125,-2.13671875
2456009,,,,,,,,7.7734375,-15.99609375,-14.6953125,0.501953125,1.86328125,4.162109375,7.7734375,-15.99609375,-4.89453125
2456010,36.012893,129.31886416666666,23.81436330738864,54.70293519637307,6.1000000000000005,322.0,,11.94921875,-10.3671875,-11.6328125,0.021484375,1.806640625,1.494140625,11.9453125,-10.3671875,-1.83203125
2456011,,,,,,,,5.3984375,-3.6640625,-9.67578125,5.06640625,1.900390625,-2.177734375,5.40234375,-3.6640625,0.12109375
2456012,,,,,,,,1.94921875,-2.7421875,-9.6015625,5.310546875,1.373046875,-3.060546875,1.94921875,-2.74609375,0.19921875
2456013,,,,,,,,-2.37890625,2.88671875,-7.9921875,3.431640625,0.767578125,-2.267578125,-2.37890625,2.8828125,1.80859375
2456014,,,,,,,,-5.6328125,6.06640625,-7.80078125,1.744140625,0.849609375,0.1328125,-5.6328125,6.06640625,2.0
2456015,,,,,,,,-7.359375,9.62890625,-13.1640625,1.48046875,1.109375,2.123046875,-7.359375,9.62890625,-3.36328125
2456016,,,,,,,,-4.1796875,5.03515625,-14.734375,1.345703125,1.435546875,2.28125,-4.1796875,5.03125,-4.93359375
2456017,,,,,,,,8.76953125,-15.19140625,-11.70703125,0.96484375,1.83203125,1.98828125,8.76953125,-15.1875,-1.90625
2456018,,,,,,,,11.18359375,-31.58984375,-10.63671875,0.966796875,1.908203125,1.6328125,11.18359375,-31.5859375,-0.8359375
2456019,,,,,,,,11.18359375,-31.58984375,-10.63671875,1.8671875,1.1796875,2.169921875,13.2890625,-39.94140625,4.87109375
2456020,36.0128975,129.31885916666667,23.36361693326824,55.20225056482069,6.5,319.0,,11.94921875,-10.3671875,-11.6328125,0.021484375,1.806640625,1.494140625,11.60546875,-21.625,8.20703125
2456021,,,,,,,,5.7421875,-14.88671875,-4.96484375,3.197265625,-0.6484375,3.990234375,2.5625,-9.1015625,3.30078125
2456022,,,,,,,,2.79296875,2.8515625,-7.875,2.76171875,0.603515625,1.7109375,6.01171875,9.3203125,-0.453125
2456023,,,,,,,,9.26953125,15.0703125,-11.78515625,-1.26953125,0.80078125,-3.8984375,9.49609375,19.48046875,-1.41015625
2456024,,,,,,,,3.25390625,22.5,-8.14453125,-3.033203125,-0.015625,-7.130859375,3.25390625,22.5,1.65625
2456025,,,,,,,,-3.02734375,20.2421875,-9.6015625,-1.822265625,0.23046875,-7.69140625,-3.02734375,20.24609375,0.19921875
2456026,,,,,,,,-1.53515625,12.76953125,-12.58984375,-3.25390625,-0.318359375,-6.033203125,1.109375,9.82421875,-3.515625
2456027,,,,,,,,5.8984375,4.265625,-13.125,-2.814453125,-0.162109375,-2.88671875,5.90234375,4.265625,-3.32421875
2456028,,,,,,,,7.734375,0.703125,-11.01953125,0.279296875,0.6328125,-0.365234375,7.6171875,-0.59765625,0.23828125
2456029,,,,,,,,-0.81640625,-7.171875,4.046875,1.578125,0.78125,1.26171875,6.73828125,-5.921875,2.4609375
2456030,36.01290216666666,129.31885433333335,22.92789539460084,55.720059201754125,6.6000000000000005,320.0,,11.94921875,-10.3671875,-11.6328125,-0.275390625,-0.005859375,2.37109375,11.60546875,-21.625,8.20703125
2456031,,,,,,,,-42.8359375,-78.546875,37.90625,-2.564453125,-0.466796875,3.091796875,-35.93359375,-78.1328125,34.29296875
2456032,,,,,,,,-7.12890625,-64.1875,-3.6640625,-2.72265625,-0.470703125,2.9375,-7.12890625,-64.1875,6.13671875
2456033,,,,,,,,6.35546875,-30.09375,-14.65625,-2.46875,-0.392578125,2.80859375,6.35546875,-30.09375,-4.85546875
2456034,,,,,,,,10.875,-1.05859375,-13.23828125,1.205078125,-0.501953125,3.89453125,10.87890625,-1.05859375,-3.44140625
2456035,,,,,,,,24.0546875,13.61328125,-4.4296875,-1.333984375,-0.138671875,0.669921875,24.05859375,13.61328125,5.37109375
2456036,,,,,,,,10.1875,1.0859375,-9.984375,-5.943359375,-1.6484375,-3.044921875,10.19140625,1.0859375,-0.18359375
2456037,,,,,,,,8.08203125,-4.50390625,-12.51171875,-6.392578125,-2.0859375,-3.673828125,8.078125,-4.50390625,-2.7109375
2456038,,,,,,,,7.734375,-3.43359375,-14.04296875,-6.69140625,-2.16015625,-2.873046875,7.73828125,-3.43359375,-4.24609375
2456039,,,,,,,,4.7109375,3.34765625,-18.3359375,-6.8671875,-2.27734375,0.23046875,4.7109375,3.34765625,-8.53515625
2456040,36.01290616666667,129.31885016666666,22.552273425641452,56.163895189700604,6.1000000000000005,319.0,,-2.875,5.9921875,-18.10546875,-0.275390625,-0.005859375,2.37109375,11.60546875,-21.625,8.20703125
2456041,,,,,,,,-9.84765625,2.390625,-16.91796875,-2.572265625,-3.287109375,3.015625,-9.84765625,2.390625,-7.1171875
2456042,,,,,,,,-22.06640625,-9.25390625,-14.19921875,-2.505859375,-3.38671875,3.279296875,-22.06640625,-9.25390625,-4.3984375
2456043,,,,,,,,-32.41015625,-17.03125,-11.70703125,-3.376953125,-2.76953125,3.546875,-32.41015625,-17.03125,-1.90625
2456044,,,,,,,,-29.73046875,-29.55859375,-13.77734375,-4.044921875,-1.494140625,3.68359375,-29.7265625,-29.55859375,-3.9765625
2456045,,,,,,,,-10.69140625,-21.8203125,-14.2734375,-3.96484375,-0.171875,3.068359375,-10.69140625,-21.82421875,-4.47265625
2456046,,,,,,,,-4.29296875,-14.50390625,-7.83984375,-2.345703125,0.521484375,0.783203125,-4.29296875,-14.5,1.9609375
2456047,,,,,,,,-0.69140625,-1.9375,-0.5234375,-0.537109375,-0.09765625,-2.103515625,-0.69140625,-1.9375,9.2734375
2456048,,,,,,,,2.9453125,3.04296875,-0.4453125,-0.69140625,-1.359375,-3.576171875,2.9453125,3.04296875,9.3515625
2456049,,,,,,,,0.34375,11.0078125,3.9609375,-0.15625,-1.67578125,-3.677734375,0.34375,11.0078125,13.7578125
2456050,36.01291033333334,129.31884516666665,22.101527288906404,56.62622421092315,6.300000000000001,317.0,,-3.02734375,8.671875,-2.58984375,1.5390625,-0.77734375,-3.30078125,-3.02734375,8.67578125,7.2109375
2456051,,,,,,,,-2.68359375,6.10546875,-9.8671875,2.568359375,0.365234375,-3.1015625,-2.68359375,6.1015625,-0.0703125
2456052,,,,,,,,-5.2890625,8.01953125,-11.32421875,-0.029296875,-0.013671875,-2.69140625,-5.2890625,8.015625,-1.5234375
2456053,,,,,,,,-7.47265625,7.9453125,-11.32421875,-0.845703125,-0.05078125,-2.302734375,-7.47265625,7.94921875,-1.5234375
2456054,,,,,,,,-9.234375,-3.31640625,-10.17578125,-0.279296875,0.408203125,-1.4375,-9.234375,-3.31640625,-0.375
2456055,,,,,,,,-3.56640625,-27.03125,-9.90625,0.5625,0.248046875,-0.54296875,-3.56640625,-27.03515625,-0.10546875
2456056,,,,,,,,33.82421875,-78.1328125,23.91796875,2.072265625,0.361328125,0.302734375,33.82421875,-78.1328125,33.71875
2456057,,,,,,,,9.7265625,-69.0546875,13.421875,3.34765625,0.47265625,0.96484375,9.7265625,-69.0546875,23.22265625
2456058,,,,,,,,1.53125,-38.17578125,-2.09375,4.25,0.560546875,1.619140625,1.53125,-38.17578125,7.70703125
2456059,,,,,,,,0.2265625,-19.0234375,-9.37109375,2.93359375,1.20703125,3.140625,0.2265625,-19.02734375,0.4296875
2456060,36.012915666666665,129.3188415,21.77097952703027,57.218005998748176,6.6000000000000005,325.0,,6.1640625,-0.29296875,-6.91796875,1.5390625,-0.77734375,-3.30078125,6.1640625,-0.29296875,2.87890625
2456061,,,,,,,,3.13671875,5.875,-3.6640625,3.880859375,1.201171875,-1.638671875,3.13671875,5.875,6.1328125
2456062,,,,,,,,-3.10546875,-3.73828125,-10.25,4.724609375,1.375,-4.947265625,-3.10546875,-3.73828125,-0.453125
2456063,,,,,,,,-2.9921875,-5.578125,-10.86328125,4.732421875,1.216796875,-5.2109375,-2.9921875,-5.58203125,-1.06640625
2456064,,,,,,,,-1.07421875,-6.15234375,-12.05078125,2.744140625,1.326171875,-4.28515625,-1.07421875,-6.15234375,-2.25390625
2456065,,,,,,,,-0.4609375,-5.578125,-12.05078125,3.16796875,2.376953125,0.7109375,0.03515625,-2.7421875,-1.6015625
2456066,,,,,,,,-0.73046875,1.27734375,-11.36328125,4.240234375,2.181640625,2.2109375,-1.7265625,3.08203125,-1.83203125
2456067,,,,,,,,-2.4921875,4.57421875,-11.78515625,4.5390625,1.986328125,2.51953125,-2.53125,6.06640625,-2.4453125
2456068,,,,,,,,-2.53125,6.06640625,-12.2421875,3.72265625,1.986328125,2.611328125,-1.34375,5.9140625,-1.37109375
2456069,,,,,,,,1.53125,4.34375,-9.41015625,2.25,1.70703125,2.58984375,9.609375,-2.89453125,5.0625
2456070,36.01292,129.31883666666667,21.335258274662635,57.69882830328615,6.6000000000000005,320.0,,6.1640625,-0.29296875,-6.91796875,0.73828125,1.283203125,2.6328125,13.2109375,-8.83203125,5.6015625
2456071,,,,,,,,10.609375,-11.171875,-6.34375,-0.365234375,0.7109375,2.75390625,10.609375,-11.171875,3.45703125
2456072,,,,,,,,10.68359375,-14.234375,-8.60546875,0.61328125,0.048828125,2.94140625,10.45703125,-16.80078125,0.16015625
2456073,,,,,,,,6.81640625,-19.29296875,-13.69921875,3.671875,-0.212890625,3.2421875,6.81640625,-19.2890625,-3.8984375
2456074,,,,,,,,6.203125,-12.43359375,-17.4140625,4.91796875,0.095703125,2.326171875,6.203125,-12.4296875,-7.6171875
2456075,,,,,,,,6.85546875,-4.4296875,-16.45703125,5.1171875,0.138671875,-0.130859375,6.85546875,-4.4296875,-6.65625
2456076,,,,,,,,9.0,-0.55859375,-15.65234375,4.884765625,-0.09375,-1.654296875,9.0,-0.55859375,-5.8515625
2456077,,,,,,,,8.1171875,8.44140625,-10.51953125,4.30078125,-0.19921875,-4.349609375,8.1171875,8.44140625,-0.71875
2456078,,,,,,,,-0.9609375,10.89453125,-4.50390625,1.529296875,-0.330078125,-4.91796875,-0.9609375,10.890625,5.29296875
2456079,,,,,,,,-5.25,14.1875,-5.30859375,-4.697265625,-0.857421875,-3.8203125,-5.25,14.1875,4.48828125
2456080,36.01292466666666,129.31883233333335,20.94461146746277,58.21663715056642,6.6000000000000005,321.0,,-3.83203125,16.37109375,-7.76171875,0.73828125,1.283203125,2.6328125,-3.83203125,16.3671875,2.0390625
2456081,,,,,,,,-0.9609375,7.41015625,-7.9921875,-6.81640625,0.00390625,-1.759765625,-0.9609375,7.40625,1.80859375
2456082,,,,,,,,-3.02734375,-4.7734375,-5.234375,-2.697265625,1.27734375,-0.806640625,-3.02734375,-4.77734375,4.56640625
2456083,,,,,,,,-8.046875,-34.078125,7.0625,-0.15234375,1.912109375,0.07421875,-8.046875,-34.08203125,16.86328125
2456084,,,,,,,,-6.8203125,-75.2578125,22.234375,-0.7734375,1.3046875,1.32421875,-6.8203125,-75.26171875,32.03125
2456085,,,,,,,,-1.3046875,-72.6171875,0.58984375,-0.4609375,0.73828125,3.58203125,-1.3046875,-72.6171875,10.390625
2456086,,,,,,,,15.51171875,-33.3515625,-6.3828125,1.59375,0.548828125,6.4765625,15.51171875,-33.35546875,3.41796875
2456087,,,,,,,,26.66015625,-5.1953125,-15.8828125,3.5,0.328125,7.0390625,26.65625,-5.1953125,-6.08203125
2456088,,,,,,,,18.38671875,-0.40625,-11.09375,2.595703125,-0.560546875,2.16796875,18.3828125,-0.40625,-1.29296875
2456089,,,,,,,,6.69921875,-3.625,-9.75390625,-1.4375,-0.5390625,-3.732421875,6.6953125,-3.625,0.046875
2456090,36.012929,129.31882766666666,20.523915132868034,58.69745953366576,6.2,320.0,,6.08984375,-2.8203125,-13.39453125,-4.380859375,-1.32421875,-7.302734375,6.08984375,-2.8203125,-3.59375
2456091,,,,,,,,6.6640625,-5.30859375,-12.47265625,-10.26171875,-1.96484375,-5.873046875,6.6640625,-5.30859375,-2.671875
2456092,,,,,,,,1.26171875,-2.12890625,-14.12109375,-9.591796875,-1.615234375,-1.8671875,1.26171875,-2.12890625,-4.3203125
2456093,,,,,,,,-3.18359375,1.73828125,-15.578125,-3.669921875,-1.7109375,0.798828125,-3.18359375,1.73828125,-5.7734375
2456094,,,,,,,,-8.62109375,3.69140625,-14.234375,-0.4921875,-1.935546875,2.2109375,-8.6171875,3.69140625,-4.4375
2456095,,,,,,,,-12.375,3.38671875,-10.3671875,-0.81640625,-3.146484375,2.0390625,-12.37890625,3.38671875,-0.56640625
2456096,,,,,,,,-18.62109375,3.078125,-2.24609375,-1.681640625,-2.90234375,1.982421875,-18.6171875,3.078125,7.5546875
2456097,,,,,,,,-18.96484375,2.0078125,-4.0078125,-3.525390625,-1.96875,2.0234375,-18.96484375,2.0078125,5.79296875
2456098,,,,,,,,-13.640625,1.625,-13.1640625,-4.841796875,-0.892578125,2.1015625,-13.640625,1.625,-3.36328125
2456099,,,,,,,,-12.796875,-4.4296875,-14.88671875,-4.177734375,-0.37890625,2.09375,-12.796875,-4.4296875,-5.0859375
2456100,36.01293316666667,129.31882266666668,20.073169234951173,59.159788660059284,6.5,317.0,0.0,-12.4921875,-16.49609375,-14.12109375,-2.08984375,0.115234375,1.4140625,6.08984375,-2.8203125,-3.59375
2456101,,,,,,,,-9.80859375,-21.0546875,-13.62109375,-1.23828125,-0.318359375,1.33984375,-9.80859375,-21.0546875,-3.82421875
2456102,,,,,,,,-5.59375,-12.703125,-10.671875,-1.017578125,-0.67578125,1.724609375,-5.59375,-12.70703125,-0.875
2456103,,,,,,,,-5.2109375,-9.25390625,-8.52734375,-0.775390625,-0.5625,1.576171875,-5.2109375,-9.25390625,1.2734375
2456104,,,,,,,,-4.25390625,-2.4375,-4.890625,-0.044921875,-0.181640625,0.4921875,-4.25390625,-2.4375,4.91015625
2456105,,,,,,,,2.984375,1.5078125,-6.3046875,0.611328125,-0.3828125,-1.091796875,2.984375,1.5078125,3.4921875
2456106,,,,,,,,3.828125,5.2265625,-5.234375,1.587890625,-0.6171875,-1.404296875,3.828125,5.2265625,4.56640625
2456107,,,,,,,,-0.234375,7.5234375,-6.0390625,3.134765625,-0.322265625,-1.779296875,-0.234375,7.5234375,3.76171875
2456108,,,,,,,,-1.6875,8.09765625,-7.109375,3.6953125,-0.1015625,-2.05859375,-1.6875,8.09765625,2.6875
2456109,,,,,,,,-2.953125,8.671875,-11.8984375,2.109375,-0.02734375,-2.36328125,-2.953125,8.671875,-2.09765625
2456110,36.012937666666666,129.3188185,19.697547432819057,59.65910439192505,6.5,320.0,,-3.83203125,6.60546875,-13.31640625,-2.08984375,0.115234375,1.4140625,6.08984375,-2.8203125,-3.59375
2456111,,,,,,,,-5.09765625,2.65625,-11.171875,-0.375,0.064453125,-1.7265625,-5.09765625,2.65625,-1.37109375
2456112,,,,,,,,-7.01171875,-4.66015625,-6.421875,1.099609375,0.34765625,-1.380859375,-7.0078125,-4.66015625,3.37890625
2456113,,,,,,,,-10.421875,-11.24609375,0.7421875,2.11328125,0.2265625,-0.755859375,-10.421875,-11.2421875,10.54296875
2456114,,,,,,,,-4.37109375,-19.3671875,-6.3828125,2.138671875,0.103515625,0.5546875,-4.37109375,-19.3671875,3.41796875
2456115,,,,,,,,-1.0,-29.3671875,-1.01953125,2.8984375,0.30859375,1.298828125,-1.0,-29.3671875,8.78125
2456116,,,,,,,,3.3671875,-36.4921875,0.3984375,3.33984375,0.3984375,1.583984375,3.3671875,-36.49609375,10.19921875
2456117,,,,,,,,20.22265625,-63.0390625,0.51171875,4.25,0.56640625,1.76171875,20.22265625,-63.0390625,10.3125
2456118,,,,,,,,12.984375,-47.140625,1.31640625,3.48828125,0.384765625,2.07421875,12.984375,-47.140625,11.1171875
2456119,,,,,,,,9.53515625,-20.5546875,-7.45703125,2.541015625,0.732421875,1.962890625,6.77734375,-10.17578125,-2.8671875
2456120,36.01294233333333,129.3188145,19.33695045971386,60.17691337932142,6.1000000000000005,322.0,,6.28125,-12.3203125,-12.51171875,0.337890625,0.759765625,0.525390625,5.4375,-15.5,-1.02734375
2456121,,,,,,,,-2.8359375,-16.15234375,-5.1171875,2.396484375,-0.443359375,-3.501953125,-4.9453125,-14.734375,7.09375
2456122,,,,,,,,-2.64453125,-11.70703125,-1.671875,2.1484375,-0.470703125,-3.703125,-2.64453125,-11.703125,8.12890625
2456123,,,,,,,,-0.38671875,-6.6875,-7.03515625,2.359375,0.8203125,-0.62109375,-0.38671875,-6.6875,2.765625
2456124,,,,,,,,0.953125,-4.19921875,-10.98046875,3.435546875,1.357421875,1.126953125,1.796875,-3.28515625,-2.3671875
2456125,,,,,,,,2.06640625,-0.94140625,-12.8203125,4.052734375,1.365234375,0.525390625,2.06640625,-0.94140625,-3.015625
2456126,,,,,,,,2.1796875,3.30859375,-12.05078125,3.36328125,1.123046875,-0.548828125,2.1796875,3.3046875,-2.25390625
2456127,,,,,,,,1.875,6.796875,-11.24609375,2.38671875,1.453125,-0.77734375,1.875,6.80078125,-1.44921875
2456128,,,,,,,,7.50390625,-0.63671875,-8.6796875,1.345703125,1.55078125,-0.287109375,7.50390625,-0.63671875,1.1171875
2456129,,,,,,,,10.5703125,-6.95703125,-8.296875,0.6328125,1.32421875,0.412109375,10.57421875,-6.95703125,1.5
2456130,36.012946166666666,129.31881049999998,18.976353726608664,60.602256349430675,6.1000000000000005,321.0,,12.79296875,-10.98046875,-7.83984375,0.337890625,0.759765625,0.525390625,12.79296875,-10.98046875,1.9609375
2456131,,,,,,,,7.96484375,-8.87109375,-8.91015625,1.1796875,-0.017578125,2.068359375,7.96484375,-8.8671875,0.890625
2456132,,,,,,,,4.25,-3.43359375,-10.94140625,2.6015625,0.037109375,2.9296875,4.25390625,-3.43359375,-1.140625
2456133,,,,,,,,-2.39453125,7.1015625,-2.5625,3.025390625,0.06640625,3.064453125,2.91015625,0.78125,-2.40625
2456134,,,,,,,,-2.59765625,8.94921875,-2.296875,1.115234375,-0.6015625,0.630859375,2.48828125,2.62109375,-2.0234375
2456135,,,,,,,,-3.37890625,11.87109375,-1.7109375,-0.203125,-0.85546875,-0.89453125,1.68359375,5.68359375,-1.484375
2456136,,,,,,,,-4.30859375,12.90234375,-1.3515625,-0.728515625,-0.919921875,-1.255859375,0.76171875,6.828125,-1.1796875
2456137,,,,,,,,-7.44921875,14.72265625,0.046875,-1.759765625,-0.888671875,-1.357421875,-2.37890625,8.94140625,0.046875
2456138,,,,,,,,-8.6640625,14.96875,0.38671875,-2.619140625,-0.822265625,-1.0390625,-3.640625,9.515625,0.19921875
2456139,,,,,,,,-9.734375,14.07421875,-0.13671875,-3.41015625,-0.57421875,-0.630859375,-4.828125,8.9765625,-0.52734375
2456140,36.012950333333336,129.31880616666666,18.585707305532992,61.06458568436443,6.0,320.0,,-10.55859375,11.58984375,-0.85546875,-3.744140625,-0.005859375,-0.12890625,-5.82421875,6.87109375,-1.44921875
2456141,,,,,,,,-10.2265625,5.515625,0.17578125,-3.513671875,0.771484375,0.18359375,-5.71484375,1.1640625,-0.56640625
2456142,,,,,,,,-8.1484375,-2.98828125,4.23828125,-2.73828125,1.220703125,0.8515625,-4.0234375,-6.87890625,3.41796875
2456143,,,,,,,,-5.51953125,-5.390625,4.97265625,-2.53125,1.15625,1.17578125,-1.53515625,-9.1796875,4.14453125
2456144,,,,,,,,6.8203125,-17.0546875,13.4375,-1.87890625,0.908203125,1.890625,10.53125,-20.71484375,12.6484375
2456145,,,,,,,,10.75390625,-29.50390625,14.078125,-0.61328125,0.748046875,2.16015625,14.24609375,-33.19921875,13.4140625
2456146,,,,,,,,-19.85546875,-69.65625,28.890625,1.01171875,0.736328125,1.783203125,-16.55078125,-73.6484375,28.46875
2456147,,,,,,,,-34.86328125,-78.1328125,12.6953125,1.1328125,0.708984375,1.390625,-34.86328125,-78.13671875,22.4921875
2456148,,,,,,,,-32.44921875,-68.9765625,16.6015625,0.98046875,0.908203125,1.54296875,-32.44921875,-68.9765625,26.40234375
2456149,,,,,,,,9.53515625,-17.796875,-4.390625,-0.10546875,2.09765625,1.3671875,9.53515625,-17.80078125,5.41015625
2456150,36.012954,129.31880199999998,18.21008585812332,61.4714354463142,5.6000000000000005,318.0,,24.32421875,-1.01953125,-8.91015625,-3.744140625,-0.005859375,-0.12890625,24.3203125,-1.01953125,0.890625
2456151,,,,,,,,24.62890625,2.58203125,-9.6015625,4.416015625,-0.80078125,-1.888671875,24.625,2.58203125,0.19921875
2456152,,,,,,,,14.9375,-9.8671875,-13.62109375,-0.97265625,0.267578125,-4.83984375,14.94140625,-9.8671875,-3.82421875
2456153,,,,,,,,13.44140625,-12.2421875,-18.79296875,-3.4375,-0.841796875,-5.5078125,13.4375,-12.2421875,-8.99609375
2456154,,,,,,,,8.65625,-6.34375,-16.7265625,-6.5,-1.837890625,-3.591796875,8.66015625,-6.34375,-6.92578125
2456155,,,,,,,,6.35546875,-9.1796875,-12.89453125,-6.2734375,-1.341796875,-0.58203125,6.35546875,-9.18359375,-3.09375
2456156,,,,,,,,0.49609375,-7.26171875,-11.24609375,-4.099609375,-1.5234375,0.845703125,0.49609375,-7.26171875,-1.44921875
2456157,,,,,,,,-6.24609375,2.65625,-11.2109375,-3.080078125,-2.037109375,2.431640625,-6.2421875,2.65625,-1.41015625
2456158,,,,,,,,-10.1171875,9.28515625,-10.7109375,-3.54296875,-1.39453125,1.982421875,-10.12109375,9.28515625,-0.91015625
2456159,,,,,,,,-12.94921875,14.83984375,-8.6796875,-3.865234375,-1.142578125,1.33203125,-12.94921875,14.83984375,1.1171875
2456160,36.012958000000005,129.318798,17.849489197620493,61.91527167071289,5.5,319.0,,-9.84765625,10.81640625,-13.31640625,-4.400390625,-0.955078125,0.826171875,-9.84765625,10.81640625,-3.515625
2456161,,,,,,,,-9.234375,5.875,-15.8828125,-4.603515625,-1.25390625,0.626953125,-9.23828125,5.875,-6.08203125
2456162,,,,,,,,-9.84765625,2.08203125,-14.734375,-3.60546875,-0.79296875,0.333984375,-9.84765625,2.08203125,-4.93359375
2456163,,,,,,,,-10.0390625,-8.22265625,-12.89453125,-2.712890625,-0.60546875,0.61328125,-10.0390625,-8.22265625,-3.09375
2456164,,,,,,,,-7.51171875,-14.92578125,-14.390625,-2.810546875,-0.765625,1.736328125,-7.51171875,-14.921875,-4.58984375
2456165,,,,,,,,-2.453125,-18.87109375,-18.14453125,-2.267578125,-0.51953125,2.685546875,-2.453125,-18.87109375,-8.34375
2456166,,,,,,,,-0.578125,-17.375,-17.26171875,-0.681640625,-0.12109375,3.228515625,-0.578125,-17.375,-7.4609375
2456167,,,,,,,,-2.109375,-8.83203125,-12.05078125,1.083984375,-0.09375,3.142578125,-2.109375,-8.83203125,-2.25390625
2456168,,,,,,,,-3.98828125,-1.32421875,-8.375,1.724609375,-0.529296875,2.470703125,-3.98828125,-1.32421875,1.42578125
2456169,,,,,,,,-4.0234375,-0.0625,-8.10546875,1.162109375,-0.734375,1.96875,-4.0234375,-0.0625,1.69140625
2456170,36.01296116666666,129.31879416666666,17.503917581276397,62.266641904724686,5.4,317.0,,-4.5234375,2.8515625,-8.22265625,-0.609375,-1.064453125,0.873046875,-4.52734375,2.8515625,1.578125
2456171,,,,,,,,-5.09765625,4.8046875,-7.53125,-1.28515625,-0.90234375,-0.4609375,-5.09765625,4.8046875,2.26953125
2456172,,,,,,,,-8.69921875,5.609375,-0.94140625,0.111328125,-0.4296875,-1.078125,-8.69921875,5.609375,8.8515625
2456173,,,,,,,,-10.421875,5.37890625,0.85546875,0.84375,-0.201171875,-1.26171875,-10.421875,5.37890625,10.66015625
2456174,,,,,,,,-6.9375,4.57421875,-4.19921875,2.1328125,0.234375,-1.439453125,-6.9375,4.57421875,5.6015625
2456175,,,,,,,,-2.37890625,4.49609375,-5.30859375,3.40234375,0.857421875,-1.7890625,-2.37890625,4.4921875,4.48828125
2456176,,,,,,,,0.9921875,0.015625,-6.53515625,5.02734375,1.001953125,-2.44921875,0.9921875,0.015625,3.26953125
2456177,,,,,,,,-1.6875,-20.1328125,0.24609375,4.572265625,0.353515625,-2.169921875,-1.6875,-20.13671875,10.04296875
2456178,,,,,,,,-2.953125,-34.15625,4.53515625,3.81640625,0.044921875,-1.6640625,-2.953125,-34.15625,14.3359375
2456179,,,,,,,,9.91796875,-55.453125,0.05078125,2.515625,-0.025390625,-0.494140625,9.91796875,-55.453125,9.8515625
2456180,36.012965333333334,129.3187905,17.173370594814337,62.72897142293635,5.7,321.0,,19.609375,-78.0546875,2.08203125,-0.609375,-1.064453125,0.873046875,-4.52734375,2.8515625,1.578125
2456181,,,,,,,,15.703125,-59.97265625,7.0234375,-0.998046875,-0.900390625,2.931640625,15.703125,-59.96875,16.82421875
2456182,,,,,,,,7.66015625,-26.2265625,-7.5703125,-1.8046875,-0.935546875,3.91796875,7.66015625,-26.2265625,2.23046875
2456183,,,,,,,,-8.5078125,-12.78125,-4.92578125,-2.12109375,-1.578125,1.7890625,-8.5078125,-12.78515625,4.87109375
2456184,,,,,,,,-12.3359375,-13.046875,-6.61328125,3.533203125,-0.71875,-3.8515625,-12.3359375,-13.05078125,3.1875
2456185,,,,,,,,-7.203125,-6.8046875,-9.83203125,4.482421875,-1.7109375,-7.107421875,-7.20703125,-6.8046875,-0.03125
2456186,,,,,,,,-6.015625,-5.5,-10.05859375,4.373046875,-1.619140625,-6.810546875,-6.01953125,-5.5,-0.26171875
2456187,,,,,,,,-1.49609375,-7.1484375,-11.70703125,4.388671875,0.451171875,-4.048828125,-1.49609375,-7.15234375,-1.90625
2456188,,,,,,,,5.015625,-7.1875,-13.69921875,4.056640625,1.845703125,-1.560546875,5.015625,-7.1875,-3.8984375
2456189,,,,,,,,6.85546875,-8.18359375,-14.96484375,1.587890625,1.419921875,-0.56640625,6.85546875,-8.1796875,-5.1640625
2456190,36.01296933333333,129.31878700000001,16.857848498337326,63.17280777552253,5.1000000000000005,323.0,,10.53125,-7.0703125,-14.0078125,-0.609375,-1.064453125,0.873046875,-4.52734375,2.8515625,1.578125
2456191,,,,,,,,11.52734375,-4.390625,-7.9921875,2.54296875,1.7578125,-0.400390625,11.52734375,-4.390625,1.80859375
2456192,,,,,,,,8.46484375,-2.62890625,-6.078125,3.580078125,1.712890625,-0.1875,8.46484375,-2.62890625,3.72265625
2456193,,,,,,,,4.2109375,-0.55859375,-6.53515625,3.419921875,1.75390625,0.443359375,4.21484375,-0.55859375,3.265625
2456194,,,,,,,,3.63671875,2.08203125,-6.8046875,1.5234375,1.3046875,1.255859375,3.63671875,2.08203125,2.99609375
2456195,,,,,,,,3.17578125,4.95703125,-7.30078125,-0.58203125,0.314453125,1.30859375,3.17578125,4.95703125,2.49609375
2456196,,,,,,,,2.984375,4.23046875,-8.18359375,-0.580078125,-0.046875,1.13671875,2.984375,4.2265625,1.6171875
2456197,,,,,,,,3.484375,1.890625,-8.48828125,-0.3359375,-0.32421875,1.095703125,3.484375,1.890625,1.30859375
2456198,,,,,,,,4.51953125,-2.24609375,-10.13671875,-0.4140625,-0.626953125,1.12890625,4.515625,-2.24609375,-0.3359375
2456199,,,,,,,,3.1015625,-3.43359375,-11.4375,-0.439453125,-0.859375,1.296875,3.1015625,-3.43359375,-1.640625
