time,latitude,longitude,enu_x,enu_y,speed,course,ecg,accX,accY,accZ,gyrX,gyrY,gyrZ,eulR,eulP,eulY
2400300,36.012938999999996,129.3191525,49.807298734618385,59.80716915754519,1.8,83.0,0.0,-2.59375,-2.4296875,3.0546875,0.724609375,0.005859375,-0.06640625,0.984375,-13.3359375,2.578125
2400301,,,,,,,,-2.85546875,-3.2109375,2.73046875,0.599609375,-0.05859375,0.216796875,-0.43359375,-10.66015625,-0.02734375
2400302,,,,,,,,-2.77734375,-3.74609375,2.640625,0.552734375,-0.103515625,0.443359375,-0.39453125,-11.23046875,-0.0625
2400303,,,,,,,,-2.25390625,-4.0,2.8515625,0.529296875,-0.11328125,0.5390625,0.10546875,-11.5,0.1640625
2400304,,,,,,,,-1.39453125,-3.1328125,3.80078125,0.423828125,-0.107421875,0.6796875,0.91015625,-10.66015625,1.16015625
2400305,,,,,,,,-1.9453125,-1.828125,4.765625,0.25,-0.099609375,0.73828125,0.296875,-9.39453125,2.15625
2400306,,,,,,,,-2.22265625,-1.8046875,5.31640625,0.08203125,-0.07421875,0.73828125,-0.05078125,-9.39453125,2.73046875
2400307,,,,,,,,-1.859375,-4.49609375,5.83984375,-0.11328125,-0.083984375,0.611328125,0.21875,-12.11328125,3.26953125
2400308,,,,,,,,-0.41015625,-6.8984375,7.1953125,-0.232421875,-0.099609375,0.5234375,1.63671875,-14.52734375,4.609375
2400309,,,,,,,,2.42578125,-9.45703125,9.30859375,-0.419921875,-0.109375,0.373046875,4.43359375,-17.0859375,6.71484375
2400310,36.012938166666665,129.319154,49.94252269739593,59.714703891849325,1.6,91.0,,6.33984375,-13.85546875,11.1328125,0.724609375,0.005859375,-0.06640625,8.30078125,-21.4921875,8.515625
2400311,,,,,,,,5.33984375,-13.34375,10.84375,0.123046875,-0.115234375,1.341796875,5.8125,-19.46484375,7.59765625
2400312,,,,,,,,1.04296875,-7.640625,8.67578125,0.25390625,-0.0859375,1.556640625,1.63671875,-14.30078125,5.98828125
2400313,,,,,,,,-1.015625,-6.140625,9.33203125,-0.1796875,-0.1484375,1.12109375,-0.2421875,-13.56640625,7.90234375
2400314,,,,,,,,-2.9921875,-5.3125,11.37109375,-0.69140625,-0.271484375,-0.12890625,-1.7734375,-12.6875,8.01953125
2400315,,,,,,,,-3.52734375,-4.5546875,9.41015625,-0.982421875,-0.361328125,-1.189453125,-1.58203125,-11.9921875,4.1484375
2400316,,,,,,,,-3.16796875,-4.26171875,6.8046875,-0.92578125,-0.34765625,-1.33984375,-1.390625,-12.23046875,3.0390625
2400317,,,,,,,,-2.87109375,-4.8671875,5.17578125,-0.46484375,-0.185546875,-1.15234375,-0.890625,-13.109375,2.76953125
2400318,,,,,,,,-2.44140625,-5.61328125,5.92578125,-0.001953125,-0.0546875,-0.673828125,-0.46875,-13.453125,3.69140625
2400319,,,,,,,,-1.9140625,-5.50390625,6.8671875,0.1640625,0.125,-0.140625,-0.125,-13.18359375,4.1484375
2400320,36.01293783333333,129.319156,50.122820822806275,59.677718505605405,1.7000000000000002,96.0,,-2.3359375,-3.7109375,5.6796875,0.15625,0.4296875,0.390625,-0.546875,-11.421875,3.0
2400321,,,,,,,,-2.62109375,-2.26953125,5.06640625,0.107421875,0.548828125,0.353515625,-0.85546875,-10.00390625,2.42578125
2400322,,,,,,,,-2.48046875,-1.328125,4.72265625,-0.015625,0.57421875,0.125,-0.73828125,-9.0859375,2.12109375
2400323,,,,,,,,-2.328125,-0.5625,4.3203125,-0.078125,0.576171875,0.01171875,-0.5859375,-8.3203125,1.734375
2400324,,,,,,,,-2.14453125,0.2578125,3.80859375,-0.158203125,0.552734375,-0.14453125,-0.39453125,-7.51953125,1.23828125
2400325,,,,,,,,-2.16015625,1.37890625,3.1015625,-0.134765625,0.505859375,-0.224609375,-0.39453125,-6.3984375,0.546875
2400326,,,,,,,,-2.0,2.2265625,2.7265625,-0.056640625,0.4296875,-0.2578125,-0.203125,-5.56640625,0.203125
2400327,,,,,,,,-1.79296875,2.95703125,2.48046875,-0.03125,0.357421875,-0.2734375,0.02734375,-4.828125,-0.02734375
2400328,,,,,,,,-1.65625,3.1171875,2.4375,-0.046875,0.330078125,-0.28125,0.1796875,-4.68359375,-0.0625
2400329,,,,,,,,-1.53515625,3.65234375,2.44921875,-0.126953125,0.2734375,-0.2734375,0.33203125,-4.140625,-0.02734375
2400330,36.01293716666667,129.31915733333332,50.24301985665113,59.60374636514555,1.5,102.0,,-1.234375,3.890625,2.44140625,0.15625,0.4296875,0.390625,-0.546875,-11.421875,3.0
2400331,,,,,,,,-1.10546875,3.8828125,2.48046875,-0.302734375,0.173828125,-0.22265625,0.79296875,-3.9140625,0.01171875
2400332,,,,,,,,-0.73046875,3.69140625,2.48046875,-0.359375,0.109375,-0.205078125,1.17578125,-4.10546875,0.01171875
2400333,,,,,,,,-0.5859375,3.5390625,2.49609375,-0.37890625,0.078125,-0.208984375,1.328125,-4.26171875,0.01171875
2400334,,,,,,,,-0.25390625,3.22265625,2.50390625,-0.41796875,0.005859375,-0.23046875,1.67578125,-4.56640625,0.01171875
2400335,,,,,,,,-0.109375,3.0234375,2.48828125,-0.431640625,-0.076171875,-0.25390625,1.828125,-4.7578125,-0.02734375
2400336,,,,,,,,-0.01171875,2.6640625,2.4765625,-0.4765625,-0.177734375,-0.265625,1.94140625,-5.10546875,-0.0625
2400337,,,,,,,,-0.01171875,2.50390625,2.54296875,-0.537109375,-0.2265625,-0.28515625,1.94140625,-5.25,-0.02734375
2400338,,,,,,,,-0.0546875,2.15234375,2.67578125,-0.580078125,-0.251953125,-0.3046875,1.90625,-5.59375,0.08984375
2400339,,,,,,,,-0.30078125,1.3984375,2.96875,-0.708984375,-0.310546875,-0.30859375,1.67578125,-6.328125,0.3203125
2400340,36.0129365,129.31915916666668,50.408293376490505,59.529774485036924,1.7000000000000002,107.0,,-1.0,-0.1484375,3.55078125,-0.76171875,-0.3203125,-0.28515625,0.984375,-7.86328125,0.85546875
2400341,,,,,,,,-1.62109375,-1.0625,4.28125,-0.818359375,-0.30859375,-0.267578125,0.37109375,-8.7421875,1.5078125
2400342,,,,,,,,-1.8515625,-1.3046875,4.6171875,-0.830078125,-0.3046875,-0.259765625,0.140625,-8.97265625,1.8125
2400343,,,,,,,,-2.43359375,-1.70703125,5.4375,-0.857421875,-0.294921875,-0.271484375,-0.43359375,-9.35546875,2.578125
2400344,,,,,,,,-2.6328125,-1.7578125,5.61328125,-0.873046875,-0.28515625,-0.283203125,-0.625,-9.39453125,2.73046875
2400345,,,,,,,,-3.13671875,-1.56640625,5.31640625,-0.97265625,-0.287109375,-0.28125,-1.12109375,-9.16015625,2.34765625
2400346,,,,,,,,-2.71484375,-1.30859375,5.0,-0.978515625,-0.25,-0.271484375,-0.69921875,-8.8515625,1.9296875
2400347,,,,,,,,-2.6875,-1.4296875,4.953125,-0.966796875,-0.240234375,-0.26953125,-0.6640625,-8.96875,1.8515625
2400348,,,,,,,,-2.88671875,-1.9609375,4.96875,-0.89453125,-0.197265625,-0.251953125,-0.85546875,-9.47265625,1.8125
2400349,,,,,,,,-3.0078125,-2.390625,4.9921875,-0.849609375,-0.16796875,-0.21875,-0.96875,-9.89453125,1.8125
2400350,36.01293633333333,129.31916116666667,50.58859140104627,59.51128231428041,1.8,106.0,,-2.46484375,-3.02734375,5.1328125,-0.69140625,-0.0859375,0.046875,-0.43359375,-10.5,1.890625
2400351,,,,,,,,-1.390625,-2.54296875,5.171875,-0.443359375,-0.025390625,0.3203125,0.6015625,-10.0,1.890625
2400352,,,,,,,,-0.28515625,-1.234375,4.7265625,-0.2578125,-0.017578125,0.462890625,1.67578125,-8.703125,1.4296875
2400353,,,,,,,,0.3046875,-0.99609375,4.23046875,-0.18359375,-0.029296875,0.5625,2.2109375,-8.47265625,0.93359375
2400354,,,,,,,,0.58203125,-1.74609375,4.03125,-0.2421875,-0.037109375,0.611328125,2.44140625,-9.23828125,0.7421875
2400355,,,,,,,,0.60546875,-4.3046875,4.0078125,-0.359375,-0.0390625,0.619140625,2.40234375,-11.80859375,0.703125
2400356,,,,,,,,0.32421875,-5.5234375,4.3515625,-0.44140625,-0.03125,0.650390625,2.09765625,-13.03515625,1.046875
2400357,,,,,,,,-0.3828125,-8.55078125,5.37109375,-0.52734375,-0.015625,0.869140625,1.328125,-16.05859375,2.04296875
2400358,,,,,,,,-2.06640625,-13.55078125,8.03125,-0.40234375,-0.0390625,1.19140625,-0.43359375,-21.0703125,4.6875
2400359,,,,,,,,-4.58203125,-16.5625,9.73046875,-0.4453125,-0.14453125,1.392578125,-3.07421875,-24.10546875,6.37109375
2400360,36.012935999999996,129.31916266666667,50.72381505374308,59.47429667997816,1.5,106.0,,-4.3125,-10.9921875,11.75390625,-0.6796875,-0.322265625,1.34765625,-2.921875,-18.55078125,8.36328125
2400361,,,,,,,,-3.828125,-7.765625,9.53125,-0.767578125,-0.419921875,1.123046875,-2.5390625,-15.328125,6.1015625
2400362,,,,,,,,-3.0859375,-6.625,8.71484375,-0.765625,-0.46484375,0.986328125,-1.8515625,-14.1796875,5.26171875
2400363,,,,,,,,-1.04296875,-4.51171875,8.0546875,-0.521484375,-0.39453125,0.521484375,0.10546875,-12.07421875,4.5703125
2400364,,,,,,,,-0.453125,-4.3203125,8.33203125,-0.46484375,-0.330078125,0.05859375,0.6796875,-11.88671875,4.83984375
2400365,,,,,,,,0.10546875,-4.671875,8.81640625,-0.6484375,-0.232421875,-1.142578125,1.25390625,-12.23046875,5.30078125
2400366,,,,,,,,0.01953125,-4.34375,8.30078125,-0.828125,-0.1328125,-1.427734375,1.21484375,-11.8828125,4.76171875
2400367,,,,,,,,-0.015625,-3.84765625,8.06640625,-1.826171875,-0.044921875,-1.40625,1.328125,-11.3046875,4.41796875
2400368,,,,,,,,-0.09765625,-3.6953125,7.859375,-2.19140625,-0.087890625,-1.265625,1.29296875,-11.12109375,4.1484375
2400369,,,,,,,,-1.37109375,-4.0859375,7.6640625,-2.326171875,-0.228515625,-0.728515625,0.10546875,-11.38671875,3.7265625
2400370,36.012935166666665,129.3191645,50.889088684938855,59.3818316029452,1.6,110.0,,-3.1796875,-4.05859375,6.796875,-2.02734375,-0.529296875,-0.62109375,-1.65625,-11.19140625,2.578125
2400371,,,,,,,,-3.6171875,-2.828125,6.74609375,-1.765625,-0.630859375,-0.4140625,-2.078125,-9.85546875,2.34765625
2400372,,,,,,,,-4.1171875,-1.203125,6.04296875,-1.677734375,-0.654296875,-0.341796875,-2.578125,-8.20703125,1.58203125
2400373,,,,,,,,-4.27734375,-0.265625,5.65625,-1.6875,-0.65625,-0.28125,-2.76953125,-7.17578125,1.046875
2400374,,,,,,,,-4.15234375,0.84765625,5.13671875,-1.8203125,-0.64453125,-0.337890625,-2.65234375,-6.01953125,0.47265625
2400375,,,,,,,,-3.80078125,1.42578125,4.6875,-2.056640625,-0.583984375,-0.515625,-2.30859375,-5.37109375,-0.1015625
2400376,,,,,,,,-3.6171875,2.0234375,4.359375,-2.263671875,-0.53125,-0.607421875,-2.1171875,-4.68359375,-0.5625
2400377,,,,,,,,-3.42578125,2.07421875,4.46875,-2.34765625,-0.515625,-0.6171875,-1.92578125,-4.56640625,-0.5234375
2400378,,,,,,,,-3.51171875,1.8828125,5.71484375,-2.3203125,-0.48046875,-0.40625,-2.00390625,-4.6015625,0.51171875
2400379,,,,,,,,-3.91796875,1.6171875,6.99609375,-2.177734375,-0.46875,-0.146484375,-2.42578125,-4.7578125,1.66015625
2400380,36.01293416666667,129.3191665,51.069387250810564,59.270873409076,1.7000000000000002,112.0,,-4.3671875,1.0546875,7.3984375,-2.02734375,-0.529296875,-0.62109375,-2.921875,-5.18359375,1.890625
2400381,,,,,,,,-4.48828125,0.51953125,6.93359375,-1.677734375,-0.44140625,0.123046875,-3.11328125,-5.59765625,1.27734375
2400382,,,,,,,,-4.7421875,0.140625,6.55078125,-1.59375,-0.439453125,0.021484375,-3.3828125,-5.94921875,0.85546875
2400383,,,,,,,,-4.78515625,-0.3046875,6.70703125,-1.33203125,-0.447265625,-0.3671875,-3.45703125,-6.29296875,0.89453125
2400384,,,,,,,,-4.96875,-0.57421875,7.00390625,-1.275390625,-0.451171875,-0.45703125,-3.6484375,-6.51953125,1.16015625
2400385,,,,,,,,-5.16015625,-1.08984375,7.60546875,-1.16796875,-0.44140625,-0.537109375,-3.83984375,-6.9765625,1.69921875
2400386,,,,,,,,-5.15234375,-1.3046875,7.91796875,-1.060546875,-0.392578125,-0.498046875,-3.83984375,-7.13671875,1.96484375
2400387,,,,,,,,-4.9609375,-1.47265625,8.05859375,-0.986328125,-0.3671875,-0.458984375,-3.6484375,-7.28515625,2.08203125
2400388,,,,,,,,-4.54296875,-2.43359375,8.234375,-0.658203125,-0.240234375,-0.458984375,-3.23046875,-8.1640625,2.1953125
2400389,,,,,,,,-4.3125,-2.921875,8.40234375,-0.498046875,-0.201171875,-0.560546875,-3.0,-8.62890625,2.34765625
2400390,36.01293366666666,129.31916766666666,51.17456136372357,59.21539440057078,1.4000000000000001,116.0,,-4.328125,-3.390625,8.6796875,-0.296875,-0.193359375,-0.591796875,-2.921875,-5.18359375,1.890625
2400391,,,,,,,,-4.06640625,-3.390625,8.82421875,-0.087890625,-0.158203125,-0.51953125,-2.73046875,-9.08984375,2.76953125
2400392,,,,,,,,-3.66015625,-3.34375,8.76171875,0.03125,-0.119140625,-0.431640625,-2.30859375,-9.046875,2.73046875
2400393,,,,,,,,-2.93359375,-2.9375,8.3203125,0.0546875,-0.087890625,-0.38671875,-1.58203125,-8.6640625,2.3125
2400394,,,,,,,,-2.56640625,-2.625,8.140625,0.12109375,-0.064453125,-0.396484375,-1.19921875,-8.359375,2.15625
2400395,,,,,,,,-2.11328125,-2.6015625,8.02734375,0.232421875,-0.060546875,-0.423828125,-0.73828125,-8.359375,2.08203125
2400396,,,,,,,,-1.9296875,-3.00390625,7.7421875,0.271484375,-0.068359375,-0.41015625,-0.546875,-8.7734375,1.8125
2400397,,,,,,,,-1.8984375,-3.3203125,7.47265625,0.291015625,-0.1015625,-0.291015625,-0.5078125,-9.125,1.58203125
2400398,,,,,,,,-2.12109375,-3.51953125,7.08984375,0.310546875,-0.14453125,-0.033203125,-0.73828125,-9.3515625,1.23828125
2400399,,,,,,,,-2.13671875,-3.6328125,6.859375,0.296875,-0.18359375,0.259765625,-0.77734375,-9.51171875,1.046875
2400400,36.01293283333334,129.31916883333332,51.27973569376408,59.122928980003614,1.4000000000000001,121.0,0.0,-2.01171875,-3.4765625,6.55078125,-0.296875,-0.193359375,-0.591796875,-0.69921875,-9.390625,0.77734375
2400401,,,,,,,,-2.03515625,-3.20703125,6.328125,0.177734375,-0.2734375,0.69140625,-0.77734375,-9.16015625,0.5859375
2400402,,,,,,,,-2.30078125,-2.39453125,6.6640625,0.078125,-0.296875,0.89453125,-1.16015625,-8.39453125,0.96875
2400403,,,,,,,,-2.3828125,-2.07421875,6.95703125,0.033203125,-0.30859375,0.96875,-1.2734375,-8.08984375,1.27734375
2400404,,,,,,,,-2.12890625,-1.92578125,8.703125,-0.08203125,-0.328125,1.12890625,-1.12109375,-7.96875,3.0390625
2400405,,,,,,,,-1.1171875,-4.74609375,9.56640625,-0.1875,-0.33203125,1.267578125,-0.203125,-10.80859375,3.91796875
2400406,,,,,,,,1.1015625,-7.828125,11.0078125,-0.201171875,-0.322265625,1.310546875,1.90625,-13.91796875,5.375
2400407,,,,,,,,2.88671875,-10.26171875,11.99609375,-0.14453125,-0.298828125,1.20703125,3.58984375,-16.36328125,6.37109375
2400408,,,,,,,,3.8984375,-11.671875,12.01953125,-0.10546875,-0.298828125,1.080078125,4.546875,-17.78515625,6.41015625
2400409,,,,,,,,5.89453125,-13.5625,12.953125,-0.087890625,-0.240234375,0.939453125,6.42578125,-19.6953125,7.3671875
2400410,36.01293183333333,129.31917,51.38491013616982,59.01197035421771,1.3,130.0,,5.3203125,-10.3984375,13.6953125,-0.296875,-0.193359375,-0.591796875,-0.69921875,-9.390625,0.77734375
2400411,,,,,,,,1.7734375,-6.7890625,11.6484375,-0.44140625,-0.275390625,1.03125,2.1328125,-12.95703125,6.1015625
2400412,,,,,,,,-0.16796875,-6.1171875,12.0859375,-0.87109375,-0.32421875,1.037109375,0.10546875,-12.265625,6.5234375
2400413,,,,,,,,-1.984375,-6.22265625,12.2734375,-1.0859375,-0.4375,0.21484375,-1.7734375,-12.3359375,6.6796875
2400414,,,,,,,,-2.91796875,-5.99609375,10.92578125,-1.13671875,-0.568359375,-0.67578125,-2.73046875,-12.07421875,5.30078125
2400415,,,,,,,,-2.47265625,-5.84375,9.32421875,-1.021484375,-0.45703125,-0.779296875,-2.26953125,-11.88671875,3.65234375
2400416,,,,,,,,-2.17578125,-5.69140625,8.96484375,-0.8828125,-0.30078125,-0.544921875,-1.96484375,-11.6875,3.26953125
2400417,,,,,,,,-1.875,-5.0625,9.171875,-0.77734375,-0.166015625,-0.3046875,-1.65625,-11.04296875,3.4609375
2400418,,,,,,,,-1.75390625,-4.80078125,9.0625,-0.734375,-0.099609375,-0.19921875,-1.54296875,-10.76953125,3.34375
2400419,,,,,,,,-1.1875,-4.13671875,8.23828125,-0.712890625,0.052734375,0.017578125,-0.96875,-10.08203125,2.50390625
2400420,36.012930833333336,129.319171,51.47505975204133,58.90101164161547,1.4000000000000001,134.0,,-0.98046875,-3.77734375,8.015625,-0.73828125,0.283203125,0.21875,-0.69921875,-9.390625,0.77734375
2400421,,,,,,,,-0.671875,-3.41015625,8.0390625,-0.720703125,0.37890625,0.208984375,-0.46875,-9.31640625,2.2734375
2400422,,,,,,,,-0.55859375,-3.30859375,7.88671875,-0.716796875,0.40625,0.203125,-0.35546875,-9.19921875,2.12109375
2400423,,,,,,,,-0.49609375,-2.62890625,7.625,-0.703125,0.431640625,0.224609375,-0.27734375,-8.5078125,1.8515625
2400424,,,,,,,,-0.49609375,-2.14453125,7.40234375,-0.7109375,0.435546875,0.251953125,-0.27734375,-8.0078125,1.62109375
2400425,,,,,,,,-1.07421875,-0.5390625,6.73828125,-0.7578125,0.359375,0.23046875,-0.85546875,-6.37109375,0.93359375
2400426,,,,,,,,-1.1953125,-0.0546875,6.58984375,-0.79296875,0.34375,0.21484375,-0.96875,-5.8671875,0.77734375
2400427,,,,,,,,-1.07421875,0.41796875,6.375,-0.880859375,0.30078125,0.169921875,-0.85546875,-5.3671875,0.546875
2400428,,,,,,,,-0.91796875,0.7109375,6.31640625,-0.9375,0.265625,0.189453125,-0.69921875,-5.06640625,0.47265625
2400429,,,,,,,,-0.71875,0.5859375,6.421875,-0.935546875,0.240234375,0.1953125,-0.5078125,-5.14453125,0.546875
2400430,36.012929666666665,129.31917183333334,51.55018464840185,58.77155963568045,1.3,141.0,,-0.40625,0.171875,6.5234375,-0.943359375,0.19921875,0.146484375,-0.203125,-5.5234375,0.625
2400431,,,,,,,,-0.3671875,-0.2109375,6.46875,-0.958984375,0.150390625,0.068359375,-0.1640625,-5.87109375,0.546875
2400432,,,,,,,,-0.296875,-0.2265625,6.4765625,-0.986328125,0.119140625,0.001953125,-0.0859375,-5.87109375,0.546875
2400433,,,,,,,,-0.0390625,-0.21484375,6.90234375,-1.0078125,0.0390625,-0.279296875,0.1796875,-5.79296875,0.93359375
2400434,,,,,,,,0.26171875,-0.75,7.19921875,-1.025390625,-0.04296875,-0.4375,0.48828125,-6.29296875,1.19921875
2400435,,,,,,,,-0.0625,-0.828125,7.0390625,-1.025390625,-0.1328125,-0.50390625,0.1796875,-6.33203125,1.0078125
2400436,,,,,,,,-0.56640625,-0.84375,6.703125,-1.009765625,-0.173828125,-0.50390625,-0.31640625,-6.33203125,0.6640625
2400437,,,,,,,,-0.921875,-1.13671875,6.51171875,-0.96875,-0.275390625,-0.44140625,-0.6640625,-6.55859375,0.43359375
2400438,,,,,,,,-1.06640625,-1.6328125,6.765625,-0.97265625,-0.310546875,-0.435546875,-0.81640625,-7.015625,0.6640625
2400439,,,,,,,,-0.94921875,-2.1875,6.92578125,-0.958984375,-0.32421875,-0.43359375,-0.69921875,-7.55859375,0.81640625
2400440,36.01292866666667,129.3191728333333,51.64033426660289,58.66060092502766,1.3,143.0,,-0.98828125,-3.3359375,7.33203125,-0.943359375,0.19921875,0.146484375,-0.203125,-5.5234375,0.625
2400441,,,,,,,,-1.125,-4.140625,7.6171875,-0.859375,-0.361328125,-0.326171875,-0.890625,-9.4296875,1.46875
2400442,,,,,,,,-1.46484375,-4.81640625,8.29296875,-0.8515625,-0.36328125,-0.28515625,-1.23828125,-10.08203125,2.12109375
2400443,,,,,,,,-1.578125,-4.9453125,8.453125,-0.849609375,-0.3515625,-0.26171875,-1.3515625,-10.19921875,2.2734375
2400444,,,,,,,,-1.78515625,-5.0546875,8.58203125,-0.83203125,-0.333984375,-0.177734375,-1.58203125,-10.27734375,2.38671875
2400445,,,,,,,,-1.828125,-4.6796875,8.60546875,-0.673828125,-0.28515625,-0.10546875,-1.65625,-9.85546875,2.38671875
2400446,,,,,,,,-1.5078125,-4.65625,8.72265625,-0.5859375,-0.26953125,-0.181640625,-1.3515625,-9.8125,2.50390625
2400447,,,,,,,,-0.91796875,-4.671875,8.60546875,-0.4609375,-0.228515625,-0.193359375,-0.77734375,-9.8125,2.38671875
2400448,,,,,,,,-0.57421875,-4.640625,8.5234375,-0.431640625,-0.21484375,-0.1640625,-0.43359375,-9.77734375,2.3125
2400449,,,,,,,,-0.40234375,-4.55859375,8.46875,-0.3671875,-0.19140625,-0.095703125,-0.27734375,-9.69921875,2.2734375
2400450,36.01292766666666,129.31917366666667,51.715459060856666,58.549642125205516,1.5,146.0,,-0.39453125,-4.48046875,8.34375,-0.287109375,-0.154296875,-0.0078125,-0.27734375,-9.6171875,2.15625
2400451,,,,,,,,0.046875,-4.16015625,8.0078125,-0.220703125,-0.0859375,0.150390625,0.140625,-9.31640625,1.8515625
2400452,,,,,,,,0.578125,-4.11328125,8.0703125,-0.224609375,-0.0625,0.3046875,0.640625,-9.27734375,1.9296875
2400453,,,,,,,,0.90625,-4.82421875,8.55078125,-0.1875,-0.037109375,0.447265625,0.9453125,-10.0,2.42578125
2400454,,,,,,,,0.40234375,-6.3046875,8.4140625,-0.134765625,-0.017578125,0.5859375,0.41015625,-11.50390625,2.3125
2400455,,,,,,,,-0.6328125,-9.58203125,8.3515625,-0.1484375,0.001953125,0.734375,-0.6640625,-14.7890625,2.2734375
2400456,,,,,,,,-0.921875,-10.578125,8.94921875,-0.173828125,0.013671875,0.8125,-0.96875,-15.79296875,2.88671875
2400457,,,,,,,,-1.7421875,-11.62890625,12.87890625,-0.208984375,0.041015625,0.958984375,-1.8515625,-16.859375,6.83203125
2400458,,,,,,,,-2.8046875,-10.69921875,12.625,-0.07421875,0.056640625,1.103515625,-2.9609375,-15.9375,6.6015625
2400459,,,,,,,,-3.234375,-10.65234375,12.41796875,-0.046875,0.037109375,1.126953125,-3.421875,-15.8984375,6.41015625
2400460,36.012926,129.31917433333334,51.775559464862326,58.36471041228947,1.6,152.0,,-2.53515625,-9.25,12.84765625,-0.439453125,-0.0546875,0.71484375,-0.27734375,-9.6171875,2.15625
2400461,,,,,,,,-0.42578125,-6.078125,12.109375,-0.466796875,0.0,0.21875,-0.73828125,-11.34375,6.140625
2400462,,,,,,,,1.19140625,-4.921875,11.21484375,-0.42578125,0.0078125,-0.08984375,0.87109375,-10.19921875,5.26171875
2400463,,,,,,,,1.375,-4.8828125,10.859375,-0.478515625,0.02734375,-0.220703125,1.0625,-10.16015625,4.9140625
2400464,,,,,,,,1.55859375,-4.9765625,10.4765625,-0.708984375,0.00390625,-0.5859375,1.25390625,-10.23828125,4.53125
2400465,,,,,,,,1.375,-5.29296875,10.1796875,-0.90625,-0.064453125,-0.828125,1.1015625,-10.5390625,4.2265625
2400466,,,,,,,,0.4921875,-5.484375,10.47265625,-1.08984375,-0.12890625,-0.705078125,0.2578125,-10.69921875,4.49609375
2400467,,,,,,,,-0.8203125,-5.98828125,10.1171875,-1.080078125,-0.228515625,-0.25,-1.046875,-11.15234375,4.109375
2400468,,,,,,,,-1.125,-5.74609375,9.58984375,-1.052734375,-0.279296875,-0.1796875,-1.3515625,-10.88671875,3.57421875
2400469,,,,,,,,-1.171875,-4.65234375,8.76953125,-1.08203125,-0.431640625,-0.09375,-1.4296875,-9.734375,2.73046875
2400470,36.01292483333334,129.31917483333334,51.82063471349632,58.23525823251277,1.5,157.0,,-1.18359375,-3.9140625,8.375,-1.087890625,-0.458984375,-0.08203125,-0.27734375,-9.6171875,2.15625
2400471,,,,,,,,-1.078125,-3.41015625,8.20703125,-1.11328125,-0.46875,-0.099609375,-1.390625,-8.4296875,2.12109375
2400472,,,,,,,,-0.91015625,-2.8203125,8.17578125,-1.154296875,-0.46484375,-0.12109375,-1.23828125,-7.8203125,2.08203125
2400473,,,,,,,,-0.79296875,-2.37890625,7.73046875,-1.404296875,-0.396484375,-0.142578125,-1.16015625,-7.28515625,1.58203125
2400474,,,,,,,,-0.73828125,-2.21875,7.6796875,-1.470703125,-0.3828125,-0.1328125,-1.12109375,-7.09375,1.5078125
2400475,,,,,,,,-0.80078125,-1.859375,7.51953125,-1.5625,-0.361328125,-0.115234375,-1.19921875,-6.67578125,1.31640625
2400476,,,,,,,,-0.9765625,-1.46875,7.25,-1.611328125,-0.34765625,-0.125,-1.390625,-6.21484375,1.0078125
2400477,,,,,,,,-1.265625,-1.234375,7.04296875,-1.630859375,-0.357421875,-0.119140625,-1.6953125,-5.94921875,0.77734375
2400478,,,,,,,,-1.6171875,-1.07421875,7.03125,-1.662109375,-0.3984375,-0.095703125,-2.078125,-5.671875,0.703125
2400479,,,,,,,,-2.03125,-0.8828125,6.9765625,-1.65625,-0.41796875,-0.091796875,-2.5,-5.4453125,0.625
2400480,36.012923666666666,129.31917583333333,51.91078445232422,58.105806316168675,1.4000000000000001,159.0,,-2.34375,-0.953125,6.9765625,-1.087890625,-0.458984375,-0.08203125,-0.27734375,-9.6171875,2.15625
2400481,,,,,,,,-2.515625,-1.22265625,6.96875,-1.5625,-0.5,-0.08984375,-3.0390625,-5.6328125,0.546875
2400482,,,,,,,,-2.55078125,-1.40234375,6.97265625,-1.44140625,-0.5234375,-0.095703125,-3.11328125,-5.75,0.51171875
2400483,,,,,,,,-2.58984375,-1.6484375,7.1484375,-1.279296875,-0.533203125,-0.103515625,-3.19140625,-5.94921875,0.6640625
2400484,,,,,,,,-2.48828125,-1.76953125,7.27734375,-1.126953125,-0.537109375,-0.126953125,-3.11328125,-6.015625,0.77734375
2400485,,,,,,,,-2.09765625,-2.24609375,7.33984375,-0.958984375,-0.517578125,-0.19921875,-2.76953125,-6.4375,0.81640625
2400486,,,,,,,,-1.8671875,-2.5546875,7.45703125,-0.751953125,-0.478515625,-0.259765625,-2.578125,-6.71484375,0.93359375
2400487,,,,,,,,-1.7265625,-3.03125,7.484375,-0.599609375,-0.455078125,-0.279296875,-2.4609375,-7.171875,0.96875
2400488,,,,,,,,-1.67578125,-3.87109375,7.6328125,-0.4765625,-0.4453125,-0.275390625,-2.42578125,-8.01171875,1.125
2400489,,,,,,,,-1.62109375,-4.4375,7.72265625,-0.369140625,-0.41796875,-0.248046875,-2.38671875,-8.5859375,1.23828125
2400490,36.012922499999995,129.319176,51.925810046150296,57.976353958220095,1.5,166.0,,-1.51953125,-4.9609375,7.78515625,-1.087890625,-0.458984375,-0.08203125,-0.27734375,-9.6171875,2.15625
2400491,,,,,,,,-1.3046875,-5.78515625,7.98828125,-0.150390625,-0.400390625,-0.193359375,-2.1171875,-9.9609375,1.54296875
2400492,,,,,,,,-1.22265625,-6.125,8.13671875,-0.11328125,-0.392578125,-0.197265625,-2.04296875,-10.31640625,1.69921875
2400493,,,,,,,,-1.08203125,-7.05078125,8.5546875,-0.017578125,-0.380859375,-0.212890625,-1.92578125,-11.265625,2.15625
2400494,,,,,,,,-1.02734375,-7.76171875,9.19921875,0.107421875,-0.361328125,-0.28125,-1.88671875,-12.03125,2.84765625
2400495,,,,,,,,-0.9765625,-7.8359375,9.234375,0.185546875,-0.345703125,-0.30859375,-1.8515625,-12.1484375,2.921875
2400496,,,,,,,,-0.8984375,-7.546875,9.17578125,0.2265625,-0.328125,-0.318359375,-1.7734375,-11.8828125,2.88671875
2400497,,,,,,,,-0.390625,-6.16015625,8.58984375,0.265625,-0.302734375,-0.296875,-1.2734375,-10.5390625,2.34765625
2400498,,,,,,,,-0.0390625,-5.65234375,7.96875,0.275390625,-0.28125,-0.26953125,-0.9296875,-10.08203125,1.7734375
2400499,,,,,,,,0.11328125,-5.50390625,7.75390625,0.259765625,-0.275390625,-0.251953125,-0.77734375,-9.96484375,1.58203125
2400500,36.012921166666665,129.319176,51.925810920695255,57.82840830452253,1.5,172.0,0.0,0.3125,-5.2734375,7.640625,-1.087890625,-0.458984375,-0.08203125,-0.5859375,-9.77734375,1.5078125
2400501,,,,,,,,0.55078125,-5.265625,7.515625,0.2265625,-0.25390625,-0.146484375,-0.35546875,-9.8125,1.4296875
2400502,,,,,,,,0.87109375,-5.02734375,7.66796875,0.158203125,-0.251953125,0.052734375,-0.05078125,-9.62109375,1.62109375
2400503,,,,,,,,1.25,-4.421875,7.96484375,0.068359375,-0.267578125,0.328125,0.296875,-9.046875,1.96484375
2400504,,,,,,,,1.01953125,-4.4375,8.42578125,0.001953125,-0.283203125,0.599609375,0.02734375,-9.0859375,2.46484375
2400505,,,,,,,,0.5234375,-5.86328125,9.22265625,-0.03515625,-0.271484375,0.91796875,-0.546875,-10.54296875,3.30859375
2400506,,,,,,,,0.8984375,-6.92578125,9.92578125,-0.05859375,-0.279296875,0.98046875,-0.203125,-11.61328125,4.03515625
2400507,,,,,,,,2.30078125,-7.6015625,10.36328125,-0.1796875,-0.27734375,1.0625,1.13671875,-12.30859375,4.49609375
2400508,,,,,,,,5.70703125,-9.59375,12.015625,-0.23828125,-0.2265625,1.1328125,4.47265625,-14.30078125,6.1796875
2400509,,,,,,,,5.98828125,-10.50390625,12.21484375,-0.0546875,-0.146484375,1.2578125,4.73828125,-16.0546875,6.71484375
2400510,36.01292,129.31917533333333,51.86571236791382,57.69895550242101,1.5,181.0,,5.9453125,-12.1796875,13.2265625,0.087890625,-0.1796875,1.177734375,4.5859375,-16.8984375,7.4453125
2400511,,,,,,,,5.48046875,-10.86328125,13.1015625,-0.060546875,-0.181640625,1.00390625,4.05078125,-15.59375,7.3671875
2400512,,,,,,,,3.84765625,-7.09375,11.5390625,-0.37109375,-0.158203125,0.865234375,1.59765625,-11.15234375,5.94921875
2400513,,,,,,,,2.32421875,-5.8671875,12.203125,-0.583984375,-0.2265625,0.451171875,0.10546875,-10.34765625,6.984375
2400514,,,,,,,,0.70703125,-5.23046875,12.34375,-0.857421875,-0.333984375,-0.29296875,-0.85546875,-9.96484375,6.6796875
2400515,,,,,,,,0.6796875,-5.39453125,10.3046875,-1.08984375,-0.373046875,-0.638671875,-0.890625,-10.1171875,4.6484375
2400516,,,,,,,,0.83203125,-5.5859375,9.7734375,-1.0234375,-0.32421875,-0.60546875,-0.546875,-10.65625,3.8046875
2400517,,,,,,,,1.3125,-6.82421875,9.62890625,-0.595703125,-0.201171875,-0.41015625,-0.2421875,-11.53515625,3.95703125
2400518,,,,,,,,1.7265625,-7.59375,10.00390625,-0.15625,-0.080078125,-0.07421875,0.1796875,-12.3046875,4.33984375
2400519,,,,,,,,1.91015625,-7.26171875,9.28515625,-0.005859375,0.044921875,0.263671875,0.37109375,-11.99609375,3.65234375
2400520,36.01291883333333,129.31917516666667,51.85068830244428,57.56950296739994,1.4000000000000001,186.0,,5.9453125,-12.1796875,13.2265625,0.013671875,0.19921875,0.517578125,4.5859375,-16.8984375,7.4453125
2400521,,,,,,,,1.484375,-5.0546875,8.1640625,-0.0546875,0.30078125,0.51171875,-0.0859375,-9.85546875,2.6171875
2400522,,,,,,,,1.40625,-4.81640625,8.0703125,-0.103515625,0.330078125,0.43359375,-0.1640625,-9.6171875,2.5390625
2400523,,,,,,,,1.58984375,-4.2265625,7.828125,-0.267578125,0.349609375,0.255859375,0.02734375,-9.05078125,2.3125
2400524,,,,,,,,1.6875,-3.98046875,7.6953125,-0.392578125,0.376953125,0.130859375,0.140625,-8.81640625,2.1953125
2400525,,,,,,,,2.2109375,-3.0078125,7.14453125,-0.435546875,0.359375,0.072265625,0.6796875,-7.859375,1.66015625
2400526,,,,,,,,2.203125,-2.546875,6.8984375,-0.400390625,0.298828125,0.029296875,0.6796875,-7.40234375,1.4296875
2400527,,,,,,,,2.1484375,-2.04296875,6.70703125,-0.359375,0.265625,0.01953125,0.640625,-6.8984375,1.23828125
2400528,,,,,,,,1.97265625,-1.51953125,6.53125,-0.34765625,0.17578125,-0.015625,0.48828125,-6.40234375,1.0859375
2400529,,,,,,,,1.85546875,-1.0625,6.3984375,-0.388671875,0.154296875,-0.02734375,0.37109375,-5.94921875,0.96875
2400530,36.01291766666667,129.31917516666667,51.85068906659333,57.44005052066737,1.3,189.0,,1.87109375,-0.36328125,5.9609375,-0.662109375,0.09765625,-0.103515625,0.41015625,-5.25390625,0.546875
2400531,,,,,,,,2.15625,-0.296875,5.76953125,-0.802734375,0.076171875,-0.1640625,0.71875,-5.18359375,0.35546875
2400532,,,,,,,,2.3671875,-0.38671875,5.6640625,-0.828125,0.046875,-0.1875,0.9453125,-5.25,0.2421875
2400533,,,,,,,,2.46875,-0.5859375,5.6328125,-0.837890625,0.03515625,-0.208984375,1.0625,-5.44921875,0.203125
2400534,,,,,,,,2.421875,-0.83203125,5.7109375,-0.841796875,0.01171875,-0.22265625,1.0234375,-5.671875,0.28125
2400535,,,,,,,,2.3671875,-0.84765625,5.80078125,-0.822265625,-0.017578125,-0.23828125,0.984375,-5.67578125,0.35546875
2400536,,,,,,,,2.3203125,-0.89453125,5.87890625,-0.8203125,-0.029296875,-0.263671875,0.9453125,-5.7109375,0.43359375
2400537,,,,,,,,2.21484375,-1.0546875,6.0390625,-0.8671875,-0.076171875,-0.365234375,0.87109375,-5.8671875,0.5859375
2400538,,,,,,,,2.16015625,-1.34765625,6.171875,-0.939453125,-0.1171875,-0.4375,0.83203125,-6.1328125,0.703125
2400539,,,,,,,,2.03125,-1.66796875,6.1015625,-0.998046875,-0.146484375,-0.501953125,0.71875,-6.4375,0.625
2400540,36.01291666666667,129.31917466666667,51.80561522913359,57.32909101408774,1.4000000000000001,192.0,,1.921875,-2.734375,5.97265625,-1.029296875,-0.158203125,-0.47265625,0.640625,-7.4765625,0.47265625
2400541,,,,,,,,1.8671875,-3.8671875,6.2578125,-0.990234375,-0.158203125,-0.388671875,0.6015625,-8.5859375,0.7421875
2400542,,,,,,,,1.7734375,-4.58203125,6.53125,-0.927734375,-0.14453125,-0.28515625,0.5234375,-9.2734375,1.0078125
2400543,,,,,,,,1.15625,-5.66796875,7.07421875,-0.87109375,-0.13671875,-0.201171875,-0.0859375,-10.34765625,1.54296875
2400544,,,,,,,,0.2265625,-6.22265625,8.04296875,-0.884765625,-0.12109375,-0.15234375,-1.0078125,-10.88671875,2.50390625
2400545,,,,,,,,-0.4296875,-6.19921875,8.8984375,-0.947265625,-0.095703125,-0.140625,-1.65625,-10.84765625,3.34375
2400546,,,,,,,,-0.8828125,-5.91015625,9.16796875,-0.99609375,-0.091796875,-0.1484375,-2.1171875,-10.54296875,3.61328125
2400547,,,,,,,,-0.859375,-5.625,9.14453125,-1.09765625,-0.080078125,-0.18359375,-2.078125,-10.234375,3.57421875
2400548,,,,,,,,-0.41015625,-5.50390625,8.78515625,-1.138671875,-0.064453125,-0.236328125,-1.62109375,-10.08203125,3.19140625
2400549,,,,,,,,0.10546875,-5.6875,8.5703125,-1.052734375,-0.033203125,-0.31640625,-1.08203125,-10.234375,2.9609375
2400550,36.01291533333333,129.31917466666667,51.80561610125965,57.181145360836844,1.6,188.0,,0.171875,-6.01953125,8.6171875,-1.029296875,-0.158203125,-0.47265625,0.640625,-7.4765625,0.47265625
2400551,,,,,,,,0.28515625,-6.2109375,8.9609375,-0.56640625,0.1015625,-0.205078125,-0.85546875,-10.73828125,3.34375
2400552,,,,,,,,0.234375,-5.3671875,8.38671875,-0.515625,0.154296875,-0.044921875,-0.890625,-9.89453125,2.76953125
2400553,,,,,,,,0.68359375,-4.36328125,7.95703125,-0.419921875,0.173828125,0.103515625,-0.43359375,-8.89453125,2.34765625
2400554,,,,,,,,1.3984375,-3.47265625,7.75,-0.296875,0.15234375,0.185546875,0.296875,-8.0078125,2.15625
2400555,,,,,,,,2.31640625,-3.3828125,7.66015625,-0.205078125,0.111328125,0.248046875,1.21484375,-7.9375,2.08203125
2400556,,,,,,,,2.66015625,-4.1015625,7.3046875,-0.15625,0.09765625,0.314453125,1.55859375,-8.6640625,1.734375
2400557,,,,,,,,3.05078125,-5.50390625,7.390625,-0.11328125,0.078125,0.517578125,1.94140625,-10.08203125,1.8515625
2400558,,,,,,,,3.07421875,-6.59765625,7.4453125,-0.2109375,0.064453125,0.732421875,1.94140625,-11.1875,1.9296875
2400559,,,,,,,,2.45703125,-7.6171875,7.65625,-0.244140625,0.087890625,1.05078125,1.29296875,-12.2265625,2.15625
2400560,36.012914,129.31917416666664,51.76054248004901,57.0331994421857,1.6,191.0,,0.91796875,-11.02734375,10.4921875,-0.10546875,0.01953125,1.353515625,-0.31640625,-15.6328125,5.03125
2400561,,,,,,,,-1.77734375,-14.765625,12.19140625,-0.25,-0.109375,1.3046875,-3.07421875,-19.39453125,6.75390625
2400562,,,,,,,,-3.5078125,-15.80859375,13.5625,-0.41015625,-0.205078125,1.23828125,-4.8359375,-20.421875,8.1328125
2400563,,,,,,,,-4.25,-12.59765625,14.859375,-0.658203125,-0.3359375,1.10546875,-5.640625,-17.20703125,9.4375
2400564,,,,,,,,-2.87890625,-8.40625,11.9375,-0.880859375,-0.373046875,0.958984375,-4.33984375,-12.9921875,6.5234375
2400565,,,,,,,,-0.34375,-6.97265625,10.9140625,-0.859375,-0.3828125,0.703125,-1.8515625,-11.53125,5.4921875
2400566,,,,,,,,0.73046875,-6.60546875,10.8671875,-0.751953125,-0.359375,0.478515625,-0.81640625,-11.15234375,5.453125
2400567,,,,,,,,1.796875,-5.3671875,10.16015625,-0.48828125,-0.154296875,-0.89453125,0.2578125,-9.9296875,4.76171875
2400568,,,,,,,,2.53125,-6.03125,9.5,-0.9296875,-0.00390625,-1.19140625,1.0625,-10.62109375,4.109375
2400569,,,,,,,,2.84375,-6.30078125,9.546875,-1.294921875,-0.04296875,-1.072265625,1.40625,-10.8828125,4.1484375
2400570,36.012912666666665,129.31917383333334,51.730493692519204,56.885253610905785,1.5,192.0,,1.21875,-5.734375,10.09375,-1.357421875,-0.09375,-0.615234375,-0.1640625,-10.27734375,4.6484375
2400571,,,,,,,,0.16796875,-5.296875,9.53515625,-1.130859375,-0.228515625,-0.482421875,-1.19921875,-9.81640625,4.07421875
2400572,,,,,,,,-0.03125,-4.9765625,8.9765625,-1.08203125,-0.359375,-0.34375,-1.390625,-9.46875,3.5
2400573,,,,,,,,-0.0625,-4.33203125,8.140625,-0.9765625,-0.478515625,-0.31640625,-1.4296875,-8.8125,2.65625
2400574,,,,,,,,-0.08984375,-3.19921875,7.56640625,-0.77734375,-0.51171875,-0.259765625,-1.46484375,-7.66796875,2.08203125
2400575,,,,,,,,-0.0390625,-2.703125,7.3671875,-0.677734375,-0.50390625,-0.1875,-1.4296875,-7.17578125,1.890625
2400576,,,,,,,,-0.0390625,-2.42578125,7.3671875,-0.69140625,-0.494140625,-0.150390625,-1.4296875,-6.90234375,1.890625
2400577,,,,,,,,0.17578125,-1.62890625,6.9765625,-0.875,-0.46484375,-0.111328125,-1.23828125,-6.09375,1.5078125
2400578,,,,,,,,0.4921875,-1.109375,6.63671875,-1.041015625,-0.416015625,-0.0703125,-0.9296875,-5.5625,1.16015625
2400579,,,,,,,,0.859375,-0.40234375,6.2265625,-1.201171875,-0.396484375,-0.00390625,-0.5859375,-4.828125,0.7421875
2400580,36.01291166666667,129.31917316666667,51.670395018764154,56.774294017804145,1.4000000000000001,198.0,,0.75390625,-0.16796875,6.0859375,-1.357421875,-0.09375,-0.615234375,-0.69921875,-4.5625,0.5859375
2400581,,,,,,,,0.546875,-0.3203125,6.0625,-1.076171875,-0.359375,0.14453125,-0.9296875,-4.6796875,0.546875
2400582,,,,,,,,0.4921875,-0.3828125,6.109375,-1.0078125,-0.34765625,0.208984375,-1.0078125,-4.72265625,0.5859375
2400583,,,,,,,,-0.05078125,-1.06640625,6.15625,-0.953125,-0.337890625,0.326171875,-1.58203125,-5.3671875,0.625
2400584,,,,,,,,-0.40234375,-1.7109375,6.05078125,-0.919921875,-0.337890625,0.357421875,-1.96484375,-5.98828125,0.51171875
2400585,,,,,,,,-0.44921875,-2.26171875,5.93359375,-0.8828125,-0.328125,0.30859375,-2.04296875,-6.51953125,0.39453125
2400586,,,,,,,,-0.5,-2.4375,6.01171875,-0.8046875,-0.318359375,0.21484375,-2.1171875,-6.67578125,0.47265625
2400587,,,,,,,,-0.71484375,-2.9453125,6.1640625,-0.7109375,-0.298828125,0.11328125,-2.34765625,-7.17578125,0.625
2400588,,,,,,,,-0.8046875,-3.1796875,6.34765625,-0.583984375,-0.2421875,-0.015625,-2.4609375,-7.40234375,0.81640625
2400589,,,,,,,,-0.8046875,-3.2109375,6.46484375,-0.546875,-0.220703125,-0.046875,-2.4609375,-7.44140625,0.93359375
2400590,36.01291066666667,129.3191728333333,51.640346007159195,56.66333460114338,1.4000000000000001,199.0,,-0.65234375,-3.2109375,6.44921875,-0.474609375,-0.162109375,-0.095703125,-2.30859375,-7.44140625,0.93359375
2400591,,,,,,,,-0.453125,-3.39453125,6.2109375,-0.404296875,-0.115234375,-0.1328125,-2.1171875,-7.625,0.703125
2400592,,,,,,,,-0.421875,-3.50390625,6.125,-0.365234375,-0.08984375,-0.1484375,-2.078125,-7.7421875,0.625
2400593,,,,,,,,-0.0859375,-4.0546875,6.1875,-0.248046875,-0.056640625,-0.201171875,-1.734375,-8.3203125,0.703125
2400594,,,,,,,,0.203125,-4.93359375,6.4609375,-0.09375,-0.037109375,-0.259765625,-1.4296875,-9.234375,1.0078125
2400595,,,,,,,,0.34375,-5.66796875,6.70703125,-0.009765625,-0.025390625,-0.2265625,-1.2734375,-10.0,1.27734375
2400596,,,,,,,,0.37109375,-6.09765625,6.75,0.05859375,-0.01953125,-0.166015625,-1.23828125,-10.46484375,1.3515625
2400597,,,,,,,,0.171875,-6.703125,6.91015625,0.107421875,-0.015625,-0.125,-1.4296875,-11.1171875,1.54296875
2400598,,,,,,,,0.08984375,-6.546875,6.7578125,0.138671875,-0.0078125,-0.1171875,-1.50390625,-11.0,1.4296875
2400599,,,,,,,,0.12109375,-6.33984375,6.7421875,0.150390625,-0.001953125,-0.11328125,-1.46484375,-10.80859375,1.4296875
2400600,36.0129095,129.319172,51.565222610685204,56.53388171350331,1.5,204.0,0.0,0.6015625,-5.97265625,6.80078125,0.197265625,-0.0078125,-0.083984375,-0.96875,-10.50390625,1.54296875
