time,latitude,longitude,enu_x,enu_y,speed,course,Hrage,accX,accY,accZ,gyrX,gyrY,gyrZ,eulR,eulP,eulY
4180800,36.013601333333334,129.31967766666668,97.14971322283245,133.29957286003824,1.2000000000000002,252.0,48.0,-1.296875,1.60546875,-4.84765625,-0.80078125,0.25,-0.96875,356.0111111111111,356.0,356.0111111111111
4180801,,,,,,,,-1.296875,1.60546875,-4.84765625,-0.80078125,0.25,-0.96875,356.0111111111111,356.0,356.0111111111111
4180802,,,,,,,,-1.296875,1.60546875,-4.84765625,-0.01953125,0.01171875,-1.03125,356.0111111111111,356.0,356.0111111111111
4180803,,,,,,,,-1.296875,1.60546875,-4.84765625,-0.01953125,0.01171875,-1.03125,356.0111111111111,356.0,356.0111111111111
4180804,,,,,,,,-1.296875,1.60546875,-4.84765625,-0.419921875,1.583984375,0.259765625,356.0111111111111,356.0,356.0111111111111
4180805,,,,,,,,-1.296875,1.60546875,-4.84765625,-0.419921875,1.583984375,0.259765625,356.0111111111111,356.0,356.0111111111111
4180806,,,,,,,,-1.296875,1.60546875,-4.84765625,0.673828125,1.529296875,0.013671875,356.0111111111111,356.0,356.0111111111111
4180807,,,,,,,,-1.296875,1.60546875,-4.84765625,0.673828125,1.529296875,0.013671875,356.0111111111111,356.0,356.0111111111111
4180808,,,,,,,,-1.296875,1.60546875,-4.84765625,1.212890625,1.98828125,-0.71875,356.0111111111111,356.0,356.0111111111111
4180809,,,,,,,,-1.296875,1.60546875,-4.84765625,1.212890625,1.98828125,-0.71875,356.0111111111111,356.0,356.0111111111111
4180810,36.013599500000005,129.31967433333332,96.84922145558355,133.09614424644886,1.7000000000000002,241.0,,-1.296875,1.60546875,-4.84765625,-0.966796875,2.587890625,-1.26171875,356.0111111111111,356.0,356.0111111111111
4180811,,,,,,,,-1.296875,1.60546875,-4.84765625,-0.966796875,2.587890625,-1.26171875,356.0111111111111,356.0,356.0111111111111
4180812,,,,,,,,-1.296875,1.60546875,-4.84765625,-2.18359375,1.732421875,-0.96484375,356.0111111111111,356.0,356.0111111111111
4180813,,,,,,,,-1.296875,1.60546875,-4.84765625,-2.18359375,1.732421875,-0.96484375,356.0111111111111,356.0,356.0111111111111
4180814,,,,,,,,-1.296875,1.60546875,-4.84765625,-1.99609375,1.38671875,-0.8984375,356.0111111111111,356.0,356.0111111111111
4180815,,,,,,,,-7.09765625,-13.109375,-3.78515625,-1.99609375,1.38671875,-0.8984375,356.0111111111111,356.0,356.0111111111111
4180816,,,,,,,,-7.09765625,-13.109375,-3.78515625,-1.99609375,1.38671875,-0.8984375,356.0111111111111,356.0,356.0111111111111
4180817,,,,,,,,-7.09765625,-13.109375,-3.78515625,1.025390625,1.06640625,-1.623046875,356.0111111111111,356.0,356.0111111111111
4180818,,,,,,,,-7.09765625,-13.109375,-3.78515625,1.025390625,1.06640625,-1.623046875,356.0111111111111,356.0,356.0111111111111
4180819,,,,,,,,-7.09765625,-13.109375,-3.78515625,-1.78125,2.798828125,-1.658203125,356.0111111111111,356.0,356.0111111111111
4180820,36.013597499999996,129.319672,96.63887808559907,132.8742234226906,2.2,234.0,,-7.09765625,-13.109375,-3.78515625,-1.78125,2.798828125,-1.658203125,356.0111111111111,356.0,356.0111111111111
4180821,,,,,,,,-7.09765625,-13.109375,-3.78515625,-1.86328125,3.048828125,-2.01171875,356.0111111111111,356.0,356.0111111111111
4180822,,,,,,,,-7.09765625,-13.109375,-3.78515625,-1.86328125,3.048828125,-2.01171875,356.0111111111111,356.0,356.0111111111111
4180823,,,,,,,,-7.09765625,-13.109375,-3.78515625,-0.17578125,2.26953125,-1.912109375,356.0111111111111,356.0,356.0111111111111
4180824,,,,,,,,-7.09765625,-13.109375,-3.78515625,-0.17578125,2.26953125,-1.912109375,356.0111111111111,356.0,356.0111111111111
4180825,,,,,,,,-7.09765625,-13.109375,-3.78515625,0.2109375,0.771484375,-1.00390625,356.0111111111111,356.0,356.0111111111111
4180826,,,,,,,,-7.09765625,-13.109375,-3.78515625,0.2109375,0.771484375,-1.00390625,356.0111111111111,356.0,356.0111111111111
4180827,,,,,,,,-7.09765625,-13.109375,-3.78515625,0.421875,0.138671875,-0.82421875,356.0111111111111,356.0,356.0111111111111
4180828,,,,,,,,-7.09765625,-13.109375,-3.78515625,0.421875,0.138671875,-0.82421875,356.0111111111111,356.0,356.0111111111111
4180829,,,,,,,,-7.09765625,-13.109375,-3.78515625,1.322265625,-0.35546875,0.091796875,356.0111111111111,356.0,356.0111111111111
4180830,36.013596,129.3196695,96.41350939499478,132.7077820686564,2.4000000000000004,233.0,,-1.1796875,14.64453125,-12.2578125,1.322265625,-0.35546875,0.091796875,356.0111111111111,356.0,356.0111111111111
4180831,,,,,,,,-1.1796875,14.64453125,-12.2578125,1.322265625,-0.35546875,0.091796875,356.0111111111111,356.0,356.0111111111111
4180832,,,,,,,,-1.1796875,14.64453125,-12.2578125,0.31640625,-0.666015625,0.60546875,356.0111111111111,356.0,356.0111111111111
4180833,,,,,,,,-1.1796875,14.64453125,-12.2578125,0.31640625,-0.666015625,0.60546875,356.0111111111111,356.0,356.0111111111111
4180834,,,,,,,,-1.1796875,14.64453125,-12.2578125,-2.1640625,-0.65625,0.380859375,356.0111111111111,356.0,356.0111111111111
4180835,,,,,,,,-1.1796875,14.64453125,-12.2578125,-2.1640625,-0.65625,0.380859375,356.0111111111111,356.0,356.0111111111111
4180836,,,,,,,,-1.1796875,14.64453125,-12.2578125,-3.16015625,-1.501953125,0.67578125,356.0111111111111,356.0,356.0111111111111
4180837,,,,,,,,-1.1796875,14.64453125,-12.2578125,-3.16015625,-1.501953125,0.67578125,356.0111111111111,356.0,356.0111111111111
4180838,,,,,,,,-1.1796875,14.64453125,-12.2578125,0.744140625,2.591796875,0.564453125,356.0111111111111,356.0,356.0111111111111
4180839,,,,,,,,-1.1796875,14.64453125,-12.2578125,0.744140625,2.591796875,0.564453125,356.0111111111111,356.0,356.0111111111111
4180840,36.01359466666667,129.319667,96.18814049268403,132.55983392852855,2.5,235.0,,-1.1796875,14.64453125,-12.2578125,-0.404296875,-4.505859375,1.412109375,356.0111111111111,356.0,356.0111111111111
4180841,,,,,,,,-1.1796875,14.64453125,-12.2578125,-0.404296875,-4.505859375,1.412109375,356.0111111111111,356.0,356.0111111111111
4180842,,,,,,,,-1.1796875,14.64453125,-12.2578125,-0.8125,-1.443359375,1.572265625,356.0111111111111,356.0,356.0111111111111
4180843,,,,,,,,-1.1796875,14.64453125,-12.2578125,-0.8125,-1.443359375,1.572265625,356.0111111111111,356.0,356.0111111111111
4180844,,,,,,,,-1.1796875,14.64453125,-12.2578125,-0.7578125,-2.357421875,2.083984375,356.0111111111111,356.0,356.0111111111111
4180845,,,,,,,,10.69140625,4.18359375,-2.6953125,-0.7578125,-2.357421875,2.083984375,356.0111111111111,356.0,356.0111111111111
4180846,,,,,,,,10.69140625,4.18359375,-2.6953125,-0.7578125,-2.357421875,2.083984375,356.0111111111111,356.0,356.0111111111111
4180847,,,,,,,,10.69140625,4.18359375,-2.6953125,-0.7578125,-2.357421875,2.083984375,356.0111111111111,356.0,356.0111111111111
4180848,,,,,,,,10.69140625,4.18359375,-2.6953125,0.91015625,0.232421875,1.46484375,356.0111111111111,356.0,356.0111111111111
4180849,,,,,,,,10.69140625,4.18359375,-2.6953125,0.91015625,0.232421875,1.46484375,356.0111111111111,356.0,356.0111111111111
4180850,36.013592833333334,129.31966400000002,95.91769808439325,132.35640567421527,2.9000000000000004,235.0,,10.69140625,4.18359375,-2.6953125,1.701171875,0.451171875,0.482421875,356.0111111111111,356.0,356.0111111111111
4180851,,,,,,,,10.69140625,4.18359375,-2.6953125,1.701171875,0.451171875,0.482421875,356.0111111111111,356.0,356.0111111111111
4180852,,,,,,,,10.69140625,4.18359375,-2.6953125,1.978515625,0.603515625,-0.205078125,356.0111111111111,356.0,356.0111111111111
4180853,,,,,,,,10.69140625,4.18359375,-2.6953125,1.978515625,0.603515625,-0.205078125,356.0111111111111,356.0,356.0111111111111
4180854,,,,,,,,10.69140625,4.18359375,-2.6953125,0.134765625,0.958984375,-0.84765625,356.0111111111111,356.0,356.0111111111111
4180855,,,,,,,,10.69140625,4.18359375,-2.6953125,0.134765625,0.958984375,-0.84765625,356.0111111111111,356.0,356.0111111111111
4180856,,,,,,,,10.69140625,4.18359375,-2.6953125,-2.16015625,0.8125,-0.818359375,356.0111111111111,356.0,356.0111111111111
4180857,,,,,,,,10.69140625,4.18359375,-2.6953125,-2.16015625,0.8125,-0.818359375,356.0111111111111,356.0,356.0111111111111
4180858,,,,,,,,10.69140625,4.18359375,-2.6953125,-1.751953125,-0.396484375,-0.529296875,356.0111111111111,356.0,356.0111111111111
4180859,,,,,,,,10.69140625,4.18359375,-2.6953125,-1.751953125,-0.396484375,-0.529296875,356.0111111111111,356.0,356.0111111111111
4180860,36.01359083333333,129.31966066666666,95.6172064578087,132.13448389257812,3.2,235.0,,10.69140625,4.18359375,-2.6953125,0.505859375,2.181640625,-1.544921875,356.0111111111111,356.0,356.0111111111111
4180861,,,,,,,,-0.8828125,0.59765625,4.75,0.505859375,2.181640625,-1.544921875,356.0111111111111,356.0,356.0111111111111
4180862,,,,,,,,-0.8828125,0.59765625,4.75,0.505859375,2.181640625,-1.544921875,356.0111111111111,356.0,356.0111111111111
4180863,,,,,,,,-0.8828125,0.59765625,4.75,0.505859375,2.181640625,-1.544921875,356.0111111111111,356.0,356.0111111111111
4180864,,,,,,,,-0.8828125,0.59765625,4.75,-1.064453125,1.552734375,-2.158203125,356.0111111111111,356.0,356.0111111111111
4180865,,,,,,,,-0.8828125,0.59765625,4.75,-1.064453125,1.552734375,-2.158203125,356.0111111111111,356.0,356.0111111111111
4180866,,,,,,,,-0.8828125,0.59765625,4.75,-1.923828125,2.62109375,-2.1640625,356.0111111111111,356.0,356.0111111111111
4180867,,,,,,,,-0.8828125,0.59765625,4.75,-1.923828125,2.62109375,-2.1640625,356.0111111111111,356.0,356.0111111111111
4180868,,,,,,,,-0.8828125,0.59765625,4.75,0.0,2.134765625,-1.025390625,356.0111111111111,356.0,356.0111111111111
4180869,,,,,,,,-0.8828125,0.59765625,4.75,0.0,2.134765625,-1.025390625,356.0111111111111,356.0,356.0111111111111
4180870,36.01358866666667,129.3196578333333,95.36178912192227,131.89406940324864,3.3000000000000003,233.0,,-0.8828125,0.59765625,4.75,-0.125,0.41015625,-0.5703125,356.0111111111111,356.0,356.0111111111111
4180871,,,,,,,,-0.8828125,0.59765625,4.75,-0.125,0.41015625,-0.5703125,356.0111111111111,356.0,356.0111111111111
4180872,,,,,,,,-0.8828125,0.59765625,4.75,0.783203125,0.27734375,-0.1953125,356.0111111111111,356.0,356.0111111111111
4180873,,,,,,,,-0.8828125,0.59765625,4.75,0.783203125,0.27734375,-0.1953125,356.0111111111111,356.0,356.0111111111111
4180874,,,,,,,,-0.8828125,0.59765625,4.75,1.8671875,-0.625,0.455078125,356.0111111111111,356.0,356.0111111111111
4180875,,,,,,,,-0.8828125,0.59765625,4.75,1.8671875,-0.625,0.455078125,356.0111111111111,356.0,356.0111111111111
4180876,,,,,,,,-0.8828125,0.59765625,4.75,0.966796875,-1.31640625,0.744140625,356.0111111111111,356.0,356.0111111111111
4180877,,,,,,,,10.625,-9.98828125,-9.23828125,0.966796875,-1.31640625,0.744140625,356.0111111111111,356.0,356.0111111111111
4180878,,,,,,,,10.625,-9.98828125,-9.23828125,0.966796875,-1.31640625,0.744140625,356.0111111111111,356.0,356.0111111111111
4180879,,,,,,,,10.625,-9.98828125,-9.23828125,0.966796875,-1.31640625,0.744140625,356.0111111111111,356.0,356.0111111111111
4180880,36.013583833333335,129.31964933333333,94.59553505349719,131.35775806407122,4.1000000000000005,234.0,,10.625,-9.98828125,-9.23828125,-2.869140625,-2.564453125,1.537109375,356.0111111111111,356.0,356.0111111111111
4180881,,,,,,,,10.625,-9.98828125,-9.23828125,-2.869140625,-2.564453125,1.537109375,356.0111111111111,356.0,356.0111111111111
4180882,,,,,,,,10.625,-9.98828125,-9.23828125,-1.189453125,0.4609375,0.5859375,356.0111111111111,356.0,356.0111111111111
4180883,,,,,,,,10.625,-9.98828125,-9.23828125,-1.189453125,0.4609375,0.5859375,356.0111111111111,356.0,356.0111111111111
4180884,,,,,,,,10.625,-9.98828125,-9.23828125,-0.2890625,-3.548828125,1.341796875,356.0111111111111,356.0,356.0111111111111
4180885,,,,,,,,10.625,-9.98828125,-9.23828125,-0.2890625,-3.548828125,1.341796875,356.0111111111111,356.0,356.0111111111111
4180886,,,,,,,,10.625,-9.98828125,-9.23828125,-0.857421875,-2.935546875,1.552734375,356.0111111111111,356.0,356.0111111111111
4180887,,,,,,,,10.625,-9.98828125,-9.23828125,-0.857421875,-2.935546875,1.552734375,356.0111111111111,356.0,356.0111111111111
4180888,,,,,,,,10.625,-9.98828125,-9.23828125,-0.810546875,-3.42578125,2.5859375,356.0111111111111,356.0,356.0111111111111
4180889,,,,,,,,10.625,-9.98828125,-9.23828125,-0.810546875,-3.42578125,2.5859375,356.0111111111111,356.0,356.0111111111111
4180890,36.01358116666667,129.31964483333334,94.18987122527372,131.0618623654449,4.5,234.0,,10.625,-9.98828125,-9.23828125,0.541015625,-2.091796875,2.04296875,356.0111111111111,356.0,356.0111111111111
4180891,,,,,,,,10.625,-9.98828125,-9.23828125,0.541015625,-2.091796875,2.04296875,356.0111111111111,356.0,356.0111111111111
4180892,,,,,,,,10.625,-9.98828125,-9.23828125,0.251953125,-0.32421875,1.60546875,356.0111111111111,356.0,356.0111111111111
4180893,,,,,,,,3.8125,16.98828125,-2.49609375,0.251953125,-0.32421875,1.60546875,356.0111111111111,356.0,356.0111111111111
4180894,,,,,,,,3.8125,16.98828125,-2.49609375,0.251953125,-0.32421875,1.60546875,356.0111111111111,356.0,356.0111111111111
4180895,,,,,,,,3.8125,16.98828125,-2.49609375,3.091796875,0.287109375,0.490234375,356.0111111111111,356.0,356.0111111111111
4180896,,,,,,,,3.8125,16.98828125,-2.49609375,3.091796875,0.287109375,0.490234375,356.0,356.0,356.0111111111111
4180897,,,,,,,,3.8125,16.98828125,-2.49609375,0.90625,1.638671875,-0.607421875,356.0,356.0,356.0111111111111
4180898,,,,,,,,3.8125,16.98828125,-2.49609375,0.90625,1.638671875,-0.607421875,356.0,356.0,356.0111111111111
4180899,,,,,,,,3.8125,16.98828125,-2.49609375,-1.232421875,1.650390625,-1.216796875,356.0,356.0,356.0111111111111
4180900,36.0135745,129.31963633333334,93.42361917202751,130.32212583428196,5.0,228.0,48.0,3.8125,16.98828125,-2.49609375,-1.232421875,1.650390625,-1.216796875,356.0,356.0,356.0111111111111
4180901,,,,,,,,3.8125,16.98828125,-2.49609375,-1.232421875,1.650390625,-1.216796875,356.0,356.0,356.0111111111111
4180902,,,,,,,,3.8125,16.98828125,-2.49609375,-1.232421875,1.650390625,-1.216796875,356.0,356.0,356.0111111111111
4180903,,,,,,,,3.8125,16.98828125,-2.49609375,-1.919921875,-1.150390625,-0.177734375,356.0,356.0,356.0111111111111
4180904,,,,,,,,3.8125,16.98828125,-2.49609375,-1.919921875,-1.150390625,-0.177734375,356.0,356.0,356.0111111111111
4180905,,,,,,,,3.8125,16.98828125,-2.49609375,0.4375,-1.236328125,0.322265625,356.0,356.0,356.0111111111111
4180906,,,,,,,,29.2890625,-27.0390625,11.2890625,0.4375,-1.236328125,0.322265625,356.0,356.0,356.0111111111111
4180907,,,,,,,,29.2890625,-27.0390625,11.2890625,0.4375,-1.236328125,0.322265625,356.0111111111111,356.0,356.0111111111111
4180908,,,,,,,,29.2890625,-27.0390625,11.2890625,-3.111328125,-0.98046875,0.802734375,356.0111111111111,356.0,356.0111111111111
4180909,,,,,,,,29.2890625,-27.0390625,11.2890625,-3.111328125,-0.98046875,0.802734375,356.0111111111111,356.0,356.0111111111111
4180910,36.01356833333333,129.319627,92.58224287171626,129.63786820418534,5.2,230.0,,29.2890625,-27.0390625,11.2890625,1.6484375,-1.4140625,0.025390625,356.0111111111111,356.0,356.0111111111111
4180911,,,,,,,,29.2890625,-27.0390625,11.2890625,1.6484375,-1.4140625,0.025390625,356.0111111111111,356.0,356.0111111111111
4180912,,,,,,,,29.2890625,-27.0390625,11.2890625,0.18359375,-4.966796875,1.10546875,356.0111111111111,356.0,356.0111111111111
4180913,,,,,,,,29.2890625,-27.0390625,11.2890625,0.18359375,-4.966796875,1.10546875,356.0111111111111,356.0,356.0111111111111
4180914,,,,,,,,29.2890625,-27.0390625,11.2890625,-0.82421875,-3.61328125,1.77734375,356.0111111111111,356.0,356.0111111111111
4180915,,,,,,,,29.2890625,-27.0390625,11.2890625,-0.82421875,-3.61328125,1.77734375,356.0111111111111,356.0,356.0111111111111
4180916,,,,,,,,29.2890625,-27.0390625,11.2890625,-1.935546875,-3.166015625,2.259765625,356.0111111111111,356.0,356.0111111111111
4180917,,,,,,,,29.2890625,-27.0390625,11.2890625,-1.935546875,-3.166015625,2.259765625,356.0111111111111,356.0,356.0111111111111
4180918,,,,,,,,29.2890625,-27.0390625,11.2890625,-0.162109375,-2.556640625,2.0390625,356.0111111111111,356.0,356.0111111111111
4180919,,,,,,,,29.2890625,-27.0390625,11.2890625,-0.162109375,-2.556640625,2.0390625,356.0111111111111,356.0,356.0111111111111
4180920,36.0135655,129.3196225,92.17657909101273,129.3234793907041,5.2,231.0,,29.2890625,-27.0390625,11.2890625,-0.248046875,-1.28515625,1.4296875,356.0111111111111,356.0,356.0111111111111
4180921,,,,,,,,6.2421875,8.453125,-0.44921875,-0.248046875,-1.28515625,1.4296875,356.0111111111111,356.0,356.0111111111111
4180922,,,,,,,,6.2421875,8.453125,-0.44921875,-0.248046875,-1.28515625,1.4296875,356.0111111111111,356.0,356.0111111111111
4180923,,,,,,,,6.2421875,8.453125,-0.44921875,2.58984375,0.37890625,0.333984375,356.0111111111111,356.0,356.0111111111111
4180924,,,,,,,,6.2421875,8.453125,-0.44921875,2.58984375,0.37890625,0.333984375,356.0111111111111,356.0,356.0111111111111
4180925,,,,,,,,6.2421875,8.453125,-0.44921875,2.560546875,1.291015625,-0.21484375,356.0111111111111,356.0,356.0111111111111
4180926,,,,,,,,6.2421875,8.453125,-0.44921875,2.560546875,1.291015625,-0.21484375,356.0,356.0,356.0111111111111
4180927,,,,,,,,6.2421875,8.453125,-0.44921875,-0.16015625,2.64453125,-0.88671875,356.0,356.0,356.0111111111111
4180928,,,,,,,,6.2421875,8.453125,-0.44921875,-0.16015625,2.64453125,-0.88671875,356.0,356.0,356.0111111111111
4180929,,,,,,,,6.2421875,8.453125,-0.44921875,-1.3671875,2.650390625,-1.095703125,356.0,356.0,356.0111111111111
4180930,36.01356166666667,129.31961816666666,91.78594114276306,128.89813150076063,5.4,229.0,,6.2421875,8.453125,-0.44921875,-1.3671875,2.650390625,-1.095703125,356.0,356.0,356.0111111111111
4180931,,,,,,,,6.2421875,8.453125,-0.44921875,-2.1953125,0.013671875,-0.751953125,356.0,356.0,356.0111111111111
4180932,,,,,,,,6.2421875,8.453125,-0.44921875,-2.1953125,0.013671875,-0.751953125,356.0,356.0,356.0111111111111
4180933,,,,,,,,6.2421875,8.453125,-0.44921875,0.095703125,2.1875,-1.32421875,356.0,356.0,356.0111111111111
4180934,,,,,,,,6.2421875,8.453125,-0.44921875,0.095703125,2.1875,-1.32421875,356.0111111111111,356.0,356.0111111111111
4180935,,,,,,,,6.2421875,8.453125,-0.44921875,1.1015625,2.291015625,-2.546875,356.0111111111111,356.0,356.0111111111111
4180936,,,,,,,,-4.50390625,12.69140625,-3.02734375,1.1015625,2.291015625,-2.546875,356.0111111111111,356.0,356.0111111111111
4180937,,,,,,,,-4.50390625,12.69140625,-3.02734375,1.1015625,2.291015625,-2.546875,356.0111111111111,356.0,356.0111111111111
4180938,,,,,,,,-4.50390625,12.69140625,-3.02734375,-2.080078125,3.80859375,-3.392578125,356.0111111111111,356.0,356.0111111111111
4180939,,,,,,,,-4.50390625,12.69140625,-3.02734375,-2.080078125,3.80859375,-3.392578125,356.0111111111111,356.0,356.0111111111111
4180940,36.01355816666667,129.31961366666667,91.38027806888061,128.5097698900758,5.5,227.0,,-4.50390625,12.69140625,-3.02734375,-1.068359375,1.6953125,-1.65625,356.0111111111111,356.0,356.0111111111111
4180941,,,,,,,,-4.50390625,12.69140625,-3.02734375,-1.068359375,1.6953125,-1.65625,356.0111111111111,356.0,356.0111111111111
4180942,,,,,,,,-4.50390625,12.69140625,-3.02734375,-2.10546875,0.982421875,-0.103515625,356.0111111111111,356.0,356.0111111111111
4180943,,,,,,,,-4.50390625,12.69140625,-3.02734375,-2.10546875,0.982421875,-0.103515625,356.0111111111111,356.0,356.0111111111111
4180944,,,,,,,,-4.50390625,12.69140625,-3.02734375,0.23046875,-3.466796875,0.208984375,356.0111111111111,356.0,356.0111111111111
4180945,,,,,,,,-4.50390625,12.69140625,-3.02734375,0.23046875,-3.466796875,0.208984375,356.0111111111111,356.0,356.0111111111111
4180946,,,,,,,,-4.50390625,12.69140625,-3.02734375,3.865234375,2.35546875,0.537109375,356.0111111111111,356.0,356.0111111111111
4180947,,,,,,,,-4.50390625,12.69140625,-3.02734375,3.865234375,2.35546875,0.537109375,356.0111111111111,356.0,356.0111111111111
4180948,,,,,,,,-4.50390625,12.69140625,-3.02734375,2.962890625,-0.978515625,0.328125,356.0111111111111,356.0,356.0111111111111
4180949,,,,,,,,-4.50390625,12.69140625,-3.02734375,2.962890625,-0.978515625,0.328125,356.0111111111111,356.0,356.0111111111111
4180950,36.01355483333334,129.31960883333335,90.94456534707786,128.1399011950184,5.6000000000000005,227.0,,-4.50390625,12.69140625,-3.02734375,0.763671875,-1.271484375,0.630859375,356.0111111111111,356.0,356.0111111111111
4180951,,,,,,,,22.85546875,-19.23828125,0.6484375,0.763671875,-1.271484375,0.630859375,356.0111111111111,356.0,356.0111111111111
4180952,,,,,,,,22.85546875,-19.23828125,0.6484375,0.763671875,-1.271484375,0.630859375,356.0111111111111,356.0,356.0111111111111
4180953,,,,,,,,22.85546875,-19.23828125,0.6484375,0.763671875,-1.271484375,0.630859375,356.0111111111111,356.0,356.0111111111111
4180954,,,,,,,,22.85546875,-19.23828125,0.6484375,-2.849609375,-1.666015625,1.125,356.0111111111111,356.0,356.0111111111111
4180955,,,,,,,,22.85546875,-19.23828125,0.6484375,-2.849609375,-1.666015625,1.125,356.0111111111111,356.0,356.0111111111111
4180956,,,,,,,,22.85546875,-19.23828125,0.6484375,0.759765625,-1.6796875,0.533203125,356.0111111111111,356.0,356.0111111111111
4180957,,,,,,,,22.85546875,-19.23828125,0.6484375,0.759765625,-1.6796875,0.533203125,356.0111111111111,356.0,356.0111111111111
4180958,,,,,,,,22.85546875,-19.23828125,0.6484375,-1.521484375,-5.552734375,1.564453125,356.0111111111111,356.0,356.0111111111111
4180959,,,,,,,,22.85546875,-19.23828125,0.6484375,-1.521484375,-5.552734375,1.564453125,356.0111111111111,356.0,356.0111111111111
4180960,36.01355133333333,129.319603,90.418704518874,127.75153838419092,5.800000000000001,230.0,,22.85546875,-19.23828125,0.6484375,-0.80078125,-4.01953125,2.46484375,356.0111111111111,356.0,356.0111111111111
4180961,,,,,,,,22.85546875,-19.23828125,0.6484375,-0.80078125,-4.01953125,2.46484375,356.0111111111111,356.0,356.0111111111111
4180962,,,,,,,,22.85546875,-19.23828125,0.6484375,-0.55859375,-1.134765625,2.259765625,356.0111111111111,356.0,356.0111111111111
4180963,,,,,,,,22.85546875,-19.23828125,0.6484375,-0.55859375,-1.134765625,2.259765625,356.0111111111111,356.0,356.0111111111111
4180964,,,,,,,,22.85546875,-19.23828125,0.6484375,-0.21484375,-2.36328125,1.66015625,356.0111111111111,356.0,356.0111111111111
4180965,,,,,,,,22.85546875,-19.23828125,0.6484375,-0.21484375,-2.36328125,1.66015625,356.0,356.0,356.0111111111111
4180966,,,,,,,,22.85546875,-19.23828125,0.6484375,1.236328125,0.1875,1.306640625,356.0,356.0,356.0111111111111
4180967,,,,,,,,7.83984375,23.0859375,-0.90625,1.236328125,0.1875,1.306640625,356.0,356.0,356.0111111111111
4180968,,,,,,,,7.83984375,23.0859375,-0.90625,1.236328125,0.1875,1.306640625,356.0,356.0,356.0111111111111
4180969,,,,,,,,7.83984375,23.0859375,-0.90625,1.236328125,0.1875,1.306640625,356.0,356.0,356.0111111111111
4180970,36.013547499999994,129.31959666666668,89.8477698920878,127.32618872715881,6.2,231.0,,7.83984375,23.0859375,-0.90625,4.0234375,1.861328125,-0.59765625,356.0,356.0,356.0111111111111
4180971,,,,,,,,7.83984375,23.0859375,-0.90625,4.0234375,1.861328125,-0.59765625,356.0,356.0,356.0111111111111
4180972,,,,,,,,7.83984375,23.0859375,-0.90625,0.529296875,0.052734375,-1.080078125,356.0,356.0,356.0111111111111
4180973,,,,,,,,7.83984375,23.0859375,-0.90625,0.529296875,0.052734375,-1.080078125,356.0,356.0,356.0111111111111
4180974,,,,,,,,7.83984375,23.0859375,-0.90625,-4.82421875,-1.69140625,0.626953125,356.0,356.0,356.0111111111111
4180975,,,,,,,,7.83984375,23.0859375,-0.90625,-4.82421875,-1.69140625,0.626953125,356.0,356.0,356.0111111111111
4180976,,,,,,,,7.83984375,23.0859375,-0.90625,2.32421875,0.53515625,-0.072265625,356.0,356.0,356.0111111111111
4180977,,,,,,,,7.83984375,23.0859375,-0.90625,2.32421875,0.53515625,-0.072265625,356.0,356.0,356.0111111111111
4180978,,,,,,,,7.83984375,23.0859375,-0.90625,-1.6796875,5.970703125,-2.234375,356.0,356.0,356.0111111111111
4180979,,,,,,,,7.83984375,23.0859375,-0.90625,-1.6796875,5.970703125,-2.234375,356.0,356.0,356.0111111111111
4180980,36.013543,129.3195915,89.38200893970219,126.82686734366531,6.2,229.0,,7.83984375,23.0859375,-0.90625,-1.625,4.892578125,-3.189453125,356.0,356.0,356.0111111111111
4180981,,,,,,,,7.83984375,23.0859375,-0.90625,-1.625,4.892578125,-3.189453125,356.0111111111111,356.0,356.0111111111111
4180982,,,,,,,,7.83984375,23.0859375,-0.90625,-2.1328125,2.748046875,-3.1640625,356.0111111111111,356.0,356.0111111111111
4180983,,,,,,,,-16.46875,0.0078125,-0.4453125,-2.1328125,2.748046875,-3.1640625,356.0111111111111,356.0,356.0111111111111
4180984,,,,,,,,-16.46875,0.0078125,-0.4453125,-2.1328125,2.748046875,-3.1640625,356.0111111111111,356.0,356.0111111111111
4180985,,,,,,,,-16.46875,0.0078125,-0.4453125,-2.1328125,2.748046875,-3.1640625,356.0111111111111,356.0,356.0111111111111
4180986,,,,,,,,-16.46875,0.0078125,-0.4453125,-1.361328125,4.068359375,-1.056640625,356.0111111111111,356.0,356.0111111111111
4180987,,,,,,,,-16.46875,0.0078125,-0.4453125,-1.361328125,4.068359375,-1.056640625,356.0111111111111,356.0,356.0111111111111
4180988,,,,,,,,-16.46875,0.0078125,-0.4453125,-1.826171875,-1.767578125,0.42578125,356.0111111111111,356.0,356.0111111111111
4180989,,,,,,,,-16.46875,0.0078125,-0.4453125,-1.826171875,-1.767578125,0.42578125,356.0111111111111,356.0,356.0111111111111
4180990,36.013539,129.31958633333335,88.91624737552087,126.38302561058936,6.2,228.0,,-16.46875,0.0078125,-0.4453125,4.748046875,2.185546875,0.251953125,356.0111111111111,356.0,356.0111111111111
4180991,,,,,,,,-16.46875,0.0078125,-0.4453125,4.748046875,2.185546875,0.251953125,356.0111111111111,356.0,356.0111111111111
4180992,,,,,,,,-16.46875,0.0078125,-0.4453125,4.482421875,0.611328125,0.26171875,356.0111111111111,356.0,356.0111111111111
4180993,,,,,,,,-16.46875,0.0078125,-0.4453125,4.482421875,0.611328125,0.26171875,356.0111111111111,356.0,356.0111111111111
4180994,,,,,,,,-16.46875,0.0078125,-0.4453125,0.87109375,-2.01953125,0.333984375,356.0111111111111,356.0,356.0111111111111
4180995,,,,,,,,-16.46875,0.0078125,-0.4453125,0.87109375,-2.01953125,0.333984375,356.0111111111111,356.0,356.0111111111111
4180996,,,,,,,,-16.46875,0.0078125,-0.4453125,-0.81640625,-2.646484375,0.166015625,356.0111111111111,356.0,356.0111111111111
4180997,,,,,,,,-16.46875,0.0078125,-0.4453125,-0.81640625,-2.646484375,0.166015625,356.0111111111111,356.0,356.0111111111111
4180998,,,,,,,,-16.46875,0.0078125,-0.4453125,-4.66015625,1.439453125,-0.341796875,356.0111111111111,356.0,356.0111111111111
4180999,,,,,,,,-5.3828125,-2.30859375,-6.13671875,-4.66015625,1.439453125,-0.341796875,356.0111111111111,356.0,356.0111111111111
4181000,36.0135315,129.31957466666665,87.86452583566961,125.5508206414255,6.300000000000001,231.0,48.0,-5.3828125,-2.30859375,-6.13671875,-4.66015625,1.439453125,-0.341796875,356.0111111111111,356.0,356.0111111111111
4181001,,,,,,,,-5.3828125,-2.30859375,-6.13671875,-4.66015625,1.439453125,-0.341796875,356.0111111111111,356.0,356.0111111111111
4181002,,,,,,,,-5.3828125,-2.30859375,-6.13671875,-1.701171875,-3.025390625,2.447265625,356.0111111111111,356.0,356.0111111111111
4181003,,,,,,,,-5.3828125,-2.30859375,-6.13671875,-1.701171875,-3.025390625,2.447265625,356.0111111111111,356.0,356.0111111111111
4181004,,,,,,,,-5.3828125,-2.30859375,-6.13671875,4.5703125,0.40625,-0.568359375,356.0111111111111,356.0,356.0111111111111
4181005,,,,,,,,-5.3828125,-2.30859375,-6.13671875,4.5703125,0.40625,-0.568359375,356.0,356.0,356.0111111111111
4181006,,,,,,,,-5.3828125,-2.30859375,-6.13671875,1.125,2.7109375,-0.8125,356.0,356.0,356.0111111111111
4181007,,,,,,,,-5.3828125,-2.30859375,-6.13671875,1.125,2.7109375,-0.8125,356.0,356.0,356.0111111111111
4181008,,,,,,,,-5.3828125,-2.30859375,-6.13671875,-1.029296875,2.87109375,-1.083984375,356.0,356.0,356.0111111111111
4181009,,,,,,,,-5.3828125,-2.30859375,-6.13671875,-1.029296875,2.87109375,-1.083984375,356.0,356.0,356.0111111111111
4181010,36.01352333333333,129.31956350000002,86.85787897986816,124.64464341037544,6.4,229.0,,-5.3828125,-2.30859375,-6.13671875,-3.158203125,1.287109375,-0.810546875,356.0,356.0,356.0111111111111
4181011,,,,,,,,-5.3828125,-2.30859375,-6.13671875,-3.158203125,1.287109375,-0.810546875,356.0,356.0,356.0111111111111
4181012,,,,,,,,-5.3828125,-2.30859375,-6.13671875,-2.341796875,-2.75390625,-0.583984375,356.0,356.0,356.0111111111111
4181013,,,,,,,,-5.3828125,-2.30859375,-6.13671875,-2.341796875,-2.75390625,-0.583984375,356.0111111111111,356.0,356.0111111111111
4181014,,,,,,,,-5.3828125,-2.30859375,-6.13671875,2.4609375,4.1484375,-1.59375,356.0111111111111,356.0,356.0111111111111
4181015,,,,,,,,6.8125,17.84375,-1.703125,2.4609375,4.1484375,-1.59375,356.0111111111111,356.0,356.0111111111111
4181016,,,,,,,,6.8125,17.84375,-1.703125,2.4609375,4.1484375,-1.59375,356.0111111111111,356.0,356.0111111111111
4181017,,,,,,,,6.8125,17.84375,-1.703125,2.4609375,4.1484375,-1.59375,356.0111111111111,356.0,356.0111111111111
4181018,,,,,,,,6.8125,17.84375,-1.703125,-2.470703125,4.908203125,-3.806640625,356.0111111111111,356.0,356.0111111111111
4181019,,,,,,,,6.8125,17.84375,-1.703125,-2.470703125,4.908203125,-3.806640625,356.0111111111111,356.0,356.0111111111111
4181020,36.0135195,129.3195585,86.40714170381304,124.21929516900165,6.5,225.0,,6.8125,17.84375,-1.703125,-0.87109375,2.90625,-0.865234375,356.0111111111111,356.0,356.0111111111111
4181021,,,,,,,,6.8125,17.84375,-1.703125,-0.87109375,2.90625,-0.865234375,356.0111111111111,356.0,356.0111111111111
4181022,,,,,,,,6.8125,17.84375,-1.703125,-2.39453125,2.005859375,-0.138671875,356.0111111111111,356.0,356.0111111111111
4181023,,,,,,,,6.8125,17.84375,-1.703125,-2.39453125,2.005859375,-0.138671875,356.0111111111111,356.0,356.0111111111111
4181024,,,,,,,,6.8125,17.84375,-1.703125,1.822265625,-6.470703125,0.68359375,356.0111111111111,356.0,356.0111111111111
4181025,,,,,,,,6.8125,17.84375,-1.703125,1.822265625,-6.470703125,0.68359375,356.0111111111111,356.0,356.0111111111111
4181026,,,,,,,,6.8125,17.84375,-1.703125,3.408203125,-0.458984375,0.291015625,356.0111111111111,356.0,356.0111111111111
4181027,,,,,,,,6.8125,17.84375,-1.703125,3.408203125,-0.458984375,0.291015625,356.0111111111111,356.0,356.0111111111111
4181028,,,,,,,,6.8125,17.84375,-1.703125,2.947265625,3.052734375,-0.18359375,356.0111111111111,356.0,356.0111111111111
4181029,,,,,,,,6.8125,17.84375,-1.703125,2.947265625,3.052734375,-0.18359375,356.0111111111111,356.0,356.0111111111111
4181030,36.013515500000004,129.31955283333335,85.89630570165912,123.77545315435896,6.6000000000000005,225.0,,6.8125,17.84375,-1.703125,1.986328125,-1.240234375,0.361328125,356.0111111111111,356.0,356.0111111111111
4181031,,,,,,,,-3.55078125,2.22265625,-3.62109375,1.986328125,-1.240234375,0.361328125,356.0111111111111,356.0,356.0111111111111
4181032,,,,,,,,-3.55078125,2.22265625,-3.62109375,1.986328125,-1.240234375,0.361328125,356.0111111111111,356.0,356.0111111111111
4181033,,,,,,,,-3.55078125,2.22265625,-3.62109375,-1.30859375,-2.166015625,0.353515625,356.0111111111111,356.0,356.0111111111111
4181034,,,,,,,,-3.55078125,2.22265625,-3.62109375,-1.30859375,-2.166015625,0.353515625,356.0111111111111,356.0,356.0111111111111
4181035,,,,,,,,-3.55078125,2.22265625,-3.62109375,-2.287109375,-1.419921875,0.62890625,356.0111111111111,356.0,356.0111111111111
4181036,,,,,,,,-3.55078125,2.22265625,-3.62109375,-2.287109375,-1.419921875,0.62890625,356.0111111111111,356.0,356.0111111111111
4181037,,,,,,,,-3.55078125,2.22265625,-3.62109375,-2.06640625,0.849609375,-0.212890625,356.0111111111111,356.0,356.0111111111111
4181038,,,,,,,,-3.55078125,2.22265625,-3.62109375,-2.06640625,0.849609375,-0.212890625,356.0111111111111,356.0,356.0111111111111
4181039,,,,,,,,-3.55078125,2.22265625,-3.62109375,1.45703125,-4.384765625,0.830078125,356.0111111111111,356.0,356.0111111111111
4181040,36.01351183333334,129.31954716666667,85.38546928599052,123.36859758742992,6.6000000000000005,228.0,,-3.55078125,2.22265625,-3.62109375,1.45703125,-4.384765625,0.830078125,356.0111111111111,356.0,356.0111111111111
4181041,,,,,,,,-3.55078125,2.22265625,-3.62109375,-0.296875,-3.484375,2.3359375,356.0111111111111,356.0,356.0111111111111
4181042,,,,,,,,-3.55078125,2.22265625,-3.62109375,-0.296875,-3.484375,2.3359375,356.0111111111111,356.0,356.0111111111111
4181043,,,,,,,,-3.55078125,2.22265625,-3.62109375,-0.55078125,-2.828125,2.3125,356.0111111111111,356.0,356.0111111111111
4181044,,,,,,,,-3.55078125,2.22265625,-3.62109375,-0.55078125,-2.828125,2.3125,356.0111111111111,356.0,356.0111111111111
4181045,,,,,,,,-3.55078125,2.22265625,-3.62109375,-0.69140625,-0.150390625,0.708984375,356.0111111111111,356.0,356.0111111111111
4181046,,,,,,,,11.02734375,9.4453125,25.7890625,-0.69140625,-0.150390625,0.708984375,356.0111111111111,356.0,356.0111111111111
4181047,,,,,,,,11.02734375,9.4453125,25.7890625,-0.69140625,-0.150390625,0.708984375,356.0111111111111,356.0,356.0111111111111
4181048,,,,,,,,11.02734375,9.4453125,25.7890625,1.82421875,-1.40234375,0.841796875,356.0111111111111,356.0,356.0111111111111
4181049,,,,,,,,11.02734375,9.4453125,25.7890625,1.82421875,-1.40234375,0.841796875,356.0111111111111,356.0,356.0111111111111
4181050,36.013508,129.31954116666665,84.84458356370077,122.94324854987192,6.6000000000000005,229.0,,11.02734375,9.4453125,25.7890625,4.80078125,0.546875,-0.16015625,356.0111111111111,356.0,356.0111111111111
4181051,,,,,,,,11.02734375,9.4453125,25.7890625,4.80078125,0.546875,-0.16015625,356.0111111111111,356.0,356.0111111111111
4181052,,,,,,,,11.02734375,9.4453125,25.7890625,3.2421875,0.44921875,-0.1796875,356.0111111111111,356.0,356.0111111111111
4181053,,,,,,,,11.02734375,9.4453125,25.7890625,3.2421875,0.44921875,-0.1796875,356.0111111111111,356.0,356.0111111111111
4181054,,,,,,,,11.02734375,9.4453125,25.7890625,-1.73046875,2.568359375,-0.52734375,356.0111111111111,356.0,356.0111111111111
4181055,,,,,,,,11.02734375,9.4453125,25.7890625,-1.73046875,2.568359375,-0.52734375,356.0111111111111,356.0,356.0111111111111
4181056,,,,,,,,11.02734375,9.4453125,25.7890625,-3.025390625,0.21875,-0.318359375,356.0111111111111,356.0,356.0111111111111
4181057,,,,,,,,11.02734375,9.4453125,25.7890625,-3.025390625,0.21875,-0.318359375,356.0111111111111,356.0,356.0111111111111
4181058,,,,,,,,11.02734375,9.4453125,25.7890625,-2.0390625,-1.208984375,-0.744140625,356.0111111111111,356.0,356.0111111111111
4181059,,,,,,,,11.02734375,9.4453125,25.7890625,-2.0390625,-1.208984375,-0.744140625,356.0111111111111,356.0,356.0111111111111
4181060,36.01350383333333,129.31953533333333,84.31872286728441,122.48091327319133,6.7,230.0,,11.02734375,9.4453125,25.7890625,1.943359375,1.03515625,-0.341796875,356.0111111111111,356.0,356.0111111111111
4181061,,,,,,,,1.42578125,10.72265625,-3.08203125,1.943359375,1.03515625,-0.341796875,356.0111111111111,356.0,356.0111111111111
4181062,,,,,,,,1.42578125,10.72265625,-3.08203125,1.943359375,1.03515625,-0.341796875,356.0111111111111,356.0,356.0111111111111
4181063,,,,,,,,1.42578125,10.72265625,-3.08203125,1.943359375,1.03515625,-0.341796875,356.0111111111111,356.0,356.0111111111111
4181064,,,,,,,,1.42578125,10.72265625,-3.08203125,-1.705078125,5.609375,-3.1484375,356.0111111111111,356.0,356.0111111111111
4181065,,,,,,,,1.42578125,10.72265625,-3.08203125,-1.705078125,5.609375,-3.1484375,356.0111111111111,356.0,356.0111111111111
4181066,,,,,,,,1.42578125,10.72265625,-3.08203125,-1.025390625,3.974609375,-1.693359375,356.0111111111111,356.0,356.0111111111111
4181067,,,,,,,,1.42578125,10.72265625,-3.08203125,-1.025390625,3.974609375,-1.693359375,356.0111111111111,356.0,356.0111111111111
4181068,,,,,,,,1.42578125,10.72265625,-3.08203125,-1.640625,2.08203125,-0.087890625,356.0111111111111,356.0,356.0111111111111
4181069,,,,,,,,1.42578125,10.72265625,-3.08203125,-1.640625,2.08203125,-0.087890625,356.0111111111111,356.0,356.0111111111111
4181070,36.01349966666667,129.31952983333335,83.82291155433398,122.01857831737401,6.7,229.0,,1.42578125,10.72265625,-3.08203125,-2.05078125,-5.056640625,0.60546875,356.0111111111111,356.0,356.0111111111111
4181071,,,,,,,,1.42578125,10.72265625,-3.08203125,-2.05078125,-5.056640625,0.60546875,356.0111111111111,356.0,356.0111111111111
4181072,,,,,,,,1.42578125,10.72265625,-3.08203125,4.400390625,2.572265625,0.025390625,356.0111111111111,356.0,356.0111111111111
4181073,,,,,,,,1.42578125,10.72265625,-3.08203125,4.400390625,2.572265625,0.025390625,356.0111111111111,356.0,356.0111111111111
4181074,,,,,,,,1.42578125,10.72265625,-3.08203125,3.3046875,1.0234375,0.193359375,356.0111111111111,356.0,356.0111111111111
4181075,,,,,,,,1.42578125,10.72265625,-3.08203125,3.3046875,1.0234375,0.193359375,356.0111111111111,356.0,356.0111111111111
4181076,,,,,,,,1.42578125,10.72265625,-3.08203125,0.25,-2.001953125,0.578125,356.0111111111111,356.0,356.0111111111111
4181077,,,,,,,,11.4921875,-17.4140625,-7.140625,0.25,-2.001953125,0.578125,356.0111111111111,356.0,356.0111111111111
4181078,,,,,,,,11.4921875,-17.4140625,-7.140625,0.25,-2.001953125,0.578125,356.0111111111111,356.0,356.0111111111111
4181079,,,,,,,,11.4921875,-17.4140625,-7.140625,0.25,-2.001953125,0.578125,356.0111111111111,356.0,356.0111111111111
4181080,36.0134955,129.31952383333334,83.28202602410923,121.55624296011378,6.800000000000001,229.0,,11.4921875,-17.4140625,-7.140625,-2.38671875,-1.884765625,0.37890625,356.0111111111111,356.0,356.0111111111111
4181081,,,,,,,,11.4921875,-17.4140625,-7.140625,-2.38671875,-1.884765625,0.37890625,356.0111111111111,356.0,356.0111111111111
4181082,,,,,,,,11.4921875,-17.4140625,-7.140625,1.7578125,-3.818359375,0.32421875,356.0111111111111,356.0,356.0111111111111
4181083,,,,,,,,11.4921875,-17.4140625,-7.140625,1.7578125,-3.818359375,0.32421875,356.0111111111111,356.0,356.0111111111111
4181084,,,,,,,,11.4921875,-17.4140625,-7.140625,1.478515625,-6.595703125,1.0,356.0111111111111,356.0,356.0111111111111
4181085,,,,,,,,11.4921875,-17.4140625,-7.140625,1.478515625,-6.595703125,1.0,356.0111111111111,356.0,356.0111111111111
4181086,,,,,,,,11.4921875,-17.4140625,-7.140625,0.318359375,-3.1484375,1.76953125,356.0111111111111,356.0,356.0111111111111
4181087,,,,,,,,11.4921875,-17.4140625,-7.140625,0.318359375,-3.1484375,1.76953125,356.0111111111111,356.0,356.0111111111111
4181088,,,,,,,,11.4921875,-17.4140625,-7.140625,-0.693359375,-2.83984375,1.85546875,356.0111111111111,356.0,356.0111111111111
4181089,,,,,,,,11.4921875,-17.4140625,-7.140625,-0.693359375,-2.83984375,1.85546875,356.0111111111111,356.0,356.0111111111111
4181090,36.01348866666667,129.31951166666667,82.18522851791687,120.79801108390772,6.7,233.0,,11.4921875,-17.4140625,-7.140625,-1.28125,-3.283203125,1.08203125,356.0111111111111,356.0,356.0111111111111
4181091,,,,,,,,11.4921875,-17.4140625,-7.140625,-1.28125,-3.283203125,1.08203125,356.0111111111111,356.0,356.0111111111111
4181092,,,,,,,,11.4921875,-17.4140625,-7.140625,0.611328125,-0.5859375,-0.33984375,356.0111111111111,356.0,356.0111111111111
4181093,,,,,,,,5.265625,7.07421875,3.25,0.611328125,-0.5859375,-0.33984375,356.0111111111111,356.0,356.0111111111111
4181094,,,,,,,,5.265625,7.07421875,3.25,0.611328125,-0.5859375,-0.33984375,356.0111111111111,356.0,356.0111111111111
4181095,,,,,,,,5.265625,7.07421875,3.25,0.611328125,-0.5859375,-0.33984375,356.0111111111111,356.0,356.0111111111111
4181096,,,,,,,,5.265625,7.07421875,3.25,3.220703125,-1.3671875,0.525390625,356.0111111111111,356.0,356.0111111111111
4181097,,,,,,,,5.265625,7.07421875,3.25,3.220703125,-1.3671875,0.525390625,356.0111111111111,356.0,356.0111111111111
4181098,,,,,,,,5.265625,7.07421875,3.25,3.154296875,2.38671875,0.453125,356.0111111111111,356.0,356.0111111111111
4181099,,,,,,,,5.265625,7.07421875,3.25,3.154296875,2.38671875,0.453125,356.0111111111111,356.0,356.0111111111111
4181100,36.01348466666666,129.319506,81.6743921008913,120.3541693164124,6.7,231.0,48.0,5.265625,7.07421875,3.25,3.154296875,2.38671875,0.453125,356.0111111111111,356.0,356.0111111111111
4181101,,,,,,,,5.265625,7.07421875,3.25,3.154296875,2.38671875,0.453125,356.0111111111111,356.0,356.0111111111111
4181102,,,,,,,,5.265625,7.07421875,3.25,-2.009765625,-1.314453125,0.115234375,356.0111111111111,356.0,356.0111111111111
4181103,,,,,,,,5.265625,7.07421875,3.25,-4.14453125,1.037109375,0.236328125,356.0111111111111,356.0,356.0111111111111
4181104,,,,,,,,5.265625,7.07421875,3.25,-4.14453125,1.037109375,0.236328125,356.0111111111111,356.0,356.0111111111111
4181105,,,,,,,,5.265625,7.07421875,3.25,2.666015625,-5.94921875,1.052734375,356.0111111111111,356.0,356.0111111111111
4181106,,,,,,,,-3.35546875,5.42578125,-6.80078125,2.666015625,-5.94921875,1.052734375,356.0111111111111,356.0,356.0111111111111
4181107,,,,,,,,-3.35546875,5.42578125,-6.80078125,2.666015625,-5.94921875,1.052734375,356.0111111111111,356.0,356.0111111111111
4181108,,,,,,,,-3.35546875,5.42578125,-6.80078125,0.708984375,-3.427734375,1.650390625,356.0111111111111,356.0,356.0111111111111
4181109,,,,,,,,-3.35546875,5.42578125,-6.80078125,0.708984375,-3.427734375,1.650390625,356.0111111111111,356.0,356.0111111111111
4181110,36.013473833333336,129.3194898333333,80.21700498172545,119.1520973408075,6.6000000000000005,231.0,,-3.35546875,5.42578125,-6.80078125,-2.111328125,-1.0,1.83984375,356.0111111111111,356.0,356.0111111111111
4181111,,,,,,,,-3.35546875,5.42578125,-6.80078125,-2.111328125,-1.0,1.83984375,356.0111111111111,356.0,356.0111111111111
4181112,,,,,,,,-3.35546875,5.42578125,-6.80078125,-2.798828125,-3.158203125,0.98828125,356.0111111111111,356.0,356.0111111111111
4181113,,,,,,,,-3.35546875,5.42578125,-6.80078125,-2.798828125,-3.158203125,0.98828125,356.0111111111111,355.9888888888889,356.0111111111111
4181114,,,,,,,,-3.35546875,5.42578125,-6.80078125,-0.44140625,-1.984375,0.8203125,356.0111111111111,355.9888888888889,356.0111111111111
4181115,,,,,,,,-3.35546875,5.42578125,-6.80078125,-0.44140625,-1.984375,0.8203125,356.0111111111111,355.9888888888889,356.0111111111111
4181116,,,,,,,,-3.35546875,5.42578125,-6.80078125,3.05078125,0.763671875,0.517578125,356.0111111111111,355.9888888888889,356.0111111111111
4181117,,,,,,,,-3.35546875,5.42578125,-6.80078125,3.05078125,0.763671875,0.517578125,356.0,355.9888888888889,356.0111111111111
4181118,,,,,,,,-3.35546875,5.42578125,-6.80078125,5.80859375,-0.044921875,-0.748046875,356.0,355.9888888888889,356.0111111111111
4181119,,,,,,,,-3.35546875,5.42578125,-6.80078125,5.80859375,-0.044921875,-0.748046875,356.0,356.0,356.0111111111111
4181120,36.01346616666667,129.3194785,79.19533137744642,118.3014004844038,6.7,231.0,,-3.35546875,5.42578125,-6.80078125,2.890625,2.88671875,-0.32421875,356.0,356.0,356.0111111111111
4181121,,,,,,,,5.56640625,12.71484375,-1.3046875,2.890625,2.88671875,-0.32421875,356.0,356.0,356.0111111111111
4181122,,,,,,,,5.56640625,12.71484375,-1.3046875,2.890625,2.88671875,-0.32421875,356.0,356.0,356.0111111111111
4181123,,,,,,,,5.56640625,12.71484375,-1.3046875,-2.37109375,1.8984375,-0.470703125,356.0,356.0,356.0111111111111
4181124,,,,,,,,5.56640625,12.71484375,-1.3046875,-2.37109375,1.8984375,-0.470703125,356.0,356.0,356.0111111111111
4181125,,,,,,,,5.56640625,12.71484375,-1.3046875,-4.572265625,0.380859375,-0.22265625,356.0,356.0,356.0111111111111
4181126,,,,,,,,5.56640625,12.71484375,-1.3046875,-4.572265625,0.380859375,-0.22265625,356.0,356.0,356.0111111111111
4181127,,,,,,,,5.56640625,12.71484375,-1.3046875,0.7890625,1.0078125,-0.69921875,356.0,356.0,356.0111111111111
4181128,,,,,,,,5.56640625,12.71484375,-1.3046875,0.7890625,1.0078125,-0.69921875,356.0111111111111,356.0,356.0111111111111
4181129,,,,,,,,5.56640625,12.71484375,-1.3046875,2.66796875,4.888671875,-1.546875,356.0111111111111,356.0,356.0111111111111
4181130,36.01346183333333,129.31947366666665,78.75961862879485,117.82057314899558,6.6000000000000005,228.0,,5.56640625,12.71484375,-1.3046875,2.66796875,4.888671875,-1.546875,356.0111111111111,356.0,356.0111111111111
4181131,,,,,,,,5.56640625,12.71484375,-1.3046875,-1.689453125,4.068359375,-2.853515625,356.0111111111111,356.0,356.0111111111111
4181132,,,,,,,,5.56640625,12.71484375,-1.3046875,-1.689453125,4.068359375,-2.853515625,356.0111111111111,356.0,356.0111111111111
4181133,,,,,,,,5.56640625,12.71484375,-1.3046875,-2.9296875,2.79296875,-2.662109375,356.0111111111111,356.0,356.0111111111111
4181134,,,,,,,,5.56640625,12.71484375,-1.3046875,-2.9296875,2.79296875,-2.662109375,356.0111111111111,356.0,356.0111111111111
4181135,,,,,,,,5.56640625,12.71484375,-1.3046875,-2.3125,2.572265625,-0.470703125,356.0111111111111,356.0,356.0111111111111
4181136,,,,,,,,-6.40625,-9.59765625,13.7578125,-2.3125,2.572265625,-0.470703125,356.0111111111111,356.0,356.0111111111111
4181137,,,,,,,,-6.40625,-9.59765625,13.7578125,-2.3125,2.572265625,-0.470703125,356.0111111111111,356.0,356.0111111111111
4181138,,,,,,,,-6.40625,-9.59765625,13.7578125,-0.203125,-5.36328125,0.470703125,356.0111111111111,356.0,356.0111111111111
4181139,,,,,,,,-6.40625,-9.59765625,13.7578125,-0.203125,-5.36328125,0.470703125,356.0111111111111,355.9888888888889,356.02222222222224
4181140,36.013457499999994,129.319468,78.2487821972752,117.33974516686217,6.7,229.0,,-6.40625,-9.59765625,13.7578125,4.490234375,-2.474609375,-0.1015625,356.0111111111111,355.9888888888889,356.02222222222224
4181141,,,,,,,,-6.40625,-9.59765625,13.7578125,4.490234375,-2.474609375,-0.1015625,356.0111111111111,356.0,356.0111111111111
4181142,,,,,,,,-6.40625,-9.59765625,13.7578125,2.73046875,3.345703125,0.02734375,356.0111111111111,356.0,356.0111111111111
4181143,,,,,,,,-6.40625,-9.59765625,13.7578125,2.73046875,3.345703125,0.02734375,356.0111111111111,356.0,356.0111111111111
4181144,,,,,,,,-6.40625,-9.59765625,13.7578125,1.029296875,-0.115234375,0.205078125,356.0111111111111,356.0,356.0111111111111
4181145,,,,,,,,-6.40625,-9.59765625,13.7578125,1.029296875,-0.115234375,0.205078125,356.0111111111111,356.0,356.0111111111111
4181146,,,,,,,,-6.40625,-9.59765625,13.7578125,-1.650390625,-2.48046875,-0.23828125,356.0111111111111,356.0,356.0111111111111
4181147,,,,,,,,-6.40625,-9.59765625,13.7578125,-1.650390625,-2.48046875,-0.23828125,356.0111111111111,356.0,356.0111111111111
4181148,,,,,,,,-6.40625,-9.59765625,13.7578125,-8.044921875,4.1015625,1.28125,356.0111111111111,356.0,356.0111111111111
4181149,,,,,,,,-6.40625,-9.59765625,13.7578125,-8.044921875,4.1015625,1.28125,356.0111111111111,356.0,356.0111111111111
4181150,36.01345383333333,129.319462,77.70789559499418,116.93288978175357,6.800000000000001,230.0,,-6.40625,-9.59765625,13.7578125,5.544921875,-7.26953125,1.103515625,356.0111111111111,356.0,356.0111111111111
4181151,,,,,,,,-1.8046875,2.4296875,-7.62890625,5.544921875,-7.26953125,1.103515625,356.0111111111111,356.0,356.0111111111111
4181152,,,,,,,,-1.8046875,2.4296875,-7.62890625,5.544921875,-7.26953125,1.103515625,356.0111111111111,356.0,356.0111111111111
4181153,,,,,,,,-1.8046875,2.4296875,-7.62890625,5.544921875,-7.26953125,1.103515625,356.0111111111111,356.0,356.0111111111111
4181154,,,,,,,,-1.8046875,2.4296875,-7.62890625,-0.64453125,-1.845703125,2.619140625,356.0111111111111,356.0,356.0111111111111
4181155,,,,,,,,-1.8046875,2.4296875,-7.62890625,-0.64453125,-1.845703125,2.619140625,356.0111111111111,356.0,356.0111111111111
4181156,,,,,,,,-1.8046875,2.4296875,-7.62890625,-3.728515625,-1.935546875,1.705078125,356.0111111111111,356.0,356.0111111111111
4181157,,,,,,,,-1.8046875,2.4296875,-7.62890625,-3.728515625,-1.935546875,1.705078125,356.0111111111111,356.0,356.0111111111111
4181158,,,,,,,,-1.8046875,2.4296875,-7.62890625,-0.53125,-0.916015625,0.798828125,356.0111111111111,356.0,356.0111111111111
4181159,,,,,,,,-1.8046875,2.4296875,-7.62890625,-0.53125,-0.916015625,0.798828125,356.0111111111111,355.9888888888889,356.0111111111111
4181160,36.01345033333334,129.31945633333333,77.1970582416491,116.54452790294407,6.5,231.0,,-1.8046875,2.4296875,-7.62890625,1.462890625,-2.802734375,0.751953125,356.0111111111111,355.9888888888889,356.0111111111111
4181161,,,,,,,,-1.8046875,2.4296875,-7.62890625,1.462890625,-2.802734375,0.751953125,356.0111111111111,356.0,356.0111111111111
4181162,,,,,,,,-1.8046875,2.4296875,-7.62890625,0.84375,0.79296875,0.26953125,356.0111111111111,356.0,356.0111111111111
4181163,,,,,,,,-1.8046875,2.4296875,-7.62890625,0.84375,0.79296875,0.26953125,356.0,356.0,356.0111111111111
4181164,,,,,,,,-1.8046875,2.4296875,-7.62890625,3.998046875,0.857421875,0.220703125,356.0,356.0,356.0111111111111
4181165,,,,,,,,-1.8046875,2.4296875,-7.62890625,3.998046875,0.857421875,0.220703125,356.0,356.0,356.0111111111111
4181166,,,,,,,,-1.8046875,2.4296875,-7.62890625,3.552734375,2.21484375,0.08984375,356.0,356.0,356.0111111111111
4181167,,,,,,,,8.46484375,19.13671875,-3.98046875,3.552734375,2.21484375,0.08984375,356.0,356.0,356.0111111111111
4181168,,,,,,,,8.46484375,19.13671875,-3.98046875,3.552734375,2.21484375,0.08984375,356.0,356.0,356.0111111111111
4181169,,,,,,,,8.46484375,19.13671875,-3.98046875,3.552734375,2.21484375,0.08984375,356.0,356.0,356.0111111111111
4181170,36.01344616666667,129.319451,76.71627094617232,116.0821934826788,6.6000000000000005,230.0,,8.46484375,19.13671875,-3.98046875,-2.365234375,2.75,-0.90625,356.0,356.0,356.0111111111111
4181171,,,,,,,,8.46484375,19.13671875,-3.98046875,-2.365234375,2.75,-0.90625,356.0,356.0,356.0111111111111
4181172,,,,,,,,8.46484375,19.13671875,-3.98046875,-3.859375,0.3125,-0.658203125,356.0,356.0,356.0111111111111
4181173,,,,,,,,8.46484375,19.13671875,-3.98046875,-3.859375,0.3125,-0.658203125,356.0,356.0,356.0111111111111
4181174,,,,,,,,8.46484375,19.13671875,-3.98046875,1.515625,1.94921875,-0.990234375,356.0,356.0,356.0111111111111
4181175,,,,,,,,8.46484375,19.13671875,-3.98046875,1.515625,1.94921875,-0.990234375,356.0111111111111,356.0,356.0111111111111
4181176,,,,,,,,8.46484375,19.13671875,-3.98046875,2.2734375,2.162109375,-1.916015625,356.0111111111111,356.0,356.0111111111111
4181177,,,,,,,,8.46484375,19.13671875,-3.98046875,2.2734375,2.162109375,-1.916015625,356.0111111111111,356.0,356.0111111111111
4181178,,,,,,,,8.46484375,19.13671875,-3.98046875,-2.53515625,4.548828125,-2.76953125,356.0111111111111,356.0,356.0111111111111
4181179,,,,,,,,8.46484375,19.13671875,-3.98046875,-2.53515625,4.548828125,-2.76953125,356.0111111111111,356.0,356.0111111111111
4181180,36.013442000000005,129.31944616666667,76.28055779383669,115.6198594808735,6.6000000000000005,227.0,,8.46484375,19.13671875,-3.98046875,-2.162109375,2.404296875,-2.576171875,356.0111111111111,356.0,356.0111111111111
4181181,,,,,,,,8.46484375,19.13671875,-3.98046875,-2.162109375,2.404296875,-2.576171875,356.0111111111111,356.0,356.0111111111111
4181182,,,,,,,,8.46484375,19.13671875,-3.98046875,-1.267578125,2.49609375,-0.576171875,356.0111111111111,356.0,356.0111111111111
4181183,,,,,,,,-1.3046875,1.2421875,5.78515625,-1.267578125,2.49609375,-0.576171875,356.0111111111111,356.0,356.0111111111111
4181184,,,,,,,,-1.3046875,1.2421875,5.78515625,-1.267578125,2.49609375,-0.576171875,356.0111111111111,356.0,356.0111111111111
4181185,,,,,,,,-1.3046875,1.2421875,5.78515625,1.421875,-4.82421875,0.7421875,356.0111111111111,356.0,356.0111111111111
4181186,,,,,,,,-1.3046875,1.2421875,5.78515625,1.421875,-4.82421875,0.7421875,356.0111111111111,355.9888888888889,356.0111111111111
4181187,,,,,,,,-1.3046875,1.2421875,5.78515625,4.9140625,-1.42578125,0.435546875,356.0111111111111,355.9888888888889,356.0111111111111
4181188,,,,,,,,-1.3046875,1.2421875,5.78515625,4.9140625,-1.42578125,0.435546875,356.0111111111111,356.0,356.0111111111111
4181189,,,,,,,,-1.3046875,1.2421875,5.78515625,1.451171875,1.517578125,0.57421875,356.0111111111111,356.0,356.0111111111111
4181190,36.01343833333333,129.31944116666668,75.82981938715349,115.21300499571987,6.5,227.0,,-1.3046875,1.2421875,5.78515625,1.451171875,1.517578125,0.57421875,356.0111111111111,356.0,356.0111111111111
4181191,,,,,,,,-1.3046875,1.2421875,5.78515625,0.322265625,-1.9140625,1.06640625,356.0111111111111,356.0,356.0111111111111
4181192,,,,,,,,-1.3046875,1.2421875,5.78515625,0.322265625,-1.9140625,1.06640625,356.0111111111111,356.0,356.0111111111111
4181193,,,,,,,,-1.3046875,1.2421875,5.78515625,-0.572265625,-3.162109375,1.078125,356.0111111111111,356.0,356.0111111111111
4181194,,,,,,,,-1.3046875,1.2421875,5.78515625,-0.572265625,-3.162109375,1.078125,356.0111111111111,356.0,356.0111111111111
4181195,,,,,,,,-1.3046875,1.2421875,5.78515625,-1.71875,-0.923828125,0.50390625,356.0111111111111,356.0,356.0111111111111
4181196,,,,,,,,-1.3046875,1.2421875,5.78515625,-1.71875,-0.923828125,0.50390625,356.0111111111111,356.0,356.0111111111111
4181197,,,,,,,,-1.3046875,1.2421875,5.78515625,-3.0,1.8203125,-0.966796875,356.0111111111111,356.0,356.0111111111111
4181198,,,,,,,,-0.83984375,-2.12109375,-2.53125,-3.0,1.8203125,-0.966796875,356.0111111111111,356.0,356.0111111111111
4181199,,,,,,,,-0.83984375,-2.12109375,-2.53125,-3.0,1.8203125,-0.966796875,356.0111111111111,355.9888888888889,356.0111111111111
