time,latitude,longitude,enu_x,enu_y,speed,course,ecg,accX,accY,accZ,gyrX,gyrY,gyrZ,eulR,eulP,eulY
3005200,36.01252616666667,129.319279,61.21146097494249,13.999569656999693,0.4,321.0,0.0,-0.2265625,1.26171875,-0.421875,0.130859375,-0.38671875,-0.021484375,-4.48828125,2.0625,9.9140625
3005201,,,,,,,,-0.078125,1.1171875,-0.62109375,-0.1171875,-0.14453125,-0.015625,-4.5625,0.53125,8.375
3005202,,,,,,,,0.09765625,1.01171875,-0.6640625,-0.078125,-0.173828125,-0.017578125,-4.37109375,0.41796875,8.34375
3005203,,,,,,,,0.234375,1.05078125,-0.671875,-0.05078125,-0.197265625,-0.0703125,-4.21875,0.45703125,8.34375
3005204,,,,,,,,0.32421875,1.2109375,-0.52734375,-0.037109375,-0.19921875,-0.1484375,-4.10546875,0.609375,8.49609375
3005205,,,,,,,,0.30859375,1.5625,-0.34375,-0.017578125,-0.1953125,-0.228515625,-4.10546875,0.953125,8.6875
3005206,,,,,,,,0.36328125,1.68359375,-0.16796875,-0.029296875,-0.20703125,-0.2265625,-4.02734375,1.06640625,8.87890625
3005207,,,,,,,,0.578125,1.6171875,0.015625,-0.037109375,-0.205078125,-0.189453125,-3.796875,0.9921875,9.0703125
3005208,,,,,,,,0.73828125,1.5078125,0.0859375,-0.03515625,-0.205078125,-0.169921875,-3.60546875,0.875,9.15234375
3005209,,,,,,,,0.72265625,1.43359375,0.0390625,-0.044921875,-0.212890625,-0.166015625,-3.60546875,0.80078125,9.11328125
3005210,36.012526666666666,129.3192785,61.166385875448775,14.05504895935099,0.6000000000000001,322.0,,0.69921875,1.32421875,0.0703125,-0.0859375,-0.193359375,-0.15234375,-3.60546875,0.68359375,9.15234375
3005211,,,,,,,,0.95703125,1.10546875,0.0546875,-0.08203125,-0.169921875,-0.1640625,-3.33984375,0.45703125,9.1484375
3005212,,,,,,,,1.05078125,1.08203125,0.015625,-0.068359375,-0.14453125,-0.197265625,-3.22265625,0.41796875,9.109375
3005213,,,,,,,,1.234375,1.08984375,-0.18359375,-0.076171875,-0.10546875,-0.2578125,-3.03125,0.41796875,8.91796875
3005214,,,,,,,,1.2265625,1.14453125,-0.1171875,-0.076171875,-0.068359375,-0.302734375,-3.03125,0.45703125,8.99609375
3005215,,,,,,,,0.98046875,1.203125,0.08203125,-0.109375,-0.03515625,-0.330078125,-3.26171875,0.4921875,9.1796875
3005216,,,,,,,,0.859375,1.17578125,0.15234375,-0.115234375,-0.025390625,-0.30859375,-3.375,0.45703125,9.26171875
3005217,,,,,,,,0.4375,1.2265625,0.49609375,-0.091796875,-0.015625,-0.1953125,-3.796875,0.4921875,9.60546875
3005218,,,,,,,,0.28125,1.19140625,0.61328125,-0.00390625,-0.064453125,0.064453125,-3.953125,0.45703125,9.72265625
3005219,,,,,,,,0.3515625,1.11328125,0.640625,0.03125,-0.080078125,0.13671875,-3.875,0.37890625,9.76171875
3005220,36.01252716666667,129.319278,61.121310775169356,14.110528263187884,0.7000000000000001,323.0,,0.6484375,1.01953125,0.56640625,0.095703125,-0.087890625,0.224609375,-3.5703125,0.30078125,9.6796875
3005221,,,,,,,,0.98828125,0.98828125,0.56640625,0.1484375,-0.048828125,0.21875,-3.22265625,0.30078125,9.6796875
3005222,,,,,,,,0.8359375,1.2734375,0.7890625,0.138671875,-0.017578125,0.158203125,-3.375,0.609375,9.9140625
3005223,,,,,,,,0.7578125,1.33984375,1.01953125,0.12109375,-0.001953125,0.138671875,-3.453125,0.68359375,10.14453125
3005224,,,,,,,,0.3359375,1.6171875,1.66015625,0.103515625,0.01953125,0.15234375,-3.875,0.9921875,10.79296875
3005225,,,,,,,,-0.078125,1.640625,2.234375,0.1015625,0.015625,0.228515625,-4.296875,1.03125,11.3671875
3005226,,,,,,,,-0.34375,1.4921875,2.58203125,0.107421875,-0.013671875,0.333984375,-4.5625,0.9140625,11.71484375
3005227,,,,,,,,-0.73828125,1.33203125,3.0,0.09375,-0.072265625,0.486328125,-4.94921875,0.80078125,12.1328125
3005228,,,,,,,,-0.890625,1.27734375,3.1875,0.0859375,-0.12109375,0.529296875,-5.1015625,0.76171875,12.328125
3005229,,,,,,,,-1.05859375,1.125,3.33203125,0.060546875,-0.1484375,0.59765625,-5.25390625,0.6484375,12.48046875
3005230,36.012527999999996,129.31927750000003,61.07623542223689,14.202993975921103,0.9,326.0,,-1.06640625,0.9765625,3.4765625,0.095703125,-0.087890625,0.224609375,-5.25390625,0.53125,12.63671875
3005231,,,,,,,,-1.03515625,1.16796875,3.0859375,0.033203125,-0.1328125,0.748046875,-5.21484375,0.76171875,12.25
3005232,,,,,,,,-0.5859375,1.2421875,1.890625,-0.03515625,-0.080078125,0.89453125,-4.7578125,0.875,11.0625
3005233,,,,,,,,-0.3984375,1.03515625,1.4609375,-0.1171875,-0.05078125,0.97265625,-4.5625,0.68359375,10.64453125
3005234,,,,,,,,0.52734375,-1.1484375,0.6171875,-0.365234375,0.064453125,1.013671875,-3.64453125,-1.4609375,9.796875
3005235,,,,,,,,0.19921875,-2.2578125,1.046875,-0.431640625,0.19921875,0.78515625,-3.98828125,-2.5703125,10.22265625
3005236,,,,,,,,-1.2734375,-2.18359375,1.36328125,-0.388671875,0.287109375,0.486328125,-5.484375,-2.49609375,10.52734375
3005237,,,,,,,,-2.765625,-1.4375,1.33984375,-0.1953125,0.30078125,0.265625,-7.015625,-1.765625,10.48828125
3005238,,,,,,,,-3.171875,-1.1328125,1.23046875,-0.126953125,0.263671875,0.263671875,-7.4375,-1.4609375,10.37109375
3005239,,,,,,,,-3.53125,-0.2265625,0.234375,0.0390625,0.123046875,0.3046875,-7.8203125,-0.5390625,9.375
3005240,36.012529,129.31927716666667,61.0461848418241,14.313953000048365,1.0,331.0,,-2.7578125,0.125,-0.37890625,0.095703125,-0.087890625,0.224609375,-7.0546875,-0.15625,8.76171875
3005241,,,,,,,,-0.7734375,0.57421875,-1.49609375,0.341796875,-0.1015625,0.318359375,-5.0625,0.33984375,7.6484375
3005242,,,,,,,,0.40625,0.56640625,-1.87890625,0.28515625,-0.193359375,0.099609375,-3.875,0.37890625,7.265625
3005243,,,,,,,,1.4921875,0.58984375,-1.93359375,0.078125,-0.171875,-0.203125,-2.765625,0.41796875,7.23046875
3005244,,,,,,,,1.67578125,0.57421875,-1.7109375,-0.140625,-0.05859375,-0.498046875,-2.57421875,0.37890625,7.46484375
3005245,,,,,,,,1.609375,0.60546875,-1.40234375,-0.30859375,0.109375,-0.701171875,-2.6484375,0.37890625,7.765625
3005246,,,,,,,,1.46484375,0.62890625,-1.47265625,-0.421875,0.234375,-0.765625,-2.80078125,0.33984375,7.69140625
3005247,,,,,,,,0.53515625,0.5546875,-1.45703125,-0.5078125,0.37890625,-0.74609375,-3.76171875,0.1875,7.6875
3005248,,,,,,,,-0.58203125,0.69921875,-1.21875,-0.560546875,0.41015625,-0.583984375,-4.91015625,0.26171875,7.921875
3005249,,,,,,,,-1.53125,0.94140625,-0.99609375,-0.416015625,0.287109375,0.04296875,-5.90625,0.41796875,8.109375
3005250,36.01252983333333,129.3192765,60.986084583054826,14.406418610029935,1.1,329.0,,-1.890625,0.91796875,-1.06640625,-0.251953125,0.146484375,0.5546875,-6.2890625,0.37890625,8.03125
3005251,,,,,,,,-1.57421875,0.85546875,-1.37109375,-0.125,0.025390625,0.9609375,-5.98046875,0.33984375,7.73046875
3005252,,,,,,,,-1.3359375,0.76171875,-1.5546875,-0.0859375,-0.017578125,1.078125,-5.75,0.26171875,7.5390625
3005253,,,,,,,,-0.7265625,0.53125,-1.6875,-0.052734375,-0.099609375,1.14453125,-5.140625,0.109375,7.421875
3005254,,,,,,,,-0.1953125,0.39453125,-1.7265625,-0.056640625,-0.109375,1.087890625,-4.6015625,-0.00390625,7.3828125
3005255,,,,,,,,0.26171875,0.27734375,-1.80078125,-0.076171875,-0.078125,0.900390625,-4.14453125,-0.08203125,7.30859375
3005256,,,,,,,,0.64453125,0.30078125,-1.80078125,-0.1015625,-0.0390625,0.75390625,-3.76171875,-0.04296875,7.3046875
3005257,,,,,,,,0.26953125,0.69921875,-1.91796875,-0.240234375,0.052734375,0.310546875,-4.14453125,0.37890625,7.19140625
3005258,,,,,,,,0.00390625,0.79296875,-1.83984375,-0.345703125,0.0859375,0.11328125,-4.41015625,0.45703125,7.265625
3005259,,,,,,,,-0.51953125,0.64453125,-1.75390625,-0.400390625,0.048828125,0.05859375,-4.94921875,0.26171875,7.34375
3005260,36.01253083333334,129.31927583333334,60.925984199288465,14.517377427923488,1.1,326.0,,-0.40234375,0.546875,-1.79296875,-0.392578125,0.041015625,0.064453125,-6.2890625,0.37890625,8.03125
3005261,,,,,,,,0.33203125,0.03515625,-2.20703125,-0.369140625,0.037109375,0.041015625,-4.10546875,-0.38671875,6.88671875
3005262,,,,,,,,0.640625,-0.125,-2.3125,-0.357421875,0.01953125,-0.078125,-3.796875,-0.578125,6.7734375
3005263,,,,,,,,0.71484375,-0.26171875,-2.28515625,-0.353515625,0.017578125,-0.169921875,-3.72265625,-0.73046875,6.8046875
3005264,,,,,,,,0.80078125,-0.30078125,-1.96875,-0.330078125,0.015625,-0.330078125,-3.64453125,-0.80859375,7.12109375
3005265,,,,,,,,0.37890625,-0.0078125,-1.578125,-0.251953125,0.029296875,-0.466796875,-4.06640625,-0.578125,7.5
3005266,,,,,,,,-0.28125,0.22265625,-1.1875,-0.2109375,-0.00390625,-0.43359375,-4.71875,-0.38671875,7.8828125
3005267,,,,,,,,-0.625,0.328125,-0.765625,-0.16796875,-0.076171875,-0.287109375,-5.0625,-0.3125,8.3046875
3005268,,,,,,,,-0.7109375,0.3828125,-0.62109375,-0.126953125,-0.109375,-0.197265625,-5.140625,-0.2734375,8.453125
3005269,,,,,,,,-0.6484375,0.26953125,-0.3515625,-0.02734375,-0.18359375,-0.01171875,-5.0625,-0.38671875,8.73046875
3005270,36.012531833333334,129.31927516666667,60.865883814801606,14.628336243150649,1.1,326.0,,-0.40234375,0.0234375,-0.21484375,-0.392578125,0.041015625,0.064453125,-4.79296875,-0.6171875,8.87890625
3005271,,,,,,,,-0.234375,0.0390625,-0.14453125,0.142578125,-0.251953125,0.23046875,-4.6015625,-0.578125,8.95703125
3005272,,,,,,,,-0.10546875,0.015625,-0.125,0.169921875,-0.21484375,0.185546875,-4.44921875,-0.578125,8.9921875
3005273,,,,,,,,-0.3046875,0.25,0.03125,0.158203125,-0.173828125,0.08984375,-4.640625,-0.3125,9.15234375
3005274,,,,,,,,-0.59765625,0.3125,0.25,0.12890625,-0.154296875,0.01171875,-4.91015625,-0.234375,9.37890625
3005275,,,,,,,,-0.91796875,0.17578125,0.43359375,0.12109375,-0.126953125,-0.05078125,-5.21484375,-0.34765625,9.5625
3005276,,,,,,,,-0.93359375,-0.0625,0.58203125,0.115234375,-0.1171875,-0.04296875,-5.21484375,-0.578125,9.72265625
3005277,,,,,,,,-0.828125,-0.23046875,0.80859375,0.140625,-0.080078125,-0.068359375,-5.1015625,-0.73046875,9.9453125
3005278,,,,,,,,-0.8359375,-0.27734375,0.95703125,0.150390625,-0.0546875,-0.12890625,-5.1015625,-0.76953125,10.10546875
3005279,,,,,,,,-0.94921875,-0.33203125,1.22265625,0.171875,-0.013671875,-0.224609375,-5.21484375,-0.80859375,10.3671875
3005280,36.012532666666665,129.31927433333334,60.79075865923945,14.720801749804465,1.1,323.0,,-1.02734375,-0.1484375,1.76171875,0.216796875,0.021484375,-0.28515625,-5.29296875,-0.6171875,10.90625
3005281,,,,,,,,-1.02734375,0.1796875,2.02734375,0.28515625,0.0546875,-0.322265625,-5.29296875,-0.2734375,11.17578125
3005282,,,,,,,,-1.25,0.70703125,2.71875,0.326171875,0.068359375,-0.341796875,-5.5234375,0.26171875,11.87109375
3005283,,,,,,,,-1.44140625,0.80859375,2.984375,0.328125,0.044921875,-0.33984375,-5.71484375,0.37890625,12.1328125
3005284,,,,,,,,-2.16796875,1.3203125,3.98046875,0.310546875,-0.068359375,-0.2734375,-6.44140625,0.9140625,13.125
3005285,,,,,,,,-2.3359375,1.34375,4.89453125,0.271484375,-0.16796875,-0.091796875,-6.59375,0.953125,14.046875
3005286,,,,,,,,-2.3046875,1.16015625,5.8359375,0.259765625,-0.220703125,0.150390625,-6.5546875,0.80078125,15.0078125
3005287,,,,,,,,-1.76171875,0.76171875,5.93359375,0.2578125,-0.263671875,0.5546875,-5.98046875,0.45703125,15.1171875
3005288,,,,,,,,-1.12890625,0.4765625,5.46875,0.232421875,-0.146484375,0.7734375,-5.33203125,0.2265625,14.66796875
3005289,,,,,,,,-0.515625,0.4140625,4.65625,0.15234375,-0.017578125,0.85546875,-4.71875,0.2265625,13.86328125
3005290,36.0125335,129.31927316666668,60.685583697801974,14.813267051815618,1.2000000000000002,318.0,,0.09765625,-0.19921875,3.3515625,0.001953125,0.044921875,0.71875,-3.64453125,-1.1171875,11.7890625
3005291,,,,,,,,0.7578125,-1.3828125,2.203125,-0.05859375,0.15625,0.466796875,-3.30078125,-1.8828125,11.1328125
3005292,,,,,,,,1.078125,-2.2109375,1.20703125,-0.021484375,0.3359375,0.146484375,-3.26171875,-2.37890625,10.18359375
3005293,,,,,,,,0.98046875,-2.28515625,0.9765625,0.0234375,0.392578125,-0.00390625,-3.4140625,-2.33984375,9.984375
3005294,,,,,,,,0.63671875,-2.1796875,0.6484375,0.16015625,0.41796875,-0.234375,-4.14453125,-1.921875,9.4140625
3005295,,,,,,,,0.0,-1.46484375,-0.25390625,0.283203125,0.29296875,-0.3515625,-4.3359375,-1.53515625,8.91796875
3005296,,,,,,,,0.1796875,-1.09765625,-0.546875,0.37890625,0.17578125,-0.375,-4.1796875,-1.15234375,8.609375
3005297,,,,,,,,0.34765625,-0.578125,-1.16796875,0.455078125,0.109375,-0.369140625,-4.02734375,-0.6171875,7.9921875
3005298,,,,,,,,0.5,-0.21875,-1.625,0.484375,0.078125,-0.34765625,-3.875,-0.234375,7.54296875
3005299,,,,,,,,0.5,-0.21875,-1.625,0.484375,0.078125,-0.34765625,-3.875,-0.234375,7.54296875
3005300,36.01253483333333,129.31927216666665,60.595433256265395,14.961212073233458,1.5,319.0,0.0,1.42578125,0.0546875,-2.5078125,0.3515625,-0.087890625,-0.171875,-2.95703125,0.109375,6.66015625
3005301,,,,,,,,1.91015625,-0.390625,-2.828125,0.2265625,-0.12109375,-0.1484375,-2.45703125,-0.3125,6.3515625
3005302,,,,,,,,2.46875,-1.36328125,-3.09765625,0.18359375,-0.162109375,-0.21484375,-1.8828125,-1.26953125,6.078125
3005303,,,,,,,,2.5390625,-1.59375,-3.2578125,0.1875,-0.1640625,-0.30859375,-1.8046875,-1.5,5.93359375
3005304,,,,,,,,2.72265625,-1.70703125,-3.3828125,0.203125,-0.1171875,-0.5625,-1.61328125,-1.61328125,5.81640625
3005305,,,,,,,,2.67578125,-1.31640625,-2.9609375,0.20703125,-0.0859375,-0.830078125,-1.65234375,-1.23046875,6.23828125
3005306,,,,,,,,2.20703125,-0.328125,-2.5,0.291015625,-0.046875,-1.052734375,-2.11328125,-0.2734375,6.69921875
3005307,,,,,,,,1.90234375,0.1875,-2.31640625,0.33203125,-0.05078125,-1.02734375,-2.41796875,0.2265625,6.8828125
3005308,,,,,,,,1.6640625,0.41796875,-2.1640625,0.33203125,-0.068359375,-0.9453125,-2.6484375,0.45703125,7.04296875
3005309,,,,,,,,0.96484375,1.41796875,-1.93359375,0.306640625,-0.115234375,-0.646484375,-3.33984375,1.44921875,7.26953125
3005310,36.012535666666665,129.319271,60.490258299318974,15.05367737426982,1.3,318.0,,0.84375,1.41015625,-2.0546875,0.3515625,-0.087890625,-0.171875,-3.453125,1.44921875,7.16015625
3005311,,,,,,,,1.39453125,0.96875,-2.2265625,0.189453125,-0.177734375,0.111328125,-2.87890625,1.03125,7.00390625
3005312,,,,,,,,1.953125,0.5234375,-2.5390625,0.15234375,-0.1171875,0.287109375,-2.3046875,0.609375,6.69921875
3005313,,,,,,,,2.21484375,0.19140625,-2.8828125,0.087890625,-0.08203125,0.240234375,-2.03515625,0.30078125,6.3515625
3005314,,,,,,,,2.0078125,-0.08203125,-2.65234375,0.00390625,-0.0625,0.09375,-2.2265625,0.03515625,6.578125
3005315,,,,,,,,1.35546875,-0.12109375,-2.26953125,-0.041015625,-0.015625,-0.041015625,-2.87890625,-0.00390625,6.96484375
3005316,,,,,,,,0.89453125,-0.0390625,-1.96484375,-0.033203125,0.013671875,-0.111328125,-3.33984375,0.0703125,7.26953125
3005317,,,,,,,,0.2734375,0.0078125,-1.54296875,-0.044921875,-0.013671875,-0.115234375,-3.953125,0.109375,7.6875
3005318,,,,,,,,0.12109375,-0.0234375,-1.3828125,-0.037109375,-0.046875,-0.095703125,-4.10546875,0.0703125,7.84375
3005319,,,,,,,,-0.0703125,-0.25,-1.11328125,-0.01171875,-0.109375,-0.005859375,-4.296875,-0.15625,8.109375
3005320,36.01253666666666,129.31927016666666,60.41513302190928,15.164636089922471,1.3,321.0,,0.84375,1.41015625,-2.0546875,0.3515625,-0.087890625,-0.171875,-3.9140625,-0.34765625,8.57421875
3005321,,,,,,,,0.46484375,-0.34375,-0.5859375,0.11328125,-0.2265625,0.07421875,-3.64453125,-0.15625,8.83984375
3005322,,,,,,,,0.56640625,-0.24609375,-0.25,0.1328125,-0.271484375,0.0546875,-3.53125,-0.00390625,9.109375
3005323,,,,,,,,0.625,-0.13671875,-0.140625,0.150390625,-0.26953125,0.048828125,-3.64453125,0.2265625,9.296875
3005324,,,,,,,,0.39453125,0.22265625,0.08203125,0.0703125,-0.267578125,0.0859375,-3.875,0.5703125,9.76171875
3005325,,,,,,,,-0.171875,0.484375,0.87109375,0.029296875,-0.279296875,0.125,-4.44921875,0.6484375,10.33984375
3005326,,,,,,,,-0.46484375,0.4375,1.16796875,0.044921875,-0.30078125,0.208984375,-4.71875,0.45703125,10.75
3005327,,,,,,,,-0.71875,0.26953125,1.57421875,0.060546875,-0.341796875,0.27734375,-4.71875,0.4921875,10.98828125
3005328,,,,,,,,-0.703125,0.296875,1.6875,0.05859375,-0.3828125,0.30078125,-4.6015625,0.5703125,10.984375
3005329,,,,,,,,-0.359375,0.359375,1.671875,-0.01171875,-0.39453125,0.32421875,-4.10546875,0.53125,11.06640625
3005330,36.01253766666667,129.3192691666667,60.32498284931239,15.275594704795846,1.3,323.0,,0.84375,1.41015625,-2.0546875,-0.083984375,-0.267578125,0.34375,-3.8359375,0.30078125,11.29296875
3005331,,,,,,,,-0.015625,-0.0078125,1.94921875,-0.18359375,-0.080078125,0.396484375,-4.06640625,0.109375,11.40625
3005332,,,,,,,,-0.375,-0.58203125,2.140625,-0.26953125,0.00390625,0.50390625,-4.44921875,-0.578125,11.52734375
3005333,,,,,,,,-0.875,-1.3203125,1.98828125,-0.275390625,0.03125,0.6640625,-4.7578125,-1.078125,11.328125
3005334,,,,,,,,-1.06640625,-2.046875,1.375,-0.2421875,0.048828125,0.82421875,-4.94921875,-1.8046875,10.72265625
3005335,,,,,,,,-0.98828125,-2.74609375,1.18359375,-0.17578125,0.037109375,0.9375,-4.87109375,-2.49609375,10.5234375
3005336,,,,,,,,-0.98828125,-3.375,1.296875,-0.1328125,0.005859375,0.939453125,-4.87109375,-3.109375,10.64453125
3005337,,,,,,,,-0.91015625,-4.140625,2.1796875,0.033203125,-0.01171875,0.646484375,-4.79296875,-3.8359375,11.52734375
3005338,,,,,,,,-1.06640625,-3.85546875,2.828125,0.19921875,0.0546875,0.22265625,-4.94921875,-3.52734375,12.17578125
3005339,,,,,,,,-2.78125,-1.55859375,3.6796875,0.375,0.052734375,-0.291015625,-6.671875,-1.19140625,13.015625
3005340,36.012539,129.31926800000002,60.219807518458865,15.423539626912294,1.5,325.0,,-3.81640625,0.09375,3.640625,0.498046875,-0.052734375,-0.298828125,-7.70703125,0.4921875,12.9765625
3005341,,,,,,,,-4.62890625,1.97265625,3.52734375,0.568359375,-0.19921875,-0.10546875,-8.51171875,2.41015625,12.859375
3005342,,,,,,,,-4.26953125,2.8828125,3.05078125,0.583984375,-0.341796875,0.15625,-8.12890625,3.3671875,12.40234375
3005343,,,,,,,,-1.6328125,2.62890625,1.65625,0.505859375,-0.4375,0.361328125,-5.4453125,3.17578125,11.0234375
3005344,,,,,,,,-0.0390625,2.05859375,0.59765625,0.080078125,-0.310546875,0.318359375,-3.796875,2.67578125,9.98828125
3005345,,,,,,,,0.328125,1.9921875,0.27734375,-0.310546875,-0.07421875,0.12109375,-3.4140625,2.6015625,9.68359375
3005346,,,,,,,,0.01953125,1.5859375,0.390625,-0.474609375,0.03125,0.04296875,-3.72265625,2.1796875,9.80078125
3005347,,,,,,,,-1.16015625,0.68359375,0.27734375,-0.6796875,0.1484375,-0.025390625,-4.91015625,1.22265625,9.6796875
3005348,,,,,,,,-1.91015625,-0.01171875,0.09375,-0.748046875,0.2265625,0.001953125,-5.67578125,0.45703125,9.4921875
3005349,,,,,,,,-2.35546875,-0.44140625,-0.22265625,-0.73828125,0.244140625,0.0390625,-6.13671875,-0.00390625,9.18359375
3005350,36.012539999999994,129.319267,60.12965734419448,15.534498242007086,1.4000000000000001,325.0,,-2.33203125,-0.5703125,-0.90234375,-0.65625,0.2109375,0.15234375,-6.13671875,-0.1953125,8.4921875
3005351,,,,,,,,-1.9609375,-0.44921875,-1.35546875,-0.51171875,0.15234375,0.19921875,-5.7890625,-0.12109375,8.03515625
3005352,,,,,,,,-1.6484375,-0.26953125,-1.59375,-0.451171875,0.140625,0.189453125,-5.484375,0.03515625,7.80859375
3005353,,,,,,,,-0.64453125,0.44921875,-2.2734375,-0.37890625,0.099609375,0.130859375,-4.48828125,0.72265625,7.12109375
3005354,,,,,,,,-0.13671875,0.7890625,-2.55078125,-0.408203125,0.064453125,0.060546875,-3.98828125,1.03125,6.84375
3005355,,,,,,,,0.3359375,1.1953125,-2.6953125,-0.55859375,0.072265625,0.060546875,-3.53125,1.375,6.69921875
3005356,,,,,,,,0.34375,1.265625,-2.92578125,-0.642578125,0.056640625,0.119140625,-3.53125,1.4140625,6.4609375
3005357,,,,,,,,0.390625,1.12109375,-3.1171875,-0.771484375,0.052734375,0.271484375,-3.4921875,1.22265625,6.27734375
3005358,,,,,,,,0.3515625,0.34765625,-3.38671875,-0.853515625,0.064453125,0.41015625,-3.53125,0.37890625,6.00390625
3005359,,,,,,,,0.390625,0.0625,-3.60546875,-0.8671875,0.083984375,0.466796875,-3.4921875,0.0703125,5.77734375
3005360,36.012541166666665,129.31926583333333,60.024482146369785,15.663949962298563,1.6,322.0,,0.375,-1.4140625,-4.328125,-0.65625,0.2109375,0.15234375,-3.53125,-1.5,5.05078125
3005361,,,,,,,,0.8046875,-2.51171875,-4.52734375,-0.70703125,-0.083984375,0.30859375,-3.109375,-2.72265625,4.8515625
3005362,,,,,,,,1.02734375,-2.8671875,-4.296875,-0.619140625,-0.10546875,0.21484375,-2.87890625,-3.109375,5.0859375
3005363,,,,,,,,0.90625,-2.58984375,-3.9453125,-0.439453125,-0.1796875,0.0,-2.9921875,-2.87890625,5.43359375
3005364,,,,,,,,0.62109375,-1.90625,-3.76171875,-0.287109375,-0.205078125,-0.171875,-3.26171875,-2.2265625,5.6171875
3005365,,,,,,,,0.2890625,-1.30078125,-3.30859375,-0.205078125,-0.205078125,-0.201171875,-3.5703125,-1.65234375,6.078125
3005366,,,,,,,,0.08203125,-1.0078125,-2.6953125,-0.16796875,-0.275390625,-0.10546875,-3.76171875,-1.3828125,6.69921875
3005367,,,,,,,,-0.0625,-0.87890625,-1.8984375,-0.10546875,-0.318359375,0.005859375,-3.875,-1.26953125,7.50390625
3005368,,,,,,,,-0.09375,-0.5625,-1.29296875,-0.009765625,-0.34375,0.099609375,-3.875,-0.9609375,8.11328125
3005369,,,,,,,,-0.03125,-0.49609375,-1.30078125,0.03125,-0.35546875,0.130859375,-3.796875,-0.88671875,8.11328125
3005370,36.01254216666667,129.3192645,59.904282176358144,15.774908375922095,1.5,320.0,,-0.02734375,-0.34765625,-1.15625,-0.65625,0.2109375,0.15234375,-3.53125,-1.5,5.05078125
3005371,,,,,,,,0.06640625,-0.39453125,-0.8203125,0.029296875,-0.30859375,0.12109375,-3.64453125,-0.76953125,8.61328125
3005372,,,,,,,,0.109375,-0.55078125,-0.48828125,-0.013671875,-0.267578125,0.05859375,-3.5703125,-0.92578125,8.953125
3005373,,,,,,,,0.0859375,-0.80859375,0.16015625,-0.029296875,-0.197265625,-0.0703125,-3.5703125,-1.19140625,9.60546875
3005374,,,,,,,,-0.35546875,-0.76171875,0.60546875,-0.029296875,-0.1484375,-0.154296875,-3.98828125,-1.15234375,10.06640625
3005375,,,,,,,,-0.6796875,-0.9453125,1.07421875,-0.0234375,-0.1484375,-0.125,-4.296875,-1.34375,10.52734375
3005376,,,,,,,,-0.953125,-1.24609375,1.5234375,0.025390625,-0.171875,-0.083984375,-4.5625,-1.65234375,10.984375
3005377,,,,,,,,-1.015625,-1.55859375,1.87109375,0.142578125,-0.189453125,0.005859375,-4.6015625,-1.95703125,11.328125
3005378,,,,,,,,-0.87890625,-1.66015625,2.12890625,0.2578125,-0.19921875,0.05078125,-4.44921875,-2.03515625,11.59765625
3005379,,,,,,,,-0.7421875,-1.5,2.47265625,0.392578125,-0.173828125,0.04296875,-4.296875,-1.84375,11.94140625
3005380,36.01254316666667,129.31926333333334,59.79910711097217,15.885866891704975,1.4000000000000001,319.0,,-0.75,-1.078125,2.6484375,0.486328125,-0.16015625,-0.00390625,-4.296875,-1.3828125,12.13671875
3005381,,,,,,,,-0.58203125,-0.84375,3.02734375,0.529296875,-0.203125,-0.08203125,-4.10546875,-1.078125,12.515625
3005382,,,,,,,,0.16015625,-0.765625,3.62890625,0.517578125,-0.21484375,-0.12890625,-3.33984375,-0.9609375,13.125
3005383,,,,,,,,0.3828125,-0.7890625,3.8515625,0.5,-0.1875,-0.1640625,-3.109375,-0.9609375,13.36328125
3005384,,,,,,,,0.796875,-0.78515625,4.08984375,0.478515625,-0.0625,-0.23828125,-2.6875,-0.92578125,13.5859375
3005385,,,,,,,,1.02734375,-0.46875,3.74609375,0.482421875,0.09765625,-0.294921875,-2.45703125,-0.578125,13.2421875
3005386,,,,,,,,0.46875,-0.546875,3.09375,0.44140625,0.23828125,-0.255859375,-3.03125,-0.6171875,12.59375
3005387,,,,,,,,-0.19921875,-0.80859375,3.0703125,0.353515625,0.279296875,-0.119140625,-3.72265625,-0.84765625,12.55859375
3005388,,,,,,,,-0.59765625,-0.78515625,3.0625,0.298828125,0.283203125,-0.029296875,-4.14453125,-0.80859375,12.55859375
3005389,,,,,,,,-1.0703125,-0.46484375,2.46484375,0.259765625,0.326171875,0.220703125,-4.640625,-0.46484375,11.9375
3005390,36.012544166666665,129.319262,59.678907147287134,15.996825307122663,1.4000000000000001,316.0,,-0.640625,-0.83203125,1.41015625,0.486328125,-0.16015625,-0.00390625,-4.2578125,-0.76953125,10.8671875
3005391,,,,,,,,0.00390625,-1.25,0.49609375,0.560546875,0.234375,0.544921875,-3.64453125,-1.1171875,9.94921875
3005392,,,,,,,,0.32421875,-0.97265625,0.11328125,0.595703125,0.169921875,0.306640625,-3.33984375,-0.76953125,9.5625
3005393,,,,,,,,0.6875,0.04296875,0.3125,0.564453125,0.142578125,0.02734375,-2.9921875,0.30078125,9.7578125
3005394,,,,,,,,0.82421875,0.9765625,0.62890625,0.474609375,0.134765625,-0.306640625,-2.87890625,1.296875,10.0625
3005395,,,,,,,,0.83984375,1.375,0.63671875,0.361328125,0.1484375,-0.431640625,-2.87890625,1.71875,10.06640625
3005396,,,,,,,,0.77734375,1.68359375,0.60546875,0.212890625,0.1640625,-0.478515625,-2.95703125,2.02734375,10.0234375
3005397,,,,,,,,0.56640625,1.453125,0.921875,0.0546875,0.15625,-0.466796875,-3.18359375,1.796875,10.33984375
3005398,,,,,,,,0.75,0.9765625,0.84375,-0.03515625,0.125,-0.322265625,-3.03125,1.296875,10.26171875
3005399,,,,,,,,1.1015625,0.48828125,0.57421875,-0.048828125,0.140625,-0.234375,-2.6875,0.80078125,9.984375
3005400,36.012545333333335,129.319261,59.5887568646793,16.126277134817038,1.5,319.0,0.0,1.5390625,-0.1796875,0.0078125,-0.048828125,0.177734375,-0.232421875,-2.265625,0.109375,9.4140625
3005401,,,,,,,,1.453125,-0.38671875,-0.44140625,-0.080078125,0.251953125,-0.298828125,-2.3828125,-0.12109375,8.95703125
3005402,,,,,,,,0.93359375,-0.25390625,-0.58984375,-0.0859375,0.26171875,-0.31640625,-2.91796875,-0.00390625,8.796875
3005403,,,,,,,,0.34375,-0.1640625,-0.65625,-0.091796875,0.2421875,-0.30078125,-3.53125,0.0703125,8.7265625
3005404,,,,,,,,0.16015625,-0.1171875,-0.734375,-0.080078125,0.234375,-0.265625,-3.72265625,0.109375,8.65234375
3005405,,,,,,,,0.0390625,-0.1015625,-1.0703125,-0.025390625,0.203125,-0.185546875,-3.875,0.109375,8.3046875
3005406,,,,,,,,0.0859375,-0.0546875,-1.30078125,0.009765625,0.193359375,-0.14453125,-3.8359375,0.1484375,8.07421875
3005407,,,,,,,,-0.05859375,0.03125,-1.828125,0.05859375,0.177734375,-0.078125,-3.98828125,0.2265625,7.54296875
3005408,,,,,,,,-0.3125,0.05859375,-2.28125,0.0390625,0.142578125,-0.009765625,-4.2578125,0.26171875,7.08203125
3005409,,,,,,,,-0.71875,0.09765625,-2.88671875,0.0,0.115234375,0.060546875,-4.6796875,0.30078125,6.46484375
3005410,36.0125465,129.31925966666668,59.46855678104745,16.25572875822717,1.6,319.0,,-0.640625,0.0234375,-3.0390625,-0.048828125,0.177734375,-0.232421875,-2.265625,0.109375,9.4140625
3005411,,,,,,,,-0.13671875,-0.29296875,-3.57421875,-0.017578125,0.013671875,0.11328125,-4.10546875,-0.08203125,5.77734375
3005412,,,,,,,,0.32421875,-0.5234375,-4.07421875,-0.03125,-0.041015625,0.025390625,-3.64453125,-0.3125,5.2734375
3005413,,,,,,,,1.12109375,-0.8203125,-4.45703125,-0.1015625,-0.052734375,-0.158203125,-2.83984375,-0.6171875,4.890625
3005414,,,,,,,,1.49609375,-0.98828125,-4.1953125,-0.1953125,-0.05078125,-0.40234375,-2.45703125,-0.80859375,5.16796875
3005415,,,,,,,,1.45703125,-0.88671875,-3.73828125,-0.27734375,-0.033203125,-0.681640625,-2.49609375,-0.80859375,5.6171875
3005416,,,,,,,,1.296875,-0.79296875,-3.046875,-0.27734375,-0.048828125,-0.642578125,-2.6484375,-0.76953125,6.3125
3005417,,,,,,,,1.09765625,-0.671875,-2.359375,-0.23828125,-0.06640625,-0.478515625,-2.83984375,-0.6953125,7.00390625
3005418,,,,,,,,0.859375,-0.484375,-1.859375,-0.169921875,-0.126953125,-0.244140625,-3.0703125,-0.5390625,7.5
3005419,,,,,,,,0.69140625,-0.42578125,-1.36328125,-0.1171875,-0.197265625,0.015625,-3.22265625,-0.50390625,7.9921875
3005420,36.01254766666667,129.31925850000002,59.363381602075556,16.38518048705632,1.5,319.0,,0.58203125,-0.34765625,-0.49609375,-0.021484375,-0.267578125,0.30078125,-3.30078125,-0.42578125,8.87890625
3005421,,,,,,,,0.62890625,-0.40234375,-0.2265625,0.046875,-0.291015625,0.373046875,-3.22265625,-0.46484375,9.15234375
3005422,,,,,,,,0.6796875,-0.30078125,0.0703125,0.06640625,-0.27734375,0.357421875,-3.1484375,-0.34765625,9.453125
3005423,,,,,,,,0.75,-0.2734375,0.21484375,0.06640625,-0.24609375,0.330078125,-3.0703125,-0.3125,9.60546875
3005424,,,,,,,,0.71875,-0.21875,0.8984375,0.04296875,-0.193359375,0.232421875,-3.0703125,-0.234375,10.30078125
3005425,,,,,,,,0.6171875,-0.1796875,1.08984375,0.0,-0.12109375,0.1171875,-3.1484375,-0.1953125,10.48828125
3005426,,,,,,,,0.49609375,0.01171875,1.1953125,-0.03125,-0.091796875,0.087890625,-3.26171875,-0.00390625,10.60546875
3005427,,,,,,,,0.41015625,0.01171875,1.1953125,-0.076171875,-0.0859375,0.076171875,-3.33984375,-0.00390625,10.60546875
3005428,,,,,,,,0.40234375,-0.06640625,1.15625,-0.091796875,-0.087890625,0.078125,-3.33984375,-0.08203125,10.56640625
3005429,,,,,,,,0.5859375,-0.32421875,1.1875,-0.119140625,-0.068359375,0.107421875,-3.1484375,-0.34765625,10.6015625
3005430,36.01254866666667,129.31925733333335,59.258206550886655,16.49613900948588,1.4000000000000001,319.0,,0.81640625,-0.81640625,1.15625,-0.099609375,-0.015625,0.123046875,-2.91796875,-0.84765625,10.56640625
3005431,,,,,,,,0.1953125,-1.61328125,1.38671875,-0.064453125,-0.015625,0.13671875,-3.53125,-1.65234375,10.7890625
3005432,,,,,,,,0.04296875,-1.875,1.50390625,-0.033203125,-0.021484375,0.158203125,-3.68359375,-1.921875,10.91015625
3005433,,,,,,,,-0.42578125,-2.2265625,1.9609375,0.068359375,-0.044921875,0.212890625,-4.14453125,-2.265625,11.37109375
3005434,,,,,,,,-0.625,-2.265625,2.18359375,0.25,-0.091796875,0.369140625,-4.3359375,-2.265625,11.59765625
3005435,,,,,,,,-1.21484375,-1.66015625,2.30078125,0.34375,-0.140625,0.5078125,-4.91015625,-1.61328125,11.7109375
3005436,,,,,,,,-1.4140625,-1.40625,2.13671875,0.375,-0.154296875,0.6015625,-5.1015625,-1.34375,11.55859375
3005437,,,,,,,,-1.50390625,-1.1640625,2.12890625,0.400390625,-0.1484375,0.845703125,-5.17578125,-1.0390625,11.5546875
3005438,,,,,,,,-1.17578125,-1.734375,2.20703125,0.380859375,-0.146484375,1.08203125,-4.83203125,-1.5,11.6328125
3005439,,,,,,,,-0.83984375,-1.96484375,2.12890625,0.369140625,-0.095703125,1.0546875,-4.48828125,-1.69140625,11.5546875
3005440,36.01254966666667,129.31925600000002,59.13800660192359,16.607097433489187,1.5,320.0,,-0.76953125,-1.6796875,1.81640625,-0.099609375,-0.015625,0.123046875,-4.41015625,-1.34375,11.25
3005441,,,,,,,,-1.0703125,-1.4609375,1.82421875,0.22265625,0.1171875,0.560546875,-4.71875,-1.078125,11.25
3005442,,,,,,,,-1.4453125,-1.375,2.29296875,0.15234375,0.162109375,-0.05859375,-5.1015625,-0.9609375,11.7109375
3005443,,,,,,,,-1.61328125,-0.65625,2.4140625,0.162109375,0.203125,-0.412109375,-5.29296875,-0.234375,11.828125
3005444,,,,,,,,-1.94140625,0.69140625,2.0390625,0.150390625,0.1484375,-0.63671875,-5.63671875,1.10546875,11.44921875
3005445,,,,,,,,-1.92578125,1.12890625,2.078125,0.08984375,0.0625,-0.701171875,-5.63671875,1.52734375,11.48828125
3005446,,,,,,,,-1.57421875,1.55859375,2.19140625,0.048828125,0.0390625,-0.685546875,-5.29296875,1.94921875,11.59375
3005447,,,,,,,,-0.68359375,2.0859375,1.88671875,-0.03125,0.029296875,-0.576171875,-4.41015625,2.4453125,11.29296875
3005448,,,,,,,,-0.02734375,2.2265625,1.42578125,-0.125,0.083984375,-0.4453125,-3.76171875,2.5625,10.828125
3005449,,,,,,,,0.1640625,2.11328125,0.69921875,-0.265625,0.150390625,-0.294921875,-3.5703125,2.41015625,10.10546875
3005450,36.01255083333333,129.31925516666666,59.062881228240286,16.736549365531978,1.4000000000000001,322.0,,-0.0703125,1.8046875,0.4296875,-0.099609375,-0.015625,0.123046875,-3.8359375,2.0625,9.8359375
3005451,,,,,,,,-0.9296875,1.203125,0.20703125,-0.544921875,0.26953125,0.212890625,-4.71875,1.4140625,9.6015625
3005452,,,,,,,,-1.7109375,0.3125,-0.12890625,-0.5546875,0.236328125,0.55859375,-5.5234375,0.4921875,9.26171875
3005453,,,,,,,,-1.88671875,-0.4609375,-0.46484375,-0.474609375,0.1953125,0.875,-5.71484375,-0.3125,8.9140625
3005454,,,,,,,,-1.86328125,-0.6875,-0.95703125,-0.314453125,0.14453125,1.12890625,-5.71484375,-0.5390625,8.41796875
3005455,,,,,,,,-1.84765625,-0.8671875,-1.53125,-0.26171875,0.10546875,1.171875,-5.71484375,-0.6953125,7.84375
3005456,,,,,,,,-1.80859375,-0.91015625,-1.72265625,-0.2421875,0.072265625,1.1640625,-5.67578125,-0.73046875,7.6484375
3005457,,,,,,,,-1.2734375,-1.12890625,-2.01953125,-0.212890625,-0.013671875,1.068359375,-5.140625,-0.92578125,7.34375
3005458,,,,,,,,-0.890625,-1.02734375,-2.296875,-0.1796875,-0.091796875,0.8359375,-4.7578125,-0.80859375,7.08203125
3005459,,,,,,,,-0.21484375,-0.796875,-2.57421875,-0.1953125,-0.1328125,0.54296875,-4.06640625,-0.578125,6.80859375
3005460,36.012552,129.319254,58.95770606058008,16.866001098881053,1.5,321.0,,0.11328125,-0.53125,-2.54296875,-0.234375,-0.140625,0.23828125,-3.8359375,2.0625,9.8359375
3005461,,,,,,,,-0.16015625,-0.0078125,-2.54296875,-0.275390625,-0.197265625,0.029296875,-3.98828125,0.1875,6.84765625
3005462,,,,,,,,-0.29296875,0.13671875,-2.51953125,-0.30078125,-0.23828125,-0.01171875,-4.10546875,0.30078125,6.88671875
3005463,,,,,,,,-0.046875,0.0546875,-2.52734375,-0.2890625,-0.271484375,0.01953125,-3.8359375,0.1875,6.88671875
3005464,,,,,,,,0.2265625,-0.3046875,-2.8125,-0.265625,-0.33984375,0.03125,-3.53125,-0.1953125,6.6171875
3005465,,,,,,,,0.46484375,-0.55078125,-2.89453125,-0.248046875,-0.404296875,0.013671875,-3.26171875,-0.46484375,6.54296875
3005466,,,,,,,,0.640625,-0.65625,-3.01953125,-0.2265625,-0.427734375,-0.00390625,-3.0703125,-0.578125,6.42578125
3005467,,,,,,,,1.0625,-0.78515625,-3.03515625,-0.173828125,-0.47265625,-0.072265625,-2.609375,-0.73046875,6.42578125
3005468,,,,,,,,1.94921875,-0.7265625,-2.7890625,-0.060546875,-0.474609375,-0.28515625,-1.65234375,-0.6953125,6.6953125
3005469,,,,,,,,2.21484375,-0.5390625,-2.8046875,0.013671875,-0.443359375,-0.427734375,-1.34765625,-0.5390625,6.6953125
3005470,36.012553000000004,129.31925266666667,58.83750612115835,16.976959526886745,1.5,319.0,,2.3984375,-0.07421875,-2.70703125,0.072265625,-0.4140625,-0.5078125,-1.1171875,-0.08203125,6.8046875
3005471,,,,,,,,2.09765625,0.5078125,-2.453125,0.0859375,-0.369140625,-0.498046875,-1.38671875,0.4921875,7.078125
3005472,,,,,,,,1.625,0.78515625,-2.18359375,0.087890625,-0.3515625,-0.451171875,-1.84375,0.76171875,7.34375
3005473,,,,,,,,1.171875,0.75390625,-1.92578125,0.07421875,-0.341796875,-0.26953125,-2.265625,0.72265625,7.609375
3005474,,,,,,,,1.0078125,0.2109375,-1.7578125,0.08984375,-0.365234375,0.177734375,-2.3828125,0.1875,7.80859375
3005475,,,,,,,,1.4609375,-0.5703125,-1.48828125,0.12109375,-0.287109375,0.306640625,-1.8828125,-0.578125,8.07421875
3005476,,,,,,,,1.484375,-0.671875,-1.49609375,0.140625,-0.228515625,0.208984375,-1.84375,-0.65625,8.07421875
3005477,,,,,,,,1.23828125,-0.9921875,-0.81640625,0.173828125,-0.146484375,0.0703125,-2.07421875,-0.9609375,8.76171875
3005478,,,,,,,,0.80859375,-0.82421875,-0.078125,0.23046875,-0.048828125,-0.0390625,-2.49609375,-0.76953125,9.4921875
3005479,,,,,,,,0.72265625,-0.71875,0.15234375,0.267578125,0.001953125,-0.0703125,-2.57421875,-0.65625,9.72265625
3005480,36.012554,129.31925133333334,58.717306184457335,17.0879179560368,1.5,317.0,,0.41796875,-0.71875,0.80078125,0.345703125,0.025390625,-0.111328125,-2.87890625,-0.6171875,10.37109375
3005481,,,,,,,,0.12109375,-0.62890625,1.69140625,0.38671875,0.064453125,-0.125,-3.18359375,-0.50390625,11.25390625
3005482,,,,,,,,-0.6484375,-0.375,2.6171875,0.41796875,0.001953125,-0.064453125,-3.953125,-0.1953125,12.171875
3005483,,,,,,,,-1.03125,-0.27734375,3.26953125,0.416015625,-0.03125,-0.009765625,-4.3359375,-0.08203125,12.82421875
3005484,,,,,,,,-0.8828125,-0.390625,3.84375,0.41015625,-0.095703125,0.119140625,-4.1796875,-0.15625,13.3984375
3005485,,,,,,,,-0.578125,-0.4296875,4.234375,0.404296875,-0.009765625,0.20703125,-3.875,-0.15625,13.78515625
3005486,,,,,,,,-0.41796875,-0.4765625,4.2734375,0.38671875,0.154296875,0.263671875,-3.72265625,-0.15625,13.82421875
3005487,,,,,,,,-0.859375,-0.5625,4.43359375,0.380859375,0.255859375,0.279296875,-4.1796875,-0.1953125,13.97265625
3005488,,,,,,,,-1.19921875,-0.6953125,4.51171875,0.376953125,0.2578125,0.28515625,-4.52734375,-0.3125,14.05078125
3005489,,,,,,,,-2.28515625,-0.77734375,4.52734375,0.34765625,0.279296875,0.32421875,-5.63671875,-0.34765625,14.05078125
3005490,36.012555166666665,129.31925016666668,58.612131026173785,17.21736969165251,1.6,319.0,,-2.5234375,-0.3984375,4.0,0.345703125,0.025390625,-0.111328125,-2.87890625,-0.6171875,10.37109375
3005491,,,,,,,,-2.26953125,-0.671875,3.4765625,0.369140625,0.22265625,0.4375,-5.67578125,-0.15625,12.98046875
3005492,,,,,,,,-1.83203125,-1.265625,2.40625,0.400390625,0.11328125,0.294921875,-5.25390625,-0.6953125,11.91015625
3005493,,,,,,,,-1.1328125,-1.07421875,1.90625,0.365234375,0.056640625,0.0390625,-4.5625,-0.46484375,11.41015625
3005494,,,,,,,,-0.21484375,-0.7890625,1.68359375,0.310546875,-0.033203125,-0.263671875,-3.64453125,-0.15625,11.17578125
3005495,,,,,,,,0.4375,-0.65234375,1.609375,0.251953125,-0.048828125,-0.587890625,-2.9921875,-0.00390625,11.1015625
3005496,,,,,,,,0.7421875,-0.578125,1.64453125,0.23046875,-0.02734375,-0.7421875,-2.6875,0.0703125,11.13671875
3005497,,,,,,,,1.01953125,0.05859375,1.29296875,0.130859375,0.00390625,-1.0234375,-2.41796875,0.68359375,10.7890625
3005498,,,,,,,,1.02734375,0.4375,1.33203125,0.001953125,0.060546875,-1.1953125,-2.41796875,1.03125,10.828125
3005499,,,,,,,,0.89453125,0.734375,1.2265625,-0.115234375,0.095703125,-1.2265625,-2.57421875,1.2578125,10.71875
3005500,36.01255616666666,129.31924916666668,58.52198089469279,17.32832832390022,1.5,319.0,0.0,1.1015625,0.68359375,0.94921875,0.345703125,0.025390625,-0.111328125,-2.87890625,-0.6171875,10.37109375
3005501,,,,,,,,1.42578125,0.46875,0.6796875,-0.169921875,0.076171875,-0.8984375,-2.07421875,0.875,10.18359375
3005502,,,,,,,,1.47265625,0.33984375,0.56640625,-0.169921875,0.09375,-0.79296875,-2.03515625,0.72265625,10.0625
3005503,,,,,,,,1.37109375,-0.1328125,0.07421875,-0.1171875,0.134765625,-0.486328125,-2.15234375,0.1875,9.5625
3005504,,,,,,,,1.1796875,-0.27734375,-0.1171875,-0.07421875,0.12890625,-0.380859375,-2.34375,0.03515625,9.375
3005505,,,,,,,,0.66796875,-0.609375,-0.57421875,-0.025390625,0.111328125,-0.1953125,-2.87890625,-0.3125,8.91796875
3005506,,,,,,,,0.22265625,-0.53125,-1.33984375,0.07421875,0.11328125,-0.025390625,-3.33984375,-0.234375,8.1484375
3005507,,,,,,,,0.23046875,-0.41796875,-2.03125,0.080078125,0.10546875,-0.0234375,-3.33984375,-0.12109375,7.46484375
3005508,,,,,,,,0.31640625,-0.34765625,-2.3671875,0.09375,0.126953125,-0.056640625,-3.26171875,-0.04296875,7.12109375
3005509,,,,,,,,0.36328125,-0.26953125,-2.55859375,0.095703125,0.162109375,-0.080078125,-3.22265625,0.03515625,6.92578125
3005510,36.01255733333333,129.319248,58.41680574014888,17.457780063286428,1.6,318.0,,0.69140625,-0.125,-3.43359375,0.345703125,0.025390625,-0.111328125,-2.87890625,-0.6171875,10.37109375
3005511,,,,,,,,0.5078125,0.01171875,-3.80859375,-0.08203125,0.134765625,-0.337890625,-3.109375,0.30078125,5.65625
3005512,,,,,,,,0.484375,-0.0703125,-3.8828125,-0.1640625,0.123046875,-0.40625,-3.1484375,0.1875,5.5859375
3005513,,,,,,,,0.53125,-0.140625,-3.9609375,-0.193359375,0.11328125,-0.427734375,-3.109375,0.109375,5.51171875
3005514,,,,,,,,0.73046875,-0.40625,-4.0703125,-0.205078125,0.09765625,-0.439453125,-2.91796875,-0.1953125,5.39453125
3005515,,,,,,,,1.046875,-0.7578125,-4.4140625,-0.169921875,0.076171875,-0.48046875,-2.609375,-0.578125,5.05078125
3005516,,,,,,,,1.3671875,-0.8359375,-4.48046875,-0.15625,0.05078125,-0.564453125,-2.3046875,-0.6953125,4.97265625
3005517,,,,,,,,1.484375,-0.88671875,-3.984375,-0.16015625,0.0078125,-0.701171875,-2.1875,-0.80859375,5.47265625
3005518,,,,,,,,1.13671875,-0.51953125,-3.21875,-0.14453125,0.00390625,-0.728515625,-2.53515625,-0.46484375,6.23828125
3005519,,,,,,,,0.40234375,0.37890625,-2.52734375,-0.072265625,-0.03515625,-0.5859375,-3.26171875,0.37890625,6.92578125
3005520,36.0125585,129.31924683333332,58.31163059058668,17.587231803390463,1.6,321.0,,-0.01953125,0.671875,-2.09765625,0.345703125,0.025390625,-0.111328125,-2.87890625,-0.6171875,10.37109375
3005521,,,,,,,,-0.07421875,0.29296875,-1.37890625,-0.052734375,-0.216796875,0.009765625,-3.72265625,0.26171875,8.07421875
3005522,,,,,,,,0.42578125,-0.203125,-0.890625,-0.025390625,-0.25390625,0.2421875,-3.18359375,-0.234375,8.5703125
3005523,,,,,,,,0.859375,-0.39453125,-0.62109375,-0.029296875,-0.21875,0.171875,-2.7265625,-0.42578125,8.8359375
3005524,,,,,,,,0.8359375,-0.43359375,0.09765625,-0.0625,-0.197265625,0.044921875,-2.7265625,-0.46484375,9.56640625
3005525,,,,,,,,0.69921875,-0.30078125,0.47265625,-0.109375,-0.1484375,-0.072265625,-2.83984375,-0.34765625,9.94921875
3005526,,,,,,,,0.65234375,-0.265625,0.62890625,-0.12109375,-0.126953125,-0.107421875,-2.87890625,-0.3125,10.10546875
3005527,,,,,,,,0.57421875,-0.0859375,1.1640625,-0.111328125,-0.07421875,-0.123046875,-2.95703125,-0.15625,10.64453125
3005528,,,,,,,,0.56640625,-0.00390625,1.125,-0.068359375,-0.076171875,-0.048828125,-2.95703125,-0.08203125,10.60546875
3005529,,,,,,,,0.67578125,-0.2265625,1.0859375,-0.072265625,-0.033203125,0.029296875,-2.83984375,-0.3125,10.56640625
3005530,36.012559499999995,129.31924566666666,58.206455566676865,17.698190338634202,1.5,319.0,,0.55078125,-0.6015625,1.27734375,0.345703125,0.025390625,-0.111328125,-2.95703125,-0.6953125,10.75
3005531,,,,,,,,0.24609375,-0.82421875,1.625,-0.1328125,-0.02734375,0.109375,-3.26171875,-0.92578125,11.1015625
3005532,,,,,,,,0.0859375,-1.15234375,2.0078125,-0.1015625,-0.0546875,0.146484375,-3.4140625,-1.26953125,11.484375
3005533,,,,,,,,0.078125,-1.2265625,2.12890625,-0.0703125,-0.048828125,0.16796875,-3.4140625,-1.34375,11.59375
3005534,,,,,,,,0.1171875,-1.3828125,2.3515625,-0.009765625,-0.048828125,0.1953125,-3.375,-1.5,11.828125
3005535,,,,,,,,-0.16015625,-1.42578125,2.65625,0.0390625,-0.025390625,0.21875,-3.64453125,-1.53515625,12.1328125
3005536,,,,,,,,-0.88671875,-1.06640625,3.00390625,0.087890625,0.017578125,0.390625,-4.37109375,-1.15234375,12.4765625
3005537,,,,,,,,-1.76953125,-0.82421875,2.92578125,0.11328125,-0.03125,0.650390625,-5.25390625,-0.88671875,12.3984375
3005538,,,,,,,,-2.15234375,-0.87890625,2.8125,0.11328125,-0.0625,0.814453125,-5.63671875,-0.92578125,12.2890625
3005539,,,,,,,,-2.0625,-1.4140625,2.6484375,0.09375,-0.169921875,1.296875,-5.5234375,-1.3828125,12.13671875
3005540,36.012560666666666,129.31924483333333,58.131330218402816,17.82764228160591,1.4000000000000001,322.0,,-1.46484375,-2.41796875,2.14453125,0.345703125,0.025390625,-0.111328125,-2.95703125,-0.6953125,10.75
3005541,,,,,,,,-0.453125,-3.2421875,1.1015625,0.10546875,-0.1171875,1.345703125,-3.875,-3.109375,10.6015625
3005542,,,,,,,,-0.109375,-3.578125,0.91796875,0.083984375,0.0390625,0.822265625,-3.53125,-3.375,10.41015625
3005543,,,,,,,,-0.30078125,-3.5859375,0.65234375,0.0859375,0.0390625,0.560546875,-3.72265625,-3.375,10.140625
3005544,,,,,,,,-0.8671875,-3.06640625,1.4921875,0.12109375,0.140625,0.01953125,-4.296875,-2.83984375,10.98828125
3005545,,,,,,,,-1.38671875,-1.9609375,1.65234375,0.21875,0.19921875,-0.44140625,-4.83203125,-1.7265625,11.1328125
3005546,,,,,,,,-1.96875,0.17578125,1.35546875,0.35546875,0.1640625,-0.638671875,-5.4453125,0.41796875,10.828125
3005547,,,,,,,,-2.06640625,1.34765625,1.5078125,0.328125,0.048828125,-0.5390625,-5.55859375,1.60546875,10.98828125
3005548,,,,,,,,-1.80078125,1.921875,1.77734375,0.306640625,-0.001953125,-0.455078125,-5.29296875,2.1796875,11.25
3005549,,,,,,,,-1.34765625,2.41015625,1.84765625,0.26171875,-0.0390625,-0.25,-4.83203125,2.67578125,11.328125
3005550,36.01256166666667,129.31924383333336,58.04118010173992,17.938600918785657,1.4000000000000001,323.0,,-0.3515625,2.85546875,1.1953125,0.345703125,0.025390625,-0.111328125,-3.8359375,3.13671875,10.68359375
3005551,,,,,,,,0.3359375,2.734375,0.6953125,-0.01171875,0.044921875,0.087890625,-3.1484375,3.0234375,10.1796875
3005552,,,,,,,,0.55078125,1.9453125,0.46484375,-0.34765625,0.21875,0.173828125,-2.95703125,2.21875,9.94921875
3005553,,,,,,,,0.26171875,1.890625,0.47265625,-0.451171875,0.28125,0.193359375,-3.26171875,2.140625,9.9453125
3005554,,,,,,,,-1.40234375,1.5859375,0.3671875,-0.58203125,0.333984375,0.318359375,-4.94921875,1.796875,9.8359375
3005555,,,,,,,,-1.828125,1.2578125,0.3359375,-0.638671875,0.30859375,0.51171875,-5.40625,1.4140625,9.796875
3005556,,,,,,,,-1.8828125,0.63671875,-0.23046875,-0.60546875,0.259765625,0.681640625,-5.484375,0.76171875,9.21875
3005557,,,,,,,,-1.57421875,0.30078125,-0.71875,-0.5,0.166015625,0.728515625,-5.21484375,0.37890625,8.7265625
3005558,,,,,,,,-1.15234375,0.109375,-1.140625,-0.466796875,0.150390625,0.681640625,-4.79296875,0.1875,8.30859375
3005559,,,,,,,,-0.44921875,0.171875,-1.6328125,-0.4375,0.126953125,0.544921875,-4.10546875,0.2265625,7.80859375
3005560,36.01256266666667,129.31924266666667,57.93600508340529,18.049559457932137,1.4000000000000001,322.0,,-0.1328125,0.30859375,-1.9296875,-0.474609375,0.123046875,0.33203125,-3.60546875,0.53125,7.19140625
3005561,,,,,,,,0.1953125,0.578125,-2.3515625,-0.529296875,0.123046875,0.267578125,-3.22265625,0.45703125,6.734375
3005562,,,,,,,,0.59375,0.41796875,-2.91796875,-0.599609375,0.15234375,0.19140625,-2.80078125,0.1484375,6.234375
3005563,,,,,,,,0.9921875,0.1953125,-3.37109375,-0.642578125,0.1796875,0.08984375,-2.609375,-0.00390625,5.81640625
3005564,,,,,,,,1.19921875,0.09765625,-3.78515625,-0.67578125,0.203125,-0.017578125,-2.41796875,-0.1953125,5.46875
3005565,,,,,,,,1.18359375,-0.13671875,-3.96875,-0.689453125,0.171875,-0.076171875,-2.7265625,-0.5390625,5.4296875
3005566,,,,,,,,1.03125,-0.2578125,-3.96875,-0.6640625,0.12890625,-0.083984375,-2.7265625,-0.73046875,5.43359375
3005567,,,,,,,,1.0078125,-0.80859375,-3.84375,-0.568359375,0.076171875,-0.1015625,-2.7265625,-1.26953125,5.6171875
3005568,,,,,,,,1.09375,-0.9453125,-3.76171875,-0.4453125,0.037109375,-0.15234375,-2.6875,-1.4609375,5.65625
3005569,,,,,,,,1.0625,-1.046875,-3.63671875,-0.326171875,-0.021484375,-0.1953125,-2.80078125,-1.5,5.8515625
3005570,36.01256383333334,129.31924166666667,57.8458548450286,18.17901130421806,1.5,321.0,,-0.1328125,0.30859375,-1.9296875,-0.1484375,-0.1171875,-0.2421875,-3.18359375,-1.30859375,6.46484375
3005571,,,,,,,,0.46484375,-0.35546875,-2.609375,-0.015625,-0.16015625,-0.197265625,-3.0703125,-0.578125,7.078125
3005572,,,,,,,,0.80078125,0.11328125,-2.21875,0.078125,-0.189453125,-0.13671875,-2.91796875,-0.3125,7.265625
3005573,,,,,,,,0.83203125,0.2265625,-2.11328125,0.103515625,-0.1953125,-0.115234375,-2.87890625,-0.234375,7.3828125
3005574,,,,,,,,0.80859375,0.3359375,-1.69140625,0.095703125,-0.1875,-0.103515625,-3.03125,-0.1953125,7.92578125
3005575,,,,,,,,0.48046875,0.21875,-1.01171875,0.009765625,-0.1328125,-0.046875,-3.4921875,-0.5390625,8.76171875
3005576,,,,,,,,0.15625,-0.19921875,-0.51953125,0.02734375,-0.09765625,-0.00390625,-3.64453125,-0.88671875,8.9921875
3005577,,,,,,,,-0.08203125,-0.66015625,-0.05859375,0.072265625,-0.044921875,-0.03125,-3.875,-1.30859375,9.45703125
3005578,,,,,,,,-0.203125,-0.77734375,0.0625,0.1015625,-0.046875,-0.083984375,-4.02734375,-1.421875,9.71875
3005579,,,,,,,,-0.6328125,-0.859375,0.67578125,0.15625,-0.044921875,-0.130859375,-4.44921875,-1.26953125,10.52734375
3005580,36.012564833333336,129.31924033333334,57.72565493708197,18.28996974724135,1.5,319.0,,-0.78515625,-0.75390625,1.35546875,0.208984375,-0.05859375,-0.1640625,-4.52734375,-1.15234375,10.90625
3005581,,,,,,,,-0.9453125,-0.4609375,1.86328125,0.28125,-0.083984375,-0.166015625,-4.7578125,-0.88671875,11.37109375
3005582,,,,,,,,-1.109375,-0.40234375,1.96875,0.294921875,-0.087890625,-0.142578125,-4.87109375,-0.6953125,11.71484375
3005583,,,,,,,,-1.27734375,-0.078125,2.66015625,0.306640625,-0.126953125,-0.068359375,-4.91015625,-0.50390625,12.25390625
3005584,,,,,,,,-1.16796875,-0.15625,3.3125,0.31640625,-0.140625,-0.0546875,-4.52734375,-0.6171875,12.90234375
3005585,,,,,,,,-0.38671875,-0.3125,3.83984375,0.328125,-0.1015625,-0.0859375,-3.64453125,-0.84765625,13.359375
3005586,,,,,,,,0.26171875,-0.54296875,3.9453125,0.310546875,-0.05859375,-0.126953125,-3.33984375,-0.92578125,13.359375
3005587,,,,,,,,0.68359375,-0.80078125,4.13671875,0.2421875,0.0703125,-0.232421875,-2.91796875,-1.15234375,13.55078125
3005588,,,,,,,,0.69140625,-1.03125,3.83984375,0.1640625,0.244140625,-0.283203125,-2.91796875,-1.3828125,13.2421875
3005589,,,,,,,,0.5625,-1.15625,3.76171875,0.130859375,0.310546875,-0.265625,-3.0703125,-1.5,13.1640625
3005590,36.01256566666667,129.31923916666668,57.62048005049646,18.382435084231265,1.5,317.0,,-0.01953125,-1.84375,3.46484375,0.208984375,-0.05859375,-0.1640625,-4.52734375,-1.15234375,10.90625
3005591,,,,,,,,-0.515625,-2.2265625,3.2578125,0.107421875,0.408203125,-0.06640625,-4.21875,-2.5703125,12.6328125
3005592,,,,,,,,-0.9375,-1.9375,2.66015625,0.2109375,0.4609375,0.076171875,-4.6796875,-2.265625,12.01953125
3005593,,,,,,,,-1.47265625,-1.65234375,1.56640625,0.306640625,0.4453125,0.267578125,-5.25390625,-1.95703125,10.90625
3005594,,,,,,,,-1.546875,-1.625,0.890625,0.392578125,0.392578125,0.451171875,-5.3671875,-1.8828125,10.21875
3005595,,,,,,,,-1.28125,-1.6015625,-0.01953125,0.5,0.3671875,0.517578125,-5.140625,-1.8046875,9.296875
3005596,,,,,,,,-0.94140625,-1.16796875,-0.89453125,0.5859375,0.26953125,0.4140625,-4.83203125,-1.30859375,8.41796875
3005597,,,,,,,,-0.6875,-0.890625,-0.9609375,0.611328125,0.07421875,0.15625,-4.6015625,-0.9609375,8.34375
3005598,,,,,,,,-0.3828125,-0.6015625,-0.80859375,0.591796875,-0.078125,-0.1875,-4.10546875,-0.38671875,8.65234375
3005599,,,,,,,,0.21484375,0.046875,-0.35546875,0.55859375,-0.09375,-0.541015625,-3.68359375,0.0703125,8.95703125
3005600,36.01256683333334,129.319238,57.51530492378748,18.511886834725605,1.5,318.0,0.0,0.7421875,1.02734375,-0.171875,0.48046875,-0.08984375,-1.01171875,-3.1484375,1.06640625,9.15234375
3005601,,,,,,,,0.70703125,1.60546875,-0.06640625,0.349609375,-0.078125,-1.23046875,-3.18359375,1.64453125,9.2578125
3005602,,,,,,,,0.66015625,1.8125,0.125,0.2578125,-0.07421875,-1.28125,-3.22265625,1.8359375,9.45703125
3005603,,,,,,,,0.8046875,1.95703125,0.73828125,0.078125,-0.091796875,-1.26953125,-3.0703125,1.94921875,10.0625
3005604,,,,,,,,1.33203125,1.69921875,1.03515625,-0.025390625,-0.087890625,-1.158203125,-2.53515625,1.64453125,10.3671875
3005605,,,,,,,,1.6875,1.60546875,1.53515625,-0.0859375,0.205078125,-0.96875,-2.1875,1.44921875,10.87109375
3005606,,,,,,,,0.28515625,2.08984375,1.41796875,-0.111328125,0.279296875,-0.849609375,-3.60546875,1.91015625,10.75
3005607,,,,,,,,-0.50390625,2.08203125,1.28125,-0.1875,0.294921875,-0.478515625,-4.41015625,1.87109375,10.6015625
3005608,,,,,,,,-0.7421875,1.6171875,0.984375,-0.201171875,0.22265625,-0.041015625,-4.6796875,1.375,10.296875
3005609,,,,,,,,-0.734375,1.39453125,0.80078125,-0.189453125,0.197265625,0.1328125,-4.6796875,1.14453125,10.10546875
3005610,36.01256766666667,129.31923700000002,57.42515493802618,18.60435227249761,1.4000000000000001,318.0,,-0.640625,1.2890625,0.04296875,0.48046875,-0.08984375,-1.01171875,-4.6015625,1.03125,9.3359375
3005611,,,,,,,,-0.50390625,1.1796875,-0.91015625,-0.171875,0.138671875,0.380859375,-4.48828125,0.9140625,8.375
3005612,,,,,,,,-0.1953125,0.90625,-1.453125,-0.1953125,0.15234375,0.380859375,-4.1796875,0.6484375,7.84765625
3005613,,,,,,,,0.01953125,0.68359375,-1.8671875,-0.25390625,0.181640625,0.31640625,-3.98828125,0.41796875,7.421875
3005614,,,,,,,,0.41796875,0.19921875,-2.96875,-0.298828125,0.173828125,0.2109375,-3.60546875,-0.08203125,6.3125
3005615,,,,,,,,0.6640625,-0.62109375,-3.65234375,-0.35546875,0.1953125,0.017578125,-3.375,-0.92578125,5.62109375
3005616,,,,,,,,0.71484375,-1.0546875,-3.94921875,-0.3828125,0.1796875,-0.08984375,-3.33984375,-1.3828125,5.31640625
3005617,,,,,,,,0.73046875,-1.28515625,-4.140625,-0.408203125,0.1328125,-0.314453125,-3.33984375,-1.65234375,5.12890625
3005618,,,,,,,,0.9296875,-1.3125,-4.25,-0.404296875,0.041015625,-0.580078125,-3.1484375,-1.765625,5.01171875
3005619,,,,,,,,1.3125,-1.3203125,-4.2109375,-0.39453125,0.017578125,-0.640625,-2.765625,-1.8046875,5.046875
3005620,36.012569,129.31923566666669,57.304954800643344,18.752297131745305,1.6,318.0,,1.49609375,-1.09765625,-4.00390625,0.48046875,-0.08984375,-1.01171875,-2.57421875,-1.69140625,5.234375
3005621,,,,,,,,1.7109375,-0.87890625,-3.16015625,-0.359375,-0.087890625,-0.73046875,-2.34375,-1.53515625,6.078125
3005622,,,,,,,,1.6953125,-0.6484375,-2.5859375,-0.255859375,-0.111328125,-0.4921875,-2.34375,-1.3828125,6.65625
3005623,,,,,,,,1.61328125,-0.40234375,-2.27734375,-0.232421875,-0.11328125,-0.384765625,-2.41796875,-1.15234375,6.9609375
3005624,,,,,,,,1.328125,-0.14453125,-2.01953125,-0.1953125,-0.13671875,-0.091796875,-2.6875,-0.92578125,7.2265625
3005625,,,,,,,,1.015625,-0.3203125,-1.51171875,-0.1875,-0.1640625,0.224609375,-2.9921875,-1.1171875,7.73046875
3005626,,,,,,,,0.828125,-0.77734375,-0.984375,-0.10546875,-0.193359375,0.50390625,-3.1484375,-1.57421875,8.265625
3005627,,,,,,,,0.74609375,-1.0625,-0.6875,-0.048828125,-0.19140625,0.5234375,-3.22265625,-1.84375,8.57421875
3005628,,,,,,,,0.8515625,-1.109375,-0.5390625,-0.02734375,-0.193359375,0.505859375,-3.109375,-1.8828125,8.7265625
3005629,,,,,,,,1.02734375,-1.0078125,-0.1484375,0.009765625,-0.193359375,0.40234375,-2.91796875,-1.765625,9.11328125
3005630,36.01257,129.31923450000002,57.19977980545362,18.863255680239295,1.5,317.0,,1.08203125,-0.52734375,0.37890625,0.01953125,-0.1640625,0.21875,-2.83984375,-1.26953125,9.64453125
3005631,,,,,,,,0.8046875,-0.21875,0.67578125,-0.017578125,-0.126953125,0.0546875,-3.109375,-0.9609375,9.94921875
3005632,,,,,,,,0.29296875,0.171875,1.08984375,-0.03515625,-0.0546875,-0.03515625,-3.60546875,-0.578125,10.37109375
3005633,,,,,,,,0.09375,0.2109375,1.13671875,-0.03125,-0.041015625,-0.025390625,-3.796875,-0.5390625,10.41015625
3005634,,,,,,,,-0.40625,0.21875,1.296875,-0.033203125,-0.0625,0.037109375,-4.296875,-0.5390625,10.5625
3005635,,,,,,,,-0.453125,-0.16796875,1.63671875,-0.0390625,-0.10546875,0.130859375,-4.3359375,-0.92578125,10.90625
3005636,,,,,,,,-0.19140625,-0.44140625,1.7890625,-0.00390625,-0.11328125,0.189453125,-4.06640625,-1.19140625,11.06640625
3005637,,,,,,,,0.09765625,-1.0234375,1.93359375,0.033203125,-0.130859375,0.19140625,-3.76171875,-1.765625,11.2109375
3005638,,,,,,,,0.08984375,-1.22265625,2.1640625,0.056640625,-0.1328125,0.173828125,-3.76171875,-1.95703125,11.4453125
3005639,,,,,,,,-0.1171875,-1.1953125,2.4609375,0.064453125,-0.12109375,0.115234375,-3.953125,-1.921875,11.75390625
3005640,36.012570833333335,129.3192335,57.109629824907266,18.955721122840856,1.4000000000000001,318.0,,-0.58203125,-0.97265625,2.76171875,0.01953125,-0.1640625,0.21875,-2.83984375,-1.26953125,9.64453125
3005641,,,,,,,,-1.00390625,-0.71875,2.72265625,0.103515625,-0.05078125,0.279296875,-4.83203125,-1.421875,12.015625
3005642,,,,,,,,-1.28125,-0.7421875,2.4453125,0.115234375,-0.0859375,0.513671875,-5.1015625,-1.421875,11.75390625
3005643,,,,,,,,-1.25,-1.1171875,2.25390625,0.083984375,-0.140625,0.7421875,-5.0625,-1.765625,11.5546875
3005644,,,,,,,,-0.68359375,-2.078125,2.1328125,0.046875,-0.15625,0.859375,-4.48828125,-2.6875,11.44921875
3005645,,,,,,,,0.15234375,-2.64453125,1.7890625,0.068359375,-0.0625,0.828125,-3.64453125,-3.22265625,11.10546875
3005646,,,,,,,,0.19921875,-2.9453125,1.05859375,0.07421875,0.05859375,0.65625,-3.60546875,-3.4921875,10.3671875
3005647,,,,,,,,-0.46875,-3.203125,1.375,0.01953125,0.171875,0.27734375,-4.296875,-3.71875,10.6796875
3005648,,,,,,,,-0.69921875,-3.203125,1.640625,0.0390625,0.20703125,0.14453125,-4.52734375,-3.71875,10.9453125
3005649,,,,,,,,-1.171875,-2.8671875,2.1875,0.173828125,0.259765625,-0.109375,-5.0234375,-3.375,11.484375
3005650,36.012572,129.3192325,57.019479608169284,19.085172975786826,1.4000000000000001,320.0,,-1.53125,-1.734375,2.1171875,0.01953125,-0.1640625,0.21875,-2.83984375,-1.26953125,9.64453125
3005651,,,,,,,,-2.19921875,0.28125,2.125,0.43359375,0.244140625,-0.50390625,-6.09765625,-0.1953125,11.41015625
3005652,,,,,,,,-2.52734375,1.328125,2.44140625,0.447265625,0.13671875,-0.490234375,-6.44140625,0.875,11.71484375
3005653,,,,,,,,-2.59765625,1.91796875,2.625,0.451171875,0.001953125,-0.275390625,-6.51953125,1.48828125,11.90625
3005654,,,,,,,,-1.72265625,2.8671875,2.15625,0.330078125,-0.10546875,0.15234375,-5.63671875,2.484375,11.44921875
3005655,,,,,,,,-1.15625,2.875,1.61328125,0.09375,-0.1484375,0.345703125,-5.0625,2.5234375,10.90625
3005656,,,,,,,,-0.40625,1.91015625,1.421875,-0.029296875,-0.115234375,0.40625,-4.296875,1.56640625,10.71875
3005657,,,,,,,,-0.28125,1.52734375,1.10546875,-0.2421875,-0.001953125,0.45703125,-4.1796875,1.18359375,10.40625
3005658,,,,,,,,-0.6953125,0.77734375,0.578125,-0.40625,0.126953125,0.43359375,-4.6015625,0.41796875,9.87890625
3005659,,,,,,,,-1.109375,0.26171875,0.30859375,-0.5,0.1796875,0.373046875,-5.0234375,-0.12109375,9.60546875
3005660,36.01257283333334,129.3192315,56.92932963342461,19.177638419373615,1.4000000000000001,321.0,,-1.37890625,-0.41796875,-0.06640625,0.01953125,-0.1640625,0.21875,-2.83984375,-1.26953125,9.64453125
3005661,,,,,,,,-1.1796875,-0.921875,-0.59375,-0.376953125,0.1484375,0.423828125,-5.140625,-1.3828125,8.69140625
3005662,,,,,,,,-0.89453125,-0.90625,-1.0859375,-0.248046875,0.12109375,0.4296875,-4.87109375,-1.3828125,8.1875
3005663,,,,,,,,-0.6875,-0.74609375,-1.62109375,-0.17578125,0.072265625,0.396484375,-4.6796875,-1.23046875,7.6484375
3005664,,,,,,,,-0.41015625,-0.41015625,-2.08203125,-0.111328125,0.04296875,0.390625,-4.41015625,-0.88671875,7.1875
3005665,,,,,,,,-0.171875,-0.26171875,-2.30859375,-0.0703125,0.021484375,0.390625,-4.1796875,-0.73046875,6.96484375
3005666,,,,,,,,0.21875,-0.15625,-2.65625,-0.052734375,0.0078125,0.357421875,-3.796875,-0.6171875,6.6171875
3005667,,,,,,,,0.984375,-0.1171875,-3.16015625,-0.064453125,0.013671875,0.271484375,-3.03125,-0.578125,6.12109375
3005668,,,,,,,,1.91015625,-0.04296875,-3.7265625,-0.09765625,0.025390625,0.126953125,-2.11328125,-0.50390625,5.55078125
3005669,,,,,,,,2.02734375,0.05078125,-3.796875,-0.14453125,0.03125,-0.111328125,-1.99609375,-0.42578125,5.47265625
3005670,36.012573833333335,129.31923049999997,56.839179539127656,19.28859706989569,1.4000000000000001,320.0,,1.6484375,0.2734375,-3.6796875,-0.18359375,0.03125,-0.36328125,-2.3828125,-0.234375,5.58984375
3005671,,,,,,,,1.48828125,0.3984375,-3.48828125,-0.171875,0.009765625,-0.572265625,-2.53515625,-0.15625,5.7734375
3005672,,,,,,,,1.22265625,0.78125,-3.14453125,-0.10546875,-0.04296875,-0.5703125,-2.80078125,0.1875,6.12109375
3005673,,,,,,,,1.13671875,1.01953125,-2.9921875,-0.056640625,-0.07421875,-0.53125,-2.87890625,0.41796875,6.2734375
3005674,,,,,,,,1.12890625,1.5,-2.80078125,0.0234375,-0.1328125,-0.435546875,-2.87890625,0.875,6.46484375
3005675,,,,,,,,1.03515625,1.70703125,-2.41796875,0.068359375,-0.201171875,-0.302734375,-2.95703125,1.06640625,6.84375
3005676,,,,,,,,1.234375,1.77734375,-2.08984375,0.130859375,-0.255859375,-0.095703125,-2.7265625,1.14453125,7.19140625
3005677,,,,,,,,1.51953125,1.65625,-1.796875,0.158203125,-0.2265625,-0.041015625,-2.41796875,1.03125,7.50390625
3005678,,,,,,,,1.5390625,1.6484375,-1.72265625,0.158203125,-0.205078125,-0.044921875,-2.3828125,1.03125,7.57421875
3005679,,,,,,,,1.32421875,1.5234375,-1.30859375,0.134765625,-0.146484375,-0.072265625,-2.57421875,0.9140625,7.99609375
3005680,36.01257483333333,129.3192293333333,56.7340045545291,19.399555623256575,1.4000000000000001,318.0,,0.71484375,1.32421875,-0.65625,0.068359375,-0.103515625,-0.083984375,-3.18359375,0.72265625,8.65234375
3005681,,,,,,,,0.23828125,1.09375,-0.234375,0.021484375,-0.087890625,-0.04296875,-3.64453125,0.4921875,9.07421875
3005682,,,,,,,,-0.078125,0.63671875,0.30078125,0.0,-0.056640625,0.03515625,-3.953125,0.03515625,9.60546875
3005683,,,,,,,,-0.0390625,0.328125,0.5234375,0.013671875,-0.025390625,0.08203125,-3.9140625,-0.2734375,9.83984375
3005684,,,,,,,,-0.0078125,-0.18359375,0.72265625,0.044921875,-0.017578125,0.033203125,-3.875,-0.76953125,10.0234375
3005685,,,,,,,,-0.16015625,-0.63671875,0.9921875,0.05859375,-0.013671875,-0.0546875,-4.02734375,-1.23046875,10.30078125
3005686,,,,,,,,-0.16015625,-0.7578125,1.10546875,0.08203125,-0.005859375,-0.103515625,-4.02734375,-1.34375,10.40625
3005687,,,,,,,,-0.046875,-0.68359375,1.48828125,0.12890625,0.025390625,-0.208984375,-3.9140625,-1.26953125,10.7890625
3005688,,,,,,,,0.03125,-0.3828125,1.60546875,0.18359375,0.05078125,-0.271484375,-3.8359375,-0.9609375,10.90625
3005689,,,,,,,,-0.12109375,-0.125,1.6484375,0.162109375,0.068359375,-0.29296875,-3.98828125,-0.6953125,10.9453125
3005690,36.01257583333334,129.31922816666665,56.62882957406137,19.510514179206186,1.4000000000000001,316.0,,-0.53515625,-0.046875,2.109375,0.119140625,0.1015625,-0.232421875,-4.41015625,-0.6171875,11.40625
3005691,,,,,,,,-1.02734375,-0.20703125,2.42578125,0.13671875,0.11328125,-0.091796875,-4.91015625,-0.76953125,11.7109375
3005692,,,,,,,,-1.28515625,-0.4140625,2.34765625,0.177734375,0.123046875,0.072265625,-5.17578125,-0.9609375,11.63671875
3005693,,,,,,,,-1.35546875,-0.5,2.203125,0.201171875,0.115234375,0.150390625,-5.25390625,-1.0390625,11.484375
3005694,,,,,,,,-1.4609375,-1.02734375,2.0859375,0.25390625,0.08984375,0.255859375,-5.3671875,-1.53515625,11.37109375
3005695,,,,,,,,-1.453125,-1.3671875,2.546875,0.29296875,0.01171875,0.2265625,-5.3671875,-1.84375,11.83203125
3005696,,,,,,,,-1.37890625,-1.0390625,3.45703125,0.357421875,-0.033203125,0.03515625,-5.29296875,-1.4609375,12.74609375
3005697,,,,,,,,-1.26953125,-0.5703125,3.6484375,0.400390625,-0.041015625,-0.025390625,-5.17578125,-0.9609375,12.94140625
3005698,,,,,,,,-1.15625,-0.44140625,3.6484375,0.412109375,-0.07421875,-0.01953125,-5.0625,-0.80859375,12.9375
3005699,,,,,,,,-0.859375,-0.59765625,3.48828125,0.416015625,-0.087890625,0.064453125,-4.7578125,-0.92578125,12.78515625
3005700,36.012576833333334,129.31922716666668,56.53867949143297,19.621472831690077,1.4000000000000001,318.0,0.0,0.0234375,-0.671875,3.0234375,0.119140625,0.1015625,-0.232421875,-3.875,-0.9609375,12.328125
3005701,,,,,,,,0.55859375,-0.8671875,2.6015625,0.30078125,-0.0234375,0.140625,-3.33984375,-1.1171875,11.91015625
3005702,,,,,,,,1.09765625,-1.15625,2.21875,0.19140625,0.044921875,0.01953125,-2.80078125,-1.3828125,11.5234375
3005703,,,,,,,,1.53125,-1.30859375,1.87109375,0.04296875,0.197265625,-0.341796875,-2.3828125,-1.53515625,11.171875
3005704,,,,,,,,1.2890625,-1.140625,1.765625,-0.025390625,0.2578125,-0.591796875,-2.6484375,-1.3828125,11.06640625
3005705,,,,,,,,0.28515625,-0.51953125,1.7734375,-0.107421875,0.267578125,-0.6875,-3.68359375,-0.80859375,11.06640625
3005706,,,,,,,,-0.11328125,-0.40234375,1.7890625,-0.142578125,0.228515625,-0.5859375,-4.10546875,-0.73046875,11.06640625
3005707,,,,,,,,0.1328125,-0.54296875,1.60546875,-0.134765625,0.16015625,-0.3671875,-3.875,-0.92578125,10.8671875
3005708,,,,,,,,0.30859375,-0.40234375,1.22265625,-0.109375,0.140625,-0.2734375,-3.72265625,-0.80859375,10.48828125
3005709,,,,,,,,0.5078125,-0.15625,0.6484375,-0.111328125,0.1484375,-0.234375,-3.53125,-0.578125,9.91796875
3005710,36.01257783333333,129.31922600000001,56.43350451460541,19.732431389289143,1.4000000000000001,318.0,,0.70703125,-0.0859375,0.1953125,-0.12109375,0.18359375,-0.248046875,-3.33984375,-0.5390625,9.453125
3005711,,,,,,,,0.84765625,0.3203125,-0.79296875,-0.166015625,0.248046875,-0.296875,-3.22265625,-0.15625,8.453125
3005712,,,,,,,,0.81640625,0.37109375,-0.9375,-0.1875,0.275390625,-0.318359375,-3.26171875,-0.12109375,8.30859375
3005713,,,,,,,,0.51953125,0.41796875,-1.3125,-0.2578125,0.298828125,-0.306640625,-3.60546875,-0.12109375,7.921875
3005714,,,,,,,,0.41796875,0.45703125,-1.8046875,-0.259765625,0.30078125,-0.2578125,-3.72265625,-0.12109375,7.421875
3005715,,,,,,,,0.3671875,0.421875,-2.40234375,-0.271484375,0.306640625,-0.216796875,-3.796875,-0.1953125,6.8046875
3005716,,,,,,,,0.390625,0.4375,-2.5859375,-0.28515625,0.298828125,-0.20703125,-3.796875,-0.1953125,6.62109375
3005717,,,,,,,,0.4140625,0.125,-2.9140625,-0.3125,0.28125,-0.166015625,-3.796875,-0.5390625,6.2734375
3005718,,,,,,,,0.4453125,-0.20703125,-3.28125,-0.3046875,0.25,-0.15234375,-3.796875,-0.92578125,5.890625
3005719,,,,,,,,0.57421875,-0.6015625,-3.2734375,-0.28515625,0.228515625,-0.158203125,-3.68359375,-1.34375,5.89453125
3005720,36.012578833333336,129.31922500000002,56.34335443453643,19.843390045072955,1.4000000000000001,319.0,,0.390625,-0.53515625,-4.22265625,-0.12109375,0.18359375,-0.248046875,-3.875,-1.30859375,4.93359375
3005721,,,,,,,,0.4375,-0.49609375,-4.17578125,-0.1484375,0.06640625,-0.3046875,-3.8359375,-1.30859375,4.96875
3005722,,,,,,,,0.4453125,-0.234375,-4.20703125,-0.1484375,-0.021484375,-0.337890625,-3.8359375,-1.078125,4.93359375
3005723,,,,,,,,0.58984375,-0.07421875,-3.984375,-0.1484375,-0.056640625,-0.33203125,-3.68359375,-0.92578125,5.1640625
3005724,,,,,,,,0.890625,-0.00390625,-3.5625,-0.1484375,-0.123046875,-0.28515625,-3.375,-0.88671875,5.58984375
3005725,,,,,,,,1.1640625,-0.046875,-3.2265625,-0.12109375,-0.173828125,-0.193359375,-3.0703125,-0.9609375,5.9296875
3005726,,,,,,,,1.2265625,-0.1015625,-2.62109375,-0.123046875,-0.197265625,-0.126953125,-2.9921875,-1.0390625,6.54296875
3005727,,,,,,,,1.171875,-0.1640625,-2.125,-0.142578125,-0.220703125,-0.0546875,-3.03125,-1.1171875,7.04296875
3005728,,,,,,,,1.078125,-0.30859375,-1.625,-0.140625,-0.220703125,-0.021484375,-3.109375,-1.26953125,7.54296875
3005729,,,,,,,,1.046875,-0.29296875,-1.05859375,-0.099609375,-0.208984375,0.04296875,-3.109375,-1.26953125,8.11328125
3005730,36.01258,129.319224,56.25320423527543,19.972841906488544,1.4000000000000001,321.0,,0.91015625,-0.09375,-0.69140625,-0.060546875,-0.19140625,0.048828125,-3.22265625,-1.078125,8.4921875
3005731,,,,,,,,0.546875,0.05859375,-0.203125,-0.0390625,-0.201171875,0.08203125,-3.5703125,-0.92578125,8.9921875
3005732,,,,,,,,0.41796875,0.09765625,0.15234375,-0.021484375,-0.193359375,0.10546875,-3.68359375,-0.88671875,9.3359375
3005733,,,,,,,,0.2421875,0.25390625,0.37109375,0.0,-0.1796875,0.134765625,-3.8359375,-0.73046875,9.5625
3005734,,,,,,,,0.2734375,0.24609375,0.5546875,0.01953125,-0.1640625,0.1640625,-3.796875,-0.73046875,9.76171875
3005735,,,,,,,,0.2578125,0.2734375,0.6640625,0.017578125,-0.16796875,0.15234375,-3.796875,-0.6953125,9.87890625
3005736,,,,,,,,0.203125,0.3046875,0.703125,0.021484375,-0.169921875,0.1328125,-3.8359375,-0.65625,9.91796875
3005737,,,,,,,,0.2265625,0.19140625,0.84765625,0.017578125,-0.154296875,0.087890625,-3.796875,-0.76953125,10.0625
3005738,,,,,,,,0.140625,0.15234375,0.88671875,0.015625,-0.140625,0.03125,-3.875,-0.80859375,10.10546875
3005739,,,,,,,,0.09375,0.14453125,0.953125,0.017578125,-0.142578125,-0.04296875,-3.9140625,-0.80859375,10.1796875
3005740,36.01258083333333,129.319223,56.163054280659885,20.06530735769001,1.4000000000000001,320.0,,0.21484375,0.10546875,1.14453125,0.01171875,-0.140625,-0.10546875,-3.76171875,-0.84765625,10.3671875
3005741,,,,,,,,0.19921875,-0.0390625,1.40625,0.013671875,-0.14453125,-0.125,-3.76171875,-1.0,10.64453125
3005742,,,,,,,,0.109375,-0.109375,1.7109375,0.0234375,-0.15234375,-0.115234375,-3.8359375,-1.078125,10.94921875
3005743,,,,,,,,-0.40625,0.05078125,2.08203125,0.017578125,-0.146484375,-0.048828125,-4.3359375,-0.92578125,11.328125
3005744,,,,,,,,-0.765625,0.12109375,2.07421875,0.03125,-0.14453125,0.126953125,-4.6796875,-0.84765625,11.328125
3005745,,,,,,,,-1.0859375,-0.125,1.94921875,0.01953125,-0.1796875,0.48046875,-4.984375,-1.078125,11.21484375
3005746,,,,,,,,-0.98046875,-0.5625,1.796875,0.041015625,-0.19921875,0.591796875,-4.87109375,-1.5,11.06640625
3005747,,,,,,,,-0.6875,-1.12890625,1.86328125,0.078125,-0.205078125,0.67578125,-4.5625,-2.03515625,11.1328125
3005748,,,,,,,,-0.359375,-1.58203125,2.125,0.130859375,-0.1328125,0.525390625,-4.21875,-2.41796875,11.40625
3005749,,,,,,,,-0.359375,-1.56640625,2.125,0.142578125,-0.087890625,0.451171875,-4.3359375,-2.3046875,11.4453125
3005750,36.012581833333336,129.319222,56.0729042069518,20.176266016267622,1.3,320.0,,-0.828125,-1.28515625,2.15625,0.1328125,-0.041015625,0.357421875,-4.79296875,-2.07421875,11.52734375
3005751,,,,,,,,-1.33203125,-1.34375,2.578125,0.15234375,-0.015625,0.275390625,-5.17578125,-2.1484375,11.8671875
3005752,,,,,,,,-1.82421875,-1.140625,2.8359375,0.17578125,-0.025390625,0.208984375,-5.67578125,-1.921875,12.1328125
3005753,,,,,,,,-2.015625,-0.88671875,3.03125,0.224609375,0.001953125,0.185546875,-5.8671875,-1.65234375,12.33203125
3005754,,,,,,,,-2.24609375,-0.14453125,2.75390625,0.33984375,-0.005859375,0.18359375,-6.09765625,-0.88671875,12.0546875
3005755,,,,,,,,-2.24609375,1.01953125,1.83203125,0.365234375,-0.068359375,0.1953125,-6.09765625,0.33984375,11.1328125
3005756,,,,,,,,-1.6796875,1.44921875,1.25,0.275390625,-0.1328125,0.169921875,-5.5234375,0.80078125,10.56640625
3005757,,,,,,,,-1.00390625,1.43359375,1.20703125,0.166015625,-0.189453125,0.083984375,-4.83203125,0.80078125,10.52734375
3005758,,,,,,,,-0.8515625,1.46484375,1.16015625,0.11328125,-0.1796875,0.01171875,-4.6796875,0.83984375,10.48828125
3005759,,,,,,,,-0.375,1.76171875,0.8359375,-0.0390625,-0.099609375,-0.119140625,-4.1796875,1.14453125,10.1796875
3005760,36.01258283333333,129.31922116666667,55.9977790293127,20.28722477086199,1.3,322.0,,-0.18359375,1.73828125,0.60546875,0.1328125,-0.041015625,0.357421875,-4.79296875,-2.07421875,11.52734375
3005761,,,,,,,,-0.22265625,1.546875,0.5703125,-0.39453125,0.056640625,-0.169921875,-4.02734375,0.875,9.9140625
3005762,,,,,,,,-0.453125,1.13671875,0.421875,-0.533203125,0.126953125,-0.037109375,-4.2578125,0.41796875,9.76171875
3005763,,,,,,,,-0.890625,0.30078125,0.125,-0.59375,0.146484375,0.166015625,-4.71875,-0.46484375,9.453125
3005764,,,,,,,,-1.10546875,-0.3046875,-0.13671875,-0.564453125,0.12890625,0.4453125,-5.140625,-1.65234375,8.9140625
3005765,,,,,,,,-1.31640625,-1.0390625,-0.47265625,-0.47265625,0.080078125,0.599609375,-5.17578125,-2.03515625,8.73046875
3005766,,,,,,,,-1.30859375,-1.17578125,-0.578125,-0.41796875,0.060546875,0.658203125,-5.1015625,-2.1875,8.37890625
3005767,,,,,,,,-1.1015625,-1.3125,-1.0859375,-0.306640625,0.03125,0.74609375,-4.640625,-2.2265625,7.84375
3005768,,,,,,,,-0.55859375,-1.3203125,-1.57421875,-0.21484375,0.013671875,0.734375,-4.06640625,-2.03515625,7.4609375
3005769,,,,,,,,-0.16796875,-1.16796875,-1.84375,-0.1953125,0.021484375,0.689453125,-3.953125,-1.95703125,7.34765625
3005770,36.012584,129.31922016666667,55.90762884519576,20.4166766356598,1.4000000000000001,323.0,,-0.18359375,1.73828125,0.60546875,0.1328125,-0.041015625,0.357421875,-3.60546875,-1.61328125,7.0
3005771,,,,,,,,0.5078125,-0.30078125,-2.33984375,-0.201171875,0.013671875,0.384765625,-3.4140625,-1.15234375,6.96484375
3005772,,,,,,,,0.8203125,0.04296875,-2.48828125,-0.193359375,0.0078125,0.328125,-3.109375,-0.80859375,6.8046875
3005773,,,,,,,,1.25,0.34375,-2.78515625,-0.208984375,0.013671875,0.091796875,-2.6875,-0.5390625,6.5
3005774,,,,,,,,1.2109375,0.42578125,-2.9375,-0.23046875,0.01953125,0.0234375,-2.7265625,-0.46484375,6.3515625
3005775,,,,,,,,1.09765625,0.50390625,-3.0078125,-0.279296875,0.01953125,-0.15625,-2.83984375,-0.42578125,6.2734375
3005776,,,,,,,,0.98046875,0.3828125,-2.96875,-0.271484375,0.015625,-0.23828125,-2.95703125,-0.578125,6.31640625
3005777,,,,,,,,1.05859375,0.28125,-2.89453125,-0.255859375,0.009765625,-0.283203125,-2.87890625,-0.6953125,6.38671875
3005778,,,,,,,,1.171875,0.16796875,-2.9296875,-0.203125,-0.005859375,-0.361328125,-2.765625,-0.84765625,6.35546875
3005779,,,,,,,,1.2421875,0.26171875,-2.9609375,-0.169921875,-0.009765625,-0.40234375,-2.6875,-0.76953125,6.31640625
3005780,36.012584833333335,129.319219,55.80245400261155,20.509141995917496,1.4000000000000001,320.0,,1.34765625,0.40625,-2.80859375,0.1328125,-0.041015625,0.357421875,-3.60546875,-1.61328125,7.0
3005781,,,,,,,,1.2734375,0.73828125,-2.41796875,-0.05078125,-0.021484375,-0.515625,-2.6484375,-0.34765625,6.84375
3005782,,,,,,,,0.8828125,1.2578125,-1.95703125,-0.013671875,-0.01171875,-0.50390625,-3.03125,0.1484375,7.30859375
3005783,,,,,,,,0.59765625,1.51171875,-1.61328125,-0.00390625,-0.025390625,-0.4140625,-3.30078125,0.37890625,7.6484375
3005784,,,,,,,,0.13671875,1.48046875,-1.078125,0.017578125,-0.068359375,-0.23828125,-3.76171875,0.33984375,8.19140625
3005785,,,,,,,,0.0859375,1.375,-0.85546875,0.044921875,-0.111328125,-0.052734375,-3.796875,0.2265625,8.4140625
3005786,,,,,,,,0.0078125,1.296875,-0.73046875,0.052734375,-0.125,0.02734375,-3.875,0.1484375,8.53125
3005787,,,,,,,,-0.046875,0.8203125,-0.43359375,0.056640625,-0.126953125,0.1171875,-3.9140625,-0.3125,8.8359375
3005788,,,,,,,,-0.0234375,0.546875,-0.32421875,0.03515625,-0.125,0.078125,-3.875,-0.578125,8.95703125
3005789,,,,,,,,0.19140625,0.23046875,0.09375,0.025390625,-0.080078125,0.015625,-3.64453125,-0.88671875,9.375
3005790,36.01258566666667,129.319218,55.71230405580126,20.601607452356788,1.2000000000000002,317.0,,0.421875,0.078125,0.25,0.1328125,-0.041015625,0.357421875,-3.4140625,-1.0390625,9.53515625
3005791,,,,,,,,0.62109375,-0.15234375,0.2109375,0.033203125,0.078125,-0.19140625,-3.22265625,-1.26953125,9.4921875
3005792,,,,,,,,0.3203125,-0.21875,0.41015625,-0.013671875,0.158203125,-0.30078125,-3.53125,-1.34375,9.6796875
3005793,,,,,,,,0.0625,-0.12890625,0.921875,-0.033203125,0.208984375,-0.30078125,-3.796875,-1.26953125,10.18359375
3005794,,,,,,,,-0.3046875,-0.2734375,1.4296875,0.009765625,0.220703125,-0.21484375,-4.1796875,-1.421875,10.6796875
3005795,,,,,,,,-0.3984375,-0.578125,1.55078125,0.06640625,0.2265625,-0.09375,-4.296875,-1.7265625,10.79296875
3005796,,,,,,,,-0.45703125,-1.0078125,1.90234375,0.11328125,0.23046875,0.013671875,-4.37109375,-2.1484375,11.13671875
3005797,,,,,,,,-0.55078125,-1.1796875,2.06640625,0.16015625,0.220703125,0.10546875,-4.48828125,-2.3046875,11.29296875
3005798,,,,,,,,-0.71875,-1.26953125,2.2265625,0.208984375,0.232421875,0.1953125,-4.6796875,-2.37890625,11.4453125
3005799,,,,,,,,-0.83984375,-1.30078125,2.28125,0.2578125,0.232421875,0.29296875,-4.83203125,-2.37890625,11.484375
3005800,36.01258666666667,129.31921683333334,55.60712910071188,20.712566020243614,1.4000000000000001,316.0,0.0,-1.31640625,-1.33984375,2.85546875,0.1328125,-0.041015625,0.357421875,-5.33203125,-2.37890625,12.05859375
3005801,,,,,,,,-1.7109375,-1.21875,3.359375,0.36328125,0.109375,0.447265625,-5.75,-2.1875,12.5546875
3005802,,,,,,,,-2.125,-0.859375,3.78125,0.390625,0.0859375,0.482421875,-6.171875,-1.8046875,12.98046875
3005803,,,,,,,,-2.46484375,-0.35546875,4.01171875,0.443359375,0.03515625,0.5703125,-6.51953125,-1.23046875,13.20703125
3005804,,,,,,,,-2.1484375,-0.14453125,3.890625,0.494140625,-0.03515625,0.654296875,-6.2109375,-0.92578125,13.09765625
3005805,,,,,,,,-1.4609375,-0.01953125,3.26953125,0.47265625,-0.08984375,0.599609375,-5.5234375,-0.73046875,12.4765625
3005806,,,,,,,,-0.921875,0.17578125,2.6953125,0.435546875,-0.0859375,0.525390625,-4.984375,-0.50390625,11.90625
3005807,,,,,,,,-0.34765625,0.3125,1.94921875,0.30859375,-0.0546875,0.3203125,-4.41015625,-0.3125,11.171875
3005808,,,,,,,,-0.01171875,-0.0234375,1.4453125,0.0703125,-0.00390625,-0.083984375,-4.06640625,-0.6171875,10.68359375
3005809,,,,,,,,0.02734375,-0.13671875,1.3671875,0.005859375,0.02734375,-0.255859375,-4.02734375,-0.73046875,10.6015625
3005810,36.01258766666667,129.31921583333332,55.51697903848014,20.82352468319356,1.3,317.0,,-1.31640625,-1.33984375,2.85546875,-0.12890625,0.0859375,-0.779296875,-3.9140625,-0.9609375,10.44921875
3005811,,,,,,,,0.15625,-0.26171875,1.0625,-0.189453125,0.12109375,-0.970703125,-3.8359375,-0.84765625,10.14453125
3005812,,,,,,,,0.5390625,-0.16796875,0.87890625,-0.228515625,0.17578125,-1.103515625,-3.453125,-0.88671875,10.02734375
3005813,,,,,,,,0.625,-0.13671875,0.80078125,-0.251953125,0.173828125,-1.150390625,-3.4140625,-0.9609375,9.94921875
3005814,,,,,,,,0.5859375,-0.2109375,0.625,-0.265625,0.16015625,-1.15625,-3.64453125,-1.19140625,9.875
3005815,,,,,,,,0.41015625,-0.26171875,0.703125,-0.228515625,0.119140625,-1.01171875,-3.72265625,-1.19140625,9.83984375
3005816,,,,,,,,0.37109375,-0.0625,0.40234375,-0.09765625,0.06640625,-0.640625,-3.72265625,-0.9609375,9.53125
3005817,,,,,,,,0.48046875,0.20703125,0.01953125,-0.052734375,0.029296875,-0.353515625,-3.4140625,-0.80859375,8.91796875
3005818,,,,,,,,0.671875,0.21484375,-0.27734375,-0.041015625,0.009765625,-0.212890625,-3.375,-0.80859375,8.7265625
3005819,,,,,,,,0.75390625,0.19140625,-0.6328125,-0.03515625,0.00390625,0.02734375,-3.18359375,-0.92578125,8.37890625
3005820,36.0125885,129.31921466666665,55.41180420556764,20.915990047436395,1.4000000000000001,316.0,,-1.31640625,-1.33984375,2.85546875,-0.04296875,0.015625,0.173828125,-2.91796875,-1.1171875,7.84375
3005821,,,,,,,,1.26171875,-0.14453125,-1.62890625,-0.048828125,0.048828125,0.1484375,-2.83984375,-1.19140625,7.57421875
3005822,,,,,,,,1.453125,-0.23046875,-1.94140625,-0.06640625,0.072265625,0.091796875,-2.6484375,-1.26953125,7.265625
3005823,,,,,,,,1.69140625,-0.15234375,-2.46875,-0.0859375,0.103515625,-0.021484375,-2.41796875,-1.19140625,6.73828125
3005824,,,,,,,,1.54296875,0.015625,-3.19921875,-0.138671875,0.083984375,-0.15234375,-2.57421875,-1.0390625,6.00390625
3005825,,,,,,,,1.28515625,-0.0078125,-3.11328125,-0.189453125,0.1640625,-0.197265625,-2.83984375,-1.078125,6.078125
3005826,,,,,,,,1.21484375,-0.14453125,-3.07421875,-0.212890625,0.12890625,-0.1953125,-2.91796875,-1.23046875,6.12109375
3005827,,,,,,,,0.95703125,-0.50390625,-3.21875,-0.205078125,0.099609375,-0.208984375,-3.18359375,-1.61328125,5.96875
3005828,,,,,,,,1.1171875,-0.6640625,-3.3671875,-0.13671875,0.109375,-0.2578125,-3.03125,-1.8046875,5.81640625
3005829,,,,,,,,1.23828125,-0.7109375,-3.39453125,-0.07421875,0.0390625,-0.27734375,-2.91796875,-1.8828125,5.7734375
3005830,36.0125895,129.31921366666666,55.32165415264399,21.026948712913672,1.3,317.0,,1.3828125,-0.6484375,-3.47265625,-0.04296875,0.015625,0.173828125,-2.91796875,-1.1171875,7.84375
3005831,,,,,,,,1.56640625,-0.48828125,-2.8984375,-0.00390625,-0.029296875,-0.306640625,-2.57421875,-1.69140625,6.2734375
3005832,,,,,,,,1.5234375,-0.203125,-2.4765625,0.015625,-0.037109375,-0.306640625,-2.609375,-1.421875,6.69921875
3005833,,,,,,,,1.3671875,0.1484375,-2.0078125,0.037109375,-0.02734375,-0.28515625,-2.765625,-1.078125,7.16015625
3005834,,,,,,,,0.78515625,0.5390625,-1.2890625,0.017578125,-0.078125,-0.140625,-3.33984375,-0.6953125,7.88671875
3005835,,,,,,,,0.38671875,0.6953125,-0.63671875,0.021484375,-0.099609375,-0.015625,-3.72265625,-0.5390625,8.53125
3005836,,,,,,,,0.265625,0.65625,-0.37109375,0.025390625,-0.119140625,0.09375,-3.8359375,-0.578125,8.796875
3005837,,,,,,,,0.44921875,0.265625,-0.1484375,0.017578125,-0.12109375,0.13671875,-3.64453125,-0.9609375,9.03515625
3005838,,,,,,,,0.5546875,0.140625,-0.109375,0.013671875,-0.11328125,0.142578125,-3.53125,-1.078125,9.0703125
3005839,,,,,,,,0.76953125,0.06640625,0.04296875,-0.017578125,-0.091796875,0.060546875,-3.30078125,-1.15234375,9.22265625
3005840,36.012590333333335,129.3192126666667,55.231504218586394,21.119414175062307,1.3,318.0,,0.6484375,0.02734375,0.1875,-0.04296875,0.015625,0.173828125,-3.4140625,-1.19140625,9.375
3005841,,,,,,,,0.33984375,0.04296875,0.50390625,-0.05859375,-0.02734375,-0.1328125,-3.72265625,-1.19140625,9.6796875
3005842,,,,,,,,-0.05078125,-0.02734375,0.80859375,-0.05859375,-0.04296875,-0.10546875,-4.10546875,-1.26953125,9.98828125
3005843,,,,,,,,-0.10546875,-0.1328125,0.88671875,-0.013671875,-0.080078125,-0.033203125,-4.14453125,-1.3828125,10.06640625
3005844,,,,,,,,0.04296875,-0.35546875,0.92578125,0.0234375,-0.103515625,0.025390625,-3.98828125,-1.61328125,10.10546875
3005845,,,,,,,,0.33984375,-0.59375,0.9921875,0.04296875,-0.08984375,0.0546875,-3.68359375,-1.84375,10.1796875
3005846,,,,,,,,0.41015625,-0.6328125,0.91796875,0.060546875,-0.087890625,0.0625,-3.60546875,-1.8828125,10.1015625
3005847,,,,,,,,0.4765625,-0.6875,0.94921875,0.080078125,-0.072265625,0.025390625,-3.53125,-1.921875,10.14453125
3005848,,,,,,,,0.26953125,-0.578125,1.0625,0.05859375,-0.0546875,0.0390625,-3.72265625,-1.8046875,10.26171875
3005849,,,,,,,,-0.11328125,-0.43359375,1.3671875,0.06640625,-0.0546875,0.1328125,-4.10546875,-1.65234375,10.5625
3005850,36.01259116666667,129.3192116666667,55.14135428361272,21.211879636453794,1.2000000000000002,319.0,,-0.42578125,-0.48828125,1.58984375,0.09375,-0.0859375,0.28515625,-4.41015625,-1.69140625,10.79296875
3005851,,,,,,,,-0.54296875,-0.75,1.58203125,0.126953125,-0.1015625,0.4453125,-4.52734375,-1.921875,10.79296875
3005852,,,,,,,,-0.7421875,-1.0234375,1.421875,0.1640625,-0.119140625,0.64453125,-4.71875,-2.1484375,10.64453125
3005853,,,,,,,,-0.7890625,-1.1796875,1.375,0.16796875,-0.150390625,0.7109375,-4.7578125,-2.265625,10.6015625
3005854,,,,,,,,-0.6796875,-1.37890625,1.0234375,0.193359375,-0.197265625,0.75390625,-4.640625,-2.41796875,10.2578125
3005855,,,,,,,,-0.265625,-1.921875,1.3984375,0.205078125,-0.14453125,0.70703125,-4.21875,-2.9140625,10.64453125
3005856,,,,,,,,-0.3515625,-2.078125,1.734375,0.212890625,-0.1328125,0.5625,-4.296875,-3.03125,10.984375
3005857,,,,,,,,-0.58203125,-1.7109375,1.8046875,0.255859375,-0.005859375,0.33203125,-4.52734375,-2.609375,11.0625
3005858,,,,,,,,-1.00390625,-1.55859375,1.94921875,0.29296875,0.009765625,0.23828125,-4.94921875,-2.41796875,11.21484375
3005859,,,,,,,,-1.23046875,-1.40625,2.06640625,0.326171875,0.013671875,0.13671875,-5.17578125,-2.2265625,11.33203125
3005860,36.012592000000005,129.31921083333333,55.066229242447044,21.30434519541855,1.2000000000000002,320.0,,-1.453125,-0.78515625,1.91015625,0.3828125,0.044921875,0.060546875,-5.40625,-1.57421875,11.17578125
3005861,,,,,,,,-1.76171875,0.5234375,1.328125,0.4609375,0.025390625,0.01171875,-5.71484375,-0.234375,10.60546875
3005862,,,,,,,,-1.72265625,1.08984375,1.0234375,0.482421875,-0.013671875,-0.025390625,-5.67578125,0.37890625,10.30078125
3005863,,,,,,,,-1.5390625,1.51171875,0.82421875,0.4375,-0.072265625,-0.05078125,-5.484375,0.83984375,10.1015625
3005864,,,,,,,,-1.23828125,1.73828125,0.85546875,0.369140625,-0.09375,-0.111328125,-5.17578125,1.10546875,10.14453125
3005865,,,,,,,,-0.703125,2.05859375,0.73828125,0.275390625,-0.095703125,-0.1953125,-4.52734375,1.48828125,9.9453125
3005866,,,,,,,,-0.3359375,2.3671875,0.609375,0.12890625,-0.060546875,-0.271484375,-4.2578125,1.7578125,9.9140625
3005867,,,,,,,,-0.19140625,2.23046875,0.64453125,-0.115234375,0.001953125,-0.32421875,-4.10546875,1.60546875,9.9453125
3005868,,,,,,,,-0.15234375,2.046875,0.64453125,-0.193359375,0.052734375,-0.31640625,-4.06640625,1.4140625,9.94921875
3005869,,,,,,,,-0.4140625,2.0078125,0.64453125,-0.330078125,0.126953125,-0.2109375,-4.3359375,1.3359375,9.9453125
3005870,36.012593,129.31921,54.99110408716716,21.415303957455997,1.2000000000000002,322.0,,-1.0546875,1.6640625,0.5,-0.380859375,0.119140625,-0.029296875,-4.984375,0.953125,9.796875
3005871,,,,,,,,-1.5390625,1.09765625,-0.06640625,-0.359375,0.048828125,0.314453125,-5.484375,0.33984375,9.21875
3005872,,,,,,,,-1.4921875,0.76171875,-0.2578125,-0.34375,0.015625,0.4375,-5.4453125,-0.00390625,9.03125
3005873,,,,,,,,-0.91796875,0.1171875,-1.13671875,-0.251953125,-0.09375,0.6875,-4.87109375,-0.65625,8.15234375
3005874,,,,,,,,-0.58203125,-0.12109375,-1.55859375,-0.193359375,-0.123046875,0.712890625,-4.52734375,-0.88671875,7.7265625
3005875,,,,,,,,-0.12109375,-0.2109375,-2.1484375,-0.171875,-0.171875,0.63671875,-4.06640625,-0.9609375,7.15625
3005876,,,,,,,,-0.05078125,-0.13671875,-2.11328125,-0.177734375,-0.19921875,0.5625,-3.98828125,-0.88671875,7.1875
3005877,,,,,,,,-0.10546875,0.27734375,-1.9296875,-0.171875,-0.228515625,0.3671875,-4.02734375,-0.46484375,7.3828125
3005878,,,,,,,,-0.12890625,0.78515625,-1.8984375,-0.162109375,-0.2421875,0.173828125,-4.02734375,0.03515625,7.421875
3005879,,,,,,,,-0.0625,0.8671875,-1.9453125,-0.154296875,-0.2421875,0.10546875,-3.953125,0.109375,7.3828125
3005880,36.012593833333334,129.31920899999997,54.90095415622819,21.507769422453123,1.2000000000000002,321.0,,0.22265625,0.9609375,-2.02734375,-0.380859375,0.119140625,-0.029296875,-4.984375,0.953125,9.796875
3005881,,,,,,,,0.62109375,0.9375,-2.07421875,-0.19921875,-0.291015625,-0.12109375,-3.22265625,0.1484375,7.265625
3005882,,,,,,,,1.01171875,0.84765625,-1.96875,-0.220703125,-0.27734375,-0.24609375,-2.80078125,0.03515625,7.38671875
3005883,,,,,,,,1.140625,0.76953125,-2.16796875,-0.23828125,-0.259765625,-0.3515625,-2.6484375,-0.08203125,7.1875
3005884,,,,,,,,1.21484375,0.6640625,-2.2109375,-0.251953125,-0.2578125,-0.451171875,-2.53515625,-0.234375,7.15625
3005885,,,,,,,,1.4609375,0.328125,-2.18359375,-0.2578125,-0.259765625,-0.54296875,-2.265625,-0.6171875,7.19140625
3005886,,,,,,,,1.55078125,0.23828125,-2.10546875,-0.236328125,-0.24609375,-0.59375,-2.15234375,-0.73046875,7.265625
3005887,,,,,,,,1.68359375,0.19921875,-2.0,-0.1796875,-0.21484375,-0.693359375,-1.99609375,-0.80859375,7.3828125
3005888,,,,,,,,1.453125,0.53125,-1.8515625,-0.123046875,-0.181640625,-0.748046875,-2.1875,-0.5390625,7.5390625
3005889,,,,,,,,1.234375,0.68359375,-1.70703125,-0.119140625,-0.17578125,-0.662109375,-2.3828125,-0.42578125,7.6875
3005890,36.01259483333333,129.319208,54.81080411556658,21.618728092700472,1.3,319.0,,1.09765625,0.484375,-1.40234375,-0.10546875,-0.166015625,-0.478515625,-2.49609375,-0.65625,7.99609375
3005891,,,,,,,,1.11328125,0.15625,-1.1796875,-0.056640625,-0.171875,-0.279296875,-2.45703125,-1.0,8.23046875
3005892,,,,,,,,1.28125,-0.14453125,-1.1796875,0.009765625,-0.1484375,-0.130859375,-2.265625,-1.30859375,8.2265625
3005893,,,,,,,,1.234375,-0.3046875,-1.109375,0.05859375,-0.119140625,-0.03515625,-2.3046875,-1.4609375,8.30859375
3005894,,,,,,,,0.99609375,-0.41796875,-0.84375,0.0703125,-0.08984375,0.013671875,-2.53515625,-1.57421875,8.5703125
3005895,,,,,,,,0.7578125,-0.46484375,-0.46484375,0.095703125,-0.0546875,0.02734375,-2.765625,-1.61328125,8.95703125
3005896,,,,,,,,0.64453125,-0.47265625,-0.3515625,0.119140625,-0.04296875,0.025390625,-2.87890625,-1.61328125,9.07421875
3005897,,,,,,,,0.59765625,-0.41015625,-0.07421875,0.15234375,-0.017578125,-0.005859375,-2.91796875,-1.53515625,9.3359375
3005898,,,,,,,,0.59765625,-0.2734375,0.26953125,0.177734375,0.029296875,-0.015625,-2.91796875,-1.3828125,9.68359375
3005899,,,,,,,,0.375,-0.20703125,0.57421875,0.171875,0.076171875,-0.03515625,-3.1484375,-1.30859375,9.984375
3005900,36.01259566666667,129.31920683333334,54.70562930127702,21.711193467143865,1.3,318.0,0.0,-0.046875,-0.18359375,0.95703125,-0.10546875,-0.166015625,-0.478515625,-3.5703125,-1.26953125,10.37109375
3005901,,,,,,,,-0.375,-0.4296875,1.46484375,0.150390625,0.13671875,0.0234375,-3.9140625,-1.5,10.8671875
3005902,,,,,,,,-0.51171875,-0.56640625,1.6640625,0.185546875,0.158203125,0.0859375,-4.06640625,-1.61328125,11.0625
3005903,,,,,,,,-0.55078125,-0.57421875,1.81640625,0.201171875,0.166015625,0.107421875,-4.10546875,-1.61328125,11.21484375
3005904,,,,,,,,-0.6796875,-0.63671875,2.20703125,0.224609375,0.17578125,0.1328125,-4.2578125,-1.65234375,11.59375
3005905,,,,,,,,-0.7421875,-0.62890625,2.4375,0.24609375,0.19140625,0.138671875,-4.3359375,-1.61328125,11.828125
3005906,,,,,,,,-0.74609375,-0.515625,2.4453125,0.283203125,0.271484375,0.171875,-4.37109375,-1.4609375,11.828125
3005907,,,,,,,,-1.13671875,-0.4765625,2.4140625,0.30078125,0.287109375,0.193359375,-4.79296875,-1.3828125,11.7890625
3005908,,,,,,,,-1.12109375,-0.4921875,2.4140625,0.283203125,0.283203125,0.189453125,-5.21484375,-1.4609375,12.2109375
3005909,,,,,,,,-1.75,-0.5234375,3.03515625,0.294921875,0.26171875,0.193359375,-5.63671875,-1.26953125,12.67578125
3005910,36.0125965,129.319206,54.63050426909347,21.803659027172422,1.2000000000000002,318.0,,-0.046875,-0.18359375,0.95703125,-0.10546875,-0.166015625,-0.478515625,-6.13671875,-0.5390625,12.78515625
3005911,,,,,,,,-2.4609375,0.65234375,3.359375,0.42578125,0.091796875,0.322265625,-6.13671875,-0.00390625,12.71484375
3005912,,,,,,,,-2.140625,0.9296875,3.2421875,0.404296875,0.0078125,0.369140625,-5.71484375,0.30078125,12.515625
3005913,,,,,,,,-1.375,1.140625,2.69921875,0.3515625,-0.029296875,0.400390625,-4.83203125,0.6484375,11.671875
3005914,,,,,,,,-0.68359375,1.28515625,1.97265625,0.240234375,-0.029296875,0.3515625,-4.10546875,0.609375,10.984375
3005915,,,,,,,,0.1953125,0.86328125,1.04296875,0.095703125,-0.005859375,0.189453125,-3.22265625,-0.12109375,9.94921875
3005916,,,,,,,,0.55078125,0.43359375,0.58203125,0.021484375,0.021484375,0.060546875,-3.109375,-0.3125,9.7578125
3005917,,,,,,,,0.78125,0.05078125,0.31640625,-0.08984375,0.0859375,-0.265625,-3.03125,-0.65625,9.640625
3005918,,,,,,,,0.55859375,-0.23828125,0.31640625,-0.140625,0.103515625,-0.58984375,-3.33984375,-0.76953125,9.80078125
3005919,,,,,,,,0.3359375,-0.12890625,0.3984375,-0.13671875,0.111328125,-0.794921875,-3.53125,-0.46484375,9.9140625
3005920,36.01259733333333,129.31920499999998,54.54035434546576,21.89612449596684,1.3,319.0,,-0.046875,-0.18359375,0.95703125,-0.1171875,0.09765625,-0.875,-3.53125,-0.12109375,9.9453125
3005921,,,,,,,,0.265625,0.68359375,0.58984375,-0.09765625,0.064453125,-0.82421875,-3.4921875,0.03515625,9.94921875
3005922,,,,,,,,0.265625,0.76171875,0.66796875,-0.083984375,0.01171875,-0.666015625,-3.53125,0.0703125,10.10546875
3005923,,,,,,,,0.3046875,0.828125,0.74609375,-0.076171875,-0.01953125,-0.423828125,-3.4140625,0.03515625,10.0234375
3005924,,,,,,,,0.48828125,0.78515625,0.58984375,-0.083984375,-0.03515625,-0.189453125,-3.109375,-0.1953125,9.8359375
3005925,,,,,,,,0.7109375,0.484375,0.36328125,-0.125,-0.033203125,-0.03515625,-3.03125,-0.65625,9.45703125
3005926,,,,,,,,0.671875,0.00390625,0.0078125,-0.169921875,-0.015625,0.046875,-3.18359375,-0.9609375,9.26171875
3005927,,,,,,,,0.55859375,-0.2890625,-0.14453125,-0.181640625,0.01171875,0.10546875,-3.375,-1.3828125,8.91796875
3005928,,,,,,,,0.3671875,-0.6640625,-0.640625,-0.1484375,0.029296875,0.123046875,-3.4140625,-1.57421875,8.4921875
3005929,,,,,,,,0.2890625,-0.80859375,-1.0625,-0.126953125,0.04296875,0.08203125,-3.453125,-1.69140625,8.109375
3005930,36.01259833333334,129.31920399999998,54.45020431142918,22.00708317060477,1.4000000000000001,319.0,,-0.046875,-0.18359375,0.95703125,-0.13671875,0.064453125,0.0078125,-3.22265625,-1.8046875,7.421875
3005931,,,,,,,,0.6875,-0.8984375,-2.08984375,-0.1484375,0.08984375,-0.158203125,-3.0703125,-1.7265625,7.078125
3005932,,,,,,,,0.84765625,-0.8359375,-2.65625,-0.16015625,0.09765625,-0.28125,-2.83984375,-1.61328125,6.5
3005933,,,,,,,,1.01171875,-0.65234375,-3.0390625,-0.185546875,0.10546875,-0.392578125,-2.7265625,-1.53515625,6.15625
3005934,,,,,,,,1.2109375,-0.46875,-3.375,-0.2109375,0.109375,-0.466796875,-2.57421875,-1.34375,5.93359375
3005935,,,,,,,,1.24609375,-0.32421875,-3.53125,-0.21484375,0.095703125,-0.501953125,-2.57421875,-1.26953125,5.6953125
3005936,,,,,,,,1.1796875,-0.16796875,-3.63671875,-0.212890625,0.09375,-0.525390625,-2.6484375,-1.15234375,5.6953125
3005937,,,,,,,,1.140625,-0.046875,-3.62890625,-0.216796875,0.083984375,-0.501953125,-2.6875,-1.078125,5.7734375
3005938,,,,,,,,1.109375,0.1015625,-3.4296875,-0.197265625,0.064453125,-0.4453125,-2.7265625,-1.0,5.97265625
3005939,,,,,,,,1.109375,0.140625,-2.92578125,-0.166015625,0.01953125,-0.38671875,-2.7265625,-1.0,6.3828125
3005940,36.012599333333334,129.319203,54.36005428207926,22.118041846878732,1.4000000000000001,318.0,,1.03515625,0.36328125,-2.9609375,-0.130859375,0.048828125,-0.302734375,-2.80078125,-0.80859375,6.3515625
3005941,,,,,,,,0.98828125,0.5,-2.265625,-0.11328125,0.009765625,-0.21484375,-2.83984375,-0.6953125,7.04296875
3005942,,,,,,,,0.7578125,0.82421875,-1.65234375,-0.08203125,-0.029296875,-0.095703125,-3.0703125,-0.38671875,7.6484375
3005943,,,,,,,,0.671875,0.87109375,-1.421875,-0.0703125,-0.037109375,-0.029296875,-3.1484375,-0.34765625,7.8828125
3005944,,,,,,,,0.55859375,0.9921875,-1.0,-0.072265625,-0.068359375,0.1171875,-3.26171875,-0.234375,8.3046875
3005945,,,,,,,,0.62109375,0.83984375,-0.6953125,-0.080078125,-0.080078125,0.208984375,-3.18359375,-0.38671875,8.609375
3005946,,,,,,,,0.88671875,0.46484375,-0.33984375,-0.087890625,-0.0625,0.21484375,-2.91796875,-0.76953125,8.953125
3005947,,,,,,,,0.88671875,0.2734375,-0.1484375,-0.107421875,-0.037109375,0.15234375,-2.91796875,-0.9609375,9.1484375
3005948,,,,,,,,0.8125,0.203125,0.00390625,-0.125,0.001953125,0.064453125,-2.9921875,-1.0390625,9.296875
3005949,,,,,,,,0.53515625,0.1328125,0.39453125,-0.142578125,0.005859375,0.001953125,-3.26171875,-1.1171875,9.68359375
3005950,36.012600166666665,129.31920200000002,54.26990436893986,22.21050731754106,1.2000000000000002,320.0,,0.421875,-0.05078125,0.69921875,-0.130859375,0.048828125,-0.302734375,-3.375,-1.30859375,9.984375
3005951,,,,,,,,0.265625,-0.41796875,0.890625,-0.0625,-0.029296875,0.041015625,-3.53125,-1.69140625,10.18359375
3005952,,,,,,,,0.10546875,-0.5703125,0.8984375,-0.0234375,-0.03125,0.064453125,-3.68359375,-1.84375,10.1796875
3005953,,,,,,,,-0.0078125,-0.6484375,0.85546875,-0.015625,-0.0390625,0.076171875,-3.796875,-1.921875,10.140625
3005954,,,,,,,,-0.20703125,-0.921875,1.0078125,0.005859375,-0.064453125,0.107421875,-3.98828125,-2.1875,10.296875
3005955,,,,,,,,-0.20703125,-1.15234375,1.16015625,0.064453125,-0.060546875,0.140625,-3.98828125,-2.41796875,10.44921875
3005956,,,,,,,,-0.0234375,-1.16796875,1.23828125,0.13671875,-0.041015625,0.12109375,-3.796875,-2.41796875,10.52734375
3005957,,,,,,,,0.08203125,-1.11328125,1.3515625,0.18359375,-0.025390625,0.095703125,-3.68359375,-2.33984375,10.640625
3005958,,,,,,,,-0.03125,-1.046875,1.49609375,0.19140625,-0.02734375,0.0859375,-3.796875,-2.265625,10.7890625
3005959,,,,,,,,-0.40625,-0.76953125,1.91796875,0.203125,0.01953125,0.115234375,-4.1796875,-1.95703125,11.21484375
3005960,36.01260116666666,129.31920116666666,54.19477922910584,22.32146608794177,1.3,321.0,,-0.828125,-0.3046875,1.91796875,0.244140625,0.029296875,0.21484375,-4.6015625,-1.4609375,11.2109375
3005961,,,,,,,,-0.78125,-0.53515625,1.95703125,0.26953125,0.0078125,0.345703125,-4.5625,-1.65234375,11.25
3005962,,,,,,,,-0.70703125,-0.95703125,2.484375,0.27734375,-0.001953125,0.40625,-4.48828125,-2.03515625,11.7890625
3005963,,,,,,,,-0.96875,-0.91015625,3.25,0.28125,-0.005859375,0.3515625,-4.7578125,-1.95703125,12.55859375
3005964,,,,,,,,-1.578125,-0.64453125,3.78125,0.318359375,0.009765625,0.267578125,-5.3671875,-1.65234375,13.09765625
3005965,,,,,,,,-2.375,-0.33984375,4.1640625,0.333984375,0.00390625,0.255859375,-6.171875,-1.30859375,13.4765625
3005966,,,,,,,,-2.796875,-0.1328125,4.23828125,0.34375,-0.00390625,0.30078125,-6.59375,-1.078125,13.55078125
3005967,,,,,,,,-3.640625,0.43359375,4.15625,0.376953125,0.00390625,0.505859375,-7.4375,-0.46484375,13.4765625
3005968,,,,,,,,-3.6015625,0.984375,2.9609375,0.455078125,-0.076171875,0.736328125,-7.3984375,0.1484375,12.29296875
3005969,,,,,,,,-2.73046875,1.02734375,1.2265625,0.462890625,-0.203125,0.859375,-6.51953125,0.26171875,10.5625
3005970,36.012602,129.31920033333333,54.119654209314724,22.413931653476485,1.2000000000000002,321.0,,-1.6484375,0.65234375,0.515625,0.306640625,-0.330078125,0.72265625,-5.40625,-0.00390625,9.87890625
3005971,,,,,,,,0.171875,0.34375,-0.87890625,0.146484375,-0.1953125,0.365234375,-3.5703125,-0.2734375,8.4921875
3005972,,,,,,,,1.58203125,-0.0859375,-1.34765625,-0.068359375,-0.095703125,-0.181640625,-2.15234375,-0.6953125,8.03515625
3005973,,,,,,,,1.26953125,0.1015625,-0.92578125,-0.30078125,0.0703125,-0.76171875,-2.45703125,-0.5390625,8.453125
3005974,,,,,,,,0.5859375,0.4453125,-0.41796875,-0.498046875,0.240234375,-1.083984375,-3.1484375,-0.2734375,8.95703125
3005975,,,,,,,,-0.4609375,0.46484375,0.09375,-0.60546875,0.3515625,-1.0859375,-4.21875,-0.34765625,9.453125
3005976,,,,,,,,-0.7890625,0.3203125,0.21484375,-0.64453125,0.380859375,-1.017578125,-4.5625,-0.5390625,9.56640625
3005977,,,,,,,,-1.3046875,-0.046875,0.35546875,-0.666015625,0.365234375,-0.751953125,-5.1015625,-1.0,9.6796875
3005978,,,,,,,,-1.9140625,-0.390625,0.2265625,-0.548828125,0.26171875,-0.125,-5.75,-1.4609375,9.53125
3005979,,,,,,,,-2.046875,-0.390625,0.1640625,-0.380859375,0.11328125,0.345703125,-5.90625,-1.5,9.453125
3005980,36.012603,129.31919950000002,54.04452907796881,22.524890424630453,1.2000000000000002,322.0,,-1.80859375,-0.50390625,-0.1875,-0.203125,-0.0546875,0.76953125,-5.40625,-0.00390625,9.87890625
3005981,,,,,,,,-1.2734375,-0.4140625,-0.76171875,-0.048828125,-0.115234375,1.05078125,-5.140625,-1.5,8.53125
3005982,,,,,,,,-0.11328125,-0.48828125,-1.30859375,-0.017578125,-0.13671875,1.0703125,-3.98828125,-1.53515625,7.9921875
3005983,,,,,,,,0.52734375,-0.375,-1.8515625,-0.03515625,-0.12890625,0.92578125,-3.33984375,-1.3828125,7.4609375
3005984,,,,,,,,0.7265625,-0.20703125,-1.97265625,-0.0703125,-0.080078125,0.7265625,-3.1484375,-1.19140625,7.34375
3005985,,,,,,,,0.8046875,-0.0703125,-2.203125,-0.126953125,-0.052734375,0.484375,-3.0703125,-1.0390625,7.1171875
3005986,,,,,,,,0.765625,-0.109375,-2.28125,-0.158203125,-0.0390625,0.34765625,-3.109375,-1.078125,7.04296875
3005987,,,,,,,,0.68359375,-0.1015625,-2.43359375,-0.1953125,-0.05859375,0.1015625,-3.18359375,-1.078125,6.88671875
3005988,,,,,,,,0.94921875,-0.125,-2.625,-0.19921875,-0.07421875,-0.05859375,-2.91796875,-1.1171875,6.69921875
3005989,,,,,,,,1.4765625,-0.015625,-2.73046875,-0.19140625,-0.076171875,-0.23046875,-2.3828125,-1.0390625,6.578125
3005990,36.01260383333333,129.3191985,53.95437916784857,22.617355899033576,1.3,320.0,,-1.80859375,-0.50390625,-0.1875,-0.1484375,-0.060546875,-0.5625,-2.1875,-0.9609375,6.42578125
3005991,,,,,,,,1.5703125,0.24609375,-2.92578125,-0.12890625,-0.041015625,-0.712890625,-2.3046875,-0.80859375,6.421875
3005992,,,,,,,,1.4453125,0.46875,-2.76953125,-0.115234375,-0.04296875,-0.767578125,-2.49609375,-0.50390625,6.66015625
3005993,,,,,,,,1.125,0.9296875,-2.35546875,-0.068359375,-0.05859375,-0.720703125,-2.80078125,-0.08203125,7.078125
3005994,,,,,,,,0.91796875,1.265625,-2.08984375,-0.00390625,-0.0859375,-0.580078125,-2.9921875,0.2265625,7.38671875
3005995,,,,,,,,0.78125,1.60546875,-1.71484375,0.05859375,-0.126953125,-0.3046875,-2.95703125,0.41796875,7.6875
3005996,,,,,,,,0.765625,1.65234375,-1.5234375,0.068359375,-0.1484375,-0.134765625,-3.1484375,0.37890625,7.921875
3005997,,,,,,,,0.6328125,1.57421875,-1.3671875,0.068359375,-0.146484375,0.03515625,-3.1484375,0.03515625,8.11328125
3005998,,,,,,,,0.578125,1.10546875,-1.1015625,0.0625,-0.115234375,0.146484375,-3.22265625,-0.2734375,8.23046875
3005999,,,,,,,,0.45703125,0.83203125,-0.95703125,0.05859375,-0.091796875,0.16796875,-3.33984375,-0.6171875,8.4921875
3006000,36.01260466666667,129.31919766666667,53.87925415382823,22.709821466938465,1.2000000000000002,319.0,0.0,-1.80859375,-0.50390625,-0.1875,-0.1484375,-0.060546875,-0.5625,-3.375,-0.76953125,8.6875
3006001,,,,,,,,0.296875,0.33203125,-0.54296875,0.091796875,-0.00390625,0.041015625,-3.4921875,-0.80859375,8.87890625
3006002,,,,,,,,0.02734375,0.44140625,-0.15234375,0.08203125,0.005859375,-0.013671875,-3.68359375,-0.73046875,9.18359375
3006003,,,,,,,,-0.515625,0.5859375,0.34765625,0.0859375,0.0078125,-0.01953125,-4.21875,-0.578125,9.6796875
3006004,,,,,,,,-0.890625,0.65234375,0.65234375,0.080078125,-0.005859375,0.052734375,-4.6015625,-0.50390625,9.98828125
3006005,,,,,,,,-1.16015625,0.53125,1.03515625,0.083984375,-0.041015625,0.193359375,-4.87109375,-0.6171875,10.3671875
3006006,,,,,,,,-1.16015625,0.37109375,1.07421875,0.091796875,-0.05078125,0.263671875,-4.87109375,-0.76953125,10.40625
3006007,,,,,,,,-0.859375,-0.12890625,1.07421875,0.111328125,-0.0546875,0.3359375,-4.5625,-1.23046875,10.41015625
3006008,,,,,,,,-0.70703125,-0.4140625,1.34375,0.115234375,-0.060546875,0.322265625,-4.41015625,-1.5,10.6796875
3006009,,,,,,,,-0.75390625,-0.59765625,1.83203125,0.125,-0.0234375,0.193359375,-4.44921875,-1.65234375,11.171875
3006010,36.0126055,129.3191965,53.774079360326475,22.802286852172816,1.3,318.0,,-0.515625,-0.734375,2.29296875,0.154296875,0.021484375,0.119140625,-4.21875,-1.765625,11.63671875
3006011,,,,,,,,-0.39453125,-0.90625,2.37890625,0.177734375,0.060546875,0.056640625,-4.10546875,-1.921875,11.7109375
3006012,,,,,,,,-0.35546875,-0.9140625,2.37890625,0.18359375,0.091796875,0.029296875,-4.06640625,-1.921875,11.7109375
3006013,,,,,,,,-0.75390625,-0.9375,2.4140625,0.17578125,0.19921875,-0.0234375,-4.48828125,-1.921875,11.75390625
3006014,,,,,,,,-0.9375,-0.98046875,2.5,0.185546875,0.19140625,-0.0078125,-4.6796875,-1.95703125,11.83203125
3006015,,,,,,,,-1.296875,-1.2890625,2.96875,0.28125,0.12890625,0.064453125,-5.0625,-2.2265625,12.2890625
3006016,,,,,,,,-1.77734375,-0.9765625,3.2734375,0.365234375,0.109375,0.123046875,-5.55859375,-1.8828125,12.59765625
3006017,,,,,,,,-1.93359375,-0.69140625,3.2734375,0.41796875,0.0859375,0.16796875,-5.71484375,-1.57421875,12.59765625
3006018,,,,,,,,-1.953125,-0.09765625,3.19140625,0.50390625,-0.00390625,0.2890625,-5.75,-0.92578125,12.515625
3006019,,,,,,,,-1.54296875,-0.04296875,2.953125,0.5390625,-0.08203125,0.3515625,-5.33203125,-0.80859375,12.2890625
3006020,36.0126065,129.3191955,53.68392934484764,22.91324553513661,1.3,317.0,,-0.015625,0.27734375,2.0625,0.154296875,0.021484375,0.119140625,-3.796875,-0.42578125,11.41015625
3006021,,,,,,,,0.703125,0.56640625,1.3671875,0.474609375,-0.091796875,0.177734375,-3.0703125,-0.08203125,10.72265625
3006022,,,,,,,,1.62109375,0.7578125,0.515625,0.322265625,-0.02734375,-0.05859375,-2.15234375,0.1484375,9.87890625
3006023,,,,,,,,2.08203125,0.7421875,0.046875,0.1484375,0.076171875,-0.34375,-1.69140625,0.1484375,9.4140625
3006024,,,,,,,,2.44140625,0.48828125,-0.3671875,-0.01171875,0.177734375,-0.6328125,-1.34765625,-0.12109375,8.9921875
3006025,,,,,,,,2.57421875,0.25390625,-0.39453125,-0.103515625,0.259765625,-0.9140625,-1.23046875,-0.38671875,8.953125
3006026,,,,,,,,2.21484375,0.15625,-0.2265625,-0.1484375,0.349609375,-1.267578125,-1.61328125,-0.5390625,9.109375
3006027,,,,,,,,1.6171875,0.828125,0.01171875,-0.1875,0.443359375,-1.55859375,-2.2265625,0.0703125,9.3359375
3006028,,,,,,,,1.30078125,1.17578125,0.2265625,-0.236328125,0.46875,-1.625,-2.57421875,0.33984375,9.53515625
3006029,,,,,,,,0.828125,1.421875,0.5859375,-0.25,0.45703125,-1.50390625,-3.0703125,0.4921875,9.87890625
3006030,36.012607333333335,129.31919449999998,53.59377944256357,23.005711012639267,1.3,317.0,,0.359375,1.65625,0.75390625,-0.23828125,0.41796875,-1.234375,-3.5703125,0.6484375,10.0234375
3006031,,,,,,,,-0.21875,1.578125,0.81640625,-0.1640625,0.265625,-0.4765625,-4.1796875,0.4921875,10.06640625
3006032,,,,,,,,0.03125,1.2109375,0.625,-0.068359375,0.18359375,0.125,-3.953125,0.109375,9.875
3006033,,,,,,,,0.66796875,0.46875,-0.09375,0.009765625,0.150390625,0.529296875,-3.33984375,-0.6171875,9.1484375
3006034,,,,,,,,0.84765625,0.0234375,-0.5078125,0.017578125,0.1328125,0.6640625,-3.18359375,-1.0390625,8.7265625
3006035,,,,,,,,0.671875,-0.19921875,-0.80859375,0.001953125,0.140625,0.685546875,-3.375,-1.23046875,8.4140625
3006036,,,,,,,,0.5625,-0.17578125,-0.81640625,0.005859375,0.158203125,0.689453125,-3.4921875,-1.19140625,8.4140625
3006037,,,,,,,,0.31640625,-0.09375,-1.07421875,0.025390625,0.171875,0.6484375,-3.76171875,-1.078125,8.1484375
3006038,,,,,,,,0.1484375,-0.0859375,-1.44921875,0.01953125,0.18359375,0.578125,-3.953125,-1.0390625,7.765625
3006039,,,,,,,,0.203125,-0.21484375,-1.86328125,-0.01953125,0.17578125,0.486328125,-3.9140625,-1.15234375,7.34765625
3006040,36.01260833333333,129.3191935,53.5036294366227,23.116669697974157,1.4000000000000001,318.0,,0.2265625,-0.34765625,-2.0859375,-0.23828125,0.41796875,-1.234375,-3.5703125,0.6484375,10.0234375
3006041,,,,,,,,0.13671875,-0.35546875,-2.37890625,-0.087890625,0.1953125,0.16796875,-4.02734375,-1.26953125,6.8046875
3006042,,,,,,,,-0.0078125,-0.38671875,-2.64453125,-0.138671875,0.18359375,0.001953125,-4.1796875,-1.30859375,6.5390625
3006043,,,,,,,,0.0078125,-0.37890625,-2.72265625,-0.1640625,0.1640625,-0.078125,-4.1796875,-1.30859375,6.4609375
3006044,,,,,,,,0.20703125,-0.31640625,-3.01171875,-0.193359375,0.146484375,-0.228515625,-3.98828125,-1.26953125,6.16015625
3006045,,,,,,,,0.51953125,-0.3984375,-2.890625,-0.236328125,0.10546875,-0.35546875,-3.68359375,-1.3828125,6.27734375
3006046,,,,,,,,0.59765625,-0.28515625,-3.08203125,-0.255859375,0.05859375,-0.4453125,-3.60546875,-1.30859375,6.078125
3006047,,,,,,,,1.02734375,-0.375,-2.73046875,-0.28125,0.078125,-0.48828125,-3.18359375,-1.4609375,6.421875
3006048,,,,,,,,0.94921875,-0.3515625,-2.64453125,-0.2734375,0.072265625,-0.5,-3.26171875,-1.4609375,6.5
3006049,,,,,,,,0.6796875,-0.41796875,-2.0234375,-0.24609375,0.072265625,-0.439453125,-3.53125,-1.57421875,7.1171875
3006050,36.01260933333333,129.3191925,53.413479427865,23.227628383558276,1.4000000000000001,320.0,,0.13671875,-0.33203125,-1.47265625,-0.23828125,0.41796875,-1.234375,-4.06640625,-1.53515625,7.65234375
3006051,,,,,,,,-0.17578125,-0.39453125,-0.8203125,-0.1171875,-0.099609375,0.126953125,-4.37109375,-1.61328125,8.30859375
3006052,,,,,,,,0.0078125,-0.81640625,-0.33203125,-0.009765625,-0.158203125,0.341796875,-4.1796875,-2.03515625,8.80078125
3006053,,,,,,,,0.07421875,-0.87109375,-0.37890625,0.076171875,-0.185546875,0.4140625,-4.10546875,-2.07421875,8.76171875
3006054,,,,,,,,0.09765625,-1.015625,0.0,0.13671875,-0.220703125,0.400390625,-4.06640625,-2.1875,9.1484375
3006055,,,,,,,,0.03515625,-1.0859375,0.21875,0.19140625,-0.232421875,0.34765625,-4.10546875,-2.2265625,9.375
3006056,,,,,,,,-0.1328125,-0.88671875,0.51171875,0.251953125,-0.21875,0.26953125,-4.2578125,-1.99609375,9.6796875
3006057,,,,,,,,-0.35546875,-0.62890625,0.80859375,0.328125,-0.259765625,0.14453125,-4.44921875,-1.69140625,9.984375
3006058,,,,,,,,-0.40234375,-0.34375,0.87890625,0.353515625,-0.267578125,0.099609375,-4.48828125,-1.3828125,10.06640625
3006059,,,,,,,,-0.34765625,-0.109375,0.86328125,0.392578125,-0.275390625,-0.015625,-4.41015625,-1.1171875,10.06640625
3006060,36.01261016666667,129.31919150000002,53.32332953390775,23.320093865476416,1.2000000000000002,320.0,,-0.06640625,0.3203125,0.88671875,0.375,-0.275390625,-0.140625,-4.10546875,-0.65625,10.1015625
3006061,,,,,,,,0.39453125,0.98046875,0.9921875,0.3515625,-0.25390625,-0.263671875,-3.60546875,0.03515625,10.21875
3006062,,,,,,,,0.33203125,1.19140625,0.9765625,0.296875,-0.25390625,-0.328125,-3.64453125,0.26171875,10.22265625
3006063,,,,,,,,0.30859375,1.29296875,1.16015625,0.244140625,-0.240234375,-0.30859375,-3.64453125,0.37890625,10.40625
3006064,,,,,,,,0.32421875,1.1328125,1.26171875,0.205078125,-0.205078125,-0.232421875,-3.60546875,0.2265625,10.52734375
3006065,,,,,,,,0.18359375,0.625,1.40625,0.1875,-0.216796875,-0.138671875,-3.72265625,-0.2734375,10.68359375
3006066,,,,,,,,0.13671875,0.38671875,1.359375,0.1796875,-0.208984375,-0.072265625,-3.76171875,-0.50390625,10.640625
3006067,,,,,,,,0.15234375,0.10546875,1.50390625,0.12890625,-0.1796875,0.072265625,-3.72265625,-0.76953125,10.79296875
3006068,,,,,,,,0.03125,-0.1015625,1.57421875,0.130859375,-0.173828125,0.189453125,-3.8359375,-0.9609375,10.8671875
3006069,,,,,,,,-0.21484375,-0.203125,1.3359375,0.173828125,-0.16796875,0.3203125,-4.06640625,-1.0390625,10.64453125
3006070,36.012611,129.3191905,53.233179639099596,23.412559346628772,1.2000000000000002,318.0,,-0.5,-0.50390625,1.0234375,0.375,-0.275390625,-0.140625,-4.3359375,-1.30859375,10.33984375
3006071,,,,,,,,-0.16796875,-1.23046875,1.12890625,0.173828125,-0.212890625,0.623046875,-3.98828125,-1.99609375,10.44921875
3006072,,,,,,,,0.19921875,-1.578125,1.3515625,0.203125,-0.173828125,0.64453125,-3.60546875,-2.3046875,10.6796875
3006073,,,,,,,,0.19140625,-1.546875,1.3828125,0.248046875,-0.083984375,0.541015625,-3.60546875,-2.2265625,10.71875
3006074,,,,,,,,-0.765625,-0.90234375,1.265625,0.251953125,0.017578125,0.44140625,-4.5625,-1.53515625,10.60546875
3006075,,,,,,,,-1.10546875,-1.1484375,1.640625,0.263671875,0.005859375,0.37109375,-4.91015625,-1.7265625,10.984375
3006076,,,,,,,,-1.75390625,-0.8046875,1.94921875,0.326171875,-0.009765625,0.275390625,-5.55859375,-1.34375,11.29296875
3006077,,,,,,,,-2.0234375,-0.046875,1.82421875,0.42578125,-0.033203125,0.232421875,-5.828125,-0.5390625,11.171875
3006078,,,,,,,,-2.26171875,1.24609375,1.203125,0.462890625,-0.1484375,0.208984375,-6.05859375,0.80078125,10.56640625
3006079,,,,,,,,-1.94140625,1.765625,1.00390625,0.439453125,-0.2578125,0.185546875,-5.71484375,1.375,10.37109375
3006080,36.01261216666667,129.31918966666666,53.15805441623191,23.542011332410258,1.3,322.0,,-1.390625,1.94921875,0.99609375,0.375,-0.275390625,-0.140625,-4.3359375,-1.30859375,10.33984375
3006081,,,,,,,,-0.41796875,2.53125,0.75390625,0.24609375,-0.287109375,-0.005859375,-4.14453125,2.21875,10.14453125
3006082,,,,,,,,0.2421875,2.75,0.58984375,0.0703125,-0.228515625,-0.166015625,-3.453125,2.4453125,9.98828125
3006083,,,,,,,,0.6640625,2.71484375,0.58203125,-0.041015625,-0.193359375,-0.25390625,-3.03125,2.41015625,9.98828125
3006084,,,,,,,,0.6875,2.74609375,0.65234375,-0.306640625,-0.05859375,-0.3984375,-2.9921875,2.41015625,10.0625
3006085,,,,,,,,-0.5,2.71484375,0.921875,-0.72265625,0.15234375,-0.26953125,-4.1796875,2.29296875,10.33984375
3006086,,,,,,,,-1.13671875,2.2578125,0.9296875,-0.814453125,0.17578125,0.07421875,-4.83203125,1.7578125,10.3359375
3006087,,,,,,,,-1.6953125,0.796875,0.0234375,-0.794921875,0.115234375,0.412109375,-5.40625,0.2265625,9.4140625
3006088,,,,,,,,-1.57421875,0.48046875,-0.28125,-0.771484375,0.091796875,0.548828125,-5.29296875,-0.12109375,9.109375
3006089,,,,,,,,-0.8671875,-0.54296875,-0.85546875,-0.720703125,0.0234375,0.708984375,-4.6015625,-1.19140625,8.53125
3006090,36.012613,129.3191886666667,53.067904529781494,23.634476815839797,1.2000000000000002,321.0,,-0.28515625,-0.90234375,-1.1484375,0.375,-0.275390625,-0.140625,-4.3359375,-1.30859375,10.33984375
3006091,,,,,,,,0.09765625,-0.87109375,-1.4609375,-0.533203125,-0.017578125,0.52734375,-3.64453125,-1.57421875,7.92578125
3006092,,,,,,,,0.171875,-0.328125,-1.8359375,-0.501953125,0.0,0.2890625,-3.5703125,-1.078125,7.5390625
3006093,,,,,,,,0.06640625,-0.234375,-1.9140625,-0.521484375,-0.005859375,0.265625,-3.68359375,-1.0,7.46484375
3006094,,,,,,,,0.02734375,-0.234375,-1.9921875,-0.544921875,-0.025390625,0.291015625,-3.72265625,-1.0390625,7.3828125
3006095,,,,,,,,0.25,-0.5546875,-2.2890625,-0.546875,-0.060546875,0.380859375,-3.4921875,-1.421875,7.078125
3006096,,,,,,,,0.55859375,-0.984375,-2.55078125,-0.51171875,-0.064453125,0.380859375,-3.18359375,-1.8828125,6.8046875
3006097,,,,,,,,0.87109375,-1.2578125,-2.7109375,-0.4609375,-0.099609375,0.283203125,-2.87890625,-2.1875,6.65625
3006098,,,,,,,,1.24609375,-1.55078125,-2.78515625,-0.41796875,-0.1171875,0.208984375,-2.49609375,-2.49609375,6.578125
3006099,,,,,,,,1.5078125,-1.59375,-2.82421875,-0.333984375,-0.09765625,0.001953125,-2.2265625,-2.5703125,6.5390625
3006100,36.012614,129.31918750000003,52.96272964482316,23.745435415316365,1.5,319.0,0.0,1.5,-1.21875,-2.7109375,0.375,-0.275390625,-0.140625,-4.3359375,-1.30859375,10.33984375
3006101,,,,,,,,1.24609375,-0.8359375,-2.47265625,-0.2421875,-0.0859375,-0.3671875,-2.45703125,-1.8828125,6.8828125
3006102,,,,,,,,0.85546875,-0.3046875,-1.984375,-0.193359375,-0.09375,-0.38671875,-2.83984375,-1.3828125,7.3828125
3006103,,,,,,,,0.53125,0.109375,-1.67578125,-0.1328125,-0.099609375,-0.3046875,-3.1484375,-1.0,7.69140625
3006104,,,,,,,,0.44921875,0.27734375,-1.5234375,-0.068359375,-0.138671875,-0.166015625,-3.22265625,-0.84765625,7.84765625
3006105,,,,,,,,0.5859375,0.20703125,-1.29296875,-0.04296875,-0.1796875,-0.017578125,-3.0703125,-0.92578125,8.07421875
3006106,,,,,,,,0.76171875,0.015625,-1.22265625,0.0078125,-0.19921875,0.09375,-2.87890625,-1.1171875,8.1484375
3006107,,,,,,,,0.70703125,-0.2109375,-1.1953125,0.05859375,-0.18359375,0.13671875,-2.91796875,-1.34375,8.19140625
3006108,,,,,,,,0.5390625,-0.34375,-1.125,0.0703125,-0.17578125,0.1171875,-3.0703125,-1.4609375,8.265625
3006109,,,,,,,,0.41015625,-0.47265625,-0.78125,0.072265625,-0.146484375,0.05078125,-3.18359375,-1.57421875,8.609375
3006110,36.01261483333334,129.3191865,52.87257975837612,23.837900901507194,1.3,318.0,,0.26953125,-0.48828125,-0.3671875,0.130859375,-0.087890625,-0.029296875,-3.30078125,-1.57421875,9.03125
3006111,,,,,,,,0.1171875,-0.34375,-0.05859375,0.181640625,-0.05078125,-0.0625,-3.453125,-1.421875,9.3359375
3006112,,,,,,,,-0.07421875,-0.3515625,0.09375,0.201171875,-0.04296875,-0.083984375,-3.64453125,-1.421875,9.4921875
3006113,,,,,,,,-0.2734375,-0.3671875,0.32421875,0.224609375,-0.025390625,-0.080078125,-3.8359375,-1.421875,9.71875
3006114,,,,,,,,-0.43359375,-0.3203125,0.62890625,0.234375,-0.013671875,-0.0390625,-3.98828125,-1.34375,10.0234375
3006115,,,,,,,,-0.55078125,-0.4375,0.96484375,0.26171875,-0.013671875,-0.009765625,-4.10546875,-1.421875,10.3671875
3006116,,,,,,,,-0.51171875,-0.4453125,1.3125,0.271484375,-0.01171875,0.00390625,-4.06640625,-1.421875,10.72265625
3006117,,,,,,,,-0.3671875,-0.515625,1.5703125,0.298828125,0.00390625,0.01171875,-3.9140625,-1.4609375,10.984375
3006118,,,,,,,,-0.2421875,-0.578125,1.84765625,0.322265625,0.015625,-0.01953125,-3.796875,-1.5,11.25390625
3006119,,,,,,,,-0.2421875,-0.5234375,2.078125,0.337890625,0.06640625,-0.064453125,-3.796875,-1.421875,11.484375
3006120,36.012615833333335,129.3191855,52.782429765585825,23.94885959463221,1.3,320.0,,-0.390625,-0.33203125,2.3828125,0.36328125,0.123046875,-0.076171875,-3.953125,-1.19140625,11.79296875
3006121,,,,,,,,-0.48828125,-0.01953125,2.19140625,0.39453125,0.171875,-0.044921875,-4.06640625,-0.84765625,11.59375
3006122,,,,,,,,-0.6171875,-0.09765625,2.30859375,0.39453125,0.16796875,-0.013671875,-4.21875,-0.88671875,11.71484375
3006123,,,,,,,,-1.03125,-0.28125,2.8125,0.38671875,0.150390625,-0.00390625,-4.640625,-1.0390625,12.21484375
3006124,,,,,,,,-1.55078125,0.1015625,3.15625,0.408203125,0.154296875,0.017578125,-5.17578125,-0.6171875,12.5546875
3006125,,,,,,,,-1.84375,0.4453125,3.234375,0.45703125,0.11328125,0.09765625,-5.484375,-0.234375,12.63671875
3006126,,,,,,,,-1.95703125,0.5,3.234375,0.47265625,0.064453125,0.15625,-5.59765625,-0.15625,12.6328125
3006127,,,,,,,,-1.68359375,0.63671875,2.96484375,0.484375,-0.017578125,0.318359375,-5.33203125,0.03515625,12.36328125
3006128,,,,,,,,-1.0390625,0.53515625,2.3828125,0.490234375,-0.076171875,0.46484375,-4.6796875,-0.00390625,11.7890625
3006129,,,,,,,,-0.34765625,0.39453125,1.65625,0.421875,-0.095703125,0.49609375,-3.98828125,-0.08203125,11.0625
3006130,36.012616666666666,129.3191845,52.692279887626896,24.04132508119963,1.3,319.0,,1.06640625,-0.265625,0.453125,0.291015625,-0.0625,0.36328125,-2.57421875,-0.6953125,9.875
3006131,,,,,,,,1.671875,-0.7265625,-0.08203125,0.193359375,0.0390625,0.06640625,-1.9609375,-1.1171875,9.3359375
3006132,,,,,,,,1.49609375,-0.76171875,-0.2734375,0.099609375,0.162109375,-0.56640625,-2.15234375,-1.15234375,9.1484375
3006133,,,,,,,,1.08203125,-0.5859375,0.078125,0.068359375,0.18359375,-0.87890625,-2.57421875,-1.0,9.49609375
3006134,,,,,,,,0.71484375,-0.171875,0.390625,0.0703125,0.197265625,-1.005859375,-2.95703125,-0.6171875,9.80078125
3006135,,,,,,,,0.6640625,0.1953125,0.54296875,0.076171875,0.181640625,-0.984375,-3.03125,-0.2734375,9.94921875
3006136,,,,,,,,0.59375,0.41796875,0.74609375,0.056640625,0.138671875,-0.830078125,-3.109375,-0.08203125,10.14453125
3006137,,,,,,,,0.41015625,0.55859375,0.97265625,0.05859375,0.103515625,-0.568359375,-3.30078125,0.03515625,10.3671875
3006138,,,,,,,,-0.15625,0.87109375,1.09765625,0.044921875,0.052734375,-0.107421875,-4.06640625,0.4921875,10.44921875
3006139,,,,,,,,-0.6171875,1.1015625,0.9375,0.044921875,0.013671875,0.146484375,-4.41015625,0.45703125,10.26171875
3006140,36.012617666666664,129.31918349999998,52.6021298970015,24.152283774538375,1.3,318.0,,1.06640625,-0.265625,0.453125,0.291015625,-0.0625,0.36328125,-4.10546875,0.03515625,9.80078125
3006141,,,,,,,,0.07421875,0.11328125,0.015625,0.068359375,-0.02734375,0.34765625,-3.453125,-0.50390625,9.2578125
3006142,,,,,,,,0.265625,-0.01171875,-0.13671875,0.072265625,-0.01171875,0.291015625,-3.26171875,-0.578125,9.07421875
3006143,,,,,,,,0.46484375,-0.0625,-0.60546875,0.029296875,0.037109375,0.078125,-3.22265625,-0.42578125,8.53125
3006144,,,,,,,,0.38671875,0.12890625,-0.98828125,-0.046875,0.083984375,-0.158203125,-3.375,-0.3125,8.4140625
3006145,,,,,,,,0.05078125,0.328125,-1.21875,-0.125,0.115234375,-0.3125,-3.8359375,-0.12109375,8.07421875
3006146,,,,,,,,-0.09375,0.37890625,-1.33203125,-0.142578125,0.10546875,-0.333984375,-3.9140625,-0.08203125,7.92578125
3006147,,,,,,,,-0.125,0.40234375,-1.78515625,-0.181640625,0.06640625,-0.3359375,-3.875,-0.12109375,7.61328125
3006148,,,,,,,,0.1875,0.28125,-1.96875,-0.185546875,0.02734375,-0.28515625,-3.5703125,-0.2734375,7.42578125
3006149,,,,,,,,0.296875,0.3359375,-2.12109375,-0.193359375,0.0078125,-0.271484375,-3.453125,-0.234375,7.265625
3006150,36.01261866666667,129.31918249999998,52.511979910637294,24.263242470825258,1.4000000000000001,319.0,,0.57421875,0.3203125,-2.58203125,-0.216796875,-0.017578125,-0.244140625,-4.10546875,0.03515625,9.80078125
3006151,,,,,,,,0.79296875,0.28515625,-2.7734375,-0.25,-0.0546875,-0.216796875,-2.95703125,-0.34765625,6.62109375
3006152,,,,,,,,0.94140625,0.16796875,-2.92578125,-0.26953125,-0.064453125,-0.15234375,-2.80078125,-0.50390625,6.4609375
3006153,,,,,,,,1.546875,-0.14453125,-3.0390625,-0.259765625,-0.076171875,-0.11328125,-2.1875,-0.84765625,6.3515625
3006154,,,,,,,,1.765625,-0.2265625,-3.15625,-0.216796875,-0.05859375,-0.14453125,-1.65234375,-1.19140625,6.23828125
3006155,,,,,,,,2.21875,-0.54296875,-3.1171875,-0.19140625,-0.025390625,-0.23046875,-1.5390625,-1.34375,6.3828125
3006156,,,,,,,,1.94140625,-0.43359375,-2.54296875,-0.169921875,-0.01953125,-0.240234375,-1.8828125,-1.15234375,7.15625
3006157,,,,,,,,1.58984375,-0.2578125,-2.04296875,-0.126953125,-0.01953125,-0.119140625,-2.3828125,-0.92578125,7.7265625
3006158,,,,,,,,1.20703125,-0.05078125,-1.46875,-0.07421875,-0.03125,0.107421875,-2.609375,-0.84765625,8.03125
3006159,,,,,,,,0.89453125,-0.1640625,-1.046875,-0.017578125,-0.041015625,0.32421875,-2.7265625,-1.30859375,8.57421875
3006160,36.012619666666666,129.3191815,52.42182992836961,24.374201166441193,1.3,320.0,,0.9609375,-0.6484375,-0.6953125,-0.216796875,-0.017578125,-0.244140625,-2.765625,-1.53515625,8.7265625
3006161,,,,,,,,0.921875,-0.81640625,-0.58203125,0.15234375,-0.06640625,0.396484375,-2.80078125,-1.61328125,8.95703125
3006162,,,,,,,,0.88671875,-0.83203125,-0.42578125,0.166015625,-0.06640625,0.337890625,-2.87890625,-1.53515625,9.03125
3006163,,,,,,,,0.80859375,-0.41015625,0.21484375,0.189453125,-0.048828125,0.212890625,-2.87890625,-1.15234375,9.6015625
3006164,,,,,,,,0.5625,0.046875,0.59765625,0.2109375,-0.060546875,0.08984375,-3.109375,-0.65625,9.984375
3006165,,,,,,,,0.41015625,0.29296875,0.75390625,0.1953125,-0.05859375,0.060546875,-3.26171875,-0.38671875,10.140625
3006166,,,,,,,,0.296875,0.24609375,0.8203125,0.173828125,-0.0625,0.064453125,-3.375,-0.42578125,10.22265625
3006167,,,,,,,,0.0859375,0.109375,1.09765625,0.125,-0.0625,0.06640625,-3.5703125,-0.5390625,10.48828125
3006168,,,,,,,,0.04296875,-0.0625,1.203125,0.11328125,-0.060546875,0.06640625,-3.60546875,-0.6953125,10.60546875
3006169,,,,,,,,0.078125,-0.13671875,1.1640625,0.125,-0.068359375,0.0625,-3.5703125,-0.76953125,10.5625
3006170,36.012620500000004,129.31918050000002,52.33168005893645,24.466666659406147,1.3,320.0,,0.53125,-0.4140625,1.1953125,-0.216796875,-0.017578125,-0.244140625,-2.765625,-1.53515625,8.7265625
3006171,,,,,,,,0.83203125,-0.57421875,1.5390625,0.130859375,-0.03125,-0.126953125,-2.80078125,-1.19140625,10.9453125
3006172,,,,,,,,0.74609375,-0.390625,1.84765625,0.1171875,0.01953125,-0.23046875,-2.87890625,-1.0,11.25390625
3006173,,,,,,,,-0.171875,-0.0546875,2.27734375,0.1015625,0.04296875,-0.18359375,-3.796875,-0.65625,11.671875
3006174,,,,,,,,-0.90234375,0.015625,2.390625,0.099609375,0.021484375,0.0390625,-4.52734375,-0.578125,11.7890625
3006175,,,,,,,,-1.66015625,-0.16796875,2.421875,0.140625,-0.03125,0.666015625,-5.29296875,-0.73046875,11.83203125
3006176,,,,,,,,-1.734375,-0.9453125,2.26953125,0.21484375,-0.109375,1.037109375,-5.3671875,-1.4609375,11.671875
3006177,,,,,,,,-1.7421875,-1.8515625,2.109375,0.2734375,-0.16015625,1.20703125,-5.3671875,-2.3046875,11.5234375
3006178,,,,,,,,-1.71484375,-2.07421875,1.984375,0.310546875,-0.154296875,1.24609375,-5.33203125,-2.45703125,11.40625
3006179,,,,,,,,-1.57421875,-2.15234375,1.515625,0.3515625,-0.123046875,1.23828125,-5.17578125,-2.45703125,10.9453125
3006180,36.0126215,129.3191795,52.241530077032394,24.577625357609882,1.3,321.0,,-1.35546875,-2.296875,1.09765625,0.392578125,-0.087890625,1.111328125,-2.765625,-1.53515625,8.7265625
3006181,,,,,,,,-1.27734375,-2.453125,1.05078125,0.416015625,-0.07421875,0.96484375,-4.87109375,-2.6484375,10.48828125
3006182,,,,,,,,-0.82421875,-1.12109375,0.62890625,0.572265625,0.04296875,0.01171875,-4.41015625,-1.19140625,10.0625
3006183,,,,,,,,-1.0390625,0.26953125,0.4375,0.638671875,0.134765625,-0.630859375,-4.640625,0.26171875,9.875
3006184,,,,,,,,-1.421875,1.96484375,0.29296875,0.541015625,0.064453125,-0.8125,-5.0234375,1.98828125,9.72265625
3006185,,,,,,,,-1.453125,2.67578125,0.828125,0.462890625,0.021484375,-0.771484375,-5.0625,2.71484375,10.2578125
3006186,,,,,,,,-1.26171875,3.28125,1.1328125,0.400390625,-0.02734375,-0.69140625,-4.87109375,3.328125,10.56640625
