time,latitude,longitude,enu_x,enu_y,speed,course,ecg,accX,accY,accZ,gyrX,gyrY,gyrZ,eulR,eulP,eulY,validity
4828310,36.01344866666667,129.31954116666665,84.84464715017661,116.35966635164877,1.1,55.0,,-1.40625,-2.98828125,-0.1953125,0.1484375,0.345703125,-0.005859375,-0.44921875,-9.48046875,1.05859375,1.0
4828311,,,,,,,,-0.890625,-4.16015625,0.265625,-0.716796875,-0.109375,-0.21875,0.1640625,-13.4609375,1.9765625,1.0
4828312,,,,,,,,1.11328125,-5.1484375,0.8359375,-0.787109375,-0.35546875,-0.18359375,2.19140625,-14.4609375,2.4765625,1.0
4828313,,,,,,,,3.8203125,-5.4375,1.265625,-0.83984375,-0.498046875,-0.126953125,4.9140625,-14.76953125,2.8203125,1.0
4828314,,,,,,,,4.64453125,-2.85546875,1.921875,-0.67578125,0.04296875,-0.087890625,5.75390625,-12.1953125,3.359375,1.0
4828315,,,,,,,,2.5625,-0.78515625,2.265625,-0.146484375,0.646484375,-0.177734375,3.6875,-10.12890625,3.6640625,1.0
4828316,,,,,,,,1.7578125,-0.625,2.2890625,0.056640625,0.826171875,-0.22265625,2.8828125,-9.9765625,3.703125,1.0
4828317,,,,,,,,-0.234375,-1.09375,2.9140625,0.2578125,0.82421875,-0.28125,0.890625,-10.4375,4.3515625,1.0
4828318,,,,,,,,-1.5234375,-2.01953125,3.19140625,0.31640625,0.51171875,-0.3359375,-0.375,-11.3515625,4.66015625,1.0
4828319,,,,,,,,-1.63671875,-2.1796875,2.37890625,0.423828125,0.06640625,-0.33203125,-0.44921875,-11.51171875,3.89453125,1.0
4828320,36.013449,129.31954233333332,84.94981989888413,116.39665378570477,1.1,62.0,,-0.6328125,-0.92578125,1.2890625,0.1484375,0.345703125,-0.005859375,-0.44921875,-9.48046875,1.05859375,1.0
4828321,,,,,,,,-0.14453125,-0.2421875,1.25,0.408203125,0.125,-0.181640625,1.08203125,-9.5546875,2.859375,1.0
4828322,,,,,,,,-0.19140625,0.171875,1.140625,0.306640625,0.21484375,-0.078125,1.04296875,-9.13671875,2.78125,1.0
4828323,,,,,,,,-0.34375,0.015625,0.92578125,0.177734375,0.283203125,0.02734375,0.890625,-9.29296875,2.58984375,1.0
4828324,,,,,,,,-0.17578125,-0.3671875,0.90234375,0.044921875,0.330078125,0.09765625,1.04296875,-9.67578125,2.58984375,1.0
4828325,,,,,,,,0.1484375,-0.51953125,1.01953125,-0.0859375,0.275390625,0.12109375,1.3515625,-9.8203125,2.70703125,1.0
4828326,,,,,,,,0.30859375,-0.671875,1.05859375,-0.13671875,0.23828125,0.119140625,1.50390625,-9.9765625,2.74609375,1.0
4828327,,,,,,,,0.33203125,-0.53515625,1.00390625,-0.15625,0.208984375,0.0703125,1.50390625,-9.86328125,2.66796875,1.0
4828328,,,,,,,,0.0703125,-0.03515625,0.58203125,-0.0546875,0.24609375,0.02734375,1.234375,-9.359375,2.24609375,1.0
4828329,,,,,,,,-0.15234375,0.73046875,0.16015625,0.037109375,0.27734375,-0.0234375,1.00390625,-8.59765625,1.82421875,1.0
4828330,36.013449666666666,129.31954349999998,85.05499228831084,116.47062763590642,1.1,59.0,,-0.265625,1.34375,-0.12890625,0.080078125,0.296875,-0.0546875,-0.44921875,-9.48046875,1.05859375,1.0
4828331,,,,,,,,-0.40234375,1.95703125,-0.4609375,0.09375,0.359375,-0.041015625,0.73828125,-7.37109375,1.25,1.0
4828332,,,,,,,,-0.48046875,2.22265625,-0.58203125,0.103515625,0.392578125,-0.03125,0.66015625,-7.10546875,1.13671875,1.0
4828333,,,,,,,,-0.44140625,2.60546875,-0.74609375,0.107421875,0.4453125,-0.025390625,0.69921875,-6.71875,0.98046875,1.0
4828334,,,,,,,,-0.39453125,2.63671875,-0.796875,0.095703125,0.470703125,-0.021484375,0.73828125,-6.6796875,0.9453125,1.0
4828335,,,,,,,,-0.15625,2.7890625,-0.8515625,0.08984375,0.49609375,-0.0234375,0.96875,-6.53125,0.90625,1.0
4828336,,,,,,,,0.109375,2.75390625,-0.859375,0.083984375,0.501953125,-0.037109375,1.234375,-6.56640625,0.90625,1.0
4828337,,,,,,,,0.15625,2.71484375,-0.80078125,0.072265625,0.505859375,-0.041015625,1.2734375,-6.6015625,0.98046875,1.0
4828338,,,,,,,,0.6640625,2.484375,-0.77734375,0.04296875,0.53125,-0.07421875,1.7734375,-6.83984375,1.01953125,1.0
4828339,,,,,,,,0.73828125,2.40625,-0.78515625,0.029296875,0.53125,-0.0859375,1.84765625,-6.9140625,1.01953125,1.0
4828340,36.01345,129.3195445,85.14514030761154,116.50761492615588,1.1,61.0,,0.78515625,2.37109375,-0.63671875,0.046875,0.5546875,-0.1484375,-0.44921875,-9.48046875,1.05859375,1.0
4828341,,,,,,,,0.625,2.0546875,-0.65234375,0.083984375,0.572265625,-0.177734375,1.734375,-7.26171875,1.17578125,1.0
4828342,,,,,,,,0.34765625,2.0859375,-0.82421875,0.134765625,0.564453125,-0.2109375,1.46484375,-7.21875,1.01953125,1.0
4828343,,,,,,,,0.109375,2.0390625,-1.0703125,0.15625,0.56640625,-0.23046875,1.234375,-7.26171875,0.7890625,1.0
4828344,,,,,,,,-0.01953125,1.83984375,-1.20703125,0.13671875,0.57421875,-0.23046875,1.12109375,-7.4453125,0.67578125,1.0
4828345,,,,,,,,-0.06640625,1.45703125,-1.14453125,0.119140625,0.587890625,-0.220703125,1.08203125,-7.828125,0.75390625,1.0
4828346,,,,,,,,-0.02734375,1.3046875,-1.15234375,0.1015625,0.58984375,-0.20703125,1.12109375,-7.984375,0.75390625,1.0
4828347,,,,,,,,0.15625,0.828125,-1.1015625,0.0859375,0.59375,-0.193359375,1.3125,-8.44921875,0.828125,1.0
4828348,,,,,,,,0.34765625,0.515625,-1.03125,0.08203125,0.6015625,-0.177734375,1.50390625,-8.75,0.90625,1.0
4828349,,,,,,,,0.4921875,0.0546875,-0.93359375,0.07421875,0.60546875,-0.16796875,1.65625,-9.21484375,1.01953125,1.0
4828350,36.01345033333334,129.31954566666667,85.25031305304589,116.54460236278148,1.1,63.0,,0.453125,-0.09765625,-0.7578125,0.06640625,0.609375,-0.171875,1.6171875,-9.359375,1.2109375,1.0
4828351,,,,,,,,0.26171875,-0.18359375,-0.6171875,0.068359375,0.6484375,-0.169921875,1.42578125,-9.44140625,1.3671875,1.0
4828352,,,,,,,,0.1484375,-0.19140625,-0.48828125,0.087890625,0.654296875,-0.15234375,1.3125,-9.4375,1.51953125,1.0
4828353,,,,,,,,0.1015625,-0.3125,-0.421875,0.091796875,0.611328125,-0.1328125,1.2734375,-9.5546875,1.59375,1.0
4828354,,,,,,,,0.140625,-0.359375,-0.47265625,0.068359375,0.5625,-0.115234375,1.3125,-9.59375,1.55859375,1.0
4828355,,,,,,,,0.1015625,-0.3203125,-0.453125,0.033203125,0.541015625,-0.099609375,1.2734375,-9.5546875,1.59375,1.0
4828356,,,,,,,,0.1015625,-0.28125,-0.375,0.001953125,0.5390625,-0.083984375,1.2734375,-9.51953125,1.671875,1.0
4828357,,,,,,,,0.03515625,-0.24609375,-0.4609375,-0.0546875,0.517578125,-0.048828125,1.19921875,-9.48046875,1.59375,1.0
4828358,,,,,,,,0.078125,-0.21484375,-0.64453125,-0.134765625,0.45703125,-0.03125,1.234375,-9.44140625,1.40234375,1.0
4828359,,,,,,,,0.1640625,-0.28125,-0.75,-0.220703125,0.3828125,-0.0234375,1.3125,-9.51953125,1.2890625,1.0
4828360,36.01345083333333,129.31954683333333,85.35548561581028,116.60008300857355,1.1,63.0,,0.36328125,-0.58984375,-0.7265625,-0.318359375,0.314453125,-0.021484375,1.50390625,-9.8203125,1.2890625,1.0
4828361,,,,,,,,0.44921875,-0.765625,-0.6171875,-0.431640625,0.283203125,-0.025390625,1.58203125,-10.01953125,1.3671875,1.0
4828362,,,,,,,,0.6015625,-0.99609375,-0.2890625,-0.484375,0.275390625,-0.029296875,1.734375,-10.24609375,1.671875,1.0
4828363,,,,,,,,0.75390625,-1.75390625,-0.15625,-0.556640625,0.31640625,-0.0234375,1.88671875,-11.01171875,1.75,1.0
4828364,,,,,,,,0.75390625,-2.359375,-0.1796875,-0.60546875,0.3359375,-0.01171875,1.88671875,-11.62890625,1.7109375,1.0
4828365,,,,,,,,0.6484375,-4.03515625,-0.203125,-0.712890625,0.33203125,0.021484375,1.7734375,-13.3046875,1.6328125,1.0
4828366,,,,,,,,0.5,-3.984375,0.48046875,-0.787109375,0.310546875,0.0390625,1.6171875,-13.27734375,2.24609375,1.0
4828367,,,,,,,,0.125,-3.09375,1.36328125,-0.775390625,0.34375,0.0390625,1.234375,-12.39453125,3.08984375,1.0
4828368,,,,,,,,-0.35546875,-2.80859375,1.86328125,-0.53125,0.572265625,0.021484375,0.73828125,-12.1171875,3.51171875,1.0
4828369,,,,,,,,-0.83984375,-3.953125,1.09765625,-0.482421875,0.572265625,0.06640625,0.23828125,-13.2734375,2.70703125,1.0
4828370,36.01345116666666,129.31954816666666,85.47568308777277,116.63707059390816,1.1,64.0,,-0.9296875,-2.171875,2.0859375,-0.318359375,0.314453125,-0.021484375,1.50390625,-9.8203125,1.2890625,1.0
4828371,,,,,,,,-1.0390625,-0.55859375,1.734375,-0.15234375,0.53515625,0.02734375,0.0078125,-9.8984375,3.2421875,1.0
4828372,,,,,,,,-0.953125,-0.48046875,1.3828125,-0.01171875,0.6328125,0.03125,0.0859375,-9.82421875,2.8984375,1.0
4828373,,,,,,,,-0.4765625,-1.0078125,1.52734375,-0.078125,0.66015625,0.029296875,0.546875,-10.36328125,3.05078125,1.0
4828374,,,,,,,,0.49609375,-2.11328125,2.03515625,-0.16015625,0.671875,-0.005859375,1.50390625,-11.46875,3.55078125,1.0
4828375,,,,,,,,1.0390625,-2.5703125,2.26953125,-0.169921875,0.72265625,-0.048828125,2.0390625,-11.9296875,3.77734375,1.0
4828376,,,,,,,,1.1640625,-2.5703125,2.31640625,-0.095703125,0.830078125,-0.08203125,2.15625,-11.93359375,3.81640625,1.0
4828377,,,,,,,,0.78125,-1.94921875,2.30859375,0.0546875,0.951171875,-0.126953125,1.7734375,-11.3125,3.81640625,1.0
4828378,,,,,,,,0.01171875,-0.6171875,1.94140625,0.21484375,1.037109375,-0.1875,1.00390625,-9.9765625,3.47265625,1.0
4828379,,,,,,,,-0.5234375,-0.04296875,1.6328125,0.30859375,1.076171875,-0.236328125,0.46875,-9.3984375,3.203125,1.0
4828380,36.01345166666667,129.31954933333333,85.58085565021119,116.69255124351005,1.2000000000000002,62.0,,-0.875,0.140625,1.44140625,-0.318359375,0.314453125,-0.021484375,1.50390625,-9.8203125,1.2890625,1.0
4828381,,,,,,,,-1.2578125,0.28515625,1.06640625,0.232421875,1.001953125,-0.259765625,-0.2578125,-9.05859375,2.70703125,1.0
4828382,,,,,,,,-1.234375,0.36328125,0.703125,0.1640625,0.916015625,-0.26171875,-0.21875,-8.98046875,2.3984375,1.0
4828383,,,,,,,,-1.2734375,0.4375,0.62109375,0.14453125,0.88671875,-0.265625,-0.2578125,-8.91015625,2.32421875,1.0
4828384,,,,,,,,-1.25,0.9375,0.234375,0.12109375,0.8359375,-0.25,-0.21875,-8.40625,1.9765625,1.0
4828385,,,,,,,,-1.2578125,1.3125,0.01953125,0.12890625,0.80078125,-0.244140625,-0.21875,-8.0234375,1.78515625,1.0
4828386,,,,,,,,-1.23046875,1.83984375,-0.26171875,0.119140625,0.767578125,-0.2421875,-0.18359375,-7.48828125,1.51953125,1.0
4828387,,,,,,,,-1.16796875,2.1796875,-0.4296875,0.1015625,0.73046875,-0.259765625,-0.10546875,-7.140625,1.3671875,1.0
4828388,,,,,,,,-1.08984375,2.37890625,-0.6015625,0.087890625,0.705078125,-0.271484375,-0.02734375,-6.9453125,1.2109375,1.0
4828389,,,,,,,,-0.984375,2.5234375,-0.69140625,0.052734375,0.681640625,-0.296875,0.0859375,-6.796875,1.13671875,1.0
4828390,36.013451833333335,129.31955033333332,85.67100384301425,116.71104533033234,1.1,64.0,,-1.0,2.484375,-0.73828125,-0.318359375,0.314453125,-0.021484375,0.0859375,-6.83984375,1.09765625,1.0
4828391,,,,,,,,-1.14453125,2.32421875,-0.87109375,0.005859375,0.62109375,-0.3203125,-0.02734375,-6.984375,0.98046875,1.0
4828392,,,,,,,,-1.4375,2.09375,-1.0,0.02734375,0.62890625,-0.302734375,-0.296875,-7.22265625,0.8671875,1.0
4828393,,,,,,,,-1.56640625,1.85546875,-1.046875,0.029296875,0.619140625,-0.28515625,-0.41015625,-7.4453125,0.828125,1.0
4828394,,,,,,,,-1.65234375,1.7421875,-1.0546875,0.021484375,0.583984375,-0.265625,-0.48828125,-7.5625,0.828125,1.0
4828395,,,,,,,,-1.70703125,1.5703125,-1.109375,0.033203125,0.5546875,-0.240234375,-0.52734375,-7.71875,0.7890625,1.0
4828396,,,,,,,,-1.70703125,1.49609375,-1.0859375,0.037109375,0.517578125,-0.216796875,-0.52734375,-7.79296875,0.828125,1.0
4828397,,,,,,,,-1.64453125,1.3046875,-1.09375,0.02734375,0.48828125,-0.19921875,-0.44921875,-7.984375,0.828125,1.0
4828398,,,,,,,,-1.64453125,1.265625,-1.09375,0.029296875,0.470703125,-0.1953125,-0.44921875,-8.02734375,0.828125,1.0
4828399,,,,,,,,-1.578125,1.265625,-1.140625,0.029296875,0.447265625,-0.189453125,-0.375,-8.0234375,0.7890625,1.0
4828400,36.01345233333333,129.31955166666665,85.79120113158967,116.76652612869499,1.1,68.0,0.0,-1.5390625,1.2578125,-1.1015625,-0.318359375,0.314453125,-0.021484375,-0.3359375,-8.0234375,0.828125,1.0
4828401,,,,,,,,-1.5078125,1.13671875,-1.0703125,0.048828125,0.3984375,-0.193359375,-0.296875,-8.13671875,0.8671875,1.0
4828402,,,,,,,,-1.5234375,0.98046875,-1.125,0.0546875,0.353515625,-0.1953125,-0.296875,-8.29296875,0.828125,1.0
4828403,,,,,,,,-1.5703125,0.70703125,-1.0859375,0.0546875,0.333984375,-0.189453125,-0.3359375,-8.55859375,0.8671875,1.0
4828404,,,,,,,,-1.609375,0.58203125,-1.0546875,0.078125,0.3203125,-0.185546875,-0.375,-8.67578125,0.90625,1.0
4828405,,,,,,,,-1.35546875,0.54296875,-1.078125,0.09375,0.255859375,-0.185546875,-0.10546875,-8.71484375,0.90625,1.0
4828406,,,,,,,,-1.44921875,0.34375,-1.01953125,0.103515625,0.216796875,-0.193359375,-0.18359375,-8.91015625,0.98046875,1.0
4828407,,,,,,,,-1.67578125,0.0703125,-0.7578125,0.091796875,0.189453125,-0.205078125,-0.41015625,-9.17578125,1.25,1.0
4828408,,,,,,,,-1.86328125,-0.24609375,-0.58203125,0.087890625,0.130859375,-0.197265625,-0.56640625,-9.4765625,1.44140625,1.0
4828409,,,,,,,,-1.9765625,-0.4453125,-0.58203125,0.083984375,0.068359375,-0.1953125,-0.6796875,-9.67578125,1.44140625,1.0
4828410,36.0134525,129.31955283333335,85.89637405462288,116.78502036385913,1.1,71.0,,-1.88671875,-0.4453125,-0.58984375,-0.318359375,0.314453125,-0.021484375,-0.56640625,-9.67578125,1.44140625,1.0
4828411,,,,,,,,-1.6640625,-0.67578125,-0.59765625,0.017578125,-0.068359375,-0.181640625,-0.3359375,-9.8984375,1.44140625,1.0
4828412,,,,,,,,-1.44140625,-0.875,-0.51171875,-0.0546875,-0.125,-0.1796875,-0.10546875,-10.09765625,1.51953125,1.0
4828413,,,,,,,,-1.12109375,-1.06640625,-0.65625,-0.134765625,-0.171875,-0.171875,0.23828125,-10.28515625,1.3671875,1.0
4828414,,,,,,,,-0.68359375,-1.06640625,-0.80859375,-0.267578125,-0.220703125,-0.177734375,0.69921875,-10.28125,1.17578125,1.0
4828415,,,,,,,,-0.35546875,-0.94921875,-0.97265625,-0.34765625,-0.2109375,-0.189453125,1.04296875,-10.1640625,0.98046875,1.0
4828416,,,,,,,,-0.29296875,-0.91015625,-0.95703125,-0.3828125,-0.193359375,-0.19921875,1.12109375,-10.125,0.98046875,1.0
4828417,,,,,,,,-0.22265625,-0.78125,-0.83203125,-0.46875,-0.1484375,-0.193359375,1.19921875,-10.015625,1.05859375,1.0
4828418,,,,,,,,-0.27734375,-0.55078125,-0.82421875,-0.544921875,-0.111328125,-0.18359375,1.16015625,-9.78515625,1.01953125,1.0
4828419,,,,,,,,-0.83984375,-0.3984375,-0.66015625,-0.57421875,-0.068359375,-0.1796875,0.62109375,-9.63671875,1.13671875,1.0
4828420,36.0134525,129.31955416666668,86.01657188403736,116.78502153994506,1.1,79.0,,-1.19140625,-0.95703125,-0.67578125,-0.318359375,0.314453125,-0.021484375,0.27734375,-10.20703125,1.05859375,1.0
4828421,,,,,,,,-1.25390625,-2.13671875,-0.4609375,-0.703125,-0.08984375,-0.16015625,0.23828125,-11.390625,1.2109375,1.0
4828422,,,,,,,,-1.0234375,-2.3984375,-0.3828125,-0.771484375,-0.158203125,-0.150390625,0.46875,-11.66796875,1.25,1.0
4828423,,,,,,,,-0.33984375,-2.609375,0.1171875,-0.861328125,-0.283203125,-0.119140625,1.16015625,-11.89453125,1.671875,1.0
4828424,,,,,,,,0.03515625,-2.6875,0.5078125,-0.884765625,-0.32421875,-0.111328125,1.54296875,-11.96875,2.015625,1.0
4828425,,,,,,,,1.51171875,-3.515625,1.0234375,-0.90625,-0.353515625,-0.0703125,3.03515625,-12.8125,2.4375,1.0
4828426,,,,,,,,2.69921875,-4.38671875,1.15625,-0.9765625,-0.25,-0.0546875,4.22265625,-13.69140625,2.4765625,1.0
4828427,,,,,,,,3.87890625,-4.1953125,1.38671875,-1.001953125,-0.150390625,-0.048828125,5.41015625,-13.5,2.66796875,1.0
4828428,,,,,,,,4.22265625,-2.06640625,2.0859375,-0.63671875,0.23046875,-0.103515625,5.75390625,-11.39453125,3.2421875,1.0
4828429,,,,,,,,2.65234375,-1.1484375,2.0703125,-0.41015625,0.375,-0.138671875,4.18359375,-10.48046875,3.203125,1.0
4828430,36.01345233333333,129.31955566666664,86.15179462101335,116.7665296578,1.2000000000000002,87.0,,-0.44140625,-2.48046875,2.9609375,-0.318359375,0.314453125,-0.021484375,0.27734375,-10.20703125,1.05859375,1.0
4828431,,,,,,,,-1.0703125,-2.86328125,3.2109375,0.16796875,0.244140625,-0.234375,0.5078125,-12.1953125,4.3515625,1.0
4828432,,,,,,,,-0.93359375,-2.44921875,2.8125,0.298828125,0.12890625,-0.18359375,0.66015625,-11.77734375,3.96875,1.0
4828433,,,,,,,,0.0546875,-1.078125,1.86328125,0.384765625,0.134765625,-0.08203125,1.65625,-10.40234375,3.05078125,1.0
4828434,,,,,,,,0.25390625,-0.3125,1.6640625,0.37890625,0.28125,0.02734375,1.84765625,-9.63671875,2.8984375,1.0
4828435,,,,,,,,-0.234375,0.33984375,1.6640625,0.306640625,0.4296875,0.134765625,1.3515625,-8.9765625,2.9375,1.0
4828436,,,,,,,,-0.296875,0.4140625,1.53125,0.26171875,0.458984375,0.189453125,1.2734375,-8.91015625,2.8203125,1.0
4828437,,,,,,,,-0.1875,0.33984375,1.15625,0.15234375,0.40625,0.255859375,1.3515625,-8.9765625,2.4765625,1.0
4828438,,,,,,,,0.37109375,-0.07421875,0.87109375,0.0234375,0.294921875,0.27734375,1.88671875,-9.40234375,2.20703125,1.0
4828439,,,,,,,,0.5546875,-0.2578125,1.02734375,-0.07421875,0.240234375,0.2734375,2.0390625,-9.59765625,2.36328125,1.0
4828440,36.01345233333333,129.31955699999997,86.27199245049641,116.76653083739194,1.2000000000000002,88.0,,0.35546875,-0.09765625,1.0625,-0.076171875,0.2578125,0.255859375,1.80859375,-9.4375,2.3984375,1.0
4828441,,,,,,,,-0.1171875,0.67578125,0.6796875,-0.00390625,0.314453125,0.23828125,1.3125,-8.671875,2.015625,1.0
4828442,,,,,,,,-0.19921875,0.875,0.51953125,0.080078125,0.357421875,0.19921875,1.04296875,-8.06640625,1.59375,1.0
4828443,,,,,,,,-0.32421875,1.60546875,0.03515625,0.064453125,0.353515625,0.19140625,1.00390625,-7.6015625,1.3671875,1.0
4828444,,,,,,,,-0.25390625,2.02734375,-0.19921875,0.029296875,0.353515625,0.177734375,1.12109375,-7.296875,1.13671875,1.0
4828445,,,,,,,,-0.19140625,2.109375,-0.28515625,0.009765625,0.373046875,0.16796875,1.16015625,-7.140625,1.09765625,1.0
4828446,,,,,,,,-0.0546875,2.41796875,-0.4453125,-0.005859375,0.392578125,0.158203125,1.3125,-6.91796875,0.9453125,1.0
4828447,,,,,,,,0.0390625,2.5390625,-0.453125,-0.001953125,0.421875,0.146484375,1.390625,-6.83984375,0.90625,1.0
4828448,,,,,,,,0.21484375,2.5390625,-0.5390625,0.001953125,0.427734375,0.130859375,1.54296875,-6.875,0.8671875,1.0
4828449,,,,,,,,0.35546875,2.5,-0.578125,0.01171875,0.423828125,0.107421875,1.65625,-7.1015625,0.75390625,1.0
4828450,36.013451833333335,129.31955816666667,86.37716609936818,116.71105224532235,1.1,91.0,,0.35546875,-0.09765625,1.0625,0.017578125,0.41796875,0.09375,1.6953125,-7.1796875,0.59765625,1.0
4828451,,,,,,,,0.5390625,2.1171875,-0.82421875,0.0078125,0.435546875,0.072265625,1.734375,-7.2578125,0.59765625,1.0
4828452,,,,,,,,0.59375,1.96484375,-0.82421875,0.013671875,0.458984375,0.05078125,1.7734375,-7.41015625,0.59765625,1.0
4828453,,,,,,,,0.63671875,1.96484375,-0.75390625,0.013671875,0.466796875,0.029296875,1.80859375,-7.40625,0.67578125,1.0
4828454,,,,,,,,0.64453125,1.7734375,-0.76171875,0.033203125,0.486328125,0.0078125,1.80859375,-7.60546875,0.67578125,1.0
4828455,,,,,,,,0.546875,1.6953125,-0.76953125,0.0390625,0.5,-0.0234375,1.6953125,-7.68359375,0.67578125,1.0
4828456,,,,,,,,0.4765625,1.62890625,-0.86328125,0.076171875,0.525390625,-0.03515625,1.6171875,-7.75390625,0.59765625,1.0
4828457,,,,,,,,0.41015625,1.50390625,-0.953125,0.095703125,0.552734375,-0.04296875,1.54296875,-7.87109375,0.5234375,1.0
4828458,,,,,,,,0.37109375,1.421875,-0.9609375,0.111328125,0.556640625,-0.05078125,1.50390625,-7.9453125,0.5234375,1.0
4828459,,,,,,,,0.41796875,1.23046875,-1.03125,0.111328125,0.56640625,-0.052734375,1.54296875,-8.1328125,0.484375,1.0
4828460,36.013451833333335,129.31955933333333,86.4823392013109,116.71105328023171,1.0,93.0,,0.4921875,0.953125,-1.0390625,0.017578125,0.41796875,0.09375,1.6171875,-8.41015625,0.484375,1.0
4828461,,,,,,,,0.5,0.4921875,-1.03125,0.1171875,0.607421875,-0.01953125,1.6171875,-8.87109375,0.5234375,1.0
4828462,,,,,,,,0.40234375,0.21875,-0.89453125,0.1015625,0.6328125,-0.009765625,1.50390625,-9.1328125,0.67578125,1.0
4828463,,,,,,,,0.32421875,0.1796875,-0.7890625,0.08984375,0.64453125,-0.001953125,1.42578125,-9.171875,0.7890625,1.0
4828464,,,,,,,,0.07421875,0.2109375,-0.53515625,0.111328125,0.677734375,0.00390625,1.16015625,-9.1328125,1.05859375,1.0
4828465,,,,,,,,-0.109375,0.1328125,-0.359375,0.13671875,0.70703125,0.015625,0.96875,-9.2109375,1.25,1.0
4828466,,,,,,,,-0.35546875,-0.25,-0.08203125,0.15234375,0.62890625,0.03125,0.69921875,-9.59765625,1.55859375,1.0
4828467,,,,,,,,-0.37890625,-0.3359375,-0.10546875,0.162109375,0.529296875,0.033203125,0.66015625,-9.67578125,1.55859375,1.0
4828468,,,,,,,,-0.1875,-0.37109375,-0.19921875,0.16796875,0.5,0.037109375,0.8515625,-9.703125,1.48046875,1.0
4828469,,,,,,,,-0.09375,-0.37890625,-0.25390625,0.13671875,0.474609375,0.041015625,0.9296875,-9.70703125,1.44140625,1.0
4828470,36.01345166666667,129.3195606666667,86.60253721654823,116.69256125627265,1.1,93.0,,-0.078125,-0.3046875,-0.19140625,0.078125,0.498046875,0.0625,0.9296875,-9.63671875,1.51953125,1.0
4828471,,,,,,,,0.11328125,-0.41015625,-0.31640625,-0.15234375,0.416015625,0.0859375,1.08203125,-9.74609375,1.40234375,1.0
4828472,,,,,,,,0.19921875,-0.48828125,-0.40625,-0.2578125,0.349609375,0.0703125,1.16015625,-9.8203125,1.2890625,1.0
4828473,,,,,,,,0.3671875,-0.41796875,-0.49609375,-0.359375,0.298828125,0.05078125,1.3125,-9.74609375,1.17578125,1.0
4828474,,,,,,,,0.453125,-0.296875,-0.51171875,-0.38671875,0.2890625,0.046875,1.390625,-9.6328125,1.13671875,1.0
4828475,,,,,,,,0.65234375,-0.09765625,-0.59765625,-0.46875,0.31640625,0.046875,1.58203125,-9.4375,1.01953125,1.0
4828476,,,,,,,,0.92578125,-0.85546875,-0.50390625,-0.5703125,0.376953125,0.0625,1.84765625,-10.20703125,1.05859375,1.0
4828477,,,,,,,,1.01171875,-1.30859375,-0.48046875,-0.634765625,0.408203125,0.064453125,1.92578125,-10.6640625,1.05859375,1.0
4828478,,,,,,,,1.02734375,-2.296875,-0.49609375,-0.79296875,0.447265625,0.064453125,1.92578125,-11.66796875,0.98046875,1.0
4828479,,,,,,,,1.03515625,-2.6328125,-0.45703125,-0.8671875,0.435546875,0.0703125,1.92578125,-12.01171875,0.98046875,1.0
4828480,36.01345166666667,129.31956200000002,86.72273504731434,116.69256244197084,1.1,92.0,,0.7734375,-2.30859375,0.0078125,-0.9375,0.3671875,0.05078125,1.65625,-11.6953125,1.3671875,1.0
4828481,,,,,,,,0.20703125,-1.7265625,0.62109375,-0.841796875,0.43359375,0.001953125,1.08203125,-11.12890625,1.90234375,1.0
4828482,,,,,,,,0.015625,-2.06640625,0.8125,-0.76953125,0.521484375,-0.025390625,0.890625,-11.47265625,2.0546875,1.0
4828483,,,,,,,,-0.4375,-3.859375,0.90625,-0.783203125,0.572265625,-0.01171875,0.4296875,-13.2734375,2.0546875,1.0
4828484,,,,,,,,-0.62109375,-4.26171875,1.484375,-0.830078125,0.453125,-0.01953125,0.23828125,-13.69140625,2.5546875,1.0
4828485,,,,,,,,-0.734375,-2.80078125,1.890625,-0.591796875,0.4921875,-0.0234375,0.125,-12.23828125,2.8984375,1.0
4828486,,,,,,,,-0.7734375,-2.1484375,1.8359375,-0.3671875,0.5546875,-0.025390625,0.0859375,-11.58984375,2.8203125,1.0
4828487,,,,,,,,-0.61328125,-1.3828125,1.69140625,-0.044921875,0.71875,-0.021484375,0.23828125,-10.8203125,2.66796875,1.0
4828488,,,,,,,,-0.19140625,-1.8359375,2.03515625,-0.025390625,0.91015625,0.01171875,0.96875,-11.55078125,3.2421875,1.0
4828489,,,,,,,,0.125,-2.1015625,2.2578125,-0.04296875,0.9609375,0.0078125,1.58203125,-11.73828125,3.5859375,1.0
4828490,36.013451499999995,129.31956316666668,86.82790833232491,116.67407027167785,1.1,95.0,,0.7734375,-2.30859375,0.0078125,-0.9375,0.3671875,0.05078125,2.19140625,-11.6953125,3.55078125,1.0
4828491,,,,,,,,1.37109375,-2.0625,2.46484375,0.20703125,1.232421875,-0.126953125,2.0390625,-11.28515625,3.39453125,1.0
4828492,,,,,,,,1.21875,-1.8359375,2.37109375,0.26171875,1.240234375,-0.171875,1.96484375,-10.96875,3.28125,1.0
4828493,,,,,,,,0.60546875,-0.953125,1.98828125,0.3515625,1.23828125,-0.283203125,1.12109375,-10.12890625,3.01171875,1.0
4828494,,,,,,,,0.015625,-0.45703125,1.87109375,0.36328125,1.1953125,-0.359375,0.35546875,-9.78515625,2.8984375,1.0
4828495,,,,,,,,-1.125,-0.1953125,1.6171875,0.31640625,1.1015625,-0.396484375,-0.2578125,-9.63671875,2.78125,1.0
4828496,,,,,,,,-1.53125,-0.125,1.2265625,0.2265625,0.9921875,-0.40625,-0.640625,-9.5546875,2.4375,1.0
4828497,,,,,,,,-1.59375,0.2109375,0.56640625,0.142578125,0.85546875,-0.373046875,-0.640625,-9.2109375,1.82421875,1.0
4828498,,,,,,,,-1.53515625,0.74609375,0.23828125,0.12109375,0.849609375,-0.330078125,-0.56640625,-8.671875,1.51953125,1.0
4828499,,,,,,,,-1.3203125,1.0859375,0.078125,0.11328125,0.857421875,-0.306640625,-0.3359375,-8.328125,1.3671875,1.0
4828500,36.013451333333336,129.31956416666665,86.91805688602456,116.65557795544679,1.1,95.0,0.0,-1.09765625,1.4375,-0.1015625,-0.9375,0.3671875,0.05078125,-0.10546875,-7.984375,1.2109375,1.0
4828501,,,,,,,,-0.69140625,1.6953125,-0.19140625,0.078125,0.884765625,-0.25390625,0.31640625,-7.71875,1.13671875,1.0
4828502,,,,,,,,-0.515625,1.99609375,-0.30078125,0.03125,0.814453125,-0.27734375,0.5078125,-7.41015625,1.05859375,1.0
4828503,,,,,,,,-0.53125,2.1875,-0.38671875,0.04296875,0.748046875,-0.296875,0.5078125,-7.22265625,0.98046875,1.0
4828504,,,,,,,,-0.625,2.265625,-0.5546875,0.080078125,0.72265625,-0.322265625,0.4296875,-7.140625,0.828125,1.0
4828505,,,,,,,,-0.83984375,2.06640625,-0.609375,0.103515625,0.72265625,-0.33203125,0.23828125,-7.33203125,0.7890625,1.0
4828506,,,,,,,,-1.23828125,1.8359375,-0.625,0.1171875,0.71875,-0.328125,-0.14453125,-7.5625,0.7890625,1.0
4828507,,,,,,,,-1.64453125,1.75,-0.53125,0.134765625,0.6953125,-0.314453125,-0.52734375,-7.64453125,0.90625,1.0
4828508,,,,,,,,-1.7265625,1.703125,-0.5390625,0.15625,0.681640625,-0.3046875,-0.6015625,-7.68359375,0.90625,1.0
4828509,,,,,,,,-1.92578125,1.62890625,-0.609375,0.220703125,0.6484375,-0.283203125,-0.79296875,-7.75390625,0.8671875,1.0
4828510,36.013451333333336,129.3195655,87.03825472000541,116.6555791456132,1.0,93.0,,-2.07421875,1.62109375,-0.77734375,0.26171875,0.60546875,-0.22265625,-0.91015625,-7.75,0.75390625,1.0
4828511,,,,,,,,-2.07421875,1.4140625,-0.7734375,0.2734375,0.57421875,-0.1875,-0.91015625,-7.9453125,0.7890625,1.0
4828512,,,,,,,,-2.04296875,1.296875,-0.7890625,0.267578125,0.548828125,-0.16796875,-0.87109375,-8.06640625,0.7890625,1.0
4828513,,,,,,,,-2.00390625,1.17578125,-0.703125,0.23828125,0.486328125,-0.140625,-0.83203125,-8.17578125,0.90625,1.0
4828514,,,,,,,,-1.9375,1.09765625,-0.63671875,0.23046875,0.451171875,-0.125,-0.7578125,-8.25390625,0.98046875,1.0
4828515,,,,,,,,-1.74609375,1.25,-0.47265625,0.23828125,0.373046875,-0.099609375,-0.56640625,-8.1015625,1.17578125,1.0
4828516,,,,,,,,-1.69921875,1.6171875,-0.59765625,0.345703125,0.34375,-0.078125,-0.52734375,-7.72265625,1.09765625,1.0
4828517,,,,,,,,-1.70703125,1.6484375,-0.65234375,0.37109375,0.345703125,-0.076171875,-0.52734375,-7.68359375,1.05859375,1.0
4828518,,,,,,,,-1.69921875,1.52734375,-0.8828125,0.373046875,0.349609375,-0.072265625,-0.52734375,-7.79296875,0.8671875,1.0
4828519,,,,,,,,-1.5546875,1.48828125,-0.9453125,0.3515625,0.3359375,-0.068359375,-0.375,-7.83203125,0.828125,1.0
4828520,36.013451,129.31956666666667,87.14342818929495,116.61859377146352,1.1,99.0,,-1.35546875,1.08984375,-0.8828125,0.1875,0.2421875,-0.091796875,-0.18359375,-8.21484375,0.9453125,1.0
4828521,,,,,,,,-1.19921875,0.77734375,-0.74609375,0.123046875,0.19921875,-0.103515625,-0.02734375,-8.515625,1.09765625,1.0
4828522,,,,,,,,-1.171875,0.61328125,-0.6484375,0.064453125,0.19921875,-0.123046875,0.0078125,-8.67578125,1.2109375,1.0
4828523,,,,,,,,-1.171875,0.4609375,-0.609375,0.03515625,0.197265625,-0.130859375,0.0078125,-8.828125,1.25,1.0
4828524,,,,,,,,-1.21484375,0.26171875,-0.5,0.0078125,0.185546875,-0.15234375,-0.02734375,-9.01953125,1.3671875,1.0
4828525,,,,,,,,-1.26171875,-0.16015625,-0.5390625,-0.03515625,0.16796875,-0.16796875,-0.06640625,-9.44140625,1.328125,1.0
4828526,,,,,,,,-1.1953125,-0.765625,-0.5,-0.078125,0.15625,-0.181640625,0.0078125,-10.05859375,1.3671875,1.0
4828527,,,,,,,,-1.2109375,-1.38671875,-0.32421875,-0.15625,0.130859375,-0.19140625,0.0078125,-10.66796875,1.51953125,1.0
4828528,,,,,,,,-1.1796875,-1.5390625,-0.35546875,-0.177734375,0.123046875,-0.1953125,0.046875,-10.8203125,1.48046875,1.0
4828529,,,,,,,,-0.88671875,-1.62109375,-0.26171875,-0.21875,0.099609375,-0.201171875,0.35546875,-10.89453125,1.55859375,1.0
4828530,36.0134505,129.31956766666664,87.233577110043,116.56311504056366,1.0,106.0,,-1.35546875,1.08984375,-0.8828125,-0.244140625,0.09765625,-0.224609375,0.5859375,-10.82421875,1.44140625,1.0
4828531,,,,,,,,-0.421875,-1.38671875,-0.53125,-0.275390625,0.1328125,-0.224609375,1.00390625,-10.546875,1.2890625,1.0
4828532,,,,,,,,-0.19921875,-1.15625,-0.546875,-0.3125,0.1796875,-0.23046875,1.12109375,-10.09375,1.2109375,1.0
4828533,,,,,,,,-0.26171875,-0.6953125,-0.4375,-0.33984375,0.244140625,-0.2421875,0.890625,-9.82421875,1.328125,1.0
4828534,,,,,,,,-0.61328125,-0.41796875,-0.375,-0.353515625,0.29296875,-0.2578125,0.203125,-9.59375,1.3671875,1.0
4828535,,,,,,,,-1.36328125,-0.265625,-0.34375,-0.404296875,0.291015625,-0.255859375,-0.296875,-9.5546875,1.328125,1.0
4828536,,,,,,,,-1.6328125,-0.265625,-0.328125,-0.4453125,0.275390625,-0.255859375,-0.52734375,-10.05859375,1.01953125,1.0
4828537,,,,,,,,-1.76953125,-1.140625,-1.0234375,-0.673828125,0.17578125,-0.255859375,0.046875,-10.28125,0.484375,1.0
4828538,,,,,,,,-0.875,-0.44140625,-0.50390625,-0.8203125,0.115234375,-0.189453125,0.66015625,-9.67578125,1.25,1.0
4828539,,,,,,,,-0.61328125,-0.51171875,-0.0859375,-0.822265625,0.00390625,-0.10546875,0.8125,-10.16796875,1.40234375,1.0
4828540,36.01345,129.31956866666667,87.32372603858957,116.50763631163906,1.0,112.0,,-0.35546875,-2.10546875,0.2578125,-0.859375,-0.1328125,-0.095703125,1.3515625,-12.27734375,1.82421875,1.0
4828541,,,,,,,,0.47265625,-3.7734375,0.8046875,-1.138671875,-0.263671875,-0.07421875,3.45703125,-13.80859375,2.78125,1.0
4828542,,,,,,,,3.0390625,-4.1484375,2.29296875,-1.119140625,-0.224609375,-0.05859375,5.37109375,-13.00390625,3.77734375,1.0
4828543,,,,,,,,4.609375,-3.0625,2.90234375,-0.67578125,0.109375,-0.103515625,5.984375,-11.35546875,3.77734375,1.0
4828544,,,,,,,,3.40625,-1.68359375,2.65625,-0.244140625,0.56640625,-0.189453125,4.8359375,-11.05078125,3.625,1.0
4828545,,,,,,,,1.1015625,-1.7890625,2.94140625,-0.001953125,0.69921875,-0.2890625,2.5390625,-11.16796875,3.89453125,1.0
4828546,,,,,,,,-0.30859375,-2.37109375,3.15625,0.16015625,0.5546875,-0.337890625,1.16015625,-11.73828125,4.125,1.0
4828547,,,,,,,,-0.515625,-1.8359375,2.47265625,0.26953125,0.373046875,-0.31640625,0.96875,-11.20703125,3.47265625,1.0
4828548,,,,,,,,-0.28125,-0.80859375,1.7734375,0.34765625,0.328125,-0.2421875,1.234375,-10.1640625,2.8203125,1.0
4828549,,,,,,,,-0.2890625,-0.3203125,1.56640625,0.322265625,0.533203125,-0.080078125,1.234375,-9.671875,2.66796875,1.0
4828550,36.0134495,129.3195695,87.39885023713586,116.45215743346304,1.0,119.0,,-0.43359375,-0.12890625,1.49609375,0.22265625,0.68359375,0.0234375,1.08203125,-9.4765625,2.62890625,1.0
4828551,,,,,,,,-0.2578125,-0.3125,1.15234375,0.0625,0.685546875,0.1484375,1.234375,-9.67578125,2.32421875,1.0
4828552,,,,,,,,-0.125,-0.50390625,1.10546875,0.001953125,0.6640625,0.169921875,1.3515625,-9.86328125,2.28515625,1.0
4828553,,,,,,,,0.02734375,-0.609375,1.02734375,-0.119140625,0.564453125,0.18359375,1.46484375,-9.9765625,2.20703125,1.0
4828554,,,,,,,,-0.0390625,-0.37890625,1.05859375,-0.119140625,0.55859375,0.177734375,1.390625,-9.7421875,2.24609375,1.0
4828555,,,,,,,,-0.27734375,0.35546875,0.828125,-0.03515625,0.578125,0.154296875,1.12109375,-9.015625,2.015625,1.0
4828556,,,,,,,,-0.421875,0.625,0.70703125,0.0078125,0.5859375,0.13671875,0.96875,-8.75,1.90234375,1.0
4828557,,,,,,,,-0.71484375,1.23828125,0.390625,0.052734375,0.607421875,0.119140625,0.66015625,-8.1328125,1.59375,1.0
4828558,,,,,,,,-0.8125,1.51171875,0.30859375,0.048828125,0.619140625,0.109375,0.546875,-7.8671875,1.51953125,1.0
4828559,,,,,,,,-0.78125,1.7421875,0.1015625,-0.005859375,0.58984375,0.08984375,0.546875,-7.640625,1.328125,1.0
4828560,36.01344866666667,129.31957016666667,87.4589500740375,116.35969199018876,1.0,122.0,,-0.7421875,1.93359375,-0.05859375,-0.0234375,0.572265625,0.08984375,0.5859375,-7.4453125,1.17578125,1.0
4828561,,,,,,,,-0.68359375,2.2109375,-0.22265625,-0.044921875,0.5859375,0.07421875,0.62109375,-7.18359375,1.01953125,1.0
4828562,,,,,,,,-0.3984375,2.59375,-0.3359375,-0.0546875,0.59765625,0.05859375,0.890625,-6.796875,0.90625,1.0
4828563,,,,,,,,0.0390625,2.5546875,-0.49609375,-0.052734375,0.599609375,0.015625,1.3125,-6.83984375,0.75390625,1.0
4828564,,,,,,,,0.4375,2.2109375,-0.57421875,-0.068359375,0.587890625,-0.03125,1.6953125,-7.18359375,0.67578125,1.0
4828565,,,,,,,,0.59765625,1.86328125,-0.58203125,-0.076171875,0.6171875,-0.06640625,1.84765625,-7.52734375,0.67578125,1.0
4828566,,,,,,,,0.55859375,1.6796875,-0.51171875,-0.06640625,0.666015625,-0.103515625,1.80859375,-7.71875,0.75390625,1.0
4828567,,,,,,,,0.25390625,1.63671875,-0.4765625,-0.041015625,0.71484375,-0.134765625,1.50390625,-7.75390625,0.7890625,1.0
4828568,,,,,,,,0.17578125,1.63671875,-0.4765625,-0.029296875,0.734375,-0.1484375,1.42578125,-7.75,0.7890625,1.0
4828569,,,,,,,,0.015625,1.671875,-0.484375,0.01953125,0.74609375,-0.171875,1.2734375,-7.71875,0.75390625,1.0
4828570,36.01344816666666,129.319571,87.53407427441934,116.30421311252167,1.0,124.0,,-0.10546875,1.62890625,-0.62109375,0.0546875,0.775390625,-0.19921875,1.16015625,-7.75390625,0.67578125,1.0
4828571,,,,,,,,-0.11328125,1.46484375,-0.71484375,0.060546875,0.76953125,-0.203125,1.16015625,-7.90625,0.59765625,1.0
4828572,,,,,,,,-0.046875,1.16015625,-0.69140625,0.048828125,0.75,-0.212890625,1.234375,-8.2109375,0.63671875,1.0
4828573,,,,,,,,0.1015625,0.85546875,-0.75390625,0.048828125,0.7265625,-0.2109375,1.390625,-8.51953125,0.59765625,1.0
4828574,,,,,,,,0.12890625,0.6171875,-0.796875,0.064453125,0.712890625,-0.2109375,1.42578125,-8.75,0.5625,1.0
4828575,,,,,,,,0.12109375,0.41796875,-0.8125,0.083984375,0.703125,-0.212890625,1.3515625,-9.05859375,0.5234375,1.0
4828576,,,,,,,,0.046875,0.30078125,-0.8671875,0.099609375,0.71484375,-0.20703125,1.2734375,-9.05859375,0.59765625,1.0
4828577,,,,,,,,-0.12109375,0.29296875,-0.84375,0.126953125,0.728515625,-0.201171875,1.08203125,-8.98046875,0.59765625,1.0
4828578,,,,,,,,-0.3984375,0.4453125,-0.71484375,0.15234375,0.75390625,-0.181640625,0.8515625,-8.91015625,0.71484375,1.0
4828579,,,,,,,,-0.7421875,0.31640625,-0.74609375,0.126953125,0.765625,-0.150390625,0.546875,-9.0546875,0.7890625,1.0
4828580,36.0134475,129.31957183333333,87.60919865819498,116.23024102923239,1.0,128.0,,-1.05078125,0.35546875,-0.50390625,0.08203125,0.7109375,-0.125,0.27734375,-8.98046875,0.98046875,1.0
4828581,,,,,,,,-1.01171875,0.39453125,-0.5546875,0.076171875,0.6640625,-0.095703125,0.31640625,-8.9375,0.9453125,1.0
4828582,,,,,,,,-0.93359375,0.35546875,-0.6015625,0.0703125,0.625,-0.08203125,0.39453125,-8.9765625,0.90625,1.0
4828583,,,,,,,,-0.5078125,0.0703125,-0.5703125,0.03515625,0.546875,-0.060546875,0.8125,-9.25390625,0.9453125,1.0
4828584,,,,,,,,-0.3515625,-0.12109375,-0.578125,-0.0703125,0.4375,-0.044921875,1.3125,-9.859375,0.9453125,1.0
4828585,,,,,,,,0.0703125,-0.765625,-0.50390625,-0.154296875,0.37890625,-0.044921875,1.6171875,-10.3984375,1.05859375,1.0
4828586,,,,,,,,0.3046875,-1.0703125,-0.46484375,-0.201171875,0.361328125,-0.044921875,1.734375,-10.4375,1.09765625,1.0
4828587,,,,,,,,0.50390625,-1.1171875,-0.37109375,-0.263671875,0.35546875,-0.03515625,1.88671875,-10.3984375,1.09765625,1.0
4828588,,,,,,,,0.58203125,-0.9921875,-0.38671875,-0.30859375,0.373046875,-0.01953125,1.92578125,-10.203125,1.01953125,1.0
4828589,,,,,,,,0.62109375,-0.87890625,-0.45703125,-0.33203125,0.380859375,-0.01953125,1.92578125,-10.0546875,0.8671875,1.0
4828590,36.013447,129.3195726666667,87.68432286296839,116.17476215298947,1.0,129.0,,-1.05078125,0.35546875,-0.50390625,0.08203125,0.7109375,-0.125,2.1171875,-9.74609375,0.63671875,1.0
4828591,,,,,,,,0.98046875,-0.171875,-0.8359375,-0.5078125,0.435546875,0.017578125,2.34765625,-9.44140625,0.5625,1.0
4828592,,,,,,,,1.06640625,-0.08984375,-0.8203125,-0.609375,0.529296875,0.037109375,2.421875,-9.5546875,0.63671875,1.0
4828593,,,,,,,,1.3203125,-0.76953125,-0.60546875,-0.818359375,0.70703125,0.087890625,2.61328125,-11.58984375,0.59765625,1.0
4828594,,,,,,,,1.37109375,-2.21875,-0.62109375,-0.87890625,0.732421875,0.08984375,2.61328125,-12.15625,0.59765625,1.0
4828595,,,,,,,,1.203125,-3.421875,-0.45703125,-0.994140625,0.767578125,0.080078125,2.1171875,-12.19921875,1.13671875,1.0
4828596,,,,,,,,0.90625,-2.80078125,0.08984375,-0.92578125,0.9140625,0.017578125,1.84765625,-11.43359375,1.44140625,1.0
4828597,,,,,,,,0.01171875,-0.9921875,1.15625,-0.71484375,1.22265625,-0.001953125,0.9296875,-10.48046875,2.4375,1.0
4828598,,,,,,,,-0.2578125,-1.0625,1.53125,-0.64453125,1.359375,0.025390625,0.5859375,-10.9296875,2.62890625,1.0
4828599,,,,,,,,-1.1171875,-2.77734375,1.87109375,-0.693359375,1.2890625,0.10546875,-0.10546875,-12.6953125,3.12890625,1.0
4828600,36.01344616666667,129.31957366666666,87.77447216367884,116.08229701210459,1.1,131.0,0.0,-1.25390625,-3.2734375,2.31640625,-0.748046875,1.125,0.11328125,-0.06640625,-12.65625,3.43359375,1.0
4828601,,,,,,,,-0.81640625,-2.73046875,2.71484375,-0.6328125,0.94921875,0.06640625,0.31640625,-12.16015625,3.47265625,1.0
4828602,,,,,,,,-0.65625,-2.609375,2.5859375,-0.44921875,0.97265625,0.060546875,0.46875,-12.046875,3.3203125,1.0
4828603,,,,,,,,-0.59375,-2.4453125,2.41015625,-0.076171875,1.265625,0.072265625,0.5078125,-11.890625,3.12890625,1.0
4828604,,,,,,,,-0.5,-2.90625,2.9375,-0.052734375,1.427734375,0.08203125,0.5859375,-12.3515625,3.6640625,1.0
4828605,,,,,,,,-0.140625,-2.90625,3.15234375,0.0234375,1.501953125,0.048828125,0.9296875,-12.35546875,3.89453125,1.0
4828606,,,,,,,,-0.01953125,-2.74609375,3.01171875,0.091796875,1.51171875,0.02734375,1.04296875,-12.1953125,3.77734375,1.0
4828607,,,,,,,,-0.05078125,-1.90234375,2.4453125,0.232421875,1.51171875,-0.037109375,1.00390625,-11.3515625,3.2421875,1.0
4828608,,,,,,,,-0.41796875,-1.2890625,2.0625,0.302734375,1.482421875,-0.111328125,0.62109375,-10.7421875,2.8984375,1.0
4828609,,,,,,,,-0.76953125,-0.875,1.83203125,0.302734375,1.396484375,-0.208984375,0.27734375,-10.3203125,2.70703125,1.0
4828610,36.013445499999996,129.31957466666665,87.86462128089936,116.00832507936548,1.2000000000000002,130.0,,-1.08984375,-1.03125,1.5390625,0.18359375,1.140625,-0.3125,-0.02734375,-10.4765625,2.4765625,1.0
4828611,,,,,,,,-1.0859375,-0.9140625,1.38671875,0.1015625,0.984375,-0.36328125,0.0078125,-10.36328125,2.36328125,1.0
4828612,,,,,,,,-1.0625,-0.69140625,1.26171875,0.11328125,0.96484375,-0.361328125,0.046875,-10.125,2.24609375,1.0
4828613,,,,,,,,-1.0546875,0.48828125,0.640625,0.19140625,0.990234375,-0.326171875,0.0859375,-8.94140625,1.671875,1.0
4828614,,,,,,,,-1.0625,1.13671875,0.39453125,0.203125,1.015625,-0.302734375,0.0859375,-8.29296875,1.44140625,1.0
4828615,,,,,,,,-0.953125,1.875,0.171875,0.21484375,1.05859375,-0.28515625,0.203125,-7.5625,1.25,1.0
4828616,,,,,,,,-0.78515625,2.25,0.06640625,0.2109375,1.05859375,-0.28515625,0.39453125,-7.18359375,1.17578125,1.0
4828617,,,,,,,,-0.71875,2.36328125,0.01171875,0.197265625,1.0390625,-0.283203125,0.46875,-7.06640625,1.13671875,1.0
4828618,,,,,,,,-0.54296875,2.81640625,-0.15234375,0.171875,0.966796875,-0.3046875,0.66015625,-6.6015625,1.01953125,1.0
4828619,,,,,,,,-0.58984375,2.80859375,-0.2421875,0.162109375,0.939453125,-0.310546875,0.62109375,-6.60546875,0.9453125,1.0
4828620,36.013444166666666,129.31957466666665,87.86462276098126,115.86037941308201,1.1,139.0,,-0.8046875,2.80859375,-0.4296875,0.18359375,1.140625,-0.3125,-0.02734375,-10.4765625,2.4765625,1.0
4828621,,,,,,,,-0.96484375,2.68359375,-0.453125,0.1484375,0.88671875,-0.3125,0.27734375,-6.71875,0.7890625,1.0
4828622,,,,,,,,-1.44140625,2.609375,-0.40625,0.1328125,0.849609375,-0.296875,-0.18359375,-6.80078125,0.8671875,1.0
4828623,,,,,,,,-1.5703125,2.5625,-0.390625,0.134765625,0.7890625,-0.265625,-0.41015625,-6.91796875,0.9453125,1.0
4828624,,,,,,,,-1.96875,2.40234375,-0.375,0.134765625,0.73828125,-0.228515625,-0.71875,-6.984375,0.9453125,1.0
4828625,,,,,,,,-2.16796875,2.28515625,-0.4765625,0.1328125,0.6796875,-0.17578125,-0.87109375,-7.1015625,0.8671875,1.0
4828626,,,,,,,,-2.25390625,2.203125,-0.4921875,0.126953125,0.658203125,-0.16015625,-0.94921875,-7.1796875,0.8671875,1.0
4828627,,,,,,,,-2.3359375,1.85546875,-0.46875,0.12890625,0.6171875,-0.119140625,-1.0234375,-7.5234375,0.90625,1.0
4828628,,,,,,,,-2.3671875,1.54296875,-0.37890625,0.12109375,0.56640625,-0.083984375,-1.0625,-7.83203125,1.01953125,1.0
4828629,,,,,,,,-2.3203125,1.390625,-0.37109375,0.119140625,0.494140625,-0.072265625,-1.0234375,-7.984375,1.05859375,1.0
4828630,36.0134435,129.31957516666668,87.90969769566674,115.78640703134435,1.0,141.0,,-2.28125,1.50390625,-0.39453125,0.1484375,0.349609375,-0.05859375,-0.984375,-7.8671875,1.05859375,1.0
4828631,,,,,,,,-2.08203125,1.375,-0.85546875,0.13671875,0.193359375,-0.04296875,-0.79296875,-7.984375,0.63671875,1.0
4828632,,,,,,,,-2.0078125,1.06640625,-0.9375,0.119140625,0.171875,-0.046875,-0.71875,-8.29296875,0.5625,1.0
4828633,,,,,,,,-1.81640625,0.63671875,-0.83984375,0.064453125,0.095703125,-0.0546875,-0.52734375,-8.7109375,0.67578125,1.0
4828634,,,,,,,,-1.69921875,0.29296875,-0.6875,0.0546875,0.07421875,-0.064453125,-0.41015625,-9.05859375,0.828125,1.0
4828635,,,,,,,,-1.546875,-0.08984375,-0.6171875,0.048828125,0.013671875,-0.091796875,-0.2578125,-9.4375,0.90625,1.0
4828636,,,,,,,,-1.28125,-0.6328125,-0.55078125,0.048828125,-0.05078125,-0.1171875,0.0078125,-9.98046875,0.98046875,1.0
4828637,,,,,,,,-1.2109375,-0.671875,-0.43359375,0.033203125,-0.087890625,-0.126953125,0.0859375,-10.015625,1.09765625,1.0
4828638,,,,,,,,-0.94921875,-0.56640625,-0.01171875,0.017578125,-0.150390625,-0.142578125,0.35546875,-9.8984375,1.51953125,1.0
4828639,,,,,,,,-0.890625,-0.52734375,0.0625,0.037109375,-0.169921875,-0.16796875,0.4296875,-9.859375,1.59375,1.0
4828640,36.0134425,129.3195755,87.93974826674165,115.67544808138017,1.0,143.0,,-0.8671875,-0.15234375,-0.13671875,0.095703125,-0.126953125,-0.19140625,0.46875,-9.4765625,1.40234375,1.0
4828641,,,,,,,,-0.96484375,-0.234375,-0.41015625,0.10546875,-0.01171875,-0.2265625,0.39453125,-9.5546875,1.13671875,1.0
4828642,,,,,,,,-1.05859375,-0.38671875,-0.49609375,0.076171875,0.009765625,-0.224609375,0.31640625,-9.703125,1.05859375,1.0
4828643,,,,,,,,-0.84375,-0.81640625,-0.57421875,-0.12109375,-0.005859375,-0.220703125,0.546875,-10.12890625,0.98046875,1.0
4828644,,,,,,,,-0.5546875,-0.93359375,-0.56640625,-0.193359375,-0.0390625,-0.21484375,0.8515625,-10.2421875,0.98046875,1.0
4828645,,,,,,,,-0.1875,-0.92578125,-0.5703125,-0.32421875,-0.091796875,-0.21484375,1.234375,-10.24609375,0.9453125,1.0
4828646,,,,,,,,0.44921875,-0.81640625,-0.6484375,-0.421875,-0.087890625,-0.205078125,1.88671875,-10.12890625,0.828125,1.0
4828647,,,,,,,,0.703125,-0.6171875,-0.69140625,-0.515625,0.009765625,-0.1875,2.15625,-9.9375,0.75390625,1.0
4828648,,,,,,,,0.6875,-0.46484375,-0.63671875,-0.603515625,0.162109375,-0.16015625,2.15625,-9.78515625,0.75390625,1.0
4828649,,,,,,,,0.37890625,-0.265625,-0.64453125,-0.63671875,0.23828125,-0.142578125,1.84765625,-9.59765625,0.71484375,1.0
4828650,36.01344133333334,129.31957583333332,87.96979902107998,115.54599592505777,1.2000000000000002,154.0,,-0.078125,-0.11328125,-0.55078125,0.095703125,-0.126953125,-0.19140625,0.46875,-9.4765625,1.40234375,1.0
4828651,,,,,,,,-0.31640625,-0.40234375,-0.56640625,-0.71484375,0.41015625,-0.0703125,1.16015625,-9.74609375,0.67578125,1.0
4828652,,,,,,,,-0.578125,-1.16015625,-0.80859375,-0.783203125,0.41796875,-0.017578125,0.890625,-10.51171875,0.37109375,1.0
4828653,,,,,,,,-0.484375,-2.609375,-0.51171875,-0.9609375,0.38671875,0.046875,0.96875,-11.96875,0.59765625,1.0
4828654,,,,,,,,0.13671875,-2.7109375,0.89453125,-1.107421875,0.3046875,0.0859375,1.58203125,-12.08984375,1.90234375,1.0
4828655,,,,,,,,1.18359375,-3.0078125,1.53125,-1.060546875,0.216796875,0.115234375,2.61328125,-12.39453125,2.4375,1.0
4828656,,,,,,,,1.56640625,-3.421875,1.45703125,-0.97265625,0.22265625,0.1328125,2.99609375,-12.81640625,2.32421875,1.0
4828657,,,,,,,,2.28125,-4.25,1.6171875,-0.853515625,0.365234375,0.162109375,3.6875,-13.65625,2.3984375,1.0
4828658,,,,,,,,2.84765625,-3.47265625,2.4765625,-0.697265625,0.60546875,0.146484375,4.22265625,-12.8828125,3.1640625,1.0
4828659,,,,,,,,2.01953125,-1.97265625,2.74609375,-0.263671875,0.767578125,0.08984375,3.37890625,-11.390625,3.39453125,1.0
4828660,36.01344033333333,129.31957616666665,87.99984959605582,115.43503697520185,1.1,159.0,,1.1171875,-1.8125,2.9375,0.095703125,-0.126953125,-0.19140625,0.46875,-9.4765625,1.40234375,1.0
4828661,,,,,,,,0.24609375,-1.7734375,3.25390625,0.291015625,0.84375,-0.033203125,1.58203125,-11.203125,3.93359375,1.0
4828662,,,,,,,,-0.66796875,-1.859375,2.9453125,0.431640625,0.671875,-0.041015625,0.66015625,-11.28125,3.703125,1.0
4828663,,,,,,,,-0.58984375,-1.51171875,2.515625,0.470703125,0.607421875,-0.00390625,0.73828125,-10.9296875,3.3203125,1.0
4828664,,,,,,,,-0.30859375,-0.82421875,2.23828125,0.4453125,0.611328125,0.060546875,1.00390625,-10.24609375,3.08984375,1.0
4828665,,,,,,,,-0.28515625,0.01171875,1.9296875,0.349609375,0.6328125,0.15625,1.00390625,-9.3984375,2.859375,1.0
4828666,,,,,,,,-0.19140625,0.2890625,1.5859375,0.2734375,0.603515625,0.208984375,1.08203125,-9.13671875,2.5546875,1.0
4828667,,,,,,,,0.1171875,0.21875,1.1328125,0.189453125,0.53125,0.25390625,1.3515625,-9.2109375,2.1328125,1.0
4828668,,,,,,,,0.33984375,0.06640625,1.0,0.08203125,0.45703125,0.271484375,1.54296875,-9.359375,2.015625,1.0
4828669,,,,,,,,0.37109375,0.2578125,1.13671875,0.021484375,0.4296875,0.267578125,1.54296875,-9.17578125,2.16796875,1.0
4828670,36.01343933333333,129.31957666666668,88.04492490287087,115.32407817786759,1.1,161.0,,0.25,0.6875,1.015625,0.095703125,-0.126953125,-0.19140625,0.46875,-9.4765625,1.40234375,1.0
4828671,,,,,,,,0.1640625,1.03125,0.76953125,0.10546875,0.48828125,0.2421875,1.2734375,-8.40625,1.82421875,1.0
4828672,,,,,,,,0.07421875,1.3828125,0.515625,0.162109375,0.533203125,0.23046875,1.16015625,-8.06640625,1.59375,1.0
4828673,,,,,,,,-0.0859375,1.91796875,0.30078125,0.169921875,0.55859375,0.220703125,0.96875,-7.52734375,1.40234375,1.0
4828674,,,,,,,,-0.1328125,2.34765625,0.171875,0.16796875,0.576171875,0.224609375,0.890625,-7.10546875,1.2890625,1.0
4828675,,,,,,,,-0.0859375,2.5390625,-0.05859375,0.150390625,0.619140625,0.2109375,0.890625,-6.9140625,1.09765625,1.0
4828676,,,,,,,,0.0078125,2.6171875,-0.14453125,0.138671875,0.6328125,0.212890625,0.96875,-6.8359375,1.01953125,1.0
4828677,,,,,,,,0.25390625,2.6171875,-0.11328125,0.091796875,0.6796875,0.18359375,1.16015625,-6.83984375,1.09765625,1.0
4828678,,,,,,,,0.31640625,2.578125,-0.12890625,0.09375,0.693359375,0.16015625,1.19921875,-6.875,1.09765625,1.0
4828679,,,,,,,,0.3671875,2.50390625,-0.16796875,0.091796875,0.6875,0.14453125,1.234375,-6.94921875,1.05859375,1.0
4828680,36.01343816666667,129.31957683333334,88.05995093107558,115.19462586989567,1.1,162.0,,0.546875,2.42578125,-0.23046875,0.087890625,0.69921875,0.115234375,1.390625,-7.0234375,1.01953125,1.0
4828681,,,,,,,,0.75390625,1.99609375,-0.29296875,0.064453125,0.68359375,0.08203125,1.58203125,-7.44921875,0.98046875,1.0
4828682,,,,,,,,0.73046875,1.84375,-0.328125,0.03515625,0.669921875,0.048828125,1.54296875,-7.60546875,0.9453125,1.0
4828683,,,,,,,,0.66015625,1.57421875,-0.3828125,0.01171875,0.65234375,0.0,1.46484375,-7.87109375,0.90625,1.0
4828684,,,,,,,,0.5234375,1.15234375,-0.31640625,-0.00390625,0.65625,-0.021484375,1.3125,-8.29296875,0.98046875,1.0
4828685,,,,,,,,0.22265625,0.92578125,-0.27734375,0.0,0.689453125,-0.037109375,1.00390625,-8.51953125,1.01953125,1.0
4828686,,,,,,,,0.1484375,0.89453125,-0.24609375,0.021484375,0.705078125,-0.0390625,0.9296875,-8.5546875,1.05859375,1.0
4828687,,,,,,,,0.078125,0.73046875,-0.33984375,0.080078125,0.70703125,-0.03515625,0.8515625,-8.71484375,0.98046875,1.0
4828688,,,,,,,,0.2109375,0.53125,-0.390625,0.1015625,0.69921875,-0.0390625,0.96875,-8.91015625,0.9453125,1.0
4828689,,,,,,,,0.24609375,0.48828125,-0.32421875,0.109375,0.689453125,-0.04296875,1.00390625,-8.9375,1.01953125,1.0
4828690,36.01343733333333,129.3195775,88.1200507856807,115.10216043104354,1.1,161.0,,0.24609375,0.44921875,-0.34765625,0.087890625,0.69921875,0.115234375,1.00390625,-8.9765625,1.01953125,1.0
4828691,,,,,,,,0.21875,0.48828125,-0.31640625,0.12890625,0.650390625,-0.041015625,0.96875,-8.9375,1.05859375,1.0
4828692,,,,,,,,0.109375,0.40234375,-0.30859375,0.1640625,0.666015625,-0.025390625,0.8515625,-9.015625,1.09765625,1.0
4828693,,,,,,,,-0.03515625,0.48046875,-0.1796875,0.162109375,0.6640625,-0.013671875,0.69921875,-8.94140625,1.25,1.0
4828694,,,,,,,,-0.09765625,0.48046875,-0.05078125,0.16015625,0.646484375,-0.001953125,0.62109375,-8.9375,1.40234375,1.0
4828695,,,,,,,,-0.203125,0.2890625,0.00390625,0.146484375,0.623046875,0.015625,0.5078125,-9.13671875,1.48046875,1.0
4828696,,,,,,,,-0.28125,0.2421875,0.02734375,0.13671875,0.60546875,0.029296875,0.4296875,-9.171875,1.51953125,1.0
4828697,,,,,,,,-0.29296875,0.1953125,0.171875,0.12109375,0.568359375,0.041015625,0.39453125,-9.21484375,1.671875,1.0
4828698,,,,,,,,-0.28515625,0.1953125,0.15625,0.103515625,0.546875,0.0546875,0.39453125,-9.21484375,1.671875,1.0
4828699,,,,,,,,-0.26953125,-0.03515625,0.0703125,0.05859375,0.50390625,0.072265625,0.39453125,-9.4375,1.59375,1.0
4828700,36.013436666666664,129.31957816666667,88.18015045322431,115.028188200687,1.0,165.0,0.0,-0.1796875,-0.41796875,0.140625,0.087890625,0.69921875,0.115234375,0.46875,-9.82421875,1.671875,1.0
4828701,,,,,,,,-0.15625,-0.6875,0.25390625,-0.1328125,0.326171875,0.056640625,0.46875,-10.09375,1.78515625,1.0
4828702,,,,,,,,-0.109375,-0.6484375,0.26953125,-0.158203125,0.267578125,0.04296875,0.5078125,-10.05859375,1.78515625,1.0
4828703,,,,,,,,0.00390625,-0.49609375,0.203125,-0.16796875,0.173828125,0.009765625,0.62109375,-9.90234375,1.7109375,1.0
4828704,,,,,,,,0.16015625,-0.1875,0.02734375,-0.1875,0.1328125,-0.01953125,0.77734375,-9.59375,1.51953125,1.0
4828705,,,,,,,,0.6953125,0.1953125,-0.32421875,-0.2734375,0.15625,-0.041015625,1.3125,-9.21484375,1.13671875,1.0
4828706,,,,,,,,1.078125,0.203125,-0.34765625,-0.31640625,0.1796875,-0.04296875,1.6953125,-9.21484375,1.09765625,1.0
4828707,,,,,,,,1.35546875,-0.1796875,-0.32421875,-0.44140625,0.2578125,-0.041015625,1.96484375,-9.59765625,1.09765625,1.0
4828708,,,,,,,,1.46875,-0.82421875,-0.35546875,-0.60546875,0.35546875,-0.05078125,2.078125,-10.2421875,1.01953125,1.0
4828709,,,,,,,,1.5078125,-1.16015625,-0.32421875,-0.69921875,0.380859375,-0.05859375,2.1171875,-10.5859375,1.01953125,1.0
4828710,36.013435666666666,129.31957849999998,88.2102010277129,114.9172292526531,1.0,166.0,,0.88671875,-0.609375,0.1640625,-0.74609375,0.388671875,-0.126953125,1.50390625,-10.05859375,1.3671875,1.0
4828711,,,,,,,,0.09765625,-2.4375,0.73828125,-0.646484375,0.619140625,-0.158203125,0.73828125,-11.89453125,1.82421875,1.0
4828712,,,,,,,,-0.1328125,-3.08203125,0.76953125,-0.69921875,0.6171875,-0.166015625,0.5078125,-12.54296875,1.82421875,1.0
4828713,,,,,,,,-0.30078125,-4.0390625,1.1015625,-0.771484375,0.5546875,-0.17578125,0.35546875,-13.50390625,2.09375,1.0
4828714,,,,,,,,-0.5,-3.16015625,1.5859375,-0.60546875,0.591796875,-0.15234375,0.1640625,-12.62109375,2.515625,1.0
4828715,,,,,,,,-0.890625,-1.58203125,1.47265625,-0.2421875,0.75,-0.130859375,-0.21875,-11.046875,2.36328125,1.0
4828716,,,,,,,,-1.0078125,-1.3515625,1.44140625,-0.099609375,0.833984375,-0.125,-0.3359375,-10.82421875,2.32421875,1.0
4828717,,,,,,,,-1.12109375,-1.57421875,1.65625,0.0,0.9453125,-0.091796875,-0.44921875,-11.046875,2.5546875,1.0
4828718,,,,,,,,-0.46875,-2.26171875,2.18359375,-0.03125,1.017578125,-0.05859375,0.203125,-11.734375,3.08984375,1.0
4828719,,,,,,,,-0.203125,-2.33984375,2.375,-0.0234375,1.05859375,-0.056640625,0.46875,-11.8125,3.28125,1.0
4828720,36.013434833333335,129.319579,88.25527615582413,114.82476366496162,1.0,166.0,,0.33984375,-2.1484375,2.51953125,0.095703125,1.15625,-0.087890625,1.00390625,-11.625,3.43359375,1.0
4828721,,,,,,,,0.1875,-1.54296875,2.44140625,0.34765625,1.33984375,-0.1796875,0.8515625,-11.0078125,3.39453125,1.0
4828722,,,,,,,,0.02734375,-1.3125,2.41796875,0.404296875,1.357421875,-0.22265625,0.69921875,-10.78515625,3.39453125,1.0
4828723,,,,,,,,-0.36328125,-0.5859375,2.125,0.482421875,1.30859375,-0.326171875,0.31640625,-10.05859375,3.1640625,1.0
4828724,,,,,,,,-0.5234375,-0.36328125,1.98046875,0.49609375,1.263671875,-0.36328125,0.1640625,-9.82421875,3.05078125,1.0
4828725,,,,,,,,-0.85546875,-0.0546875,1.6953125,0.484375,1.19140625,-0.4140625,-0.14453125,-9.51953125,2.8203125,1.0
4828726,,,,,,,,-1.21484375,0.2421875,1.40625,0.45703125,1.1640625,-0.439453125,-0.48828125,-9.21484375,2.5546875,1.0
4828727,,,,,,,,-1.4765625,0.3203125,1.08203125,0.34375,1.083984375,-0.41015625,-0.71875,-9.1328125,2.28515625,1.0
4828728,,,,,,,,-1.68359375,0.38671875,0.78125,0.232421875,1.021484375,-0.38671875,-0.91015625,-9.0546875,2.015625,1.0
4828729,,,,,,,,-1.4921875,1.18359375,0.26953125,0.12890625,1.0625,-0.326171875,-0.6796875,-8.25390625,1.55859375,1.0
4828730,36.013433666666664,129.319579,88.25527745668408,114.69531120700789,1.2000000000000002,169.0,,-1.125,1.60546875,0.0625,0.095703125,1.15625,-0.087890625,1.00390625,-11.625,3.43359375,1.0
4828731,,,,,,,,-0.86328125,1.94140625,-0.16015625,0.09375,1.0703125,-0.291015625,-0.02734375,-7.48828125,1.17578125,1.0
4828732,,,,,,,,-0.57421875,2.32421875,-0.33203125,0.068359375,1.02734375,-0.3046875,0.27734375,-7.1015625,1.01953125,1.0
4828733,,,,,,,,-0.54296875,2.40234375,-0.33984375,0.044921875,0.998046875,-0.318359375,0.31640625,-7.0234375,1.01953125,1.0
4828734,,,,,,,,-0.63671875,2.47265625,-0.39453125,0.02734375,0.951171875,-0.333984375,0.23828125,-6.94921875,0.98046875,1.0
4828735,,,,,,,,-0.95703125,2.46484375,-0.4453125,0.017578125,0.927734375,-0.349609375,-0.06640625,-6.9453125,0.9453125,1.0
4828736,,,,,,,,-1.25,2.2734375,-0.53125,0.013671875,0.91796875,-0.3515625,-0.3359375,-7.14453125,0.8671875,1.0
4828737,,,,,,,,-1.6875,2.1171875,-0.5546875,0.009765625,0.890625,-0.328125,-0.7578125,-7.30078125,0.8671875,1.0
4828738,,,,,,,,-1.73828125,2.04296875,-0.6015625,0.0078125,0.859375,-0.296875,-0.79296875,-7.37109375,0.828125,1.0
4828739,,,,,,,,-2.140625,1.8046875,-0.75390625,-0.0078125,0.826171875,-0.279296875,-1.1796875,-7.60546875,0.67578125,1.0
4828740,36.01343283333333,129.31957933333334,88.2853278501736,114.60284546766697,1.0,169.0,,-2.22265625,1.375,-0.80859375,-0.017578125,0.765625,-0.25,-1.25390625,-8.02734375,0.63671875,1.0
4828741,,,,,,,,-2.1640625,0.9921875,-0.80859375,-0.037109375,0.703125,-0.2265625,-1.1796875,-8.40625,0.63671875,1.0
4828742,,,,,,,,-2.0859375,0.79296875,-0.74609375,-0.04296875,0.62890625,-0.201171875,-1.1015625,-8.59765625,0.71484375,1.0
4828743,,,,,,,,-1.94140625,0.640625,-0.5546875,-0.01171875,0.56640625,-0.177734375,-0.94921875,-8.75390625,0.90625,1.0
4828744,,,,,,,,-1.80078125,0.67578125,-0.48828125,0.046875,0.509765625,-0.16796875,-0.79296875,-8.71484375,0.98046875,1.0
4828745,,,,,,,,-1.765625,0.75390625,-0.50390625,0.1015625,0.45703125,-0.16015625,-0.7578125,-8.63671875,0.98046875,1.0
4828746,,,,,,,,-1.7265625,0.75390625,-0.546875,0.119140625,0.44140625,-0.154296875,-0.71875,-8.63671875,0.9453125,1.0
4828747,,,,,,,,-1.6953125,0.625,-0.44140625,0.126953125,0.416015625,-0.150390625,-0.6796875,-8.75390625,1.05859375,1.0
4828748,,,,,,,,-1.7734375,0.31640625,-0.578125,0.11328125,0.400390625,-0.150390625,-0.7578125,-9.0546875,0.9453125,1.0
4828749,,,,,,,,-1.7421875,0.01171875,-0.671875,0.1015625,0.345703125,-0.146484375,-0.71875,-9.36328125,0.8671875,1.0
4828750,36.013431833333335,129.319579,88.25527950049258,114.49188591552425,0.9,174.0,,-1.58984375,-0.265625,-0.640625,-0.017578125,0.765625,-0.25,-0.56640625,-9.63671875,0.90625,1.0
4828751,,,,,,,,-1.44921875,-0.34765625,-0.57421875,0.041015625,0.244140625,-0.123046875,-0.41015625,-9.703125,0.98046875,1.0
4828752,,,,,,,,-1.44140625,-0.3125,-0.50390625,0.021484375,0.234375,-0.126953125,-0.41015625,-9.67578125,1.05859375,1.0
4828753,,,,,,,,-1.49609375,-0.2421875,-0.28125,-0.005859375,0.2109375,-0.11328125,-0.44921875,-9.59765625,1.2890625,1.0
4828754,,,,,,,,-1.53515625,-0.3203125,-0.40234375,-0.02734375,0.189453125,-0.107421875,-0.48828125,-9.67578125,1.17578125,1.0
4828755,,,,,,,,-1.58203125,-0.35546875,-0.6640625,-0.076171875,0.162109375,-0.099609375,-0.52734375,-9.70703125,0.90625,1.0
4828756,,,,,,,,-1.23828125,-0.3203125,-0.6953125,-0.15234375,0.142578125,-0.091796875,-0.18359375,-9.67578125,0.8671875,1.0
4828757,,,,,,,,-1.12109375,-0.39453125,-0.6875,-0.18359375,0.134765625,-0.09375,-0.06640625,-9.7421875,0.8671875,1.0
4828758,,,,,,,,-0.6328125,-0.55078125,-0.75,-0.265625,0.11328125,-0.08984375,0.4296875,-9.8984375,0.7890625,1.0
4828759,,,,,,,,-0.4765625,-0.5859375,-0.6953125,-0.310546875,0.111328125,-0.09375,0.5859375,-9.9375,0.828125,1.0
4828760,36.013431,129.31957883333334,88.24025569719154,114.39941972267931,0.9,180.0,,-0.2421875,-0.6640625,-0.81640625,-0.39453125,0.123046875,-0.103515625,0.8125,-10.01953125,0.67578125,1.0
4828761,,,,,,,,-0.21875,-0.53515625,-0.84765625,-0.466796875,0.15234375,-0.10546875,0.8515625,-9.8984375,0.59765625,1.0
4828762,,,,,,,,-0.29296875,-0.45703125,-0.82421875,-0.5,0.185546875,-0.10546875,0.77734375,-9.82421875,0.59765625,1.0
4828763,,,,,,,,-0.5234375,0.125,-0.8203125,-0.537109375,0.23828125,-0.103515625,0.546875,-9.25,0.5625,1.0
4828764,,,,,,,,-0.72265625,0.36328125,-0.765625,-0.580078125,0.29296875,-0.091796875,0.35546875,-9.01953125,0.5625,1.0
4828765,,,,,,,,-1.40625,0.86328125,-0.29296875,-0.6328125,0.328125,-0.056640625,-0.3359375,-8.515625,0.98046875,1.0
4828766,,,,,,,,-1.828125,-0.234375,-0.08984375,-0.728515625,0.310546875,-0.001953125,-0.7578125,-9.63671875,1.09765625,1.0
4828767,,,,,,,,-1.7734375,-0.921875,-0.09765625,-0.7734375,0.27734375,0.01953125,-0.71875,-10.3203125,1.05859375,1.0
4828768,,,,,,,,-0.5859375,-2.28515625,1.13671875,-0.89453125,0.197265625,0.0625,0.46875,-11.69921875,2.20703125,1.0
4828769,,,,,,,,-0.0625,-2.28515625,1.5234375,-0.919921875,0.048828125,0.060546875,0.96875,-11.6953125,2.515625,1.0
4828770,36.013430166666666,129.31957833333334,88.1951824255631,114.30695322879934,0.9,189.0,,1.66015625,-3.19140625,2.06640625,-0.39453125,0.123046875,-0.103515625,0.8125,-10.01953125,0.67578125,1.0
4828771,,,,,,,,2.75,-4.33203125,2.109375,-0.8828125,-0.087890625,0.025390625,3.765625,-13.76953125,2.9375,1.0
4828772,,,,,,,,3.69921875,-4.171875,2.921875,-0.84765625,-0.001953125,-0.01171875,4.72265625,-13.6171875,3.6640625,1.0
4828773,,,,,,,,3.66015625,-2.9765625,3.4140625,-0.51171875,0.21484375,-0.083984375,4.68359375,-12.43359375,4.0859375,1.0
4828774,,,,,,,,2.1640625,-1.75,3.0078125,-0.021484375,0.451171875,-0.16796875,3.1875,-11.20703125,3.6640625,1.0
4828775,,,,,,,,0.08203125,-2.28515625,3.14453125,0.26171875,0.521484375,-0.197265625,1.12109375,-11.734375,3.81640625,1.0
4828776,,,,,,,,-0.46875,-2.859375,3.2578125,0.3203125,0.431640625,-0.1953125,0.5859375,-12.3125,3.96875,1.0
4828777,,,,,,,,-0.29296875,-2.75390625,2.953125,0.330078125,0.322265625,-0.154296875,0.77734375,-12.1953125,3.703125,1.0
4828778,,,,,,,,0.05078125,-2.0625,2.578125,0.373046875,0.34375,-0.0625,1.12109375,-11.5078125,3.359375,1.0
4828779,,,,,,,,0.05859375,-0.9921875,2.22265625,0.408203125,0.455078125,0.017578125,1.12109375,-10.44140625,3.05078125,1.0
4828780,36.0134295,129.319578,88.16513370287069,114.2329800951324,0.9,194.0,,-0.1640625,-0.4921875,1.984375,-0.39453125,0.123046875,-0.103515625,0.8125,-10.01953125,0.67578125,1.0
4828781,,,,,,,,-0.33984375,0.08203125,1.640625,0.322265625,0.576171875,0.14453125,0.69921875,-9.36328125,2.5546875,1.0
4828782,,,,,,,,-0.26953125,0.08203125,1.37890625,0.1875,0.470703125,0.1796875,0.73828125,-9.359375,2.32421875,1.0
4828783,,,,,,,,-0.22265625,-0.03515625,1.1796875,0.126953125,0.404296875,0.193359375,0.77734375,-9.4765625,2.1328125,1.0
4828784,,,,,,,,-0.109375,0.05078125,1.0390625,-0.021484375,0.265625,0.197265625,0.8515625,-9.3984375,2.015625,1.0
4828785,,,,,,,,-0.0546875,0.5859375,0.80859375,-0.041015625,0.2734375,0.19921875,0.890625,-8.87109375,1.78515625,1.0
4828786,,,,,,,,-0.30078125,1.20703125,0.58203125,-0.041015625,0.328125,0.19921875,0.62109375,-8.25,1.55859375,1.0
4828787,,,,,,,,-0.4140625,1.8984375,0.3828125,-0.04296875,0.37890625,0.189453125,0.46875,-7.5625,1.3671875,1.0
4828788,,,,,,,,-0.40625,2.01953125,0.34375,-0.052734375,0.37109375,0.1875,0.46875,-7.4453125,1.328125,1.0
4828789,,,,,,,,-0.4140625,2.25,0.07421875,-0.060546875,0.3515625,0.181640625,0.4296875,-7.22265625,1.05859375,1.0
4828790,36.0134285,129.31957783333334,88.15011008339228,114.1220206947245,1.0,194.0,,-0.20703125,2.6015625,-0.078125,-0.39453125,0.123046875,-0.103515625,0.8125,-10.01953125,0.67578125,1.0
4828791,,,,,,,,0.0859375,2.640625,-0.15625,-0.078125,0.322265625,0.173828125,0.890625,-6.83984375,0.828125,1.0
4828792,,,,,,,,0.25390625,2.6796875,-0.1484375,-0.08203125,0.328125,0.16796875,1.04296875,-6.80078125,0.828125,1.0
4828793,,,,,,,,0.38671875,2.6484375,-0.1015625,-0.0859375,0.361328125,0.1484375,1.16015625,-6.8359375,0.8671875,1.0
4828794,,,,,,,,0.4765625,2.5703125,-0.140625,-0.08203125,0.3828125,0.140625,1.234375,-6.91796875,0.828125,1.0
4828795,,,,,,,,0.6484375,2.44921875,-0.0625,-0.0625,0.43359375,0.12109375,1.390625,-7.0234375,0.90625,1.0
4828796,,,,,,,,0.6328125,2.34375,-0.0703125,-0.029296875,0.478515625,0.09765625,1.3515625,-7.14453125,0.90625,1.0
4828797,,,,,,,,0.5625,2.41796875,-0.23046875,0.01953125,0.490234375,0.05859375,1.2734375,-7.0625,0.75390625,1.0
4828798,,,,,,,,0.51171875,2.2265625,-0.5234375,0.060546875,0.49609375,-0.001953125,1.19921875,-7.26171875,0.484375,1.0
4828799,,,,,,,,0.47265625,2.11328125,-0.609375,0.0546875,0.498046875,-0.005859375,1.16015625,-7.37109375,0.40625,1.0
4828800,36.01342783333334,129.31957766666667,88.13508609260425,114.04804771093393,0.9,193.0,0.0,0.44140625,1.99609375,-0.65234375,-0.39453125,0.123046875,-0.103515625,0.8125,-10.01953125,0.67578125,1.0
4828801,,,,,,,,0.40234375,1.73046875,-0.77734375,0.0390625,0.517578125,-0.03125,1.08203125,-7.75,0.25390625,1.0
4828802,,,,,,,,0.37109375,1.484375,-0.77734375,0.0234375,0.5390625,-0.0234375,1.04296875,-7.984375,0.25390625,1.0
4828803,,,,,,,,0.41015625,1.140625,-0.70703125,-0.015625,0.5546875,-0.013671875,1.08203125,-8.33203125,0.33203125,1.0
4828804,,,,,,,,0.42578125,0.91015625,-0.66796875,-0.0390625,0.56640625,-0.005859375,1.08203125,-8.5546875,0.37109375,1.0
4828805,,,,,,,,0.50390625,0.53515625,-0.44140625,-0.048828125,0.5703125,0.001953125,1.16015625,-8.94140625,0.59765625,1.0
4828806,,,,,,,,0.625,0.21875,-0.37109375,-0.0625,0.5703125,0.00390625,1.2734375,-9.25390625,0.67578125,1.0
4828807,,,,,,,,0.75,0.1796875,-0.21875,-0.0625,0.576171875,0.0,1.390625,-9.29296875,0.828125,1.0
4828808,,,,,,,,0.7578125,0.1796875,-0.171875,-0.06640625,0.591796875,0.001953125,1.390625,-9.29296875,0.8671875,1.0
4828809,,,,,,,,0.58203125,0.171875,-0.25,-0.05078125,0.59765625,0.0390625,1.19921875,-9.29296875,0.7890625,1.0
4828810,36.013426833333334,129.31957716666665,88.09001300132633,113.93708800894854,1.1,199.0,,0.359375,0.21875,-0.37109375,-0.39453125,0.123046875,-0.103515625,0.8125,-10.01953125,0.67578125,1.0
4828811,,,,,,,,0.2578125,0.09765625,-0.515625,-0.056640625,0.6015625,0.060546875,0.8515625,-9.36328125,0.5234375,1.0
4828812,,,,,,,,0.3125,-0.0546875,-0.515625,-0.103515625,0.59375,0.072265625,0.890625,-9.515625,0.5234375,1.0
4828813,,,,,,,,0.48046875,-0.4765625,-0.46875,-0.166015625,0.5703125,0.08203125,1.04296875,-9.94140625,0.5625,1.0
4828814,,,,,,,,0.53515625,-0.82421875,-0.37890625,-0.228515625,0.529296875,0.078125,1.08203125,-10.28125,0.63671875,1.0
4828815,,,,,,,,0.4296875,-1.3125,-0.4296875,-0.287109375,0.498046875,0.0625,0.96875,-10.78125,0.5625,1.0
4828816,,,,,,,,0.2890625,-1.3515625,-0.33203125,-0.32421875,0.45703125,0.0546875,0.8125,-10.82421875,0.63671875,1.0
4828817,,,,,,,,0.09765625,-0.84375,-0.109375,-0.337890625,0.435546875,0.04296875,0.62109375,-10.3203125,0.828125,1.0
4828818,,,,,,,,0.10546875,-0.30859375,-0.0078125,-0.3359375,0.412109375,0.037109375,0.62109375,-9.78515625,0.90625,1.0
4828819,,,,,,,,0.3828125,-0.0390625,0.0234375,-0.353515625,0.37890625,0.037109375,0.890625,-9.515625,0.90625,1.0
4828820,36.013425999999995,129.31957683333334,88.05996446383236,113.84462166514999,1.1,201.0,,0.92578125,-0.65234375,-0.17578125,-0.39453125,0.123046875,-0.103515625,1.42578125,-10.125,0.67578125,1.0
4828821,,,,,,,,1.08984375,-1.375,-0.51171875,-0.556640625,0.357421875,0.07421875,1.58203125,-10.859375,0.29296875,1.0
4828822,,,,,,,,0.8359375,-1.94921875,-0.609375,-0.658203125,0.3359375,0.07421875,1.3125,-11.4296875,0.140625,1.0
4828823,,,,,,,,0.796875,-1.82421875,-0.42578125,-0.669921875,0.345703125,0.064453125,1.2734375,-11.31640625,0.29296875,1.0
4828824,,,,,,,,0.62109375,-2.19921875,0.3125,-0.640625,0.51953125,0.037109375,1.08203125,-11.6953125,0.9453125,1.0
4828825,,,,,,,,0.1328125,-3.3515625,0.44921875,-0.716796875,0.71484375,0.0625,0.5859375,-12.85546875,1.01953125,1.0
4828826,,,,,,,,-1.23828125,-4.56640625,0.8671875,-0.80859375,0.8046875,0.1015625,-0.79296875,-14.0703125,1.3671875,1.0
4828827,,,,,,,,-2.6328125,-3.34375,1.9921875,-0.5234375,0.8359375,0.09375,-2.2109375,-12.85546875,2.3984375,1.0
4828828,,,,,,,,-3.046875,-2.30078125,2.46875,-0.3125,0.814453125,0.08984375,-2.6328125,-11.81640625,2.859375,1.0
4828829,,,,,,,,-2.3125,-1.609375,2.29296875,0.0078125,0.6640625,0.111328125,-1.90625,-11.125,2.66796875,1.0
4828830,36.01342516666667,129.31957616666665,87.99986645476874,113.75215502338442,1.1,200.0,,-0.83984375,-2.0625,2.046875,0.109375,0.552734375,0.11328125,-0.44921875,-11.5859375,2.4375,1.0
4828831,,,,,,,,0.0859375,-2.3671875,2.1171875,0.087890625,0.595703125,0.107421875,0.46875,-11.89453125,2.515625,1.0
4828832,,,,,,,,0.30078125,-2.3671875,2.140625,0.1328125,0.7109375,0.056640625,0.66015625,-11.89453125,2.5546875,1.0
4828833,,,,,,,,0.453125,-1.95703125,2.23828125,0.21484375,0.837890625,-0.0078125,0.8125,-11.47265625,2.66796875,1.0
4828834,,,,,,,,0.1875,-1.296875,2.16015625,0.3203125,0.896484375,-0.083984375,0.546875,-10.82421875,2.62890625,1.0
4828835,,,,,,,,-0.43359375,-0.0703125,1.77734375,0.439453125,0.88671875,-0.173828125,-0.06640625,-9.59765625,2.28515625,1.0
4828836,,,,,,,,-0.56640625,0.08203125,1.61328125,0.4765625,0.837890625,-0.220703125,-0.18359375,-9.4375,2.16796875,1.0
4828837,,,,,,,,-1.078125,0.2734375,1.22265625,0.42578125,0.80859375,-0.240234375,-0.6796875,-9.25,1.82421875,1.0
4828838,,,,,,,,-1.3984375,0.16015625,1.0703125,0.318359375,0.7890625,-0.236328125,-0.984375,-9.359375,1.7109375,1.0
4828839,,,,,,,,-1.62890625,0.11328125,1.046875,0.294921875,0.775390625,-0.224609375,-1.21484375,-9.40234375,1.7109375,1.0
