time,latitude,longitude,enu_x,enu_y,speed,course,ecg,accX,accY,accZ,gyrX,gyrY,gyrZ,eulR,eulP,eulY,validity
4712800,36.01342666666667,129.3195745,87.84961744970103,113.91859239312521,1.1,22.0,0.0,0.0234375,0.44921875,0.6171875,-0.154296875,-0.158203125,-0.251953125,0.8515625,-8.9375,2.1328125,1.0
4712801,,,,,,,,-0.11328125,0.90625,0.44140625,-0.12890625,-0.126953125,-0.251953125,0.73828125,-8.48828125,1.94140625,1.0
4712802,,,,,,,,-0.16796875,1.21484375,0.29296875,-0.10546875,-0.125,-0.244140625,0.69921875,-8.171875,1.78515625,1.0
4712803,,,,,,,,-0.3125,1.51953125,0.06640625,-0.068359375,-0.1484375,-0.236328125,0.5859375,-7.87109375,1.55859375,1.0
4712804,,,,,,,,-0.3203125,1.75,-0.1953125,-0.05078125,-0.171875,-0.232421875,0.5859375,-7.64453125,1.2890625,1.0
4712805,,,,,,,,-0.3515625,2.2109375,-0.45703125,-0.03515625,-0.236328125,-0.21875,0.5859375,-7.18359375,1.01953125,1.0
4712806,,,,,,,,-0.3828125,2.35546875,-0.72265625,-0.017578125,-0.287109375,-0.201171875,0.5859375,-7.0234375,0.75390625,1.0
4712807,,,,,,,,-0.36328125,2.36328125,-0.76171875,-0.015625,-0.287109375,-0.193359375,0.62109375,-7.0234375,0.71484375,1.0
4712808,,,,,,,,-0.5390625,2.31640625,-0.79296875,-0.01171875,-0.26171875,-0.18359375,0.46875,-7.0625,0.67578125,1.0
4712809,,,,,,,,-0.62109375,2.31640625,-0.75390625,0.009765625,-0.255859375,-0.17578125,0.39453125,-7.06640625,0.71484375,1.0
4712810,36.013427666666665,129.31957483333332,87.87966580871431,114.02955194277108,1.1,17.0,,-1.2734375,2.00390625,-0.83984375,0.08984375,-0.2265625,-0.13671875,-0.21875,-7.3671875,0.63671875,1.0
4712811,,,,,,,,-1.4609375,1.92578125,-0.85546875,0.162109375,-0.244140625,-0.095703125,-0.375,-7.44921875,0.63671875,1.0
4712812,,,,,,,,-1.66015625,1.83984375,-0.9453125,0.19921875,-0.30859375,-0.060546875,-0.56640625,-7.52734375,0.5625,1.0
4712813,,,,,,,,-1.66796875,1.8046875,-0.9921875,0.20703125,-0.328125,-0.048828125,-0.56640625,-7.56640625,0.5234375,1.0
4712814,,,,,,,,-1.59765625,1.48828125,-1.0859375,0.208984375,-0.375,-0.02734375,-0.48828125,-7.8671875,0.4453125,1.0
4712815,,,,,,,,-1.4921875,1.2578125,-1.0546875,0.19921875,-0.40234375,0.005859375,-0.375,-8.10546875,0.484375,1.0
4712816,,,,,,,,-1.34375,1.13671875,-1.078125,0.185546875,-0.45703125,0.044921875,-0.21875,-8.2109375,0.484375,1.0
4712817,,,,,,,,-1.078125,1.08984375,-0.97265625,0.158203125,-0.50390625,0.060546875,0.046875,-8.25,0.59765625,1.0
4712818,,,,,,,,-0.96875,0.859375,-0.94140625,0.15234375,-0.515625,0.05859375,0.1640625,-8.48828125,0.63671875,1.0
4712819,,,,,,,,-0.89453125,0.5546875,-0.98828125,0.154296875,-0.54296875,0.06640625,0.23828125,-8.79296875,0.59765625,1.0
4712820,36.01342866666666,129.3195755,87.93976363258285,114.14051179366288,1.1,18.0,,-0.703125,0.35546875,-1.03125,0.15234375,-0.56640625,0.080078125,0.4296875,-8.9765625,0.5625,1.0
4712821,,,,,,,,-0.546875,0.23046875,-1.078125,0.162109375,-0.58203125,0.072265625,0.5859375,-9.09375,0.5234375,1.0
4712822,,,,,,,,-0.48046875,0.15625,-1.15625,0.15625,-0.587890625,0.072265625,0.66015625,-9.171875,0.4453125,1.0
4712823,,,,,,,,-0.40234375,0.078125,-1.01953125,0.158203125,-0.5859375,0.06640625,0.73828125,-9.25390625,0.59765625,1.0
4712824,,,,,,,,-0.328125,0.1171875,-1.02734375,0.150390625,-0.580078125,0.0546875,0.8125,-9.21484375,0.59765625,1.0
4712825,,,,,,,,-0.296875,0.109375,-0.99609375,0.14453125,-0.580078125,0.052734375,0.8515625,-9.21484375,0.63671875,1.0
4712826,,,,,,,,-0.21875,0.109375,-0.99609375,0.13671875,-0.57421875,0.041015625,0.9296875,-9.2109375,0.63671875,1.0
4712827,,,,,,,,0.04296875,-0.05078125,-0.92578125,0.10546875,-0.576171875,0.03125,1.19921875,-9.36328125,0.71484375,1.0
4712828,,,,,,,,0.1484375,-0.12890625,-0.87109375,0.06640625,-0.587890625,0.01171875,1.3125,-9.44140625,0.75390625,1.0
4712829,,,,,,,,0.21875,-0.203125,-0.8359375,0.05859375,-0.5859375,-0.005859375,1.390625,-9.515625,0.7890625,1.0
4712830,36.01342966666667,129.31957599999998,87.98483671776742,114.25147149457584,1.1,20.0,,-0.02734375,-0.359375,-0.8359375,0.15234375,-0.56640625,0.080078125,1.16015625,-9.67578125,0.7890625,1.0
4712831,,,,,,,,-0.234375,-0.3671875,-0.828125,-0.005859375,-0.498046875,-0.017578125,0.96875,-9.67578125,0.7890625,1.0
4712832,,,,,,,,-0.20703125,-0.3671875,-0.89453125,-0.015625,-0.482421875,-0.009765625,1.00390625,-9.671875,0.71484375,1.0
4712833,,,,,,,,-0.01953125,-0.40234375,-1.00390625,-0.06640625,-0.478515625,0.00390625,1.19921875,-9.70703125,0.59765625,1.0
4712834,,,,,,,,0.046875,-0.25,-1.0625,-0.1328125,-0.46875,0.01953125,1.2734375,-9.5546875,0.5234375,1.0
4712835,,,,,,,,-0.02734375,0.015625,-1.078125,-0.1796875,-0.439453125,0.029296875,1.19921875,-9.29296875,0.484375,1.0
4712836,,,,,,,,-0.18359375,0.1328125,-1.140625,-0.19921875,-0.4140625,0.025390625,1.04296875,-9.17578125,0.40625,1.0
4712837,,,,,,,,-0.83984375,0.1015625,-1.1015625,-0.259765625,-0.361328125,0.0078125,0.39453125,-9.2109375,0.40625,1.0
4712838,,,,,,,,-1.42578125,-0.93359375,-1.03125,-0.35546875,-0.380859375,0.0,-0.18359375,-10.2421875,0.4453125,1.0
4712839,,,,,,,,-1.42578125,-1.4609375,-0.9296875,-0.4375,-0.42578125,0.009765625,-0.18359375,-10.78515625,0.5234375,1.0
4712840,36.013431,129.319577,88.07498363475618,114.39941806426637,1.2000000000000002,22.0,,-0.6640625,-3.9453125,0.1953125,0.15234375,-0.56640625,0.080078125,1.16015625,-9.67578125,0.7890625,1.0
4712841,,,,,,,,0.17578125,-5.69921875,1.109375,-0.716796875,-0.767578125,0.05078125,1.42578125,-15.03125,2.4375,1.0
4712842,,,,,,,,1.82421875,-8.640625,2.71875,-0.806640625,-0.935546875,0.072265625,3.07421875,-17.98828125,3.96875,1.0
4712843,,,,,,,,2.55078125,-8.86328125,3.03515625,-0.822265625,-1.005859375,0.087890625,3.80078125,-18.21484375,4.23828125,1.0
4712844,,,,,,,,3.42578125,-4.5546875,2.890625,-0.39453125,-1.0,0.072265625,4.68359375,-13.921875,3.96875,1.0
4712845,,,,,,,,2.4921875,-1.3359375,1.90234375,0.462890625,-0.447265625,0.029296875,3.765625,-10.70703125,2.97265625,1.0
4712846,,,,,,,,-0.54296875,0.41796875,2.15625,0.720703125,-0.3515625,-0.03515625,0.73828125,-8.94140625,3.359375,1.0
4712847,,,,,,,,-1.5078125,-1.5078125,2.3671875,0.517578125,-0.759765625,0.017578125,-0.21875,-10.859375,3.625,1.0
4712848,,,,,,,,-1.47265625,-2.51171875,2.54296875,0.4453125,-0.94921875,0.0625,-0.18359375,-11.85546875,3.81640625,1.0
4712849,,,,,,,,-1.0859375,-2.89453125,2.3671875,0.455078125,-1.236328125,0.16796875,0.203125,-12.23828125,3.6640625,1.0
4712850,36.013431833333335,129.3195775,88.12005690703992,114.4918845581847,1.1,22.0,,-0.16015625,-2.08984375,1.90625,0.58984375,-1.32421875,0.26953125,1.12109375,-11.43359375,3.2421875,1.0
4712851,,,,,,,,0.30859375,-1.25390625,1.75390625,0.724609375,-1.232421875,0.349609375,1.58203125,-10.58984375,3.12890625,1.0
4712852,,,,,,,,0.55859375,-0.14453125,1.4296875,0.765625,-1.09765625,0.41015625,1.80859375,-9.4765625,2.859375,1.0
4712853,,,,,,,,0.5,0.70703125,1.0625,0.705078125,-1.05078125,0.451171875,1.734375,-8.6328125,2.5546875,1.0
4712854,,,,,,,,0.8359375,0.73828125,0.62890625,0.57421875,-1.111328125,0.46875,2.0390625,-8.59765625,2.16796875,1.0
4712855,,,,,,,,1.08984375,0.546875,0.40625,0.41796875,-1.197265625,0.466796875,2.26953125,-8.79296875,1.9765625,1.0
4712856,,,,,,,,1.23828125,0.23828125,0.34765625,0.224609375,-1.251953125,0.41796875,2.38671875,-9.09765625,1.94140625,1.0
4712857,,,,,,,,0.9921875,0.59375,0.33984375,0.19140625,-1.181640625,0.39453125,2.1171875,-8.75,1.94140625,1.0
4712858,,,,,,,,0.921875,0.859375,0.24609375,0.23046875,-1.095703125,0.361328125,2.0390625,-8.48828125,1.86328125,1.0
4712859,,,,,,,,0.8984375,1.51171875,-0.06640625,0.28125,-1.03515625,0.33203125,2.0,-7.828125,1.55859375,1.0
4712860,36.013433166666665,129.319578,88.16512961967284,114.63983067650766,1.2000000000000002,17.0,,1.03125,1.97265625,-0.3203125,0.58984375,-1.32421875,0.26953125,1.12109375,-11.43359375,3.2421875,1.0
4712861,,,,,,,,1.23828125,2.5078125,-0.60546875,0.330078125,-0.958984375,0.306640625,2.30859375,-6.83984375,1.05859375,1.0
4712862,,,,,,,,1.28515625,2.62890625,-0.66796875,0.310546875,-0.939453125,0.291015625,2.34765625,-6.71875,1.01953125,1.0
4712863,,,,,,,,1.375,2.890625,-0.96484375,0.244140625,-0.876953125,0.2578125,2.421875,-6.45703125,0.75390625,1.0
4712864,,,,,,,,1.421875,2.8515625,-1.01171875,0.21875,-0.857421875,0.2421875,2.4609375,-6.4921875,0.71484375,1.0
4712865,,,,,,,,1.46875,2.546875,-1.13671875,0.19140625,-0.81640625,0.2265625,2.5,-6.80078125,0.59765625,1.0
4712866,,,,,,,,1.515625,2.46875,-1.10546875,0.1796875,-0.79296875,0.23046875,2.5390625,-6.875,0.63671875,1.0
4712867,,,,,,,,1.5546875,2.38671875,-1.15234375,0.166015625,-0.720703125,0.208984375,2.578125,-6.9453125,0.59765625,1.0
4712868,,,,,,,,1.62109375,2.34765625,-1.15234375,0.162109375,-0.69140625,0.1875,2.65234375,-6.98828125,0.59765625,1.0
4712869,,,,,,,,1.5546875,2.23046875,-1.1953125,0.162109375,-0.630859375,0.158203125,2.578125,-7.1015625,0.5625,1.0
4712870,36.013434,129.31957849999998,88.21020288471726,114.7322971698826,1.0,17.0,,1.5546875,2.1953125,-1.16796875,0.58984375,-1.32421875,0.26953125,1.12109375,-11.43359375,3.2421875,1.0
4712871,,,,,,,,1.515625,2.0390625,-1.2109375,0.16015625,-0.556640625,0.119140625,2.5390625,-7.30078125,0.5625,1.0
4712872,,,,,,,,1.4453125,1.96484375,-1.18359375,0.166015625,-0.494140625,0.08984375,2.4609375,-7.37109375,0.59765625,1.0
4712873,,,,,,,,1.3984375,1.91015625,-1.15234375,0.177734375,-0.419921875,0.076171875,2.421875,-7.40625,0.63671875,1.0
4712874,,,,,,,,1.36328125,1.87109375,-1.12890625,0.1796875,-0.35546875,0.076171875,2.38671875,-7.4453125,0.67578125,1.0
4712875,,,,,,,,1.31640625,1.6796875,-0.953125,0.185546875,-0.287109375,0.078125,2.34765625,-7.64453125,0.8671875,1.0
4712876,,,,,,,,1.31640625,1.55859375,-0.890625,0.189453125,-0.255859375,0.083984375,2.34765625,-7.75,0.9453125,1.0
4712877,,,,,,,,1.3984375,1.13671875,-0.90625,0.19140625,-0.2421875,0.095703125,2.421875,-8.171875,0.9453125,1.0
4712878,,,,,,,,1.4375,1.01953125,-1.0390625,0.2109375,-0.240234375,0.1015625,2.4609375,-8.29296875,0.828125,1.0
4712879,,,,,,,,1.63671875,0.69921875,-1.16796875,0.2109375,-0.240234375,0.11328125,2.65234375,-8.59375,0.71484375,1.0
4712880,36.013434833333335,129.31957883333334,88.24025142437948,114.82476351401948,0.9,14.0,,1.74609375,0.46875,-1.18359375,0.58984375,-1.32421875,0.26953125,2.76953125,-8.828125,0.71484375,1.0
4712881,,,,,,,,1.828125,0.1171875,-1.0078125,0.15625,-0.109375,0.119140625,2.84375,-9.171875,0.90625,1.0
4712882,,,,,,,,1.76171875,-0.07421875,-0.78515625,0.1484375,-0.068359375,0.12890625,2.76953125,-9.36328125,1.13671875,1.0
4712883,,,,,,,,1.76953125,-0.265625,-0.6484375,0.142578125,0.017578125,0.1328125,2.76953125,-9.5546875,1.2890625,1.0
4712884,,,,,,,,1.74609375,-0.46484375,-0.42578125,0.130859375,0.0703125,0.140625,2.73046875,-9.74609375,1.51953125,1.0
4712885,,,,,,,,1.75390625,-0.50390625,-0.2109375,0.111328125,0.083984375,0.15625,2.73046875,-9.78515625,1.75,1.0
4712886,,,,,,,,1.72265625,-0.54296875,-0.296875,0.109375,0.083984375,0.1640625,2.69140625,-9.82421875,1.671875,1.0
4712887,,,,,,,,1.66796875,-0.703125,-0.6875,0.076171875,0.044921875,0.18359375,2.61328125,-9.98046875,1.2890625,1.0
4712888,,,,,,,,1.6015625,-0.734375,-0.96484375,0.025390625,0.021484375,0.197265625,2.5390625,-10.015625,1.01953125,1.0
4712889,,,,,,,,1.53125,-0.703125,-1.1171875,-0.017578125,0.013671875,0.203125,2.4609375,-9.98046875,0.8671875,1.0
4712890,36.013436,129.319579,88.25527485548912,114.9542161222176,1.1,8.0,,1.29296875,-0.88671875,-1.140625,0.58984375,-1.32421875,0.26953125,2.76953125,-8.828125,0.71484375,1.0
4712891,,,,,,,,0.92578125,-1.00390625,-1.0078125,-0.203125,0.115234375,0.27734375,1.80859375,-10.28515625,0.9453125,1.0
4712892,,,,,,,,0.57421875,-0.7265625,-0.6796875,-0.263671875,0.140625,0.30078125,1.42578125,-10.015625,1.25,1.0
4712893,,,,,,,,0.53125,-0.10546875,-0.46484375,-0.275390625,0.177734375,0.306640625,1.3515625,-9.3984375,1.44140625,1.0
4712894,,,,,,,,0.67578125,0.171875,-0.46484375,-0.30078125,0.119140625,0.30859375,1.46484375,-9.1328125,1.40234375,1.0
4712895,,,,,,,,0.859375,-0.08984375,-0.5078125,-0.380859375,0.01171875,0.30859375,1.6171875,-9.3984375,1.328125,1.0
4712896,,,,,,,,0.953125,-0.92578125,-0.75390625,-0.439453125,-0.044921875,0.31640625,1.6953125,-10.24609375,1.05859375,1.0
4712897,,,,,,,,0.73828125,-1.4921875,-0.8515625,-0.5859375,-0.150390625,0.318359375,1.46484375,-10.8203125,0.90625,1.0
4712898,,,,,,,,-0.00390625,-1.515625,0.3515625,-0.65234375,-0.126953125,0.259765625,0.69921875,-10.86328125,2.0546875,1.0
4712899,,,,,,,,-0.2421875,-2.234375,0.8828125,-0.6015625,0.021484375,0.224609375,0.4296875,-11.58984375,2.515625,1.0
4712900,36.013436999999996,129.31957883333334,88.24024900982397,115.0651752210403,1.0,359.0,0.0,-1.49609375,-4.05859375,1.43359375,-0.634765625,0.056640625,0.24609375,-0.83203125,-13.42578125,3.01171875,1.0
4712901,,,,,,,,-2.890625,-4.6640625,1.8359375,-0.728515625,-0.009765625,0.255859375,-2.25,-14.0390625,3.359375,1.0
4712902,,,,,,,,-4.7890625,-3.18359375,3.3671875,-0.669921875,-0.09765625,0.2421875,-4.1640625,-12.58203125,4.8125,1.0
4712903,,,,,,,,-4.97265625,-2.45703125,3.8203125,-0.515625,-0.109375,0.236328125,-4.35546875,-11.8515625,5.234375,1.0
4712904,,,,,,,,-4.20703125,-0.953125,3.8828125,0.078125,-0.423828125,0.310546875,-3.62890625,-10.359375,5.2734375,1.0
4712905,,,,,,,,-2.19921875,-1.22265625,2.5703125,0.171875,-0.740234375,0.3828125,-1.63671875,-10.625,3.96875,1.0
4712906,,,,,,,,-0.53125,-1.98046875,2.296875,0.08203125,-0.873046875,0.404296875,0.0078125,-11.39453125,3.703125,1.0
4712907,,,,,,,,0.03125,-2.01953125,2.37109375,0.048828125,-0.88671875,0.337890625,0.546875,-11.4296875,3.77734375,1.0
4712908,,,,,,,,0.15234375,-1.90234375,2.41015625,0.068359375,-0.876953125,0.298828125,0.66015625,-11.31640625,3.81640625,1.0
4712909,,,,,,,,0.16796875,-1.0703125,2.203125,0.2578125,-0.84765625,0.1484375,0.66015625,-10.48046875,3.625,1.0
4712910,36.01343816666667,129.31957849999998,88.21019824227659,115.19462737698711,1.2000000000000002,350.0,,0.3359375,0.125,1.19921875,-0.634765625,0.056640625,0.24609375,0.8515625,-9.2890625,2.66796875,1.0
4712911,,,,,,,,0.20703125,0.203125,0.9921875,0.12109375,-1.05859375,-0.076171875,0.73828125,-9.2109375,2.4765625,1.0
4712912,,,,,,,,-0.015625,-0.07421875,0.984375,0.05859375,-1.048828125,-0.1015625,0.546875,-9.48046875,2.4765625,1.0
4712913,,,,,,,,-0.015625,0.34765625,0.72265625,0.0546875,-0.982421875,-0.11328125,0.5859375,-9.05859375,2.20703125,1.0
4712914,,,,,,,,0.2578125,0.76953125,0.4921875,0.0703125,-0.955078125,-0.125,0.890625,-8.63671875,1.9765625,1.0
4712915,,,,,,,,0.50390625,1.3828125,0.140625,0.08203125,-0.9453125,-0.12890625,1.16015625,-8.0234375,1.6328125,1.0
4712916,,,,,,,,0.52734375,1.57421875,-0.01171875,0.076171875,-0.95703125,-0.134765625,1.19921875,-7.83203125,1.48046875,1.0
4712917,,,,,,,,0.6484375,1.99609375,-0.39453125,0.072265625,-0.982421875,-0.138671875,1.3515625,-7.40625,1.09765625,1.0
4712918,,,,,,,,0.6640625,2.1953125,-0.6640625,0.076171875,-0.9921875,-0.1484375,1.390625,-7.22265625,0.828125,1.0
4712919,,,,,,,,0.5546875,2.1875,-0.9296875,0.08203125,-0.947265625,-0.154296875,1.3125,-7.22265625,0.5625,1.0
4712920,36.013439166666664,129.31957849999998,88.21019712838545,115.30558662758679,1.1,350.0,,0.29296875,2.1875,-1.015625,0.08984375,-0.873046875,-0.1484375,0.8515625,-9.2890625,2.66796875,1.0
4712921,,,,,,,,-0.19921875,2.37109375,-0.90234375,0.10546875,-0.7890625,-0.140625,0.62109375,-7.0234375,0.59765625,1.0
4712922,,,,,,,,-0.4140625,2.29296875,-0.83203125,0.14453125,-0.72265625,-0.1328125,0.4296875,-7.10546875,0.67578125,1.0
4712923,,,,,,,,-0.54296875,2.2109375,-0.87109375,0.166015625,-0.693359375,-0.123046875,0.31640625,-7.18359375,0.63671875,1.0
4712924,,,,,,,,-0.671875,2.2109375,-0.92578125,0.19921875,-0.67578125,-0.111328125,0.203125,-7.1796875,0.59765625,1.0
4712925,,,,,,,,-0.859375,1.703125,-0.94140625,0.189453125,-0.669921875,-0.080078125,0.046875,-7.68359375,0.59765625,1.0
4712926,,,,,,,,-0.8359375,1.3203125,-0.765625,0.1796875,-0.66796875,-0.052734375,0.0859375,-8.06640625,0.7890625,1.0
4712927,,,,,,,,-0.7734375,0.96875,-0.734375,0.1875,-0.685546875,-0.029296875,0.1640625,-8.40625,0.828125,1.0
4712928,,,,,,,,-0.78125,0.9296875,-0.703125,0.1953125,-0.701171875,-0.01171875,0.1640625,-8.44921875,0.8671875,1.0
4712929,,,,,,,,-0.71484375,0.9609375,-0.59765625,0.208984375,-0.71484375,0.0078125,0.23828125,-8.41015625,0.98046875,1.0
4712930,36.013439999999996,129.31957833333334,88.19517147116099,115.39805251735321,0.9,347.0,,-0.69140625,1.2578125,-0.734375,0.2578125,-0.73046875,0.04296875,0.27734375,-8.10546875,0.8671875,1.0
4712931,,,,,,,,-0.58984375,1.25,-0.8515625,0.25390625,-0.744140625,0.0703125,0.39453125,-8.10546875,0.7890625,1.0
4712932,,,,,,,,-0.4453125,1.13671875,-0.97265625,0.236328125,-0.751953125,0.076171875,0.546875,-8.21484375,0.67578125,1.0
4712933,,,,,,,,-0.140625,0.9765625,-1.1015625,0.19140625,-0.755859375,0.08984375,0.8515625,-8.37109375,0.5625,1.0
4712934,,,,,,,,0.04296875,0.82421875,-1.1484375,0.138671875,-0.76171875,0.095703125,1.04296875,-8.51953125,0.5234375,1.0
4712935,,,,,,,,0.390625,0.73828125,-0.99609375,0.103515625,-0.748046875,0.095703125,1.390625,-8.59765625,0.67578125,1.0
4712936,,,,,,,,0.57421875,0.73828125,-0.99609375,0.08984375,-0.734375,0.087890625,1.58203125,-8.59375,0.67578125,1.0
4712937,,,,,,,,0.56640625,0.8515625,-0.99609375,0.0703125,-0.67578125,0.05859375,1.58203125,-8.484375,0.67578125,1.0
4712938,,,,,,,,0.3671875,0.77734375,-1.07421875,0.046875,-0.611328125,0.0390625,1.390625,-8.55859375,0.59765625,1.0
4712939,,,,,,,,0.328125,0.65234375,-1.06640625,0.01171875,-0.599609375,0.03125,1.3515625,-8.671875,0.59765625,1.0
4712940,36.01344099999999,129.31957816666667,88.18014562651477,115.50901161616537,1.1,346.0,,0.28125,0.61328125,-1.01953125,-0.046875,-0.591796875,0.017578125,1.3125,-8.71484375,0.63671875,1.0
4712941,,,,,,,,0.42578125,0.34765625,-0.97265625,-0.078125,-0.5859375,0.005859375,1.46484375,-8.9765625,0.67578125,1.0
4712942,,,,,,,,0.44921875,-0.21875,-0.8359375,-0.130859375,-0.564453125,0.0078125,1.50390625,-9.55859375,0.7890625,1.0
4712943,,,,,,,,0.48828125,-0.44921875,-0.75,-0.15234375,-0.5390625,0.0078125,1.54296875,-9.78515625,0.8671875,1.0
4712944,,,,,,,,0.59375,-1.18359375,-0.61328125,-0.193359375,-0.484375,0.015625,1.65625,-10.51171875,0.98046875,1.0
4712945,,,,,,,,0.703125,-1.55859375,-0.54296875,-0.212890625,-0.431640625,0.02734375,1.7734375,-10.89453125,1.01953125,1.0
4712946,,,,,,,,0.73828125,-1.5234375,-0.25,-0.240234375,-0.37109375,0.03125,1.80859375,-10.859375,1.2890625,1.0
4712947,,,,,,,,0.3125,-0.79296875,-0.171875,-0.193359375,-0.2578125,0.017578125,1.390625,-10.125,1.328125,1.0
4712948,,,,,,,,0.15625,-0.44140625,-0.125,-0.16796875,-0.23046875,0.01171875,1.234375,-9.78125,1.3671875,1.0
4712949,,,,,,,,-0.69140625,0.4765625,-0.5234375,-0.10546875,-0.216796875,0.013671875,0.39453125,-8.87109375,0.9453125,1.0
4712950,36.013442000000005,129.31957783333334,88.15009505189919,115.61997056547114,1.1,346.0,,-1.15234375,0.74609375,-0.6640625,-0.15234375,-0.28515625,0.025390625,1.3125,-8.71484375,0.63671875,1.0
4712951,,,,,,,,-1.84375,0.9453125,-0.67578125,-0.287109375,-0.466796875,0.03125,-1.0625,-8.6328125,0.828125,1.0
4712952,,,,,,,,-2.15625,0.70703125,-0.5859375,-0.333984375,-0.537109375,0.052734375,-1.21484375,-8.9375,0.828125,1.0
4712953,,,,,,,,-2.38671875,-0.55078125,-0.5546875,-0.509765625,-0.796875,0.11328125,-1.37109375,-10.4375,0.828125,1.0
4712954,,,,,,,,-2.46484375,-1.078125,-0.5,-0.583984375,-0.90625,0.142578125,-1.25390625,-11.58984375,1.3671875,1.0
4712955,,,,,,,,-2.234375,-2.9453125,0.453125,-0.693359375,-1.123046875,0.185546875,-0.83203125,-13.1953125,2.0546875,1.0
4712956,,,,,,,,-1.91796875,-3.8203125,0.8359375,-0.734375,-1.21875,0.21875,-0.44921875,-14.1484375,2.36328125,1.0
4712957,,,,,,,,-0.5,-6.53125,1.56640625,-0.798828125,-1.439453125,0.2734375,1.3125,-16.48828125,2.859375,1.0
4712958,,,,,,,,0.234375,-7.09765625,1.765625,-0.802734375,-1.55078125,0.29296875,2.1171875,-16.68359375,2.9375,1.0
4712959,,,,,,,,2.5390625,-4.02734375,2.3125,-0.55078125,-1.673828125,0.27734375,3.6875,-12.234375,3.1640625,1.0
4712960,36.01344266666667,129.3195773333333,88.10502011449299,115.69394294606442,1.0,343.0,,-1.15234375,0.74609375,-0.6640625,-0.15234375,-0.28515625,0.025390625,2.5,-11.28125,1.9765625,1.0
4712961,,,,,,,,1.109375,-2.1796875,1.26171875,0.462890625,-1.25390625,0.146484375,1.734375,-11.9296875,2.515625,1.0
4712962,,,,,,,,0.34375,-2.9453125,1.890625,0.345703125,-1.380859375,0.1015625,1.2734375,-12.65625,3.05078125,1.0
4712963,,,,,,,,0.15234375,-3.51953125,2.2109375,0.404296875,-1.583984375,0.126953125,1.390625,-13.078125,3.1640625,1.0
4712964,,,,,,,,0.640625,-3.3203125,1.8671875,0.58203125,-1.642578125,0.193359375,1.6953125,-12.73828125,2.8984375,1.0
4712965,,,,,,,,0.9609375,-1.94921875,1.3671875,0.81640625,-1.439453125,0.33203125,2.0,-11.3515625,2.4765625,1.0
4712966,,,,,,,,0.671875,-0.76171875,1.15234375,0.8515625,-1.248046875,0.408203125,1.6953125,-10.1640625,2.32421875,1.0
4712967,,,,,,,,0.50390625,-0.04296875,0.8125,0.783203125,-1.140625,0.455078125,1.50390625,-9.44140625,2.0546875,1.0
4712968,,,,,,,,0.57421875,0.30078125,0.49609375,0.646484375,-1.154296875,0.47265625,1.54296875,-9.09375,1.78515625,1.0
4712969,,,,,,,,0.90234375,0.6015625,0.10546875,0.470703125,-1.228515625,0.46875,1.84765625,-8.79296875,1.44140625,1.0
4712970,36.0134435,129.319577,88.07496972916898,115.78640868670301,1.1,341.0,,1.125,0.76171875,0.0,0.328125,-1.265625,0.466796875,2.0390625,-8.63671875,1.3671875,1.0
4712971,,,,,,,,1.1875,1.14453125,-0.09375,0.255859375,-1.2421875,0.44921875,2.078125,-8.25390625,1.2890625,1.0
4712972,,,,,,,,1.125,1.296875,-0.0546875,0.2265625,-1.224609375,0.44140625,2.0,-8.1015625,1.328125,1.0
4712973,,,,,,,,0.99609375,1.7578125,-0.1875,0.220703125,-1.177734375,0.427734375,1.84765625,-7.64453125,1.2109375,1.0
4712974,,,,,,,,1.00390625,1.95703125,-0.22265625,0.23828125,-1.158203125,0.423828125,1.84765625,-7.4453125,1.17578125,1.0
4712975,,,,,,,,1.28125,2.8828125,-0.4921875,0.271484375,-1.109375,0.40234375,2.078125,-6.53125,0.9453125,1.0
4712976,,,,,,,,1.58203125,3.10546875,-0.59375,0.255859375,-1.08984375,0.408203125,2.34765625,-6.30078125,0.8671875,1.0
4712977,,,,,,,,1.6640625,3.19140625,-0.640625,0.2421875,-1.080078125,0.41015625,2.421875,-6.21875,0.828125,1.0
4712978,,,,,,,,1.8515625,3.26171875,-0.9921875,0.216796875,-1.08203125,0.390625,2.578125,-6.140625,0.484375,1.0
4712979,,,,,,,,2.00390625,3.22265625,-1.046875,0.19921875,-1.0859375,0.3828125,2.73046875,-6.1796875,0.4453125,1.0
4712980,36.01344433333334,129.31957616666665,87.99984514990554,115.87887397571802,1.2000000000000002,337.0,,2.25,2.73046875,-1.3203125,0.328125,-1.265625,0.466796875,2.9609375,-6.6796875,0.1796875,1.0
4712981,,,,,,,,2.41796875,2.42578125,-1.359375,0.091796875,-0.99609375,0.306640625,3.11328125,-6.984375,0.140625,1.0
4712982,,,,,,,,2.47265625,2.30859375,-1.359375,0.087890625,-0.943359375,0.28515625,3.15234375,-7.10546875,0.140625,1.0
4712983,,,,,,,,2.41015625,1.87890625,-1.21484375,0.134765625,-0.69921875,0.21484375,3.07421875,-7.5234375,0.29296875,1.0
4712984,,,,,,,,2.140625,1.65234375,-0.92578125,0.15234375,-0.54296875,0.1640625,2.8046875,-7.75,0.59765625,1.0
4712985,,,,,,,,1.94921875,1.6875,-0.625,0.197265625,-0.431640625,0.119140625,2.61328125,-7.72265625,0.90625,1.0
4712986,,,,,,,,1.875,1.65234375,-0.55859375,0.2265625,-0.384765625,0.099609375,2.5390625,-7.75390625,0.98046875,1.0
4712987,,,,,,,,1.765625,1.71875,-0.58203125,0.2734375,-0.314453125,0.083984375,2.421875,-7.6796875,0.98046875,1.0
4712988,,,,,,,,1.69140625,1.48046875,-0.75,0.3203125,-0.24609375,0.078125,2.34765625,-7.91015625,0.828125,1.0
4712989,,,,,,,,1.68359375,1.3203125,-0.7890625,0.3203125,-0.177734375,0.080078125,2.34765625,-8.06640625,0.828125,1.0
4712990,36.013445000000004,129.3195755,87.93974548977266,115.95284620784956,1.0,333.0,,1.65234375,0.9765625,-0.8125,0.318359375,-0.1328125,0.08203125,2.30859375,-8.41015625,0.828125,1.0
4712991,,,,,,,,1.69140625,0.43359375,-0.68359375,0.306640625,-0.091796875,0.08984375,2.34765625,-8.94140625,0.98046875,1.0
4712992,,,,,,,,1.69921875,0.15625,-0.71484375,0.302734375,-0.03515625,0.087890625,2.34765625,-9.21484375,0.98046875,1.0
4712993,,,,,,,,1.73828125,0.1171875,-0.61328125,0.294921875,-0.0234375,0.08203125,2.38671875,-9.25390625,1.09765625,1.0
4712994,,,,,,,,1.73828125,-0.12109375,-0.5234375,0.28515625,-0.009765625,0.068359375,2.38671875,-9.4765625,1.2109375,1.0
4712995,,,,,,,,1.78125,-0.3125,-0.46875,0.259765625,-0.02734375,0.060546875,2.421875,-9.67578125,1.2890625,1.0
4712996,,,,,,,,1.8515625,-0.55078125,-0.33984375,0.21484375,-0.03125,0.048828125,2.5,-9.90234375,1.44140625,1.0
4712997,,,,,,,,2.08984375,-0.7109375,-0.2109375,0.16015625,-0.01953125,0.044921875,2.73046875,-10.05859375,1.59375,1.0
4712998,,,,,,,,2.12109375,-0.75,-0.140625,0.138671875,-0.01171875,0.04296875,2.76953125,-10.09375,1.671875,1.0
4712999,,,,,,,,2.12890625,-0.79296875,-0.1875,0.125,0.029296875,0.04296875,2.76953125,-10.125,1.6328125,1.0
4713000,36.01344566666667,129.3195745,87.84959636678474,116.02681813947311,1.1,326.0,0.0,1.8984375,-0.71875,-0.4609375,0.318359375,-0.1328125,0.08203125,2.30859375,-8.41015625,0.828125,1.0
4713001,,,,,,,,1.78125,-0.6796875,-0.625,0.05078125,0.076171875,0.07421875,2.421875,-10.01953125,1.2109375,1.0
4713002,,,,,,,,1.5234375,-0.79296875,-0.8984375,-0.0703125,0.1015625,0.111328125,2.15625,-10.12890625,0.9453125,1.0
4713003,,,,,,,,1.1484375,-0.6796875,-0.9609375,-0.16015625,0.125,0.138671875,1.7734375,-10.015625,0.8671875,1.0
4713004,,,,,,,,0.97265625,-0.36328125,-0.859375,-0.2421875,0.154296875,0.16015625,1.58203125,-9.703125,0.9453125,1.0
4713005,,,,,,,,0.99609375,-0.05859375,-0.64453125,-0.30859375,0.19140625,0.173828125,1.58203125,-9.3984375,1.13671875,1.0
4713006,,,,,,,,1.0234375,0.0546875,-0.58984375,-0.341796875,0.189453125,0.177734375,1.6171875,-9.29296875,1.17578125,1.0
4713007,,,,,,,,1.0859375,0.0625,-0.359375,-0.453125,0.1796875,0.1875,1.65625,-9.29296875,1.3671875,1.0
4713008,,,,,,,,1.0703125,-0.91015625,-0.51171875,-0.662109375,0.033203125,0.22265625,1.6171875,-10.28515625,1.13671875,1.0
4713009,,,,,,,,0.62890625,-0.984375,-0.328125,-0.7890625,-0.068359375,0.201171875,1.16015625,-10.36328125,1.25,1.0
4713010,36.013446,129.3195735,87.75944761896972,116.06380365459336,1.0,319.0,,0.13671875,-1.23046875,0.4765625,-0.77734375,0.005859375,0.13671875,0.66015625,-10.62890625,1.9765625,1.0
4713011,,,,,,,,-0.23046875,-2.484375,1.23046875,-0.751953125,0.017578125,0.1484375,0.27734375,-11.890625,2.66796875,1.0
4713012,,,,,,,,-0.98828125,-3.47265625,1.77734375,-0.833984375,-0.09765625,0.14453125,-0.48828125,-12.8828125,3.12890625,1.0
4713013,,,,,,,,-2.13671875,-3.7734375,2.390625,-0.8359375,-0.16015625,0.130859375,-1.63671875,-13.1953125,3.703125,1.0
4713014,,,,,,,,-3.171875,-3.2578125,2.91796875,-0.701171875,-0.30078125,0.08984375,-2.671875,-12.6953125,4.16015625,1.0
4713015,,,,,,,,-3.203125,-1.60546875,2.859375,-0.314453125,-0.400390625,0.08984375,-2.7109375,-11.05078125,4.046875,1.0
4713016,,,,,,,,-2.359375,-0.484375,2.1484375,0.056640625,-0.48046875,0.150390625,-1.8671875,-9.94140625,3.3203125,1.0
4713017,,,,,,,,-1.73828125,-0.5703125,2.24609375,0.150390625,-0.431640625,0.224609375,-1.25390625,-10.015625,3.43359375,1.0
4713018,,,,,,,,-1.04296875,-1.296875,2.546875,0.109375,-0.36328125,0.255859375,-0.56640625,-10.74609375,3.7421875,1.0
4713019,,,,,,,,-0.28125,-1.75,2.70703125,-0.041015625,-0.267578125,0.27734375,0.1640625,-11.203125,3.89453125,1.0
4713020,36.013446333333334,129.31957233333333,87.65427414033444,116.10078902094807,1.1,308.0,,-0.10546875,-0.75390625,2.1328125,0.09765625,-0.353515625,0.166015625,0.31640625,-10.203125,3.3203125,1.0
4713021,,,,,,,,-0.2578125,-0.1875,1.9921875,0.21875,-0.46875,0.04296875,0.0078125,-9.51953125,3.08984375,1.0
4713022,,,,,,,,-0.4140625,-0.0546875,1.87109375,0.212890625,-0.525390625,0.0078125,-0.06640625,-9.515625,2.9375,1.0
4713023,,,,,,,,-0.65625,-0.75390625,1.46484375,0.037109375,-0.685546875,-0.0703125,-0.21875,-10.20703125,2.70703125,1.0
4713024,,,,,,,,-0.6640625,-0.9453125,1.46484375,-0.009765625,-0.7265625,-0.08203125,-0.21875,-10.40234375,2.70703125,1.0
4713025,,,,,,,,-0.390625,-0.79296875,1.3203125,-0.00390625,-0.70703125,-0.091796875,0.0859375,-10.2421875,2.5546875,1.0
4713026,,,,,,,,-0.14453125,-0.1015625,0.93359375,0.076171875,-0.615234375,-0.0859375,0.35546875,-9.5546875,2.16796875,1.0
4713027,,,,,,,,-0.11328125,0.09765625,0.8515625,0.115234375,-0.55859375,-0.07421875,0.39453125,-9.36328125,2.09375,1.0
4713028,,,,,,,,-0.0859375,0.59375,0.65234375,0.15625,-0.484375,-0.056640625,0.4296875,-8.87109375,1.90234375,1.0
4713029,,,,,,,,-0.0234375,0.77734375,0.55859375,0.173828125,-0.46875,-0.048828125,0.5078125,-8.671875,1.82421875,1.0
4713030,36.01344683333333,129.31957133333333,87.56412520811341,116.1562677464702,1.1,304.0,,0.08203125,1.27734375,0.3125,0.09765625,-0.353515625,0.166015625,0.31640625,-10.203125,3.3203125,1.0
4713031,,,,,,,,0.15234375,1.58203125,0.10546875,0.19140625,-0.462890625,-0.025390625,0.69921875,-7.8671875,1.40234375,1.0
4713032,,,,,,,,0.09765625,2.1484375,-0.17578125,0.189453125,-0.447265625,-0.0234375,0.66015625,-7.296875,1.13671875,1.0
4713033,,,,,,,,0.015625,2.3046875,-0.32421875,0.1953125,-0.44140625,-0.013671875,0.5859375,-7.14453125,1.01953125,1.0
4713034,,,,,,,,-0.22265625,2.3046875,-0.5703125,0.173828125,-0.451171875,-0.01171875,0.35546875,-7.140625,0.7890625,1.0
4713035,,,,,,,,-0.62109375,2.1953125,-0.421875,0.1640625,-0.45703125,0.00390625,-0.02734375,-7.26171875,0.9453125,1.0
4713036,,,,,,,,-0.78515625,2.1484375,-0.4453125,0.185546875,-0.466796875,0.01953125,-0.18359375,-7.296875,0.9453125,1.0
4713037,,,,,,,,-1.12890625,2.11328125,-0.5,0.220703125,-0.490234375,0.03125,-0.52734375,-7.33203125,0.90625,1.0
4713038,,,,,,,,-1.328125,1.94921875,-0.640625,0.283203125,-0.53515625,0.068359375,-0.71875,-7.48828125,0.7890625,1.0
4713039,,,,,,,,-1.44140625,1.7890625,-0.87109375,0.28125,-0.619140625,0.10546875,-0.83203125,-7.640625,0.59765625,1.0
4713040,36.0134475,129.31957033333336,87.4739760941728,116.23023968178562,1.1,303.0,,-1.44140625,1.58984375,-0.90234375,0.283203125,-0.66796875,0.14453125,-0.83203125,-7.828125,0.59765625,1.0
4713041,,,,,,,,-1.2890625,1.359375,-1.0,0.28515625,-0.71875,0.171875,-0.6796875,-8.0625,0.5234375,1.0
4713042,,,,,,,,-1.2421875,1.3515625,-0.96875,0.287109375,-0.74609375,0.177734375,-0.640625,-8.06640625,0.5625,1.0
4713043,,,,,,,,-1.00390625,1.3125,-0.91796875,0.2890625,-0.798828125,0.208984375,-0.41015625,-8.1015625,0.63671875,1.0
4713044,,,,,,,,-0.9296875,1.34375,-0.88671875,0.3046875,-0.814453125,0.212890625,-0.3359375,-8.06640625,0.67578125,1.0
4713045,,,,,,,,-0.76953125,1.34375,-0.94921875,0.33203125,-0.833984375,0.228515625,-0.18359375,-8.0625,0.63671875,1.0
4713046,,,,,,,,-0.53125,1.296875,-1.1015625,0.32421875,-0.87109375,0.23046875,0.046875,-8.1015625,0.5234375,1.0
4713047,,,,,,,,-0.4453125,1.22265625,-1.15625,0.3046875,-0.884765625,0.228515625,0.125,-8.17578125,0.484375,1.0
4713048,,,,,,,,-0.32421875,1.0234375,-1.171875,0.267578125,-0.896484375,0.23046875,0.23828125,-8.3671875,0.484375,1.0
4713049,,,,,,,,-0.33203125,0.8984375,-1.1484375,0.26171875,-0.904296875,0.224609375,0.23828125,-8.484375,0.5234375,1.0
4713050,36.01344783333333,129.31956916666667,87.3688026169167,116.26722505172299,1.1,301.0,,-0.24609375,0.70703125,-0.98046875,0.283203125,-0.66796875,0.14453125,-0.83203125,-7.828125,0.59765625,1.0
4713051,,,,,,,,-0.16015625,0.578125,-0.921875,0.228515625,-0.900390625,0.19140625,0.39453125,-8.7890625,0.7890625,1.0
4713052,,,,,,,,0.10546875,0.15625,-1.05859375,0.201171875,-0.91015625,0.146484375,0.66015625,-9.2109375,0.67578125,1.0
4713053,,,,,,,,0.25,0.234375,-0.9140625,0.154296875,-0.89453125,0.11328125,0.8125,-9.1328125,0.828125,1.0
4713054,,,,,,,,0.40625,0.1484375,-0.84375,0.140625,-0.84375,0.0859375,0.96875,-9.2109375,0.90625,1.0
4713055,,,,,,,,0.3125,-0.51171875,-0.66015625,0.029296875,-0.751953125,0.0625,0.890625,-9.86328125,1.09765625,1.0
4713056,,,,,,,,0.19140625,-0.96875,-0.421875,-0.037109375,-0.697265625,0.06640625,0.77734375,-10.3203125,1.328125,1.0
4713057,,,,,,,,0.14453125,-1.0,-0.30078125,-0.076171875,-0.625,0.048828125,0.73828125,-10.359375,1.44140625,1.0
4713058,,,,,,,,0.05859375,-0.578125,-0.24609375,-0.078125,-0.537109375,0.03515625,0.66015625,-9.94140625,1.48046875,1.0
4713059,,,,,,,,-0.1015625,-0.12890625,-0.4296875,-0.0859375,-0.42578125,0.01953125,0.5078125,-9.4765625,1.2890625,1.0
4713060,36.013448499999996,129.31956816666667,87.27865350556642,116.34119698782335,1.1,302.0,,-0.609375,0.4453125,-0.60546875,-0.09765625,-0.3359375,-0.001953125,0.0078125,-8.91015625,1.09765625,1.0
4713061,,,,,,,,-0.9140625,0.68359375,-0.70703125,-0.193359375,-0.32421875,-0.015625,-0.296875,-8.67578125,0.98046875,1.0
4713062,,,,,,,,-1.34375,0.72265625,-0.796875,-0.32421875,-0.38671875,-0.03125,-0.71875,-8.6328125,0.8671875,1.0
4713063,,,,,,,,-1.55078125,0.42578125,-0.671875,-0.453125,-0.482421875,-0.05078125,-0.91015625,-8.94140625,0.9453125,1.0
4713064,,,,,,,,-1.48828125,-0.91796875,-0.51171875,-0.595703125,-0.619140625,-0.064453125,-0.83203125,-10.28515625,1.05859375,1.0
4713065,,,,,,,,-1.19921875,-2.01171875,-0.36328125,-0.74609375,-0.78515625,-0.0703125,-0.52734375,-11.39453125,1.13671875,1.0
4713066,,,,,,,,-0.671875,-3.66015625,0.82421875,-0.806640625,-0.861328125,-0.0703125,0.0078125,-13.0390625,2.28515625,1.0
4713067,,,,,,,,-0.33984375,-4.265625,1.28515625,-0.865234375,-1.162109375,-0.04296875,0.77734375,-14.265625,2.8984375,1.0
4713068,,,,,,,,1.28125,-6.1640625,1.9140625,-0.87109375,-1.3671875,-0.017578125,2.69140625,-15.9921875,3.2421875,1.0
4713069,,,,,,,,2.71484375,-6.4921875,2.19921875,-0.771484375,-1.39453125,-0.021484375,4.453125,-14.15234375,3.81640625,1.0
4713070,36.013449,129.31956716666667,87.18850457833048,116.39667571908461,1.1,301.0,,-0.609375,0.4453125,-0.60546875,-0.263671875,-1.01171875,-0.048828125,4.30078125,-11.93359375,3.93359375,1.0
4713071,,,,,,,,2.875,-1.8515625,2.77734375,0.306640625,-0.572265625,-0.12109375,2.5,-10.859375,3.81640625,1.0
4713072,,,,,,,,1.71875,-1.4296875,2.73046875,0.4375,-0.505859375,-0.138671875,2.078125,-10.9296875,3.93359375,1.0
4713073,,,,,,,,0.5078125,-1.78125,2.9609375,0.466796875,-0.66015625,-0.158203125,0.1640625,-12.08984375,4.4296875,1.0
4713074,,,,,,,,-0.6484375,-2.6640625,3.2890625,0.44921875,-0.8125,-0.16015625,-0.2578125,-12.50390625,4.46875,1.0
4713075,,,,,,,,-1.28515625,-3.390625,3.2109375,0.48046875,-1.111328125,-0.07421875,-0.48828125,-12.921875,4.23828125,1.0
4713076,,,,,,,,-1.25390625,-3.47265625,2.73046875,0.54296875,-1.201171875,-0.025390625,-0.41015625,-12.88671875,3.93359375,1.0
4713077,,,,,,,,-0.65625,-2.5625,1.80859375,0.666015625,-1.236328125,0.078125,0.203125,-11.96875,3.05078125,1.0
4713078,,,,,,,,-0.47265625,-2.140625,1.640625,0.71875,-1.1953125,0.134765625,0.39453125,-11.546875,2.9375,1.0
4713079,,,,,,,,0.15234375,0.06640625,1.09375,0.712890625,-0.935546875,0.359375,1.00390625,-9.32421875,2.515625,1.0
4713080,36.01344916666667,129.319566,87.08333128915483,116.4151678835292,1.2000000000000002,297.0,,0.27734375,0.44921875,0.80078125,0.625,-0.892578125,0.404296875,1.12109375,-8.9375,2.24609375,1.0
4713081,,,,,,,,0.4765625,0.37109375,0.625,0.30859375,-0.91015625,0.515625,1.2734375,-9.015625,2.1328125,1.0
4713082,,,,,,,,0.9765625,-0.08203125,0.5390625,0.111328125,-1.0234375,0.53125,1.734375,-9.4765625,2.0546875,1.0
4713083,,,,,,,,1.19921875,-0.08203125,0.64453125,0.017578125,-1.0546875,0.517578125,1.92578125,-9.48046875,2.16796875,1.0
4713084,,,,,,,,1.15234375,0.234375,0.69140625,0.029296875,-0.974609375,0.470703125,1.84765625,-9.17578125,2.20703125,1.0
4713085,,,,,,,,0.88671875,1.0859375,0.41796875,0.126953125,-0.869140625,0.390625,1.54296875,-8.33203125,1.94140625,1.0
4713086,,,,,,,,0.94140625,1.3125,0.30078125,0.15234375,-0.841796875,0.380859375,1.58203125,-8.1015625,1.82421875,1.0
4713087,,,,,,,,0.87890625,1.96484375,-0.08984375,0.173828125,-0.8359375,0.333984375,1.50390625,-7.44921875,1.44140625,1.0
4713088,,,,,,,,0.96484375,2.1171875,-0.2578125,0.16015625,-0.8359375,0.330078125,1.58203125,-7.30078125,1.2890625,1.0
4713089,,,,,,,,1.1015625,2.2734375,-0.38671875,0.130859375,-0.849609375,0.3125,1.6953125,-7.14453125,1.17578125,1.0
4713090,36.01344983333333,129.31956483333335,86.97815745134497,116.48913967517987,1.3,297.0,,1.125,2.46484375,-0.3203125,0.625,-0.892578125,0.404296875,1.12109375,-8.9375,2.24609375,1.0
4713091,,,,,,,,1.1328125,2.5390625,-0.3671875,0.162109375,-0.798828125,0.279296875,1.6953125,-6.875,1.2109375,1.0
4713092,,,,,,,,1.25390625,2.578125,-0.60546875,0.19140625,-0.78515625,0.26953125,1.80859375,-6.8359375,0.98046875,1.0
4713093,,,,,,,,1.5,2.34765625,-1.0390625,0.216796875,-0.78125,0.25,2.0390625,-7.0625,0.5625,1.0
4713094,,,,,,,,1.73046875,2.234375,-1.09375,0.177734375,-0.75390625,0.216796875,2.26953125,-7.1796875,0.5234375,1.0
4713095,,,,,,,,1.81640625,2.1171875,-0.99609375,0.123046875,-0.607421875,0.150390625,2.34765625,-7.296875,0.63671875,1.0
4713096,,,,,,,,1.81640625,2.1171875,-0.8125,0.119140625,-0.54296875,0.12890625,2.34765625,-7.30078125,0.828125,1.0
4713097,,,,,,,,1.77734375,2.1484375,-0.67578125,0.158203125,-0.43359375,0.08203125,2.30859375,-7.2578125,0.98046875,1.0
4713098,,,,,,,,1.5859375,2.2578125,-0.62109375,0.220703125,-0.36328125,0.03515625,2.1171875,-7.140625,1.05859375,1.0
4713099,,,,,,,,1.42578125,2.1796875,-0.73046875,0.265625,-0.29296875,-0.001953125,1.96484375,-7.22265625,0.98046875,1.0
4713100,36.01344983333333,129.31956366666665,86.87298434441719,116.4891386345314,1.1,292.0,0.0,1.4453125,1.8203125,-0.8203125,0.24609375,-0.267578125,-0.0234375,2.0,-7.56640625,0.90625,1.0
4713101,,,,,,,,1.4375,1.58984375,-0.875,0.205078125,-0.228515625,-0.033203125,2.0,-7.7890625,0.8671875,1.0
4713102,,,,,,,,1.31640625,1.23828125,-0.8203125,0.185546875,-0.162109375,-0.0234375,1.88671875,-8.13671875,0.9453125,1.0
4713103,,,,,,,,1.26953125,1.08203125,-0.72265625,0.185546875,-0.09765625,-0.021484375,1.84765625,-8.2890625,1.05859375,1.0
4713104,,,,,,,,1.34765625,1.0,-0.73828125,0.201171875,-0.04296875,-0.021484375,1.92578125,-8.37109375,1.05859375,1.0
4713105,,,,,,,,1.40625,0.84765625,-0.76171875,0.21484375,-0.001953125,-0.01171875,2.0,-8.515625,1.05859375,1.0
4713106,,,,,,,,1.4453125,0.80078125,-0.76953125,0.216796875,0.02734375,-0.01171875,2.0390625,-8.5546875,1.05859375,1.0
4713107,,,,,,,,1.40625,0.68359375,-0.75390625,0.197265625,0.072265625,-0.009765625,2.0,-8.67578125,1.09765625,1.0
4713108,,,,,,,,1.24609375,0.40234375,-0.68359375,0.150390625,0.12109375,-0.009765625,1.84765625,-8.9375,1.17578125,1.0
4713109,,,,,,,,1.21484375,0.2109375,-0.625,0.05859375,0.125,0.009765625,1.80859375,-9.21484375,1.328125,1.0
4713110,36.01345,129.31956233333332,86.75278632822612,116.50763065510235,1.2000000000000002,287.0,,1.4453125,1.8203125,-0.8203125,0.0078125,0.125,0.013671875,1.6953125,-9.3203125,1.40234375,1.0
4713111,,,,,,,,1.1015625,-0.09765625,-0.48046875,-0.02734375,0.111328125,0.02734375,1.6953125,-9.51953125,1.40234375,1.0
4713112,,,,,,,,1.0625,-0.25,-0.59375,-0.08203125,0.091796875,0.0234375,1.65625,-9.63671875,1.328125,1.0
4713113,,,,,,,,0.98828125,-0.36328125,-0.5859375,-0.14453125,0.078125,0.03125,1.58203125,-9.8203125,1.25,1.0
4713114,,,,,,,,0.796875,-0.86328125,-0.71484375,-0.216796875,0.03125,0.02734375,1.390625,-10.20703125,1.13671875,1.0
4713115,,,,,,,,0.7109375,-1.015625,-0.73828125,-0.267578125,-0.001953125,0.013671875,1.08203125,-10.51171875,1.2890625,1.0
4713116,,,,,,,,0.296875,-1.19921875,-0.484375,-0.30078125,0.015625,0.005859375,0.62109375,-10.36328125,1.55859375,1.0
4713117,,,,,,,,-0.09375,-0.81640625,-0.00390625,-0.294921875,0.076171875,0.01953125,0.546875,-9.70703125,2.32421875,1.0
4713118,,,,,,,,-0.0546875,-0.2734375,0.796875,-0.271484375,0.13671875,0.02734375,0.5859375,-9.90234375,2.70703125,1.0
4713119,,,,,,,,0.02734375,-0.9609375,1.01171875,-0.37109375,0.080078125,0.064453125,0.5078125,-11.43359375,2.515625,1.0
4713120,36.01345,129.319561,86.63258849490394,116.50762946886556,1.2000000000000002,281.0,,-0.0859375,-2.5625,0.8125,-0.583984375,-0.1640625,0.10546875,0.4296875,-12.234375,2.5546875,1.0
4713121,,,,,,,,-0.15625,-3.16796875,1.51953125,-0.6640625,-0.33203125,0.048828125,0.4296875,-12.6953125,3.47265625,1.0
4713122,,,,,,,,-0.15625,-3.3125,1.89453125,-0.62109375,-0.294921875,0.0390625,0.4296875,-13.0390625,3.7421875,1.0
4713123,,,,,,,,-1.16015625,-4.609375,2.38671875,-0.58203125,-0.28125,0.041015625,-0.56640625,-14.0,3.89453125,1.0
4713124,,,,,,,,-2.30859375,-3.7109375,2.85546875,-0.51953125,-0.37109375,0.029296875,-1.71484375,-13.1171875,4.31640625,1.0
4713125,,,,,,,,-2.5078125,-1.13671875,3.28515625,-0.23828125,-0.443359375,0.015625,-1.90625,-10.55078125,4.69921875,1.0
4713126,,,,,,,,-2.171875,-0.6796875,3.19140625,-0.07421875,-0.478515625,0.0234375,-1.5625,-10.09765625,4.58203125,1.0
4713127,,,,,,,,-0.5234375,-0.41015625,2.81640625,0.03515625,-0.51953125,0.04296875,0.0859375,-9.8203125,4.19921875,1.0
4713128,,,,,,,,0.3515625,-1.17578125,2.89453125,-0.07421875,-0.44140625,0.0546875,0.96875,-10.5859375,4.27734375,1.0
4713129,,,,,,,,1.0,-1.93359375,2.94140625,-0.130859375,-0.39453125,0.0546875,1.6171875,-11.3515625,4.31640625,1.0
4713130,36.01345,129.31955966666666,86.51239066161604,116.50762828438177,1.3,276.0,,1.1484375,-2.31640625,2.87890625,-0.583984375,-0.1640625,0.10546875,0.4296875,-12.234375,2.5546875,1.0
4713131,,,,,,,,0.91015625,-2.04296875,2.625,-0.08203125,-0.24609375,-0.044921875,1.54296875,-11.46875,3.96875,1.0
4713132,,,,,,,,0.203125,-0.5859375,2.2421875,0.064453125,-0.244140625,-0.154296875,0.8515625,-10.015625,3.5859375,1.0
4713133,,,,,,,,0.00390625,-0.2421875,2.16015625,0.087890625,-0.234375,-0.189453125,0.66015625,-9.67578125,3.51171875,1.0
4713134,,,,,,,,-0.6171875,-0.125,1.76953125,-0.0078125,-0.23046875,-0.21484375,0.0859375,-9.55859375,3.12890625,1.0
4713135,,,,,,,,-0.5625,-0.47265625,1.73828125,-0.11328125,-0.251953125,-0.21484375,0.1640625,-9.90234375,3.08984375,1.0
4713136,,,,,,,,-0.28125,-0.35546875,1.5234375,-0.15234375,-0.267578125,-0.22265625,0.46875,-9.78125,2.859375,1.0
4713137,,,,,,,,-0.16015625,0.07421875,0.99609375,-0.109375,-0.263671875,-0.21484375,0.62109375,-9.359375,2.32421875,1.0
4713138,,,,,,,,-0.13671875,0.1875,0.88671875,-0.091796875,-0.263671875,-0.21484375,0.66015625,-9.25,2.20703125,1.0
4713139,,,,,,,,-0.2421875,0.5703125,0.54296875,-0.048828125,-0.275390625,-0.21875,0.5859375,-8.8671875,1.86328125,1.0
4713140,36.013450166666665,129.31955866666667,86.42224210428297,116.52612060448595,1.2000000000000002,273.0,,-0.23046875,1.03125,0.28125,-0.04296875,-0.3046875,-0.21484375,0.4296875,-12.234375,2.5546875,1.0
4713141,,,,,,,,-0.17578125,1.51953125,0.0234375,-0.03125,-0.333984375,-0.21484375,0.69921875,-7.90625,1.328125,1.0
4713142,,,,,,,,-0.12890625,1.8359375,-0.1015625,-0.01171875,-0.359375,-0.216796875,0.77734375,-7.6015625,1.2109375,1.0
4713143,,,,,,,,-0.26953125,2.171875,-0.20703125,0.017578125,-0.36328125,-0.205078125,0.66015625,-7.26171875,1.09765625,1.0
4713144,,,,,,,,-0.4921875,2.25,-0.32421875,0.03515625,-0.359375,-0.19921875,0.46875,-7.1796875,0.98046875,1.0
4713145,,,,,,,,-0.62890625,2.33203125,-0.33203125,0.052734375,-0.37109375,-0.17578125,0.35546875,-7.1015625,0.98046875,1.0
4713146,,,,,,,,-0.7890625,2.36328125,-0.3671875,0.07421875,-0.37109375,-0.166015625,0.203125,-7.06640625,0.9453125,1.0
4713147,,,,,,,,-0.890625,2.35546875,-0.33984375,0.11328125,-0.390625,-0.1484375,0.125,-7.06640625,0.98046875,1.0
4713148,,,,,,,,-1.10546875,2.35546875,-0.4609375,0.16015625,-0.390625,-0.119140625,-0.06640625,-7.06640625,0.8671875,1.0
4713149,,,,,,,,-1.3515625,2.1953125,-0.5546875,0.2109375,-0.3984375,-0.083984375,-0.296875,-7.22265625,0.7890625,1.0
4713150,36.01345,129.3195575,86.31706918461904,116.50762636309858,1.1,270.0,,-1.55859375,2.04296875,-0.546875,0.27734375,-0.40625,-0.025390625,-0.48828125,-7.37109375,0.828125,1.0
4713151,,,,,,,,-1.7109375,1.91796875,-0.578125,0.294921875,-0.431640625,0.015625,-0.640625,-7.484375,0.828125,1.0
4713152,,,,,,,,-1.75,1.8046875,-0.5546875,0.31640625,-0.4453125,0.041015625,-0.6796875,-7.60546875,0.8671875,1.0
4713153,,,,,,,,-1.71875,1.796875,-0.6171875,0.345703125,-0.47265625,0.08203125,-0.640625,-7.60546875,0.828125,1.0
4713154,,,,,,,,-1.55859375,1.75,-0.6640625,0.376953125,-0.51953125,0.134765625,-0.48828125,-7.64453125,0.828125,1.0
4713155,,,,,,,,-1.3203125,1.703125,-0.6953125,0.37109375,-0.55078125,0.150390625,-0.2578125,-7.68359375,0.828125,1.0
4713156,,,,,,,,-1.28125,1.6640625,-0.671875,0.36328125,-0.564453125,0.15625,-0.21875,-7.71875,0.8671875,1.0
4713157,,,,,,,,-1.08984375,1.50390625,-0.82421875,0.349609375,-0.625,0.173828125,-0.02734375,-7.8671875,0.75390625,1.0
4713158,,,,,,,,-1.0078125,1.34375,-0.85546875,0.34765625,-0.626953125,0.177734375,0.046875,-8.0234375,0.75390625,1.0
4713159,,,,,,,,-1.0,1.265625,-0.8359375,0.33203125,-0.630859375,0.181640625,0.046875,-8.1015625,0.7890625,1.0
4713160,36.013450166666665,129.3195565,86.22692062761531,116.52611868516759,1.1,269.0,,-0.68359375,1.10546875,-0.859375,0.33203125,-0.623046875,0.1796875,0.35546875,-8.25390625,0.7890625,1.0
4713161,,,,,,,,-0.53125,1.09765625,-0.8359375,0.287109375,-0.634765625,0.162109375,0.62109375,-8.328125,0.8671875,1.0
4713162,,,,,,,,-0.41015625,1.015625,-0.8203125,0.26953125,-0.634765625,0.15625,0.66015625,-8.33203125,0.9453125,1.0
4713163,,,,,,,,-0.28515625,0.859375,-0.8828125,0.1640625,-0.62109375,0.107421875,0.77734375,-8.75,0.828125,1.0
4713164,,,,,,,,-0.25390625,0.5859375,-0.8984375,0.0703125,-0.626953125,0.06640625,0.9296875,-9.09765625,1.05859375,1.0
4713165,,,,,,,,-0.0625,0.078125,-0.66796875,0.01953125,-0.62109375,0.041015625,1.00390625,-9.48046875,1.13671875,1.0
4713166,,,,,,,,-0.02734375,-0.14453125,-0.58984375,-0.009765625,-0.609375,0.029296875,1.08203125,-9.78125,1.13671875,1.0
4713167,,,,,,,,0.07421875,-0.6875,-0.58203125,-0.0625,-0.58203125,0.017578125,1.12109375,-10.12890625,1.17578125,1.0
4713168,,,,,,,,0.08203125,-0.80078125,-0.53515625,-0.091796875,-0.556640625,0.015625,1.16015625,-10.24609375,1.17578125,1.0
4713169,,,,,,,,0.07421875,-1.1484375,-0.3671875,-0.115234375,-0.4921875,0.00390625,1.12109375,-10.4765625,1.328125,1.0
4713170,36.01345033333334,129.31955516666667,86.10672261320133,116.54461071516866,1.1,272.0,,0.06640625,-1.22265625,-0.359375,-0.12109375,-0.451171875,0.0078125,1.12109375,-10.546875,1.328125,1.0
4713171,,,,,,,,0.13671875,-1.22265625,-0.375,-0.150390625,-0.369140625,0.00390625,1.19921875,-10.55078125,1.2890625,1.0
4713172,,,,,,,,0.171875,-1.1484375,-0.328125,-0.1640625,-0.328125,0.0078125,1.234375,-10.48046875,1.328125,1.0
4713173,,,,,,,,0.01171875,-0.6015625,-0.4296875,-0.189453125,-0.255859375,0.00390625,1.08203125,-9.9375,1.2109375,1.0
4713174,,,,,,,,-0.33203125,-0.171875,-0.55078125,-0.240234375,-0.14453125,0.009765625,0.73828125,-9.51953125,1.05859375,1.0
4713175,,,,,,,,-0.8671875,0.40234375,-0.7109375,-0.302734375,-0.111328125,0.01953125,0.203125,-8.9375,0.8671875,1.0
4713176,,,,,,,,-1.17578125,0.66015625,-0.7578125,-0.392578125,-0.150390625,0.02734375,-0.10546875,-8.671875,0.7890625,1.0
4713177,,,,,,,,-1.671875,-0.25,-0.74609375,-0.5078125,-0.228515625,0.046875,-0.6015625,-9.59765625,0.75390625,1.0
4713178,,,,,,,,-1.359375,-1.99609375,-0.65234375,-0.75390625,-0.404296875,0.095703125,-0.296875,-11.35546875,0.75390625,1.0
4713179,,,,,,,,-1.015625,-2.6015625,-0.5078125,-0.845703125,-0.482421875,0.1171875,0.046875,-11.96875,0.8671875,1.0
4713180,36.01345033333334,129.319554,86.00154950910049,116.54460968519147,1.1,273.0,,0.2109375,-4.08203125,0.66015625,-0.9609375,-0.587890625,0.12890625,1.2734375,-13.4609375,1.94140625,1.0
4713181,,,,,,,,1.40625,-6.02734375,1.6796875,-0.99609375,-0.642578125,0.125,2.4609375,-15.41796875,2.859375,1.0
4713182,,,,,,,,2.05859375,-6.5859375,2.35546875,-0.984375,-0.681640625,0.12890625,3.11328125,-15.99609375,3.43359375,1.0
4713183,,,,,,,,2.640625,-3.12109375,3.0546875,-0.541015625,-0.603515625,0.056640625,3.6875,-12.5390625,4.0078125,1.0
4713184,,,,,,,,2.02734375,-0.515625,1.8515625,0.080078125,-0.361328125,-0.01171875,3.07421875,-9.94140625,2.78125,1.0
4713185,,,,,,,,0.91015625,-0.671875,1.5703125,0.27734375,-0.28125,-0.046875,1.96484375,-10.09765625,2.515625,1.0
4713186,,,,,,,,0.296875,-1.3203125,1.71484375,0.23046875,-0.337890625,-0.056640625,1.3515625,-10.74609375,2.66796875,1.0
4713187,,,,,,,,-0.67578125,-3.08203125,2.734375,0.099609375,-0.51171875,-0.04296875,0.39453125,-12.50390625,3.703125,1.0
4713188,,,,,,,,-0.72265625,-3.65625,2.91796875,0.15625,-0.7109375,0.013671875,0.35546875,-13.078125,3.89453125,1.0
4713189,,,,,,,,-0.1796875,-3.3125,2.40234375,0.361328125,-0.8359375,0.064453125,0.890625,-12.734375,3.39453125,1.0
4713190,36.01345033333334,129.31955250000001,85.86632694788446,116.5446083622282,1.2000000000000002,273.0,,0.1640625,-1.97265625,2.01953125,-0.9609375,-0.587890625,0.12890625,1.234375,-11.390625,3.05078125,1.0
4713191,,,,,,,,0.1640625,-1.12890625,1.7734375,0.701171875,-0.681640625,0.212890625,1.234375,-10.546875,2.859375,1.0
4713192,,,,,,,,0.10546875,-0.71484375,1.62890625,0.732421875,-0.62109375,0.251953125,1.16015625,-10.12890625,2.74609375,1.0
4713193,,,,,,,,0.08203125,0.05078125,1.2578125,0.685546875,-0.59375,0.310546875,1.12109375,-9.36328125,2.4375,1.0
4713194,,,,,,,,0.203125,0.2421875,1.04296875,0.62109375,-0.61328125,0.330078125,1.234375,-9.171875,2.24609375,1.0
4713195,,,,,,,,0.43359375,0.2421875,0.8671875,0.416015625,-0.755859375,0.349609375,1.42578125,-9.171875,2.1328125,1.0
4713196,,,,,,,,0.6484375,0.1640625,0.7578125,0.3046875,-0.80859375,0.345703125,1.6171875,-9.25,2.0546875,1.0
4713197,,,,,,,,0.62890625,0.1640625,0.734375,0.24609375,-0.796875,0.3359375,1.58203125,-9.25390625,2.0546875,1.0
4713198,,,,,,,,0.3828125,0.5546875,0.60546875,0.25,-0.75390625,0.322265625,1.3125,-8.87109375,1.94140625,1.0
4713199,,,,,,,,0.3203125,0.9375,0.50390625,0.283203125,-0.73828125,0.314453125,1.234375,-8.48828125,1.86328125,1.0
4713200,36.013450166666665,129.31955116666668,85.74612929567093,116.52611397921,1.2000000000000002,269.0,0.0,0.3828125,2.15625,0.05078125,0.310546875,-0.755859375,0.294921875,1.2734375,-7.2578125,1.44140625,1.0
4713201,,,,,,,,0.3671875,2.38671875,-0.0546875,0.310546875,-0.767578125,0.283203125,1.3125,-6.71875,1.2109375,1.0
4713202,,,,,,,,0.5390625,2.76953125,-0.30859375,0.294921875,-0.77734375,0.28515625,1.46484375,-6.6015625,1.05859375,1.0
4713203,,,,,,,,0.62890625,2.84765625,-0.5234375,0.2578125,-0.798828125,0.2734375,1.50390625,-6.5625,0.8671875,1.0
4713204,,,,,,,,0.8671875,2.69140625,-0.73828125,0.205078125,-0.80078125,0.27734375,1.6953125,-6.72265625,0.75390625,1.0
4713205,,,,,,,,0.8828125,2.6171875,-0.78515625,0.1640625,-0.759765625,0.2578125,1.7734375,-6.83984375,0.67578125,1.0
4713206,,,,,,,,0.96875,2.578125,-0.83203125,0.15234375,-0.720703125,0.244140625,1.80859375,-6.83984375,0.67578125,1.0
4713207,,,,,,,,1.01171875,2.53125,-0.76171875,0.14453125,-0.64453125,0.2109375,1.88671875,-6.94921875,0.71484375,1.0
4713208,,,,,,,,1.296875,2.33984375,-0.81640625,0.140625,-0.59375,0.16796875,2.078125,-7.0625,0.71484375,1.0
4713209,,,,,,,,1.34375,2.2265625,-0.7109375,0.1484375,-0.552734375,0.119140625,2.1171875,-7.1796875,0.828125,1.0
4713210,36.01345,129.31955000000002,85.6409563720167,116.50761974576052,1.1,268.0,,0.3828125,2.15625,0.05078125,0.171875,-0.494140625,0.078125,1.2734375,-7.2578125,1.44140625,1.0
4713211,,,,,,,,1.41796875,2.07421875,-0.7734375,0.177734375,-0.423828125,0.041015625,2.19140625,-7.33203125,0.7890625,1.0
4713212,,,,,,,,1.2578125,2.06640625,-0.82421875,0.19140625,-0.349609375,0.01171875,2.0390625,-7.33203125,0.75390625,1.0
4713213,,,,,,,,1.17578125,2.02734375,-0.8125,0.19921875,-0.287109375,-0.013671875,1.96484375,-7.37109375,0.7890625,1.0
4713214,,,,,,,,1.16796875,1.90234375,-0.828125,0.203125,-0.236328125,-0.03515625,1.96484375,-7.48828125,0.7890625,1.0
4713215,,,,,,,,1.2265625,1.54296875,-0.859375,0.2109375,-0.193359375,-0.05859375,2.0390625,-7.828125,0.7890625,1.0
4713216,,,,,,,,1.2578125,1.0,-0.91015625,0.20703125,-0.154296875,-0.072265625,2.078125,-8.3671875,0.75390625,1.0
4713217,,,,,,,,1.15625,0.84765625,-0.8984375,0.181640625,-0.115234375,-0.09375,2.0,-8.515625,0.7890625,1.0
4713218,,,,,,,,1.1796875,0.484375,-0.8046875,0.1796875,-0.08984375,-0.09765625,2.0390625,-8.87109375,0.90625,1.0
4713219,,,,,,,,1.1328125,0.21875,-0.59765625,0.17578125,-0.05859375,-0.09765625,2.0,-9.1328125,1.13671875,1.0
4713220,36.01344983333333,129.31954883333336,85.53578344744638,116.48912551306057,1.1,264.0,,1.109375,-0.09765625,-0.4609375,0.162109375,-0.017578125,-0.08984375,2.0,-9.44140625,1.2890625,1.0
4713221,,,,,,,,1.06640625,-0.06640625,-0.36328125,0.13671875,0.0,-0.076171875,1.96484375,-9.40234375,1.40234375,1.0
4713222,,,,,,,,1.02734375,-0.10546875,-0.37109375,0.12890625,0.0,-0.06640625,1.92578125,-9.44140625,1.40234375,1.0
4713223,,,,,,,,1.1640625,-0.15234375,-0.5390625,0.072265625,-0.033203125,-0.04296875,2.078125,-9.48046875,1.25,1.0
4713224,,,,,,,,1.1640625,-0.1875,-0.578125,0.056640625,-0.04296875,-0.029296875,2.078125,-9.515625,1.2109375,1.0
4713225,,,,,,,,1.04296875,-0.49609375,-0.73828125,0.0,-0.0546875,-0.009765625,1.96484375,-9.8203125,1.05859375,1.0
4713226,,,,,,,,0.92578125,-0.57421875,-0.76953125,-0.03125,-0.048828125,-0.001953125,1.84765625,-9.90234375,1.01953125,1.0
4713227,,,,,,,,0.49609375,-0.95703125,-0.80078125,-0.126953125,-0.041015625,0.021484375,1.42578125,-10.28515625,0.98046875,1.0
4713228,,,,,,,,0.421875,-0.9921875,-0.75390625,-0.15234375,-0.03125,0.0234375,1.3515625,-10.3203125,1.01953125,1.0
4713229,,,,,,,,0.11328125,-0.83984375,-0.46875,-0.20703125,-0.0390625,0.03125,1.04296875,-10.16796875,1.2890625,1.0
4713230,36.013449333333334,129.31954750000003,85.41558615330588,116.43364471870234,1.1,257.0,,0.046875,-0.7265625,-0.34765625,-0.224609375,-0.0390625,0.029296875,0.96875,-10.05859375,1.40234375,1.0
4713231,,,,,,,,-0.078125,-0.45703125,-0.0859375,-0.240234375,-0.04296875,0.03125,0.8515625,-9.78515625,1.6328125,1.0
4713232,,,,,,,,0.19921875,-0.94921875,0.47265625,-0.287109375,-0.078125,0.05078125,1.12109375,-10.28515625,2.16796875,1.0
4713233,,,,,,,,0.50390625,-2.703125,0.7421875,-0.44140625,-0.216796875,0.09375,1.42578125,-12.046875,2.3984375,1.0
4713234,,,,,,,,0.3515625,-3.95703125,0.72265625,-0.642578125,-0.388671875,0.09765625,1.2734375,-13.30859375,2.32421875,1.0
4713235,,,,,,,,-0.4609375,-3.55859375,1.87890625,-0.6171875,-0.400390625,0.04296875,0.46875,-12.921875,3.39453125,1.0
4713236,,,,,,,,-0.95703125,-2.82421875,2.04296875,-0.365234375,-0.265625,0.001953125,-0.02734375,-12.19921875,3.51171875,1.0
4713237,,,,,,,,-1.6953125,-1.98046875,2.65625,-0.296875,-0.314453125,0.015625,-0.7578125,-11.3515625,4.0859375,1.0
4713238,,,,,,,,-1.5859375,-1.0546875,2.9453125,-0.2421875,-0.3984375,-0.001953125,-0.640625,-10.4375,4.3515625,1.0
4713239,,,,,,,,-1.171875,-0.86328125,2.77734375,-0.03125,-0.4609375,-0.005859375,-0.21875,-10.2421875,4.16015625,1.0
4713240,36.013449,129.31954633333334,85.31041340515083,116.39665727980238,1.2000000000000002,252.0,,-0.64453125,-1.046875,2.6640625,-0.224609375,-0.0390625,0.029296875,0.96875,-10.05859375,1.40234375,1.0
4713241,,,,,,,,0.22265625,-2.04296875,2.6640625,-0.046875,-0.513671875,-0.017578125,1.19921875,-11.43359375,4.046875,1.0
4713242,,,,,,,,0.52734375,-2.2734375,2.6328125,-0.052734375,-0.505859375,-0.03125,1.50390625,-11.6640625,4.0078125,1.0
4713243,,,,,,,,1.046875,-2.15625,2.375,-0.021484375,-0.474609375,-0.06640625,2.0390625,-11.546875,3.7421875,1.0
4713244,,,,,,,,0.96484375,-1.734375,2.3359375,0.0078125,-0.4609375,-0.087890625,1.96484375,-11.125,3.703125,1.0
4713245,,,,,,,,0.6015625,-1.23828125,2.10546875,0.091796875,-0.4453125,-0.138671875,1.6171875,-10.625,3.47265625,1.0
4713246,,,,,,,,0.08203125,-0.1640625,1.828125,0.15234375,-0.4375,-0.19921875,1.12109375,-9.5546875,3.203125,1.0
4713247,,,,,,,,-0.04296875,0.09375,1.58203125,0.142578125,-0.4375,-0.259765625,1.04296875,-9.2890625,2.97265625,1.0
4713248,,,,,,,,0.09375,-0.09765625,1.0703125,0.009765625,-0.451171875,-0.26171875,1.234375,-9.48046875,2.4765625,1.0
4713249,,,,,,,,0.203125,-0.05859375,0.80078125,-0.01953125,-0.466796875,-0.259765625,1.3515625,-9.4375,2.20703125,1.0
4713250,36.013448499999996,129.31954499999998,85.19021610619669,116.34117648734001,1.3,250.0,,0.31640625,0.2421875,0.54296875,-0.224609375,-0.0390625,0.029296875,1.50390625,-9.13671875,1.94140625,1.0
4713251,,,,,,,,0.24609375,0.5546875,0.3515625,0.01171875,-0.412109375,-0.236328125,1.46484375,-8.828125,1.75,1.0
4713252,,,,,,,,0.1484375,1.12109375,0.12109375,0.052734375,-0.400390625,-0.21875,1.390625,-8.25390625,1.51953125,1.0
4713253,,,,,,,,0.125,1.58203125,-0.26171875,0.091796875,-0.41796875,-0.201171875,1.390625,-7.79296875,1.13671875,1.0
4713254,,,,,,,,0.13671875,1.84765625,-0.4609375,0.107421875,-0.46484375,-0.1796875,1.42578125,-7.52734375,0.9453125,1.0
4713255,,,,,,,,0.11328125,2.0703125,-0.66015625,0.126953125,-0.49609375,-0.166015625,1.42578125,-7.30078125,0.75390625,1.0
4713256,,,,,,,,0.09765625,2.21875,-0.81640625,0.130859375,-0.501953125,-0.16015625,1.42578125,-7.14453125,0.59765625,1.0
4713257,,,,,,,,0.11328125,2.29296875,-0.78515625,0.126953125,-0.49609375,-0.150390625,1.46484375,-7.06640625,0.63671875,1.0
4713258,,,,,,,,0.08203125,2.33203125,-0.80078125,0.162109375,-0.458984375,-0.1484375,1.46484375,-7.0234375,0.63671875,1.0
4713259,,,,,,,,-0.171875,2.28515625,-0.73046875,0.1953125,-0.4140625,-0.13671875,1.234375,-7.0625,0.71484375,1.0
4713260,36.013448000000004,129.319544,85.10006826901008,116.28569598963014,1.1,248.0,,-0.609375,2.125,-0.6796875,-0.224609375,-0.0390625,0.029296875,1.50390625,-9.13671875,1.94140625,1.0
4713261,,,,,,,,-0.8515625,2.0390625,-0.65625,0.306640625,-0.306640625,-0.076171875,0.46875,-7.33203125,0.828125,1.0
4713262,,,,,,,,-1.10546875,1.99609375,-0.5625,0.330078125,-0.30078125,-0.0546875,0.27734375,-7.484375,0.98046875,1.0
4713263,,,,,,,,-1.19140625,1.83984375,-0.55859375,0.35546875,-0.310546875,-0.029296875,0.203125,-7.68359375,1.05859375,1.0
4713264,,,,,,,,-1.3125,1.56640625,-0.51171875,0.365234375,-0.318359375,0.00390625,0.1640625,-7.75390625,1.01953125,1.0
4713265,,,,,,,,-1.3203125,1.48046875,-0.65625,0.3828125,-0.328125,0.03125,0.23828125,-7.7890625,0.98046875,1.0
4713266,,,,,,,,-1.12890625,1.5859375,-0.65234375,0.390625,-0.337890625,0.0625,0.4296875,-7.64453125,0.98046875,1.0
4713267,,,,,,,,-0.86328125,1.77734375,-0.8125,0.365234375,-0.373046875,0.072265625,0.69921875,-7.56640625,0.828125,1.0
4713268,,,,,,,,-0.78515625,1.7265625,-0.8671875,0.337890625,-0.375,0.080078125,0.9296875,-7.64453125,0.75390625,1.0
4713269,,,,,,,,-0.515625,1.52734375,-0.97265625,0.2578125,-0.3828125,0.083984375,1.08203125,-8.0234375,0.8671875,1.0
4713270,36.01344766666667,129.31954283333334,84.99489552167839,116.24870855526552,1.0,246.0,,-0.36328125,1.06640625,-0.875,0.19140625,-0.38671875,0.080078125,1.12109375,-8.44921875,0.90625,1.0
4713271,,,,,,,,-0.31640625,0.5234375,-0.77734375,0.150390625,-0.390625,0.078125,1.16015625,-8.75390625,0.98046875,1.0
4713272,,,,,,,,-0.40234375,0.32421875,-0.70703125,0.1171875,-0.388671875,0.068359375,1.08203125,-8.9375,1.05859375,1.0
4713273,,,,,,,,-0.44140625,0.20703125,-0.59765625,0.119140625,-0.3515625,0.052734375,1.04296875,-9.05859375,1.17578125,1.0
4713274,,,,,,,,-0.48046875,0.28515625,-0.60546875,0.130859375,-0.341796875,0.03515625,1.00390625,-8.9765625,1.17578125,1.0
4713275,,,,,,,,-0.5625,0.4765625,-0.64453125,0.1171875,-0.330078125,0.017578125,0.9296875,-8.7890625,1.13671875,1.0
4713276,,,,,,,,-0.41015625,0.3984375,-0.65234375,0.099609375,-0.3359375,0.005859375,1.08203125,-8.87109375,1.13671875,1.0
4713277,,,,,,,,-0.33984375,0.19921875,-0.69921875,0.044921875,-0.3359375,0.0,1.16015625,-9.0546875,1.09765625,1.0
4713278,,,,,,,,-0.109375,-0.23046875,-0.5703125,-0.029296875,-0.337890625,-0.017578125,1.390625,-9.48046875,1.2109375,1.0
4713279,,,,,,,,0.03515625,-0.49609375,-0.4453125,-0.095703125,-0.341796875,-0.029296875,1.54296875,-9.74609375,1.328125,1.0
