time,latitude,longitude,enu_x,enu_y,speed,course,ecg,accX,accY,accZ,gyrX,gyrY,gyrZ,eulR,eulP,eulY,validity
4815050,36.01345083333333,129.3195385,84.6042491646199,116.60007574150707,1.0,45.0,,-1.296875,0.12109375,-0.80078125,-0.041015625,-0.0859375,-0.126953125,0.1640625,-9.05859375,1.55859375,1.0
4815051,,,,,,,,-1.2734375,0.08203125,-0.79296875,-0.1328125,-0.091796875,-0.126953125,0.1640625,-9.13671875,1.48046875,1.0
4815052,,,,,,,,-1.13671875,-0.0390625,-0.90234375,-0.212890625,-0.11328125,-0.119140625,0.4296875,-9.21484375,1.25,1.0
4815053,,,,,,,,-0.9140625,-0.1171875,-1.0703125,-0.302734375,-0.11328125,-0.1171875,0.66015625,-9.25390625,1.09765625,1.0
4815054,,,,,,,,-0.625,-0.109375,-1.14453125,-0.419921875,-0.107421875,-0.111328125,0.96875,-9.21484375,1.13671875,1.0
4815055,,,,,,,,-0.37109375,-0.0625,-0.9921875,-0.517578125,-0.07421875,-0.109375,1.390625,-9.13671875,1.25,1.0
4815056,,,,,,,,-0.1015625,0.015625,-0.9296875,-0.56640625,-0.04296875,-0.109375,1.46484375,-9.09375,1.25,1.0
4815057,,,,,,,,0.07421875,0.17578125,-0.9140625,-0.66015625,0.037109375,-0.0859375,1.6171875,-8.87109375,1.2109375,1.0
4815058,,,,,,,,-0.1953125,0.44921875,-0.8515625,-0.724609375,0.138671875,-0.07421875,1.3125,-8.7109375,1.2109375,1.0
4815059,,,,,,,,-0.42578125,-0.375,-0.75,-0.798828125,0.181640625,-0.060546875,1.08203125,-9.55859375,1.25,1.0
4815060,36.013451499999995,129.31953966666666,84.70942155420792,116.6740495880465,1.1,49.0,,-0.1953125,-2.46875,-0.3046875,-0.958984375,0.138671875,-0.06640625,1.3125,-11.66796875,1.6328125,1.0
4815061,,,,,,,,0.75390625,-4.13671875,0.6015625,-1.107421875,-0.02734375,-0.068359375,2.26953125,-13.34765625,2.4375,1.0
4815062,,,,,,,,2.2109375,-5.39453125,1.61328125,-1.162109375,-0.099609375,-0.068359375,3.7265625,-14.61328125,3.39453125,1.0
4815063,,,,,,,,4.0859375,-6.01953125,2.375,-1.201171875,-0.07421875,-0.048828125,5.6015625,-15.26171875,4.046875,1.0
4815064,,,,,,,,5.49609375,-5.30859375,1.99609375,-1.15234375,0.19921875,-0.033203125,7.01953125,-14.57421875,3.51171875,1.0
4815065,,,,,,,,4.73046875,-3.26171875,1.96484375,-0.810546875,0.64453125,-0.06640625,6.25390625,-12.54296875,3.39453125,1.0
4815066,,,,,,,,2.546875,-1.078125,1.921875,-0.54296875,0.85546875,-0.119140625,4.0703125,-10.359375,3.3203125,1.0
4815067,,,,,,,,1.12890625,-1.4921875,2.16015625,-0.1015625,1.0625,-0.197265625,2.65234375,-10.78515625,3.55078125,1.0
4815068,,,,,,,,-0.44140625,-2.53515625,3.0703125,0.001953125,0.95703125,-0.23046875,1.08203125,-11.8125,4.46875,1.0
4815069,,,,,,,,-1.55859375,-3.67578125,3.90625,0.017578125,0.857421875,-0.2578125,-0.02734375,-12.96484375,5.3125,1.0
4815070,36.013452,129.31954083333332,84.81459412129195,116.72953022861884,1.1,54.0,,-2.07421875,-3.9921875,3.7734375,-0.958984375,0.138671875,-0.06640625,1.3125,-11.66796875,1.6328125,1.0
4815071,,,,,,,,-1.359375,-2.41796875,1.8984375,0.326171875,0.373046875,-0.234375,0.203125,-11.6953125,3.359375,1.0
4815072,,,,,,,,-0.57421875,-1.1640625,0.86328125,0.392578125,0.3203125,-0.142578125,1.00390625,-10.4375,2.36328125,1.0
4815073,,,,,,,,-0.53515625,-0.22265625,0.84375,0.2265625,0.5234375,0.009765625,1.04296875,-9.48046875,2.3984375,1.0
4815074,,,,,,,,-1.015625,-0.2421875,1.203125,0.029296875,0.546875,0.09375,0.546875,-9.51953125,2.78125,1.0
4815075,,,,,,,,-0.734375,-0.47265625,0.96875,-0.123046875,0.4296875,0.15625,0.8125,-9.7421875,2.5546875,1.0
4815076,,,,,,,,-0.52734375,-0.62890625,0.8984375,-0.1796875,0.3515625,0.177734375,1.00390625,-9.90234375,2.4765625,1.0
4815077,,,,,,,,-0.1953125,-0.65625,0.875,-0.251953125,0.29296875,0.197265625,1.3125,-9.9375,2.4375,1.0
4815078,,,,,,,,-0.1328125,-0.57421875,0.9296875,-0.255859375,0.32421875,0.203125,1.3515625,-9.86328125,2.4765625,1.0
4815079,,,,,,,,-0.37109375,0.171875,0.609375,-0.146484375,0.396484375,0.17578125,1.08203125,-9.1328125,2.1328125,1.0
4815080,36.01345283333333,129.31954166666668,84.8897168747693,116.82199699587107,1.2000000000000002,50.0,,-0.5390625,0.5234375,0.453125,-0.08984375,0.412109375,0.154296875,1.3125,-11.66796875,1.6328125,1.0
4815081,,,,,,,,-0.70703125,1.02734375,0.1015625,-0.0625,0.412109375,0.154296875,0.69921875,-8.29296875,1.6328125,1.0
4815082,,,,,,,,-0.84375,1.52734375,-0.04296875,-0.060546875,0.42578125,0.169921875,0.546875,-7.79296875,1.48046875,1.0
4815083,,,,,,,,-0.859375,1.80078125,-0.1640625,-0.046875,0.46484375,0.189453125,0.5078125,-7.52734375,1.3671875,1.0
4815084,,,,,,,,-0.57421875,2.5,-0.48046875,-0.0078125,0.486328125,0.197265625,0.73828125,-6.8359375,1.05859375,1.0
4815085,,,,,,,,-0.3828125,2.76953125,-0.6015625,-0.001953125,0.484375,0.185546875,0.890625,-6.5625,0.9453125,1.0
4815086,,,,,,,,-0.296875,2.8046875,-0.6875,-0.005859375,0.484375,0.19140625,0.96875,-6.53125,0.8671875,1.0
4815087,,,,,,,,-0.12109375,2.73828125,-0.7265625,-0.009765625,0.458984375,0.173828125,1.12109375,-6.6015625,0.828125,1.0
4815088,,,,,,,,0.22265625,2.5078125,-0.80859375,-0.025390625,0.396484375,0.15625,1.42578125,-6.8359375,0.75390625,1.0
4815089,,,,,,,,0.5859375,2.28515625,-0.7421875,-0.02734375,0.357421875,0.125,1.7734375,-7.06640625,0.828125,1.0
4815090,36.013453166666665,129.31954266666668,84.97986488656655,116.85898428360372,1.0,52.0,,0.79296875,2.1328125,-0.81640625,-0.009765625,0.35546875,0.099609375,1.3125,-11.66796875,1.6328125,1.0
4815091,,,,,,,,0.9609375,2.0546875,-0.75,0.025390625,0.416015625,0.0390625,2.0,-7.296875,0.8671875,1.0
4815092,,,,,,,,0.78515625,2.0546875,-0.7578125,0.083984375,0.458984375,0.005859375,1.7734375,-7.30078125,0.75390625,1.0
4815093,,,,,,,,0.6328125,2.0546875,-0.83984375,0.111328125,0.4765625,0.0,1.6953125,-7.296875,0.75390625,1.0
4815094,,,,,,,,0.33203125,2.0859375,-0.89453125,0.16015625,0.5078125,-0.021484375,1.42578125,-7.2578125,0.59765625,1.0
4815095,,,,,,,,0.33984375,2.0859375,-1.03515625,0.142578125,0.494140625,-0.033203125,1.46484375,-7.33203125,0.484375,1.0
4815096,,,,,,,,0.38671875,1.734375,-1.32421875,0.111328125,0.494140625,-0.03125,1.54296875,-7.7890625,0.29296875,1.0
4815097,,,,,,,,0.47265625,1.390625,-1.45703125,0.072265625,0.5234375,-0.025390625,1.54296875,-8.1015625,0.25390625,1.0
4815098,,,,,,,,0.43359375,1.234375,-1.42578125,0.064453125,0.537109375,-0.021484375,1.54296875,-8.29296875,0.21484375,1.0
4815099,,,,,,,,0.44140625,0.890625,-1.5078125,0.0546875,0.5703125,-0.017578125,1.54296875,-8.5546875,0.21484375,1.0
4815100,36.01345383333333,129.31954366666665,85.0700125396422,116.932957990044,1.0,54.0,0.0,0.5234375,0.5703125,-1.44140625,0.044921875,0.595703125,-0.01171875,1.6171875,-8.7890625,0.29296875,1.0
4815101,,,,,,,,0.53125,0.53125,-1.37890625,0.041015625,0.625,-0.0078125,1.6171875,-8.83203125,0.484375,1.0
4815102,,,,,,,,0.46484375,0.26171875,-1.08203125,0.017578125,0.67578125,-0.01171875,1.54296875,-9.0546875,0.63671875,1.0
4815103,,,,,,,,0.328125,-0.04296875,-0.9375,0.01171875,0.70703125,-0.0078125,1.390625,-9.359375,0.7890625,1.0
4815104,,,,,,,,0.21875,-0.50390625,-0.72265625,0.001953125,0.703125,-0.005859375,1.2734375,-9.82421875,1.01953125,1.0
4815105,,,,,,,,0.16015625,-0.7421875,-0.65234375,0.009765625,0.689453125,-0.017578125,1.19921875,-10.05859375,1.09765625,1.0
4815106,,,,,,,,-0.02734375,-0.81640625,-0.30859375,0.033203125,0.6875,-0.02734375,1.00390625,-10.125,1.44140625,1.0
4815107,,,,,,,,-0.171875,-0.75,-0.125,0.08984375,0.681640625,-0.037109375,0.8515625,-10.05859375,1.6328125,1.0
4815108,,,,,,,,-0.35546875,-0.59765625,-0.25390625,0.140625,0.6328125,-0.046875,0.66015625,-9.90234375,1.51953125,1.0
4815109,,,,,,,,-0.39453125,-0.44140625,-0.4609375,0.1484375,0.53515625,-0.04296875,0.62109375,-9.74609375,1.328125,1.0
4815110,36.013454499999995,129.31954466666667,85.16016019635467,117.00693169574907,1.1,54.0,,0.5234375,0.5703125,-1.44140625,0.107421875,0.4453125,-0.044921875,1.6171875,-8.7890625,0.29296875,1.0
4815111,,,,,,,,-0.5234375,-0.56640625,-0.609375,0.033203125,0.361328125,-0.0625,0.46875,-9.86328125,1.2109375,1.0
4815112,,,,,,,,-0.68359375,-0.41015625,-0.34765625,-0.021484375,0.2890625,-0.091796875,0.31640625,-9.70703125,1.48046875,1.0
4815113,,,,,,,,-0.65234375,-0.2265625,-0.53125,-0.05859375,0.228515625,-0.107421875,0.35546875,-9.515625,1.2890625,1.0
4815114,,,,,,,,-0.38671875,-0.34375,-0.63671875,-0.1484375,0.177734375,-0.10546875,0.62109375,-9.6328125,1.17578125,1.0
4815115,,,,,,,,0.14453125,-1.68359375,-0.546875,-0.341796875,0.15625,-0.0859375,1.16015625,-10.97265625,1.25,1.0
4815116,,,,,,,,0.3359375,-2.2890625,-0.484375,-0.48046875,0.140625,-0.076171875,1.3515625,-11.58984375,1.2890625,1.0
4815117,,,,,,,,0.48046875,-3.390625,0.3359375,-0.73828125,0.134765625,-0.060546875,1.50390625,-12.6953125,2.0546875,1.0
4815118,,,,,,,,0.2109375,-2.38671875,1.2109375,-0.763671875,0.171875,-0.05859375,1.234375,-11.69921875,2.859375,1.0
4815119,,,,,,,,-0.4453125,-1.9140625,0.8671875,-0.443359375,0.314453125,-0.0703125,0.5859375,-11.24609375,2.4375,1.0
4815120,36.01345516666667,129.319546,85.28035730395855,117.08090569564513,1.2000000000000002,55.0,,-1.0234375,-3.4375,0.79296875,-0.4765625,0.34765625,-0.056640625,0.0078125,-12.77734375,2.32421875,1.0
4815121,,,,,,,,-1.21484375,-4.1875,1.14453125,-0.578125,0.29296875,-0.05859375,-0.18359375,-13.5390625,2.62890625,1.0
4815122,,,,,,,,-1.21484375,-3.7578125,2.03515625,-0.482421875,0.294921875,-0.072265625,-0.18359375,-13.1171875,3.47265625,1.0
4815123,,,,,,,,-1.13671875,-1.99609375,1.953125,-0.060546875,0.41796875,-0.107421875,-0.10546875,-11.35546875,3.359375,1.0
4815124,,,,,,,,-1.05859375,-1.57421875,1.66796875,0.185546875,0.572265625,-0.123046875,-0.02734375,-10.9296875,3.08984375,1.0
4815125,,,,,,,,0.38671875,-3.0390625,2.25,0.0703125,0.634765625,-0.140625,1.42578125,-12.390625,3.703125,1.0
4815126,,,,,,,,0.91796875,-3.19140625,2.47265625,0.041015625,0.66796875,-0.1875,1.96484375,-12.54296875,3.93359375,1.0
4815127,,,,,,,,1.0234375,-2.83984375,2.53125,0.078125,0.7890625,-0.212890625,2.078125,-12.19921875,4.0078125,1.0
4815128,,,,,,,,0.44140625,-1.3515625,2.0859375,0.232421875,0.908203125,-0.291015625,1.50390625,-10.703125,3.5859375,1.0
4815129,,,,,,,,0.203125,-0.77734375,1.91796875,0.3203125,0.94140625,-0.333984375,1.2734375,-10.12890625,3.43359375,1.0
4815130,36.013455666666665,129.319547,85.37050513462972,117.13638619710932,1.2000000000000002,56.0,,-0.30859375,-0.13671875,1.48828125,0.421875,0.984375,-0.412109375,0.546875,-9.3203125,2.8984375,1.0
4815131,,,,,,,,-0.984375,-0.02734375,1.12890625,0.33984375,0.962890625,-0.43359375,0.125,-9.36328125,2.74609375,1.0
4815132,,,,,,,,-1.3515625,-0.2265625,1.01953125,0.111328125,0.87890625,-0.40625,-0.2578125,-9.6328125,2.58984375,1.0
4815133,,,,,,,,-1.453125,-0.2734375,0.8046875,0.044921875,0.861328125,-0.392578125,-0.296875,-9.59765625,2.4765625,1.0
4815134,,,,,,,,-1.3984375,-0.08203125,0.55859375,0.064453125,0.86328125,-0.365234375,-0.14453125,-9.2109375,2.09375,1.0
4815135,,,,,,,,-1.1953125,0.79296875,-0.0390625,0.09375,0.880859375,-0.345703125,0.0078125,-8.515625,1.671875,1.0
4815136,,,,,,,,-1.203125,0.79296875,-0.046875,0.111328125,0.88671875,-0.33984375,0.0859375,-8.328125,1.59375,1.0
4815137,,,,,,,,-1.1328125,1.16796875,-0.17578125,0.11328125,0.87109375,-0.349609375,0.1640625,-7.68359375,1.328125,1.0
4815138,,,,,,,,-1.03125,1.85546875,-0.515625,0.125,0.841796875,-0.3671875,0.1640625,-7.18359375,1.05859375,1.0
4815139,,,,,,,,-1.0546875,2.27734375,-0.80859375,0.1328125,0.810546875,-0.40234375,0.23828125,-6.91796875,0.9453125,1.0
4815140,36.013456166666664,129.319548,85.46065296195914,117.1918666980138,1.2000000000000002,55.0,,-0.30859375,-0.13671875,1.48828125,0.11328125,0.7578125,-0.42578125,0.27734375,-6.71875,0.7890625,1.0
4815141,,,,,,,,-1.02734375,2.64453125,-1.15234375,0.08984375,0.70703125,-0.4375,0.31640625,-6.64453125,0.71484375,1.0
4815142,,,,,,,,-1.00390625,2.53125,-1.16796875,0.080078125,0.671875,-0.44921875,0.23828125,-6.76171875,0.59765625,1.0
4815143,,,,,,,,-1.09765625,2.5234375,-1.25390625,0.078125,0.658203125,-0.439453125,0.1640625,-6.94921875,0.59765625,1.0
4815144,,,,,,,,-1.3203125,2.20703125,-1.23046875,0.087890625,0.650390625,-0.419921875,-0.02734375,-7.06640625,0.71484375,1.0
4815145,,,,,,,,-1.87890625,1.96875,-1.13671875,0.138671875,0.65625,-0.392578125,-0.48828125,-7.296875,0.75390625,1.0
4815146,,,,,,,,-2.40625,1.91796875,-1.0546875,0.1953125,0.654296875,-0.345703125,-0.984375,-7.328125,0.8671875,1.0
4815147,,,,,,,,-2.69921875,1.79296875,-1.15625,0.279296875,0.58203125,-0.234375,-1.25390625,-7.4453125,0.828125,1.0
4815148,,,,,,,,-2.6328125,1.69921875,-1.234375,0.28125,0.509765625,-0.1796875,-1.1796875,-7.5234375,0.7890625,1.0
4815149,,,,,,,,-2.21875,1.34765625,-1.1484375,0.263671875,0.431640625,-0.130859375,-0.7578125,-7.87109375,0.90625,1.0
4815150,36.0134565,129.31954933333333,85.58085042547117,117.22885428409609,1.1,61.0,,-1.98046875,1.2265625,-1.02734375,0.11328125,0.7578125,-0.42578125,0.27734375,-6.71875,0.7890625,1.0
4815151,,,,,,,,-1.7109375,0.94921875,-0.890625,0.1953125,0.224609375,-0.0703125,-0.2578125,-8.25,1.2109375,1.0
4815152,,,,,,,,-1.59765625,0.91015625,-0.859375,0.189453125,0.19140625,-0.0703125,-0.14453125,-8.2890625,1.25,1.0
4815153,,,,,,,,-1.59765625,0.7109375,-0.921875,0.212890625,0.15625,-0.0625,-0.14453125,-8.484375,1.2109375,1.0
4815154,,,,,,,,-1.63671875,0.58984375,-0.98046875,0.23828125,0.134765625,-0.060546875,-0.18359375,-8.59375,1.17578125,1.0
4815155,,,,,,,,-1.7421875,0.3203125,-0.96875,0.248046875,0.12109375,-0.064453125,-0.296875,-8.87109375,1.2109375,1.0
4815156,,,,,,,,-1.7109375,0.11328125,-1.0078125,0.240234375,0.0859375,-0.08203125,-0.2578125,-9.05859375,1.2109375,1.0
4815157,,,,,,,,-1.62890625,0.06640625,-0.9765625,0.23046875,0.076171875,-0.091796875,-0.18359375,-9.09375,1.25,1.0
4815158,,,,,,,,-1.51953125,-0.015625,-0.80078125,0.20703125,0.037109375,-0.10546875,-0.06640625,-9.17578125,1.44140625,1.0
4815159,,,,,,,,-1.453125,-0.0546875,-0.73046875,0.1875,0.025390625,-0.109375,0.0078125,-9.2109375,1.51953125,1.0
4815160,36.01345683333333,129.3195505,85.68602316019744,117.26584172616386,1.1,65.0,,-1.421875,-0.21484375,-0.5625,0.154296875,-0.015625,-0.14453125,0.046875,-9.359375,1.7109375,1.0
4815161,,,,,,,,-1.51171875,-0.421875,-0.76171875,0.12890625,-0.03125,-0.181640625,-0.02734375,-9.55859375,1.51953125,1.0
4815162,,,,,,,,-1.51953125,-0.421875,-0.80859375,0.095703125,-0.041015625,-0.201171875,-0.02734375,-9.5546875,1.48046875,1.0
4815163,,,,,,,,-1.5078125,-0.546875,-0.9296875,0.044921875,-0.064453125,-0.2109375,0.0078125,-9.67578125,1.3671875,1.0
4815164,,,,,,,,-1.359375,-0.66015625,-1.0078125,-0.056640625,-0.095703125,-0.212890625,0.1640625,-9.78515625,1.2890625,1.0
4815165,,,,,,,,-1.26953125,-0.69921875,-0.9921875,-0.1640625,-0.115234375,-0.20703125,0.27734375,-9.8203125,1.2890625,1.0
4815166,,,,,,,,-1.09375,-0.69921875,-1.16796875,-0.26171875,-0.107421875,-0.19140625,0.46875,-9.82421875,1.09765625,1.0
4815167,,,,,,,,-0.80078125,-0.61328125,-1.24609375,-0.3671875,-0.078125,-0.171875,0.77734375,-9.7421875,0.98046875,1.0
4815168,,,,,,,,-0.43359375,-0.4609375,-1.20703125,-0.46875,-0.044921875,-0.154296875,1.16015625,-9.59765625,0.98046875,1.0
4815169,,,,,,,,-0.359375,-0.453125,-1.18359375,-0.521484375,-0.021484375,-0.142578125,1.234375,-9.59375,0.98046875,1.0
4815170,36.01345683333333,129.319552,85.82124571036931,117.26584304595193,1.2000000000000002,74.0,,-0.25,-0.55859375,-0.859375,0.154296875,-0.015625,-0.14453125,1.3515625,-9.70703125,1.25,1.0
4815171,,,,,,,,-0.296875,-1.00390625,-0.52734375,-0.716796875,0.125,-0.091796875,1.3125,-10.16796875,1.51953125,1.0
4815172,,,,,,,,-0.296875,-2.4921875,0.078125,-0.80859375,0.1875,-0.064453125,1.3125,-11.6640625,2.0546875,1.0
4815173,,,,,,,,0.8203125,-4.3125,1.14453125,-0.923828125,0.169921875,-0.056640625,2.421875,-13.50390625,3.05078125,1.0
4815174,,,,,,,,2.890625,-5.28515625,2.04296875,-1.001953125,0.072265625,-0.041015625,4.4921875,-14.49609375,3.85546875,1.0
4815175,,,,,,,,4.15234375,-5.38671875,2.2890625,-0.970703125,0.109375,-0.044921875,5.75390625,-14.609375,4.0078125,1.0
4815176,,,,,,,,4.5,-5.109375,2.25390625,-0.9375,0.208984375,-0.044921875,6.1015625,-14.34765625,3.93359375,1.0
4815177,,,,,,,,4.58203125,-3.76171875,2.40625,-0.759765625,0.525390625,-0.033203125,5.6796875,-12.01171875,4.0859375,1.0
4815178,,,,,,,,2.26171875,-1.02734375,2.828125,-0.1171875,1.01171875,-0.12109375,3.83984375,-10.28125,4.390625,1.0
4815179,,,,,,,,0.73046875,-1.28515625,2.8515625,0.15625,1.0625,-0.154296875,2.30859375,-10.55078125,4.4296875,1.0
4815180,36.01345683333333,129.3195535,85.95646826575275,117.26584436818494,1.2000000000000002,81.0,,-1.5703125,-2.21484375,4.0078125,0.154296875,-0.015625,-0.14453125,1.3515625,-9.70703125,1.25,1.0
4815181,,,,,,,,-2.41796875,-1.875,3.69921875,0.306640625,0.6796875,-0.177734375,-0.83203125,-11.125,5.34765625,1.0
4815182,,,,,,,,-2.02734375,-1.03515625,2.47265625,0.427734375,0.39453125,-0.123046875,-0.44921875,-10.28515625,4.16015625,1.0
4815183,,,,,,,,-1.4609375,-0.16015625,1.41796875,0.412109375,0.291015625,-0.091796875,0.125,-9.40234375,3.12890625,1.0
4815184,,,,,,,,-1.0703125,0.29296875,1.03125,0.2734375,0.25390625,-0.001953125,0.5078125,-8.94140625,2.78125,1.0
4815185,,,,,,,,-0.96875,-0.3125,1.66015625,-0.048828125,0.29296875,0.140625,0.5859375,-9.5546875,3.43359375,1.0
4815186,,,,,,,,-0.53515625,-0.8125,1.70703125,-0.20703125,0.2265625,0.228515625,1.00390625,-10.05859375,3.47265625,1.0
4815187,,,,,,,,0.6171875,-0.98828125,1.68359375,-0.255859375,0.16796875,0.28515625,2.1171875,-10.24609375,3.43359375,1.0
4815188,,,,,,,,0.6328125,-0.98046875,1.69921875,-0.25390625,0.166015625,0.28515625,2.26953125,-10.20703125,3.43359375,1.0
4815189,,,,,,,,0.74609375,-0.85546875,1.5625,-0.220703125,0.21484375,0.267578125,2.1171875,-9.9765625,3.203125,1.0
4815190,36.013457,129.31955466666668,86.06164117722362,117.2843386075242,1.2000000000000002,80.0,,-1.5703125,-2.21484375,4.0078125,-0.140625,0.24609375,0.212890625,1.96484375,-9.5546875,2.859375,1.0
4815191,,,,,,,,0.41015625,0.19921875,0.78125,-0.068359375,0.2421875,0.15234375,1.7734375,-8.8671875,2.32421875,1.0
4815192,,,,,,,,0.2421875,0.8203125,0.4453125,-0.033203125,0.236328125,0.08984375,1.58203125,-8.37109375,2.015625,1.0
4815193,,,,,,,,0.07421875,1.01953125,0.3203125,-0.041015625,0.283203125,0.078125,1.3515625,-8.13671875,1.94140625,1.0
4815194,,,,,,,,-0.22265625,1.51953125,0.16796875,-0.029296875,0.34375,0.076171875,1.12109375,-7.79296875,1.86328125,1.0
4815195,,,,,,,,-0.32421875,1.75,0.0546875,-0.001953125,0.396484375,0.076171875,1.00390625,-7.5625,1.75,1.0
4815196,,,,,,,,-0.26953125,2.140625,-0.0390625,0.03125,0.4453125,0.08203125,1.04296875,-7.1796875,1.671875,1.0
4815197,,,,,,,,-0.24609375,2.5625,-0.19921875,0.048828125,0.486328125,0.072265625,1.04296875,-6.7578125,1.51953125,1.0
4815198,,,,,,,,-0.0390625,2.75390625,-0.4140625,0.041015625,0.50390625,0.064453125,1.234375,-6.56640625,1.328125,1.0
4815199,,,,,,,,0.28515625,2.8671875,-0.421875,0.013671875,0.486328125,0.05859375,1.54296875,-6.453125,1.328125,1.0
4815200,36.01345716666666,129.3195558333333,86.16681408862931,117.30283284574207,1.1,80.0,0.0,0.57421875,2.828125,-0.5078125,-0.140625,0.24609375,0.212890625,1.80859375,-6.49609375,1.25,1.0
4815201,,,,,,,,0.78125,2.5703125,-0.74609375,-0.005859375,0.416015625,0.0078125,2.0,-6.76171875,1.01953125,1.0
4815202,,,,,,,,0.828125,2.40625,-0.79296875,0.00390625,0.431640625,-0.00390625,2.0390625,-6.9140625,0.98046875,1.0
4815203,,,,,,,,0.60546875,2.29296875,-1.0,0.029296875,0.517578125,-0.056640625,1.80859375,-7.0234375,0.7890625,1.0
4815204,,,,,,,,0.37890625,2.25390625,-1.03515625,0.03515625,0.552734375,-0.0703125,1.58203125,-7.06640625,0.75390625,1.0
4815205,,,,,,,,0.15625,2.140625,-1.05078125,0.033203125,0.6484375,-0.091796875,1.3515625,-7.1796875,0.75390625,1.0
4815206,,,,,,,,0.1171875,2.015625,-1.05859375,0.03125,0.6796875,-0.099609375,1.3125,-7.296875,0.75390625,1.0
4815207,,,,,,,,0.125,1.89453125,-0.9921875,0.037109375,0.7265625,-0.10546875,1.3125,-7.41015625,0.828125,1.0
4815208,,,,,,,,0.0859375,1.89453125,-0.9609375,0.033203125,0.740234375,-0.11328125,1.2734375,-7.40625,0.8671875,1.0
4815209,,,,,,,,0.09375,1.5859375,-0.87109375,0.060546875,0.740234375,-0.125,1.2734375,-7.71875,0.98046875,1.0
4815210,36.013457,129.31955716666667,86.28701209475412,117.28434081809979,1.1,84.0,,0.01953125,1.39453125,-0.953125,-0.140625,0.24609375,0.212890625,1.80859375,-6.49609375,1.25,1.0
4815211,,,,,,,,-0.01953125,1.234375,-0.9296875,0.08203125,0.69140625,-0.125,1.16015625,-8.0625,0.9453125,1.0
4815212,,,,,,,,-0.05078125,0.9609375,-0.91015625,0.07421875,0.65625,-0.123046875,1.12109375,-8.33203125,0.98046875,1.0
4815213,,,,,,,,-0.05078125,0.57421875,-0.87890625,0.04296875,0.62890625,-0.1171875,1.12109375,-8.7109375,1.01953125,1.0
4815214,,,,,,,,-0.00390625,0.5,-0.80859375,0.0078125,0.60546875,-0.11328125,1.16015625,-8.79296875,1.09765625,1.0
4815215,,,,,,,,0.00390625,0.375,-0.6640625,-0.015625,0.599609375,-0.103515625,1.16015625,-8.90625,1.25,1.0
4815216,,,,,,,,-0.03515625,0.33984375,-0.625,-0.029296875,0.599609375,-0.08984375,1.12109375,-8.9375,1.2890625,1.0
4815217,,,,,,,,-0.1875,0.0625,-0.546875,-0.044921875,0.59375,-0.07421875,0.96875,-9.2109375,1.3671875,1.0
4815218,,,,,,,,-0.3359375,-0.16015625,-0.44140625,-0.064453125,0.5625,-0.0546875,0.8125,-9.44140625,1.48046875,1.0
4815219,,,,,,,,-0.44921875,-0.65625,-0.36328125,-0.072265625,0.54296875,-0.03515625,0.69921875,-9.94140625,1.55859375,1.0
4815220,36.013457,129.31955833333333,86.39218519027412,117.28434185185523,1.0,85.0,,-0.34765625,-0.97265625,-0.12890625,-0.11328125,0.474609375,-0.017578125,0.77734375,-10.24609375,1.78515625,1.0
4815221,,,,,,,,-0.1875,-1.01171875,-0.08203125,-0.130859375,0.3984375,-0.013671875,0.9296875,-10.28515625,1.82421875,1.0
4815222,,,,,,,,-0.03515625,-1.00390625,-0.265625,-0.123046875,0.31640625,-0.013671875,1.08203125,-10.28515625,1.6328125,1.0
4815223,,,,,,,,-0.02734375,-0.96484375,-0.3046875,-0.142578125,0.2734375,-0.013671875,1.08203125,-10.24609375,1.59375,1.0
4815224,,,,,,,,0.125,-0.8125,-0.35546875,-0.1953125,0.203125,-0.03515625,1.234375,-10.09765625,1.51953125,1.0
4815225,,,,,,,,0.28125,-0.3515625,-0.41796875,-0.25390625,0.216796875,-0.03515625,1.390625,-9.6328125,1.44140625,1.0
4815226,,,,,,,,0.515625,0.078125,-0.5859375,-0.326171875,0.2578125,-0.037109375,1.6171875,-9.21484375,1.25,1.0
4815227,,,,,,,,0.83203125,0.1640625,-0.4453125,-0.517578125,0.3515625,-0.021484375,1.92578125,-9.13671875,1.328125,1.0
4815228,,,,,,,,0.9453125,-0.40234375,-0.5,-0.587890625,0.373046875,-0.015625,2.0390625,-9.703125,1.25,1.0
4815229,,,,,,,,1.0703125,-1.4296875,-0.67578125,-0.7421875,0.3203125,0.013671875,2.15625,-10.7421875,1.01953125,1.0
4815230,36.01345683333333,129.31955916666666,86.46730901203509,117.26584938135815,1.0,86.0,,1.22265625,-2.7578125,-0.91015625,-0.857421875,0.1875,0.0,2.30859375,-12.08984375,0.71484375,1.0
4815231,,,,,,,,1.23046875,-2.5546875,-0.21875,-0.88671875,0.1171875,-0.05078125,2.30859375,-11.89453125,1.328125,1.0
4815232,,,,,,,,0.84765625,-2.47265625,0.66796875,-0.888671875,0.193359375,-0.078125,1.92578125,-11.8125,2.16796875,1.0
4815233,,,,,,,,0.07421875,-3.5,1.32421875,-0.857421875,0.52734375,-0.109375,1.16015625,-12.85546875,2.74609375,1.0
4815234,,,,,,,,-0.73046875,-4.78515625,1.5078125,-0.859375,0.681640625,-0.064453125,0.35546875,-14.15234375,2.859375,1.0
4815235,,,,,,,,-1.23046875,-3.66015625,2.4609375,-0.703125,0.4609375,-0.0390625,-0.14453125,-13.04296875,3.703125,1.0
4815236,,,,,,,,-1.11328125,-1.16015625,1.91015625,-0.453125,0.48046875,-0.05859375,-0.02734375,-10.546875,3.12890625,1.0
4815237,,,,,,,,-1.18359375,-1.046875,1.11328125,0.03125,0.65625,-0.044921875,-0.10546875,-10.4375,2.32421875,1.0
4815238,,,,,,,,-0.6484375,-1.8125,1.41796875,-0.06640625,0.736328125,-0.009765625,0.4296875,-11.203125,2.62890625,1.0
4815239,,,,,,,,-0.21875,-2.1953125,1.7265625,-0.15625,0.75,-0.013671875,0.8515625,-11.58984375,2.9375,1.0
4815240,36.01345683333333,129.3195606666667,86.60253156506818,117.26585071357053,1.1,89.0,,1.16796875,-2.83984375,2.26953125,-0.171875,0.798828125,-0.087890625,2.23046875,-12.234375,3.47265625,1.0
4815241,,,,,,,,1.33203125,-2.72265625,2.31640625,-0.025390625,0.90625,-0.140625,2.38671875,-12.1171875,3.51171875,1.0
4815242,,,,,,,,1.28515625,-2.4921875,2.23046875,0.05859375,0.962890625,-0.1640625,2.34765625,-11.89453125,3.43359375,1.0
4815243,,,,,,,,0.234375,-1.3046875,1.88671875,0.259765625,1.046875,-0.28515625,1.3125,-10.70703125,3.12890625,1.0
4815244,,,,,,,,0.03515625,-0.9609375,1.70703125,0.296875,1.0625,-0.330078125,1.12109375,-10.36328125,2.97265625,1.0
4815245,,,,,,,,-0.59375,-0.28125,1.39453125,0.3203125,1.052734375,-0.3828125,0.5078125,-9.67578125,2.70703125,1.0
4815246,,,,,,,,-0.96875,-0.171875,1.0703125,0.28125,0.97265625,-0.408203125,0.1640625,-9.55859375,2.4375,1.0
4815247,,,,,,,,-1.17578125,-0.06640625,0.86328125,0.25390625,0.953125,-0.40625,-0.02734375,-9.4375,2.24609375,1.0
4815248,,,,,,,,-1.32421875,0.31640625,0.50390625,0.236328125,0.92578125,-0.375,-0.14453125,-9.0546875,1.94140625,1.0
4815249,,,,,,,,-1.30078125,0.5,0.36328125,0.23046875,0.919921875,-0.359375,-0.10546875,-8.8671875,1.82421875,1.0
4815250,36.01345683333333,129.31956166666666,86.69267993042659,117.26585160249009,1.0,87.0,,-1.28515625,1.10546875,0.05859375,0.21875,0.931640625,-0.3359375,-0.06640625,-8.25390625,1.55859375,1.0
4815251,,,,,,,,-1.00390625,1.86328125,-0.296875,0.197265625,0.890625,-0.3359375,0.23828125,-7.48828125,1.25,1.0
4815252,,,,,,,,-0.84765625,2.2109375,-0.46484375,0.1796875,0.861328125,-0.337890625,0.39453125,-7.140625,1.09765625,1.0
4815253,,,,,,,,-0.7109375,2.35546875,-0.52734375,0.142578125,0.802734375,-0.359375,0.546875,-6.984375,1.05859375,1.0
4815254,,,,,,,,-0.734375,2.578125,-0.703125,0.115234375,0.728515625,-0.390625,0.546875,-6.76171875,0.90625,1.0
4815255,,,,,,,,-0.8828125,2.5703125,-0.796875,0.091796875,0.68359375,-0.416015625,0.4296875,-6.76171875,0.828125,1.0
4815256,,,,,,,,-0.98046875,2.5703125,-0.89453125,0.099609375,0.671875,-0.427734375,0.35546875,-6.7578125,0.75390625,1.0
4815257,,,,,,,,-1.15625,2.29296875,-0.94921875,0.095703125,0.66796875,-0.40625,0.203125,-7.0234375,0.71484375,1.0
4815258,,,,,,,,-1.41015625,2.09375,-0.92578125,0.099609375,0.677734375,-0.390625,-0.02734375,-7.22265625,0.75390625,1.0
4815259,,,,,,,,-1.50390625,1.90234375,-1.01953125,0.111328125,0.6796875,-0.37890625,-0.10546875,-7.40625,0.67578125,1.0
4815260,36.01345683333333,129.31956266666666,86.78282829552424,117.26585249295084,1.0,87.0,,-1.765625,1.6953125,-0.78125,0.12890625,0.6796875,-0.3203125,-0.3359375,-7.60546875,0.9453125,1.0
4815261,,,,,,,,-1.78125,1.1796875,-0.90625,0.1640625,0.607421875,-0.23828125,-0.3359375,-8.10546875,0.8671875,1.0
4815262,,,,,,,,-1.75,0.98828125,-0.80859375,0.1640625,0.57421875,-0.208984375,-0.296875,-8.2890625,0.98046875,1.0
4815263,,,,,,,,-1.64453125,0.828125,-0.59375,0.134765625,0.490234375,-0.171875,-0.18359375,-8.44921875,1.2109375,1.0
4815264,,,,,,,,-1.61328125,0.828125,-0.578125,0.140625,0.416015625,-0.146484375,-0.14453125,-8.44921875,1.25,1.0
4815265,,,,,,,,-1.6875,0.9296875,-0.44140625,0.1875,0.361328125,-0.125,-0.21875,-8.328125,1.40234375,1.0
4815266,,,,,,,,-1.6953125,1.1484375,-0.5078125,0.2578125,0.322265625,-0.107421875,-0.21875,-8.10546875,1.3671875,1.0
4815267,,,,,,,,-1.6875,1.234375,-0.75390625,0.29296875,0.306640625,-0.095703125,-0.21875,-8.02734375,1.13671875,1.0
4815268,,,,,,,,-1.61328125,1.07421875,-0.94140625,0.30078125,0.2578125,-0.083984375,-0.14453125,-8.171875,0.98046875,1.0
4815269,,,,,,,,-1.53515625,0.90625,-1.109375,0.27734375,0.23046875,-0.072265625,-0.06640625,-8.33203125,0.828125,1.0
4815270,36.01345633333334,129.31956399999999,86.90302666709515,117.21037405687927,1.1,95.0,,-1.421875,0.75,-1.1015625,0.12890625,0.6796875,-0.3203125,0.046875,-8.48828125,0.8671875,1.0
4815271,,,,,,,,-1.19140625,0.70703125,-1.01171875,0.1484375,0.12890625,-0.05078125,0.27734375,-8.515625,0.98046875,1.0
4815272,,,,,,,,-1.0,0.62109375,-0.98046875,0.08203125,0.091796875,-0.0703125,0.46875,-8.59375,1.01953125,1.0
4815273,,,,,,,,-1.0,0.54296875,-1.0703125,0.04296875,0.091796875,-0.087890625,0.46875,-8.671875,0.9453125,1.0
4815274,,,,,,,,-0.96875,0.3828125,-1.02734375,-0.015625,0.076171875,-0.09765625,0.5078125,-8.83203125,0.98046875,1.0
4815275,,,,,,,,-1.015625,0.23046875,-0.91015625,-0.064453125,0.076171875,-0.107421875,0.46875,-8.98046875,1.09765625,1.0
4815276,,,,,,,,-0.9765625,-0.0390625,-0.796875,-0.09765625,0.0703125,-0.111328125,0.5078125,-9.25,1.2109375,1.0
4815277,,,,,,,,-0.9453125,-0.390625,-0.7109375,-0.142578125,0.068359375,-0.11328125,0.546875,-9.59765625,1.2890625,1.0
4815278,,,,,,,,-0.87109375,-0.765625,-0.57421875,-0.189453125,0.072265625,-0.119140625,0.62109375,-9.9765625,1.40234375,1.0
4815279,,,,,,,,-0.72265625,-1.1015625,-0.51953125,-0.224609375,0.087890625,-0.123046875,0.77734375,-10.32421875,1.44140625,1.0
4815280,36.013456,129.31956499999998,86.99317540113856,117.17338853229356,1.0,102.0,,-0.38671875,-1.1875,-0.6484375,-0.259765625,0.109375,-0.123046875,1.12109375,-10.40234375,1.2890625,1.0
4815281,,,,,,,,-0.2421875,-1.21875,-0.73828125,-0.296875,0.138671875,-0.126953125,1.2734375,-10.44140625,1.17578125,1.0
4815282,,,,,,,,-0.09765625,-1.1015625,-0.9453125,-0.341796875,0.166015625,-0.125,1.42578125,-10.3203125,0.9453125,1.0
4815283,,,,,,,,-0.10546875,-0.98828125,-0.96875,-0.369140625,0.197265625,-0.126953125,1.42578125,-10.203125,0.90625,1.0
4815284,,,,,,,,-0.2109375,-0.47265625,-0.96875,-0.443359375,0.251953125,-0.119140625,1.3125,-9.70703125,0.8671875,1.0
4815285,,,,,,,,-0.640625,-0.046875,-0.9453125,-0.548828125,0.322265625,-0.103515625,0.890625,-9.29296875,0.828125,1.0
4815286,,,,,,,,-1.0234375,0.15234375,-0.78125,-0.62109375,0.333984375,-0.087890625,0.5078125,-9.09765625,0.9453125,1.0
4815287,,,,,,,,-1.484375,-0.99609375,-0.68359375,-0.708984375,0.310546875,-0.056640625,0.046875,-10.24609375,0.98046875,1.0
4815288,,,,,,,,-1.359375,-1.40234375,-0.57421875,-0.828125,0.255859375,-0.015625,0.1640625,-10.66796875,1.01953125,1.0
4815289,,,,,,,,-0.85546875,-1.9609375,-0.00390625,-0.908203125,0.189453125,0.0234375,0.66015625,-11.24609375,1.51953125,1.0
4815290,36.01345533333333,129.31956616666668,87.09834923386724,117.09941674119403,1.1,109.0,,0.2265625,-2.48828125,1.1171875,-0.90625,0.134765625,0.029296875,1.734375,-11.7734375,2.5546875,1.0
4815291,,,,,,,,1.421875,-5.26953125,1.515625,-0.908203125,0.181640625,0.056640625,2.921875,-14.57421875,2.859375,1.0
4815292,,,,,,,,3.12109375,-5.28515625,2.78125,-0.96875,0.251953125,0.0390625,4.60546875,-14.61328125,4.0078125,1.0
4815293,,,,,,,,4.05078125,-3.5078125,3.3203125,-0.7578125,0.29296875,-0.046875,5.52734375,-12.8515625,4.46875,1.0
4815294,,,,,,,,3.0546875,-2.12109375,2.8671875,-0.34375,0.5234375,-0.123046875,4.53125,-11.46875,3.96875,1.0
4815295,,,,,,,,1.015625,-1.96484375,2.45703125,-0.083984375,0.642578125,-0.16015625,2.5,-11.31640625,3.55078125,1.0
4815296,,,,,,,,-0.09375,-2.42578125,2.68359375,-0.005859375,0.626953125,-0.17578125,1.390625,-11.7734375,3.77734375,1.0
4815297,,,,,,,,-0.6875,-2.7421875,2.8984375,0.107421875,0.548828125,-0.166015625,0.8125,-12.0859375,4.0078125,1.0
4815298,,,,,,,,-0.5703125,-2.28125,2.8359375,0.205078125,0.416015625,-0.1484375,0.9296875,-11.62890625,3.96875,1.0
4815299,,,,,,,,-0.203125,-1.24609375,2.40625,0.32421875,0.30078125,-0.080078125,1.3125,-10.5859375,3.5859375,1.0
4815300,36.013454833333334,129.31956733333334,87.20352288189486,117.0439381587779,1.2000000000000002,115.0,0.0,-0.43359375,-0.40234375,1.87109375,-0.90625,0.134765625,0.029296875,1.734375,-11.7734375,2.5546875,1.0
4815301,,,,,,,,-0.73046875,0.1328125,1.44921875,0.349609375,0.376953125,0.0390625,0.77734375,-9.2109375,2.70703125,1.0
4815302,,,,,,,,-0.6796875,0.32421875,1.140625,0.24609375,0.3359375,0.099609375,0.8125,-9.01953125,2.4375,1.0
4815303,,,,,,,,-0.27734375,0.32421875,1.05078125,0.123046875,0.244140625,0.146484375,1.19921875,-9.015625,2.36328125,1.0
4815304,,,,,,,,0.00390625,0.36328125,1.04296875,0.0,0.154296875,0.166015625,1.46484375,-8.9765625,2.36328125,1.0
4815305,,,,,,,,0.10546875,0.5234375,0.88671875,-0.044921875,0.1640625,0.171875,1.54296875,-8.828125,2.20703125,1.0
4815306,,,,,,,,0.04296875,0.67578125,0.84765625,-0.044921875,0.181640625,0.173828125,1.46484375,-8.67578125,2.16796875,1.0
4815307,,,,,,,,0.05859375,1.0234375,0.6484375,-0.01953125,0.22265625,0.1640625,1.46484375,-8.328125,1.9765625,1.0
4815308,,,,,,,,0.0078125,1.421875,0.2890625,0.03515625,0.255859375,0.15625,1.390625,-7.94921875,1.6328125,1.0
4815309,,,,,,,,-0.046875,1.83984375,0.05859375,0.0625,0.3203125,0.16015625,1.3125,-7.52734375,1.40234375,1.0
4815310,36.013454333333335,129.31956816666667,87.27864707470466,116.98845928036135,1.1,113.0,,-0.13671875,2.078125,0.0078125,-0.90625,0.134765625,0.029296875,1.734375,-11.7734375,2.5546875,1.0
4815311,,,,,,,,-0.16015625,2.26953125,0.03515625,0.052734375,0.44140625,0.14453125,1.16015625,-7.1015625,1.40234375,1.0
4815312,,,,,,,,-0.09765625,2.5,0.01953125,0.060546875,0.478515625,0.12890625,1.19921875,-6.87890625,1.40234375,1.0
4815313,,,,,,,,0.0703125,2.76953125,-0.0703125,0.06640625,0.501953125,0.1015625,1.3515625,-6.6015625,1.328125,1.0
4815314,,,,,,,,0.28515625,2.77734375,-0.203125,0.072265625,0.51171875,0.076171875,1.54296875,-6.6015625,1.2109375,1.0
4815315,,,,,,,,0.69140625,2.6171875,-0.6171875,0.068359375,0.544921875,0.0234375,1.92578125,-6.76171875,0.828125,1.0
4815316,,,,,,,,0.73828125,2.578125,-0.73046875,0.05859375,0.55859375,0.0078125,1.96484375,-6.796875,0.71484375,1.0
4815317,,,,,,,,0.67578125,2.34765625,-0.79296875,0.046875,0.62109375,-0.037109375,1.88671875,-7.02734375,0.67578125,1.0
4815318,,,,,,,,0.63671875,2.26953125,-0.83984375,0.029296875,0.677734375,-0.0703125,1.84765625,-7.10546875,0.63671875,1.0
4815319,,,,,,,,0.4453125,2.15625,-0.81640625,0.025390625,0.705078125,-0.078125,1.65625,-7.22265625,0.67578125,1.0
4815320,36.013454,129.31956916666667,87.36879581117711,116.95147376135282,0.9,114.0,,0.29296875,1.99609375,-0.74609375,0.0078125,0.76171875,-0.09765625,1.734375,-11.7734375,2.5546875,1.0
4815321,,,,,,,,0.109375,1.87890625,-0.5625,-0.005859375,0.810546875,-0.103515625,1.3125,-7.484375,0.9453125,1.0
4815322,,,,,,,,0.00390625,1.640625,-0.46484375,-0.01171875,0.81640625,-0.119140625,1.19921875,-7.72265625,1.05859375,1.0
4815323,,,,,,,,0.0390625,1.375,-0.46484375,0.0,0.796875,-0.12109375,1.234375,-7.984375,1.05859375,1.0
4815324,,,,,,,,0.1171875,1.03125,-0.59375,0.009765625,0.7578125,-0.1171875,1.3125,-8.33203125,0.9453125,1.0
4815325,,,,,,,,0.23046875,0.68359375,-0.7578125,0.02734375,0.705078125,-0.099609375,1.42578125,-8.671875,0.7890625,1.0
4815326,,,,,,,,0.27734375,0.5625,-0.87890625,0.005859375,0.66015625,-0.1015625,1.46484375,-8.7890625,0.67578125,1.0
4815327,,,,,,,,0.31640625,0.36328125,-0.89453125,-0.021484375,0.654296875,-0.095703125,1.50390625,-8.9765625,0.67578125,1.0
4815328,,,,,,,,0.31640625,0.24609375,-0.78125,-0.033203125,0.65625,-0.095703125,1.50390625,-9.09375,0.7890625,1.0
4815329,,,,,,,,0.27734375,0.1328125,-0.6640625,-0.044921875,0.6640625,-0.095703125,1.46484375,-9.2109375,0.90625,1.0
4815330,36.013453166666665,129.31957016666667,87.45894510296723,116.8590086147509,1.1,120.0,,0.1640625,0.1015625,-0.51953125,-0.04296875,0.66796875,-0.08984375,1.3515625,-9.25,1.05859375,1.0
4815331,,,,,,,,0.0625,-0.01953125,-0.41015625,-0.02734375,0.66015625,-0.064453125,1.234375,-9.359375,1.17578125,1.0
4815332,,,,,,,,-0.05078125,-0.13671875,-0.44921875,-0.017578125,0.646484375,-0.0546875,1.12109375,-9.48046875,1.13671875,1.0
4815333,,,,,,,,-0.16015625,-0.1796875,-0.45703125,-0.01953125,0.6171875,-0.025390625,1.00390625,-9.515625,1.13671875,1.0
4815334,,,,,,,,-0.2265625,-0.2109375,-0.41796875,-0.015625,0.59765625,-0.0078125,0.9296875,-9.5546875,1.17578125,1.0
4815335,,,,,,,,-0.2578125,-0.40234375,-0.3125,-0.04296875,0.560546875,0.015625,0.890625,-9.7421875,1.2890625,1.0
4815336,,,,,,,,-0.12890625,-0.52734375,-0.390625,-0.05859375,0.529296875,0.029296875,1.00390625,-9.86328125,1.2109375,1.0
4815337,,,,,,,,0.03515625,-0.6796875,-0.34375,-0.1328125,0.43359375,0.03515625,1.16015625,-10.01953125,1.25,1.0
4815338,,,,,,,,0.08203125,-0.83203125,-0.41015625,-0.19140625,0.373046875,0.0234375,1.19921875,-10.1640625,1.17578125,1.0
4815339,,,,,,,,0.08984375,-0.91015625,-0.3671875,-0.224609375,0.345703125,0.0078125,1.19921875,-10.2421875,1.2109375,1.0
4815340,36.0134525,129.31957116666666,87.54909421182666,116.78503667960996,1.1,122.0,,0.1640625,-0.75,-0.234375,-0.28515625,0.2890625,0.005859375,1.2734375,-10.09765625,1.328125,1.0
4815341,,,,,,,,0.2890625,-0.51171875,-0.01171875,-0.349609375,0.255859375,-0.005859375,1.390625,-9.859375,1.51953125,1.0
4815342,,,,,,,,0.6328125,-0.55078125,0.00390625,-0.3828125,0.251953125,-0.01171875,1.734375,-9.8984375,1.51953125,1.0
4815343,,,,,,,,0.9453125,-1.16015625,0.00390625,-0.451171875,0.28515625,-0.005859375,2.0390625,-10.51171875,1.48046875,1.0
4815344,,,,,,,,1.22265625,-2.87890625,-0.02734375,-0.61328125,0.31640625,0.01953125,2.30859375,-12.23828125,1.40234375,1.0
4815345,,,,,,,,1.15234375,-3.75,0.15234375,-0.783203125,0.296875,0.037109375,2.23046875,-13.1171875,1.51953125,1.0
4815346,,,,,,,,1.0,-3.66796875,0.7578125,-0.81640625,0.26953125,0.0390625,2.078125,-13.04296875,2.09375,1.0
4815347,,,,,,,,0.703125,-2.9609375,1.328125,-0.671875,0.341796875,0.0,1.7734375,-12.35546875,2.5546875,1.0
4815348,,,,,,,,-0.5078125,-3.0703125,1.91796875,-0.595703125,0.44140625,0.041015625,0.546875,-12.47265625,3.05078125,1.0
4815349,,,,,,,,-0.5390625,-2.27734375,2.1953125,-0.5390625,0.447265625,0.033203125,0.5078125,-11.6953125,3.28125,1.0
4815350,36.013451833333335,129.31957233333333,87.65426805082011,116.7110648953345,1.2000000000000002,121.0,,-0.37890625,-1.015625,2.109375,-0.181640625,0.611328125,-0.025390625,1.2734375,-10.09765625,1.328125,1.0
4815351,,,,,,,,-0.21875,-0.1328125,1.60546875,-0.021484375,0.802734375,-0.017578125,0.8125,-9.55859375,2.66796875,1.0
4815352,,,,,,,,0.05859375,-0.6328125,1.56640625,-0.060546875,0.83984375,-0.0078125,1.08203125,-10.05859375,2.62890625,1.0
4815353,,,,,,,,0.6015625,-1.55078125,1.875,-0.166015625,0.869140625,-0.021484375,1.6171875,-10.96875,2.9375,1.0
4815354,,,,,,,,1.0234375,-2.04296875,1.99609375,-0.19140625,0.908203125,-0.046875,2.0390625,-11.47265625,3.05078125,1.0
4815355,,,,,,,,1.26171875,-2.1171875,2.07421875,-0.1328125,0.96875,-0.0625,2.26953125,-11.55078125,3.12890625,1.0
4815356,,,,,,,,1.109375,-1.49609375,1.8828125,-0.08203125,1.005859375,-0.076171875,2.1171875,-10.93359375,2.9375,1.0
4815357,,,,,,,,0.50390625,-1.0,1.7890625,0.103515625,1.240234375,-0.158203125,1.50390625,-10.44140625,2.859375,1.0
4815358,,,,,,,,-0.5390625,-0.42578125,1.765625,0.16015625,1.365234375,-0.19921875,0.46875,-9.859375,2.859375,1.0
4815359,,,,,,,,-1.11328125,-0.39453125,1.90234375,0.166015625,1.404296875,-0.21875,-0.10546875,-9.82421875,3.01171875,1.0
4815360,36.01345116666666,129.31957316666666,87.7293924321049,116.63709281149801,1.1,123.0,,-1.54296875,-0.203125,1.80859375,0.154296875,1.33984375,-0.240234375,-0.52734375,-9.6328125,2.97265625,1.0
4815361,,,,,,,,-1.59765625,-0.09375,1.3203125,0.162109375,1.224609375,-0.244140625,-0.56640625,-9.51953125,2.515625,1.0
4815362,,,,,,,,-1.59765625,0.05859375,0.8515625,0.1640625,1.169921875,-0.2421875,-0.56640625,-9.36328125,2.0546875,1.0
4815363,,,,,,,,-1.52734375,0.32421875,0.4375,0.154296875,1.119140625,-0.23828125,-0.48828125,-9.09765625,1.671875,1.0
4815364,,,,,,,,-1.421875,0.6328125,0.34375,0.1484375,1.1171875,-0.23828125,-0.375,-8.7890625,1.59375,1.0
4815365,,,,,,,,-1.265625,1.0859375,0.27734375,0.12109375,1.08984375,-0.232421875,-0.21875,-8.328125,1.55859375,1.0
4815366,,,,,,,,-1.19140625,1.27734375,0.15234375,0.11328125,1.083984375,-0.224609375,-0.14453125,-8.13671875,1.44140625,1.0
4815367,,,,,,,,-0.9375,1.88671875,-0.0703125,0.107421875,1.0,-0.232421875,0.125,-7.52734375,1.25,1.0
4815368,,,,,,,,-0.83203125,2.2734375,-0.33203125,0.111328125,0.9609375,-0.265625,0.23828125,-7.14453125,1.01953125,1.0
4815369,,,,,,,,-0.8984375,2.37890625,-0.5859375,0.08203125,0.88671875,-0.30859375,0.203125,-7.02734375,0.7890625,1.0
4815370,36.01345066666667,129.31957400000002,87.80451663455213,116.58161393795024,1.0,122.0,,-0.984375,2.33984375,-0.67578125,0.154296875,1.33984375,-0.240234375,-0.52734375,-9.6328125,2.97265625,1.0
4815371,,,,,,,,-1.078125,2.2578125,-0.66015625,0.064453125,0.841796875,-0.33984375,0.046875,-7.14453125,0.75390625,1.0
4815372,,,,,,,,-1.20703125,2.06640625,-0.640625,0.083984375,0.84375,-0.328125,-0.06640625,-7.328125,0.7890625,1.0
4815373,,,,,,,,-1.30859375,1.90234375,-0.69921875,0.107421875,0.841796875,-0.30859375,-0.14453125,-7.484375,0.75390625,1.0
4815374,,,,,,,,-1.4375,1.7890625,-0.640625,0.119140625,0.841796875,-0.29296875,-0.2578125,-7.6015625,0.828125,1.0
4815375,,,,,,,,-1.62890625,1.734375,-0.51953125,0.1328125,0.83203125,-0.2734375,-0.44921875,-7.64453125,0.98046875,1.0
4815376,,,,,,,,-1.8359375,1.61328125,-0.50390625,0.16015625,0.82421875,-0.23828125,-0.640625,-7.75,1.01953125,1.0
4815377,,,,,,,,-1.8828125,1.3359375,-0.56640625,0.17578125,0.775390625,-0.21875,-0.6796875,-8.0234375,0.98046875,1.0
4815378,,,,,,,,-1.9296875,1.18359375,-0.48046875,0.17578125,0.70703125,-0.1953125,-0.71875,-8.171875,1.09765625,1.0
4815379,,,,,,,,-1.9765625,1.21484375,-0.45703125,0.185546875,0.646484375,-0.185546875,-0.7578125,-8.13671875,1.13671875,1.0
4815380,36.01345,129.319575,87.89466574728159,116.50764200543253,1.0,124.0,,-1.890625,1.2421875,-0.56640625,0.154296875,1.33984375,-0.240234375,-0.6796875,-8.1015625,1.05859375,1.0
4815381,,,,,,,,-1.8203125,1.12890625,-0.7109375,0.21875,0.5234375,-0.15625,-0.6015625,-8.21484375,0.9453125,1.0
4815382,,,,,,,,-1.75390625,0.890625,-0.67578125,0.19140625,0.46484375,-0.14453125,-0.52734375,-8.44921875,1.01953125,1.0
4815383,,,,,,,,-1.67578125,0.37890625,-0.69140625,0.171875,0.427734375,-0.125,-0.44921875,-8.94140625,1.01953125,1.0
4815384,,,,,,,,-1.5234375,0.33984375,-0.72265625,0.1484375,0.376953125,-0.115234375,-0.296875,-8.98046875,1.01953125,1.0
4815385,,,,,,,,-1.5234375,0.37109375,-0.77734375,0.138671875,0.345703125,-0.109375,-0.296875,-8.9375,0.98046875,1.0
4815386,,,,,,,,-1.6015625,0.3984375,-0.70703125,0.12890625,0.328125,-0.10546875,-0.375,-8.90625,1.05859375,1.0
4815387,,,,,,,,-1.609375,0.4765625,-0.75390625,0.10546875,0.328125,-0.10546875,-0.375,-8.828125,1.01953125,1.0
4815388,,,,,,,,-1.72265625,0.4765625,-0.76953125,0.076171875,0.31640625,-0.109375,-0.48828125,-8.828125,1.01953125,1.0
4815389,,,,,,,,-1.76171875,0.23828125,-0.8515625,0.037109375,0.298828125,-0.1171875,-0.52734375,-9.0546875,0.9453125,1.0
4815390,36.013449333333334,129.31957566666668,87.95476540547945,116.43366977406109,1.0,132.0,,-1.69140625,0.0859375,-0.8984375,-0.037109375,0.23046875,-0.119140625,-0.44921875,-9.21484375,0.90625,1.0
4815391,,,,,,,,-1.5,-0.18359375,-0.77734375,-0.08984375,0.181640625,-0.123046875,-0.2578125,-9.4765625,1.01953125,1.0
4815392,,,,,,,,-1.31640625,-0.56640625,-0.73046875,-0.138671875,0.146484375,-0.123046875,-0.06640625,-9.859375,1.05859375,1.0
4815393,,,,,,,,-1.1953125,-0.7265625,-0.68359375,-0.173828125,0.125,-0.125,0.046875,-10.01953125,1.09765625,1.0
4815394,,,,,,,,-0.94140625,-0.95703125,-0.66796875,-0.236328125,0.109375,-0.115234375,0.31640625,-10.24609375,1.09765625,1.0
4815395,,,,,,,,-0.7890625,-0.87109375,-0.78125,-0.32421875,0.1171875,-0.11328125,0.46875,-10.1640625,0.9453125,1.0
4815396,,,,,,,,-0.60546875,-0.6796875,-0.8359375,-0.361328125,0.15234375,-0.1171875,0.66015625,-9.9765625,0.8671875,1.0
4815397,,,,,,,,-0.3828125,-0.48046875,-0.91015625,-0.416015625,0.189453125,-0.125,0.890625,-9.78515625,0.75390625,1.0
4815398,,,,,,,,-0.34375,-0.40234375,-0.89453125,-0.453125,0.19921875,-0.125,0.9296875,-9.70703125,0.75390625,1.0
4815399,,,,,,,,-0.23046875,-0.2421875,-0.8125,-0.533203125,0.251953125,-0.11328125,1.04296875,-9.55859375,0.7890625,1.0
4815400,36.013448499999996,129.31957633333334,88.01486525008352,116.34120433302569,1.0,141.0,0.0,-0.27734375,-0.16015625,-0.7578125,-0.5859375,0.322265625,-0.109375,1.00390625,-9.4765625,0.7890625,1.0
4815401,,,,,,,,-0.390625,-1.03125,-0.6171875,-0.6484375,0.373046875,-0.103515625,0.890625,-10.359375,0.828125,1.0
4815402,,,,,,,,-0.3125,-1.4375,-0.36328125,-0.828125,0.3125,-0.1015625,0.96875,-10.78125,0.98046875,1.0
4815403,,,,,,,,0.13671875,-1.46875,0.328125,-0.921875,0.236328125,-0.08203125,1.42578125,-10.82421875,1.59375,1.0
4815404,,,,,,,,0.56640625,-2.25,1.10546875,-0.916015625,0.203125,-0.060546875,1.84765625,-11.62890625,2.28515625,1.0
4815405,,,,,,,,1.10546875,-3.8203125,1.421875,-0.966796875,0.21484375,-0.0234375,2.38671875,-13.1953125,2.515625,1.0
4815406,,,,,,,,1.5625,-4.80859375,1.61328125,-1.041015625,0.21875,-0.001953125,2.84375,-14.19140625,2.66796875,1.0
4815407,,,,,,,,3.6796875,-6.33203125,2.55859375,-1.197265625,0.244140625,-0.005859375,4.953125,-15.72265625,3.51171875,1.0
4815408,,,,,,,,5.02734375,-4.59375,3.34765625,-0.99609375,0.37109375,-0.041015625,6.29296875,-14.0,4.19921875,1.0
4815409,,,,,,,,4.75,-3.703125,3.2421875,-0.693359375,0.49609375,-0.0703125,6.0234375,-13.12109375,4.046875,1.0
4815410,36.01344766666667,129.31957716666665,88.0899898205638,116.24873904605894,1.1,149.0,,2.59765625,-2.09375,2.875,0.1796875,0.943359375,-0.208984375,1.00390625,-9.4765625,0.7890625,1.0
4815411,,,,,,,,0.0625,-2.21875,3.44921875,0.416015625,1.01171875,-0.267578125,1.3515625,-11.625,4.27734375,1.0
4815412,,,,,,,,-0.67578125,-2.37109375,3.6875,0.470703125,0.9765625,-0.271484375,0.62109375,-11.7734375,4.546875,1.0
4815413,,,,,,,,-1.9609375,-1.796875,2.96484375,0.55859375,0.83203125,-0.21484375,-0.640625,-11.20703125,3.89453125,1.0
4815414,,,,,,,,-1.73046875,-0.578125,1.68359375,0.576171875,0.658203125,-0.04296875,-0.41015625,-9.9765625,2.70703125,1.0
4815415,,,,,,,,-1.6875,0.44921875,1.51171875,0.47265625,0.716796875,0.068359375,-0.375,-8.9375,2.58984375,1.0
4815416,,,,,,,,-1.671875,0.75390625,1.48046875,0.41015625,0.755859375,0.11328125,-0.375,-8.6328125,2.58984375,1.0
4815417,,,,,,,,-1.32421875,1.0625,1.07421875,0.205078125,0.693359375,0.232421875,-0.06640625,-8.33203125,2.24609375,1.0
4815418,,,,,,,,-0.796875,0.609375,0.75390625,0.03125,0.552734375,0.263671875,0.4296875,-8.7890625,1.94140625,1.0
4815419,,,,,,,,-0.3984375,0.45703125,0.67578125,-0.05859375,0.5,0.26171875,0.8125,-8.9375,1.86328125,1.0
4815420,36.0134465,129.31957766666667,88.13506531204226,116.11928703854034,1.1,148.0,,-0.2890625,0.6171875,0.8203125,0.1796875,0.943359375,-0.208984375,1.00390625,-9.4765625,0.7890625,1.0
4815421,,,,,,,,-0.28125,0.9375,0.84375,-0.189453125,0.421875,0.21484375,0.8515625,-8.48828125,2.015625,1.0
4815422,,,,,,,,-0.28125,1.40625,0.39453125,-0.083984375,0.427734375,0.16015625,0.8125,-8.0234375,1.55859375,1.0
4815423,,,,,,,,-0.06640625,1.75,0.0859375,-0.06640625,0.439453125,0.1171875,1.00390625,-7.68359375,1.25,1.0
4815424,,,,,,,,0.06640625,1.90234375,-0.03515625,-0.064453125,0.451171875,0.1015625,1.12109375,-7.5234375,1.13671875,1.0
4815425,,,,,,,,0.15234375,2.01953125,-0.11328125,-0.06640625,0.478515625,0.0859375,1.19921875,-7.40625,1.05859375,1.0
4815426,,,,,,,,0.2890625,2.06640625,-0.18359375,-0.06640625,0.517578125,0.072265625,1.3125,-7.3671875,0.98046875,1.0
4815427,,,,,,,,0.2890625,2.10546875,-0.18359375,-0.05859375,0.533203125,0.064453125,1.3125,-7.328125,0.98046875,1.0
4815428,,,,,,,,0.390625,2.11328125,-0.265625,-0.04296875,0.576171875,0.041015625,1.390625,-7.328125,0.90625,1.0
4815429,,,,,,,,0.46484375,2.07421875,-0.265625,-0.03515625,0.59375,0.033203125,1.46484375,-7.37109375,0.90625,1.0
4815430,36.013445833333336,129.319578,88.16511551367739,116.0453145074554,1.0,150.0,,0.51171875,2.03515625,-0.34375,0.1796875,0.943359375,-0.208984375,1.00390625,-9.4765625,0.7890625,1.0
4815431,,,,,,,,0.60546875,1.8828125,-0.3515625,0.001953125,0.65625,0.0,1.58203125,-7.5625,0.828125,1.0
4815432,,,,,,,,0.6484375,1.765625,-0.25,-0.005859375,0.66015625,-0.013671875,1.6171875,-7.68359375,0.9453125,1.0
4815433,,,,,,,,0.6875,1.64453125,-0.25,-0.00390625,0.658203125,-0.021484375,1.65625,-7.79296875,0.9453125,1.0
4815434,,,,,,,,0.62890625,1.56640625,-0.3046875,0.037109375,0.654296875,-0.04296875,1.58203125,-7.87109375,0.90625,1.0
4815435,,,,,,,,0.55078125,1.4921875,-0.3125,0.060546875,0.66796875,-0.0625,1.50390625,-7.9453125,0.90625,1.0
4815436,,,,,,,,0.40625,1.29296875,-0.3671875,0.09375,0.677734375,-0.068359375,1.3515625,-8.1328125,0.8671875,1.0
4815437,,,,,,,,0.26171875,1.17578125,-0.3203125,0.1171875,0.712890625,-0.078125,1.19921875,-8.25,0.9453125,1.0
4815438,,,,,,,,0.18359375,1.1015625,-0.328125,0.125,0.71875,-0.080078125,1.12109375,-8.33203125,0.9453125,1.0
4815439,,,,,,,,0.26171875,0.671875,-0.359375,0.150390625,0.712890625,-0.078125,1.19921875,-8.75,0.9453125,1.0
4815440,36.01344466666667,129.31957849999998,88.21019099998193,115.91586250200612,1.2000000000000002,153.0,,0.4609375,0.44140625,-0.4609375,0.1484375,0.70703125,-0.068359375,1.390625,-8.98046875,0.8671875,1.0
4815441,,,,,,,,0.54296875,0.39453125,-0.3984375,0.150390625,0.71484375,-0.064453125,1.46484375,-9.015625,0.9453125,1.0
4815442,,,,,,,,0.54296875,0.39453125,-0.4140625,0.1640625,0.72265625,-0.0703125,1.46484375,-9.015625,0.9453125,1.0
4815443,,,,,,,,0.62109375,0.5078125,-0.27734375,0.17578125,0.744140625,-0.064453125,1.54296875,-8.91015625,1.09765625,1.0
4815444,,,,,,,,0.4765625,0.578125,-0.078125,0.203125,0.779296875,-0.056640625,1.390625,-8.83203125,1.328125,1.0
4815445,,,,,,,,0.328125,0.578125,-0.0625,0.20703125,0.818359375,-0.04296875,1.234375,-8.83203125,1.3671875,1.0
4815446,,,,,,,,0.18359375,0.46484375,-0.04296875,0.197265625,0.833984375,-0.041015625,1.08203125,-8.9375,1.40234375,1.0
4815447,,,,,,,,-0.078125,0.484375,-0.01171875,0.16796875,0.873046875,-0.025390625,0.8125,-8.91015625,1.48046875,1.0
4815448,,,,,,,,-0.21484375,0.71484375,-0.1484375,0.14453125,0.884765625,-0.015625,0.66015625,-8.67578125,1.3671875,1.0
4815449,,,,,,,,-0.16015625,0.8984375,-0.3203125,0.103515625,0.89453125,-0.009765625,0.69921875,-8.48828125,1.2109375,1.0
4815450,36.01344383333333,129.31957916666667,88.27029085350293,115.82339706354983,1.1,153.0,,-0.0234375,0.32421875,-0.51953125,-0.158203125,0.8046875,-0.009765625,0.8125,-9.05859375,1.01953125,1.0
4815451,,,,,,,,-0.12109375,-0.44140625,-0.1640625,-0.287109375,0.76171875,-0.025390625,0.69921875,-9.82421875,1.3671875,1.0
4815452,,,,,,,,-0.19921875,-0.625,0.00390625,-0.3203125,0.7265625,-0.037109375,0.62109375,-10.01953125,1.51953125,1.0
4815453,,,,,,,,-0.3046875,-0.81640625,0.21875,-0.349609375,0.634765625,-0.087890625,0.5078125,-10.20703125,1.7109375,1.0
4815454,,,,,,,,-0.41796875,-0.9296875,0.2890625,-0.32421875,0.55078125,-0.13671875,0.39453125,-10.3203125,1.75,1.0
4815455,,,,,,,,-0.234375,-0.703125,0.15625,-0.294921875,0.505859375,-0.171875,0.5859375,-10.09375,1.59375,1.0
4815456,,,,,,,,-0.12109375,-0.50390625,0.08984375,-0.30078125,0.501953125,-0.1796875,0.69921875,-9.8984375,1.51953125,1.0
4815457,,,,,,,,0.29296875,-0.1953125,-0.15625,-0.3203125,0.53125,-0.17578125,1.12109375,-9.59375,1.25,1.0
4815458,,,,,,,,0.4375,-0.578125,-0.19921875,-0.42578125,0.603515625,-0.158203125,1.2734375,-9.98046875,1.17578125,1.0
4815459,,,,,,,,0.66015625,-2.37109375,-0.19140625,-0.673828125,0.599609375,-0.13671875,1.50390625,-11.77734375,1.13671875,1.0
4815460,36.013443,129.3195798333333,88.33039070086537,115.7309316266664,1.1,153.0,,0.66015625,-2.5546875,0.03125,-0.158203125,0.8046875,-0.009765625,0.8125,-9.05859375,1.01953125,1.0
4815461,,,,,,,,0.4609375,-1.8515625,0.9140625,-0.849609375,0.537109375,-0.15625,1.3125,-11.28515625,2.09375,1.0
4815462,,,,,,,,0.0625,-2.33984375,1.09765625,-0.65234375,0.638671875,-0.19921875,0.9296875,-11.77734375,2.20703125,1.0
4815463,,,,,,,,-0.25390625,-3.52734375,0.87890625,-0.69140625,0.646484375,-0.208984375,0.46875,-13.3828125,2.1328125,1.0
4815464,,,,,,,,-0.3828125,-3.7109375,1.515625,-0.78125,0.560546875,-0.208984375,0.39453125,-12.5,2.66796875,1.0
4815465,,,,,,,,-0.703125,-1.75,1.41015625,-0.486328125,0.64453125,-0.21875,0.203125,-11.203125,2.32421875,1.0
4815466,,,,,,,,-0.8203125,-1.17578125,1.26953125,-0.26171875,0.73046875,-0.21484375,0.0859375,-10.62890625,2.16796875,1.0
4815467,,,,,,,,-1.21875,-0.5625,1.078125,-0.03125,0.873046875,-0.1953125,-0.296875,-10.015625,1.9765625,1.0
4815468,,,,,,,,-1.33984375,-0.67578125,1.1875,-0.025390625,0.978515625,-0.154296875,-0.41015625,-10.12890625,2.09375,1.0
4815469,,,,,,,,-0.7734375,-1.59765625,1.6484375,-0.109375,1.0234375,-0.15234375,0.1640625,-11.05078125,2.5546875,1.0
4815470,36.013442000000005,129.31958033333333,88.37546601229849,115.61997282972219,1.1,157.0,,-0.16796875,-2.0625,2.03125,-0.158203125,0.8046875,-0.009765625,0.77734375,-11.51171875,2.9375,1.0
4815471,,,,,,,,0.4453125,-2.171875,2.17578125,-0.04296875,1.162109375,-0.205078125,1.390625,-11.625,3.08984375,1.0
4815472,,,,,,,,0.359375,-2.0546875,2.12890625,0.0234375,1.23046875,-0.224609375,1.3125,-11.5078125,3.05078125,1.0
4815473,,,,,,,,0.04296875,-1.44140625,2.02734375,0.16796875,1.30859375,-0.283203125,1.00390625,-10.890625,2.97265625,1.0
4815474,,,,,,,,-0.31640625,-0.80078125,1.9375,0.236328125,1.341796875,-0.314453125,0.66015625,-10.2421875,2.8984375,1.0
4815475,,,,,,,,-1.0,0.1484375,1.26171875,0.36328125,1.33203125,-0.41015625,0.0078125,-9.2890625,2.28515625,1.0
4815476,,,,,,,,-1.375,0.2578125,1.03125,0.296875,1.25,-0.423828125,-0.3359375,-9.17578125,2.1328125,1.0
4815477,,,,,,,,-1.828125,0.21875,0.75390625,0.162109375,1.185546875,-0.404296875,-0.7578125,-9.2109375,1.90234375,1.0
4815478,,,,,,,,-1.8359375,0.25,0.66015625,0.138671875,1.16796875,-0.39453125,-0.7578125,-9.171875,1.82421875,1.0
4815479,,,,,,,,-1.71875,0.5546875,0.390625,0.126953125,1.15234375,-0.3515625,-0.6015625,-8.8671875,1.59375,1.0
4815480,36.01344116666667,129.31958083333333,88.42054113427872,115.52750724134067,1.0,157.0,,-1.69140625,0.74609375,0.33984375,0.138671875,1.146484375,-0.34375,0.77734375,-11.51171875,2.9375,1.0
4815481,,,,,,,,-1.46875,1.27734375,0.15234375,0.150390625,1.12890625,-0.33984375,-0.3359375,-8.1328125,1.40234375,1.0
4815482,,,,,,,,-1.26171875,1.8046875,-0.13671875,0.146484375,1.0859375,-0.35546875,-0.10546875,-7.6015625,1.13671875,1.0
4815483,,,,,,,,-1.09375,2.2265625,-0.3984375,0.12890625,1.029296875,-0.384765625,0.0859375,-7.18359375,0.90625,1.0
4815484,,,,,,,,-1.109375,2.37109375,-0.5,0.087890625,0.97265625,-0.40625,0.0859375,-7.02734375,0.828125,1.0
4815485,,,,,,,,-1.28515625,2.28515625,-0.5546875,0.033203125,0.919921875,-0.4140625,-0.06640625,-7.10546875,0.7890625,1.0
4815486,,,,,,,,-1.5078125,2.0859375,-0.53125,0.005859375,0.888671875,-0.412109375,-0.2578125,-7.30078125,0.828125,1.0
4815487,,,,,,,,-1.71484375,2.01171875,-0.46875,0.017578125,0.873046875,-0.392578125,-0.44921875,-7.3671875,0.90625,1.0
4815488,,,,,,,,-1.96875,1.84765625,-0.4453125,0.0546875,0.85546875,-0.3671875,-0.6796875,-7.52734375,0.9453125,1.0
4815489,,,,,,,,-2.09765625,1.62109375,-0.5,0.08984375,0.82421875,-0.3515625,-0.79296875,-7.75390625,0.90625,1.0
4815490,36.01344033333333,129.31958116666667,88.45059152671503,115.43504150214065,0.9,160.0,,-2.23828125,1.45703125,-0.5625,0.138671875,1.146484375,-0.34375,-0.91015625,-7.91015625,0.8671875,1.0
4815491,,,,,,,,-2.21484375,1.10546875,-0.6328125,0.1328125,0.703125,-0.271484375,-0.87109375,-8.25,0.828125,1.0
4815492,,,,,,,,-2.18359375,1.03125,-0.6796875,0.12109375,0.669921875,-0.26171875,-0.83203125,-8.328125,0.7890625,1.0
4815493,,,,,,,,-2.125,0.8671875,-0.6640625,0.111328125,0.609375,-0.23828125,-0.7578125,-8.484375,0.828125,1.0
4815494,,,,,,,,-2.0859375,0.70703125,-0.48828125,0.1171875,0.556640625,-0.212890625,-0.71875,-8.6328125,1.01953125,1.0
4815495,,,,,,,,-2.140625,0.8515625,-0.41796875,0.185546875,0.46484375,-0.193359375,-0.7578125,-8.48828125,1.13671875,1.0
4815496,,,,,,,,-2.21484375,0.84375,-0.703125,0.212890625,0.4453125,-0.185546875,-0.83203125,-8.484375,0.8671875,1.0
4815497,,,,,,,,-2.109375,0.68359375,-0.828125,0.220703125,0.376953125,-0.166015625,-0.71875,-8.6328125,0.7890625,1.0
4815498,,,,,,,,-2.0,0.484375,-0.87109375,0.21875,0.349609375,-0.1640625,-0.6015625,-8.83203125,0.75390625,1.0
4815499,,,,,,,,-1.89453125,0.24609375,-0.7734375,0.1796875,0.29296875,-0.150390625,-0.48828125,-9.05859375,0.8671875,1.0
4815500,36.01343933333333,129.31958133333333,88.46561737670321,115.32408240424948,1.1,166.0,0.0,-1.84765625,0.1328125,-0.75,0.138671875,1.146484375,-0.34375,-0.44921875,-9.171875,0.90625,1.0
4815501,,,,,,,,-1.86328125,-0.01953125,-0.69140625,0.1328125,0.2109375,-0.146484375,-0.375,-9.36328125,1.01953125,1.0
4815502,,,,,,,,-1.671875,-0.15234375,-0.51171875,0.1171875,0.171875,-0.1484375,-0.2578125,-9.4375,1.17578125,1.0
4815503,,,,,,,,-1.56640625,-0.15234375,-0.4921875,0.09375,0.138671875,-0.158203125,-0.10546875,-9.48046875,1.25,1.0
4815504,,,,,,,,-1.49609375,-0.15234375,-0.3828125,0.0703125,0.11328125,-0.171875,-0.06640625,-9.44140625,1.328125,1.0
4815505,,,,,,,,-1.50390625,-0.16796875,-0.3515625,0.048828125,0.103515625,-0.181640625,-0.06640625,-9.48046875,1.40234375,1.0
4815506,,,,,,,,-1.55078125,-0.359375,-0.32421875,0.009765625,0.0859375,-0.193359375,-0.10546875,-9.63671875,1.40234375,1.0
4815507,,,,,,,,-1.56640625,-0.51171875,-0.4375,-0.0625,0.05078125,-0.20703125,-0.10546875,-9.82421875,1.25,1.0
4815508,,,,,,,,-1.54296875,-0.62890625,-0.58984375,-0.181640625,0.015625,-0.2265625,0.0078125,-9.8984375,1.09765625,1.0
4815509,,,,,,,,-1.375,-0.63671875,-0.72265625,-0.26953125,0.01953125,-0.232421875,0.1640625,-9.82421875,0.9453125,1.0
4815510,36.01343833333333,129.319581,88.43556902980134,115.2131228518633,1.0,178.0,,-1.84765625,0.1328125,-0.75,0.138671875,1.146484375,-0.34375,0.35546875,-9.63671875,0.828125,1.0
4815511,,,,,,,,-0.984375,-0.21484375,-0.8203125,-0.451171875,0.0390625,-0.23828125,0.5859375,-9.44140625,0.75390625,1.0
4815512,,,,,,,,-0.88671875,-0.16796875,-0.92578125,-0.556640625,0.05078125,-0.234375,0.73828125,-9.3984375,0.63671875,1.0
4815513,,,,,,,,-0.81640625,-0.12890625,-0.94140625,-0.611328125,0.052734375,-0.23046875,0.69921875,-9.3203125,0.71484375,1.0
4815514,,,,,,,,-0.83203125,0.109375,-0.76953125,-0.712890625,0.056640625,-0.22265625,0.69921875,-9.09765625,0.828125,1.0
4815515,,,,,,,,-1.0390625,0.23046875,-0.546875,-0.7890625,0.046875,-0.21484375,0.546875,-9.0546875,0.90625,1.0
4815516,,,,,,,,-1.1328125,-0.2578125,-0.5546875,-0.853515625,0.041015625,-0.197265625,0.46875,-9.55859375,0.828125,1.0
4815517,,,,,,,,-0.87109375,-0.98046875,-0.484375,-0.94921875,0.02734375,-0.16796875,0.73828125,-10.28515625,0.828125,1.0
4815518,,,,,,,,-0.61328125,-0.82421875,-0.16796875,-0.984375,0.013671875,-0.162109375,1.00390625,-10.125,1.09765625,1.0
4815519,,,,,,,,-0.2421875,-0.3515625,0.5546875,-1.00390625,-0.03515625,-0.162109375,1.390625,-9.671875,1.7109375,1.0
4815520,36.0134375,129.31958083333333,88.42054522901869,115.12065665956271,1.1,187.0,,0.3984375,-0.9921875,1.28515625,-0.974609375,-0.0078125,-0.134765625,0.35546875,-9.63671875,0.828125,1.0
4815521,,,,,,,,1.2421875,-4.1640625,1.26171875,-1.03515625,0.068359375,-0.08203125,2.8828125,-13.50390625,2.24609375,1.0
4815522,,,,,,,,3.49609375,-6.76171875,2.1015625,-1.17578125,0.123046875,-0.076171875,5.14453125,-16.10546875,2.9375,1.0
4815523,,,,,,,,5.296875,-5.64453125,3.54296875,-1.208984375,0.13671875,-0.083984375,6.9453125,-14.99609375,4.31640625,1.0
4815524,,,,,,,,5.671875,-3.4921875,3.98828125,-1.009765625,0.1640625,-0.171875,7.328125,-12.85546875,4.66015625,1.0
4815525,,,,,,,,2.96484375,-1.69140625,2.6328125,-0.0859375,0.642578125,-0.318359375,4.64453125,-11.05078125,3.2421875,1.0
4815526,,,,,,,,1.06640625,-1.7734375,2.34765625,0.248046875,0.796875,-0.33203125,2.76953125,-11.125,2.97265625,1.0
4815527,,,,,,,,-0.95703125,-2.47265625,2.76171875,0.353515625,0.716796875,-0.318359375,0.39453125,-12.0078125,3.625,1.0
4815528,,,,,,,,-1.46484375,-2.65625,2.96875,0.369140625,0.61328125,-0.296875,0.27734375,-12.0078125,3.6640625,1.0
4815529,,,,,,,,-1.25,-2.35546875,2.65234375,0.392578125,0.392578125,-0.21875,0.5078125,-11.6953125,3.39453125,1.0
4815530,36.0134365,129.31958033333333,88.37547215195187,115.00969695581264,1.1,194.0,,-0.56640625,-1.33203125,1.87109375,-0.974609375,-0.0078125,-0.134765625,0.35546875,-9.63671875,0.828125,1.0
4815531,,,,,,,,-0.53125,-0.75,1.71875,0.416015625,0.490234375,0.01953125,1.234375,-10.09375,2.5546875,1.0
4815532,,,,,,,,-0.62109375,0.2109375,1.45703125,0.314453125,0.599609375,0.1640625,1.12109375,-9.1328125,2.36328125,1.0
4815533,,,,,,,,-0.40625,0.1328125,1.30078125,0.1953125,0.484375,0.205078125,1.3125,-9.2109375,2.24609375,1.0
4815534,,,,,,,,-0.03125,-0.01171875,1.09375,0.083984375,0.330078125,0.205078125,1.65625,-9.36328125,2.0546875,1.0
4815535,,,,,,,,0.078125,0.2265625,0.88671875,0.03515625,0.24609375,0.19140625,1.734375,-9.13671875,1.86328125,1.0
4815536,,,,,,,,-0.16796875,0.5,0.7578125,0.064453125,0.28125,0.177734375,1.46484375,-8.8671875,1.75,1.0
4815537,,,,,,,,-0.3359375,0.9609375,0.55859375,0.095703125,0.3125,0.1640625,1.2734375,-8.41015625,1.55859375,1.0
4815538,,,,,,,,-0.42578125,1.23046875,0.45703125,0.109375,0.32421875,0.1640625,1.16015625,-8.13671875,1.48046875,1.0
4815539,,,,,,,,-0.41015625,1.57421875,0.25,0.107421875,0.318359375,0.166015625,1.16015625,-7.79296875,1.2890625,1.0
4815540,36.0134355,129.31958,88.34542380518377,114.89873740428715,1.1,193.0,,-0.38671875,1.8203125,0.11328125,-0.974609375,-0.0078125,-0.134765625,0.35546875,-9.63671875,0.828125,1.0
4815541,,,,,,,,-0.2890625,2.125,0.10546875,0.103515625,0.369140625,0.169921875,1.234375,-7.26171875,1.17578125,1.0
4815542,,,,,,,,-0.203125,2.27734375,0.05078125,0.107421875,0.3828125,0.169921875,1.3125,-7.10546875,1.13671875,1.0
4815543,,,,,,,,-0.01953125,2.2421875,-0.00390625,0.123046875,0.404296875,0.1640625,1.46484375,-7.140625,1.09765625,1.0
4815544,,,,,,,,0.06640625,2.27734375,-0.01953125,0.138671875,0.419921875,0.16015625,1.54296875,-7.10546875,1.09765625,1.0
4815545,,,,,,,,0.38671875,2.27734375,-0.1875,0.154296875,0.44921875,0.1484375,1.84765625,-7.10546875,0.9453125,1.0
4815546,,,,,,,,0.48046875,2.2109375,-0.16015625,0.15625,0.458984375,0.134765625,1.92578125,-7.18359375,0.98046875,1.0
4815547,,,,,,,,0.6875,2.25,-0.18359375,0.173828125,0.505859375,0.099609375,2.1171875,-7.14453125,0.98046875,1.0
4815548,,,,,,,,0.7109375,2.27734375,-0.34375,0.203125,0.55078125,0.046875,2.1171875,-7.10546875,0.8671875,1.0
4815549,,,,,,,,0.50390625,2.38671875,-0.54296875,0.216796875,0.6015625,-0.0078125,1.88671875,-6.984375,0.71484375,1.0
4815550,36.013434833333335,129.3195795,88.30035035146875,114.8247641178647,1.0,196.0,,0.3125,2.4609375,-0.60546875,0.21875,0.630859375,-0.037109375,1.6953125,-6.9140625,0.67578125,1.0
4815551,,,,,,,,0.05859375,2.37890625,-0.57421875,0.19921875,0.6640625,-0.07421875,1.42578125,-6.98828125,0.75390625,1.0
4815552,,,,,,,,-0.015625,2.140625,-0.62109375,0.17578125,0.6484375,-0.0703125,1.3515625,-7.22265625,0.75390625,1.0
4815553,,,,,,,,0.13671875,1.83203125,-0.72265625,0.162109375,0.6171875,-0.06640625,1.50390625,-7.52734375,0.67578125,1.0
4815554,,,,,,,,0.296875,1.6328125,-0.859375,0.130859375,0.595703125,-0.0625,1.65625,-7.71875,0.5625,1.0
4815555,,,,,,,,0.45703125,1.17578125,-0.875,0.099609375,0.609375,-0.0546875,1.80859375,-8.17578125,0.5625,1.0
4815556,,,,,,,,0.49609375,1.0234375,-0.81640625,0.080078125,0.62890625,-0.0546875,1.84765625,-8.33203125,0.63671875,1.0
4815557,,,,,,,,0.50390625,0.5546875,-0.75390625,0.0546875,0.65625,-0.056640625,1.84765625,-8.79296875,0.71484375,1.0
4815558,,,,,,,,0.47265625,0.35546875,-0.49609375,0.033203125,0.671875,-0.05859375,1.80859375,-8.9765625,0.98046875,1.0
4815559,,,,,,,,0.55078125,0.046875,-0.31640625,0.025390625,0.6953125,-0.060546875,1.88671875,-9.2890625,1.17578125,1.0
4815560,36.01343383333334,129.31957916666667,88.27030200306407,114.71380456630567,1.1,199.0,,0.55859375,-0.1796875,-0.25,0.21875,0.630859375,-0.037109375,1.88671875,-9.51953125,1.25,1.0
4815561,,,,,,,,0.56640625,-0.44921875,-0.1875,0.0078125,0.705078125,-0.044921875,1.88671875,-9.78515625,1.328125,1.0
4815562,,,,,,,,0.46875,-0.53515625,-0.08984375,0.005859375,0.69921875,-0.037109375,1.7734375,-9.86328125,1.44140625,1.0
4815563,,,,,,,,0.23828125,-0.609375,-0.08984375,0.0,0.703125,-0.0390625,1.54296875,-9.94140625,1.44140625,1.0
4815564,,,,,,,,0.0546875,-0.6484375,-0.06640625,0.01171875,0.716796875,-0.017578125,1.3515625,-9.98046875,1.48046875,1.0
4815565,,,,,,,,-0.046875,-0.7265625,-0.1796875,0.0078125,0.66796875,-0.001953125,1.234375,-10.0546875,1.3671875,1.0
4815566,,,,,,,,-0.07421875,-0.80859375,-0.1953125,-0.04296875,0.54296875,0.013671875,1.19921875,-10.125,1.3671875,1.0
4815567,,,,,,,,-0.17578125,-1.03125,-0.38671875,-0.11328125,0.455078125,0.013671875,1.08203125,-10.36328125,1.17578125,1.0
4815568,,,,,,,,-0.2890625,-1.0703125,-0.3046875,-0.142578125,0.419921875,0.021484375,0.96875,-10.40234375,1.25,1.0
4815569,,,,,,,,-0.3515625,-0.95703125,-0.2109375,-0.23828125,0.32421875,0.025390625,0.890625,-10.28125,1.328125,1.0
4815570,36.01343283333333,129.31957866666667,88.22522892141345,114.60284486391856,1.1,198.0,,-0.3046875,-0.6796875,-0.04296875,0.21875,0.630859375,-0.037109375,0.9296875,-10.01953125,1.48046875,1.0
4815571,,,,,,,,-0.02734375,-0.6015625,-0.01953125,-0.357421875,0.240234375,0.05078125,1.19921875,-9.9375,1.48046875,1.0
4815572,,,,,,,,0.71484375,-1.19921875,-0.0703125,-0.517578125,0.150390625,0.08203125,1.92578125,-10.55078125,1.3671875,1.0
4815573,,,,,,,,0.953125,-1.54296875,-0.1640625,-0.587890625,0.12890625,0.091796875,2.15625,-10.89453125,1.25,1.0
4815574,,,,,,,,1.19140625,-2.33203125,-0.4453125,-0.73828125,0.087890625,0.1171875,2.38671875,-11.69921875,0.90625,1.0
4815575,,,,,,,,1.05078125,-1.59765625,-0.18359375,-0.810546875,0.1015625,0.099609375,2.23046875,-10.96875,1.09765625,1.0
4815576,,,,,,,,0.79296875,-0.74609375,0.26953125,-0.76953125,0.240234375,0.060546875,1.96484375,-10.125,1.48046875,1.0
4815577,,,,,,,,0.53125,-1.3828125,0.5703125,-0.736328125,0.435546875,0.0546875,1.6953125,-10.78515625,1.7109375,1.0
4815578,,,,,,,,0.34765625,-1.99609375,0.640625,-0.76953125,0.494140625,0.08203125,1.50390625,-11.390625,1.75,1.0
4815579,,,,,,,,-0.39453125,-3.703125,1.8203125,-0.896484375,0.453125,0.111328125,0.73828125,-13.1171875,2.8203125,1.0
4815580,36.013431833333335,129.319578,88.16513110478085,114.49188501043218,1.1,203.0,,-0.71484375,-2.96875,3.00390625,0.21875,0.630859375,-0.037109375,0.9296875,-10.01953125,1.48046875,1.0
4815581,,,,,,,,-0.74609375,-1.2734375,2.57421875,-0.19140625,0.68359375,0.072265625,0.35546875,-10.703125,3.47265625,1.0
4815582,,,,,,,,-0.1484375,-1.3125,2.453125,0.08984375,0.779296875,0.08984375,0.9296875,-10.74609375,3.359375,1.0
4815583,,,,,,,,0.49609375,-1.7265625,2.61328125,0.068359375,0.9140625,0.060546875,1.54296875,-11.1640625,3.55078125,1.0
4815584,,,,,,,,0.6171875,-1.7265625,2.59765625,0.111328125,0.94921875,0.05078125,1.65625,-11.16796875,3.55078125,1.0
4815585,,,,,,,,0.703125,-1.53515625,2.3046875,0.173828125,0.966796875,0.0078125,1.734375,-10.97265625,3.28125,1.0
4815586,,,,,,,,0.17578125,-0.80859375,1.96484375,0.24609375,0.96875,-0.0625,1.19921875,-10.2421875,2.97265625,1.0
4815587,,,,,,,,-0.0859375,-0.5,1.90625,0.267578125,0.96875,-0.107421875,0.9296875,-9.94140625,2.9375,1.0
4815588,,,,,,,,-0.8515625,0.07421875,1.60546875,0.3046875,0.994140625,-0.17578125,0.1640625,-9.36328125,2.66796875,1.0
4815589,,,,,,,,-1.08984375,0.02734375,1.54296875,0.30078125,0.98828125,-0.1953125,-0.06640625,-9.3984375,2.62890625,1.0
4815590,36.013430666666665,129.31957766666667,88.13508293816767,114.36243225045047,1.2000000000000002,200.0,,-1.51953125,-0.00390625,1.4296875,0.234375,0.93359375,-0.22265625,-0.48828125,-9.44140625,2.5546875,1.0
4815591,,,,,,,,-1.48828125,-0.1640625,1.328125,0.134765625,0.83203125,-0.23046875,-0.44921875,-9.59765625,2.4765625,1.0
4815592,,,,,,,,-1.390625,-0.203125,1.2421875,0.09765625,0.783203125,-0.236328125,-0.3359375,-9.63671875,2.3984375,1.0
4815593,,,,,,,,-1.08984375,0.09765625,0.921875,0.060546875,0.71484375,-0.22265625,-0.02734375,-9.3203125,2.09375,1.0
4815594,,,,,,,,-0.9453125,0.78515625,0.66015625,0.083984375,0.734375,-0.203125,0.125,-8.6328125,1.86328125,1.0
4815595,,,,,,,,-0.73046875,1.359375,0.4453125,0.1171875,0.75390625,-0.203125,0.35546875,-8.06640625,1.671875,1.0
4815596,,,,,,,,-0.6171875,1.6953125,0.24609375,0.123046875,0.744140625,-0.208984375,0.46875,-7.72265625,1.48046875,1.0
4815597,,,,,,,,-0.44921875,2.00390625,0.0234375,0.115234375,0.66015625,-0.248046875,0.66015625,-7.41015625,1.2890625,1.0
4815598,,,,,,,,-0.37890625,2.08203125,0.0078125,0.1015625,0.59375,-0.27734375,0.73828125,-7.33203125,1.2890625,1.0
4815599,,,,,,,,-0.42578125,2.08203125,-0.078125,0.10546875,0.57421875,-0.29296875,0.69921875,-7.328125,1.2109375,1.0
4815600,36.01342966666667,129.31957716666665,88.09000984859154,114.25147254848994,1.1,200.0,0.0,-1.51953125,-0.00390625,1.4296875,0.123046875,0.55078125,-0.318359375,0.62109375,-7.37109375,1.05859375,1.0
4815601,,,,,,,,-0.625,2.07421875,-0.23828125,0.14453125,0.55859375,-0.328125,0.39453125,-7.296875,0.98046875,1.0
4815602,,,,,,,,-0.91796875,2.140625,-0.4140625,0.15625,0.57421875,-0.30859375,0.1640625,-7.21875,0.90625,1.0
4815603,,,,,,,,-1.0390625,2.171875,-0.4609375,0.166015625,0.576171875,-0.306640625,0.0078125,-7.33203125,0.828125,1.0
4815604,,,,,,,,-1.36328125,2.05859375,-0.484375,0.1640625,0.58203125,-0.259765625,-0.2578125,-7.33203125,0.8671875,1.0
4815605,,,,,,,,-1.5703125,2.01171875,-0.515625,0.166015625,0.58203125,-0.224609375,-0.44921875,-7.40625,0.828125,1.0
4815606,,,,,,,,-1.73046875,2.00390625,-0.6171875,0.181640625,0.548828125,-0.173828125,-0.48828125,-7.37109375,0.7890625,1.0
4815607,,,,,,,,-1.74609375,2.03515625,-0.6796875,0.18359375,0.521484375,-0.138671875,-0.48828125,-7.33203125,0.7890625,1.0
4815608,,,,,,,,-1.74609375,2.03515625,-0.6875,0.177734375,0.505859375,-0.119140625,-0.48828125,-7.33203125,0.828125,1.0
4815609,,,,,,,,-1.73828125,1.94921875,-0.6796875,0.181640625,0.4609375,-0.091796875,-0.41015625,-7.48828125,0.828125,1.0
4815610,36.01342866666666,129.3195765,88.02991203202748,114.14051269624953,1.1,202.0,,-1.51953125,-0.00390625,1.4296875,0.1640625,0.384765625,-0.05859375,-0.52734375,-7.68359375,0.8671875,1.0
4815611,,,,,,,,-1.81640625,1.55078125,-0.7890625,0.154296875,0.3125,-0.037109375,-0.21875,-8.44921875,0.828125,1.0
4815612,,,,,,,,-1.4609375,0.8984375,-0.765625,0.14453125,0.27734375,-0.033203125,-0.06640625,-8.63671875,0.7890625,1.0
4815613,,,,,,,,-1.1953125,0.5546875,-0.78125,0.1171875,0.20703125,-0.029296875,0.203125,-8.94140625,0.9453125,1.0
4815614,,,,,,,,-0.6953125,0.203125,-0.4140625,0.07421875,0.16796875,-0.03515625,0.66015625,-9.2109375,1.328125,1.0
4815615,,,,,,,,-0.49609375,0.078125,-0.20703125,0.095703125,0.189453125,-0.056640625,0.69921875,-9.25390625,1.6328125,1.0
4815616,,,,,,,,-0.53515625,0.078125,-0.015625,0.109375,0.21875,-0.064453125,0.46875,-9.29296875,1.671875,1.0
4815617,,,,,,,,-0.87890625,0.0703125,0.0078125,0.169921875,0.25390625,-0.1015625,0.0859375,-9.2890625,1.55859375,1.0
4815618,,,,,,,,-1.30078125,-0.01171875,-0.20703125,0.1640625,0.228515625,-0.115234375,-0.2578125,-9.40234375,1.328125,1.0
4815619,,,,,,,,-1.5,-0.08984375,-0.375,0.142578125,0.19921875,-0.1328125,-0.2578125,-9.40234375,1.2890625,1.0
4815620,36.013428,129.31957516666668,87.90971490671339,114.06653865966534,1.2000000000000002,213.0,,-1.546875,-0.13671875,-0.5078125,0.076171875,0.16015625,-0.138671875,-0.296875,-9.44140625,1.2109375,1.0
4815621,,,,,,,,-1.43359375,-0.3359375,-0.55078125,-0.009765625,0.142578125,-0.13671875,-0.18359375,-9.6328125,1.17578125,1.0
4815622,,,,,,,,-1.1015625,-0.3671875,-0.58203125,-0.162109375,0.11328125,-0.123046875,0.1640625,-9.671875,1.13671875,1.0
4815623,,,,,,,,-0.6796875,-0.40234375,-0.67578125,-0.263671875,0.09375,-0.1171875,0.5859375,-9.70703125,1.01953125,1.0
4815624,,,,,,,,-0.34375,-0.55859375,-0.84375,-0.357421875,0.080078125,-0.119140625,0.9296875,-9.859375,0.828125,1.0
4815625,,,,,,,,-0.12109375,-0.6328125,-0.87890625,-0.46484375,0.0859375,-0.12109375,1.16015625,-9.94140625,0.75390625,1.0
4815626,,,,,,,,-0.08203125,-0.6328125,-0.8203125,-0.51171875,0.08203125,-0.126953125,1.19921875,-9.94140625,0.7890625,1.0
4815627,,,,,,,,-0.0546875,-0.47265625,-0.6953125,-0.5859375,0.099609375,-0.125,1.234375,-9.78125,0.8671875,1.0
4815628,,,,,,,,-0.3359375,-0.08203125,-0.48828125,-0.59375,0.130859375,-0.130859375,0.96875,-9.40234375,1.01953125,1.0
4815629,,,,,,,,-0.60546875,0.0390625,-0.43359375,-0.5859375,0.158203125,-0.123046875,0.69921875,-9.29296875,1.01953125,1.0
4815630,36.01342733333333,129.31957433333335,87.83459197937006,113.99256507630241,1.1,218.0,,-1.03515625,-0.6796875,-0.26171875,-0.611328125,0.158203125,-0.109375,0.27734375,-10.015625,1.13671875,1.0
4815631,,,,,,,,-1.00390625,-2.05859375,0.21484375,-0.7265625,0.095703125,-0.087890625,0.31640625,-11.39453125,1.55859375,1.0
4815632,,,,,,,,-0.84375,-2.47265625,0.51171875,-0.796875,0.01953125,-0.072265625,0.46875,-11.8125,1.82421875,1.0
4815633,,,,,,,,0.60546875,-3.375,1.77734375,-0.912109375,-0.16015625,-0.056640625,1.92578125,-12.73828125,3.01171875,1.0
4815634,,,,,,,,2.86328125,-4.35546875,2.1015625,-0.900390625,-0.3046875,-0.0234375,4.18359375,-13.73046875,3.203125,1.0
4815635,,,,,,,,4.58203125,-4.07421875,2.50390625,-0.83203125,-0.05078125,0.001953125,5.91015625,-13.4609375,3.47265625,1.0
4815636,,,,,,,,4.58203125,-3.0390625,2.7265625,-0.669921875,0.1328125,0.001953125,5.91015625,-12.43359375,3.6640625,1.0
4815637,,,,,,,,2.7890625,-2.1484375,2.87890625,-0.189453125,0.4921875,-0.033203125,4.109375,-11.55078125,3.77734375,1.0
4815638,,,,,,,,1.33203125,-2.41796875,3.109375,0.095703125,0.587890625,-0.080078125,2.65234375,-11.81640625,4.0078125,1.0
4815639,,,,,,,,0.296875,-2.87890625,3.546875,0.232421875,0.46875,-0.11328125,1.6171875,-12.2734375,4.46875,1.0
4815640,36.0134265,129.31957333333332,87.74444449886718,113.90009813391586,1.2000000000000002,222.0,,-0.66796875,-3.14453125,3.73828125,0.375,0.30078125,-0.099609375,0.66015625,-12.5390625,4.69921875,1.0
4815641,,,,,,,,-0.67578125,-2.1171875,2.76953125,0.501953125,0.169921875,-0.046875,0.66015625,-11.5078125,3.77734375,1.0
4815642,,,,,,,,-0.55859375,-1.16796875,2.1015625,0.56640625,0.1484375,0.046875,0.77734375,-10.55078125,3.1640625,1.0
4815643,,,,,,,,-0.5,0.2109375,1.62109375,0.52734375,0.197265625,0.15625,0.8125,-9.17578125,2.74609375,1.0
4815644,,,,,,,,-0.51171875,0.28515625,1.49609375,0.330078125,0.19140625,0.2890625,0.77734375,-9.0546875,2.5546875,1.0
4815645,,,,,,,,-0.296875,0.09375,1.15234375,0.134765625,0.048828125,0.35546875,1.08203125,-9.4765625,2.24609375,1.0
4815646,,,,,,,,-0.16796875,-0.08984375,1.02734375,0.044921875,-0.01953125,0.380859375,1.19921875,-9.63671875,2.20703125,1.0
4815647,,,,,,,,0.21484375,-0.39453125,0.94921875,-0.041015625,-0.0859375,0.4140625,1.50390625,-9.78515625,2.1328125,1.0
4815648,,,,,,,,0.33203125,-0.265625,0.875,-0.03515625,-0.046875,0.427734375,1.42578125,-9.4765625,2.0546875,1.0
4815649,,,,,,,,-0.04296875,0.6171875,0.59765625,0.046875,0.037109375,0.421875,1.08203125,-8.79296875,1.82421875,1.0
