time,latitude,longitude,enu_x,enu_y,speed,course,ecg,accX,accY,accZ,gyrX,gyrY,gyrZ,eulR,eulP,eulY,validity
4757240,36.013416666666664,129.319502,81.31386860134288,112.80893697101612,1.1,223.0,,0.66796875,-2.56640625,0.515625,-0.66015625,0.060546875,0.1484375,1.12109375,-11.8515625,2.5546875,1.0
4757241,,,,,,,,-0.16015625,-2.625,1.13671875,-0.548828125,0.228515625,0.072265625,0.27734375,-11.9296875,3.12890625,1.0
4757242,,,,,,,,-0.3828125,-3.0390625,1.2265625,-0.546875,0.302734375,0.06640625,0.046875,-12.35546875,3.1640625,1.0
4757243,,,,,,,,-1.4453125,-3.5234375,1.66796875,-0.669921875,0.162109375,0.064453125,-1.0234375,-12.85546875,3.55078125,1.0
4757244,,,,,,,,-2.39453125,-1.67578125,2.6015625,-0.521484375,0.166015625,0.017578125,-1.98046875,-11.01171875,4.4296875,1.0
4757245,,,,,,,,-2.47265625,-0.48046875,2.7109375,-0.158203125,0.189453125,-0.0078125,-2.05859375,-9.8203125,4.5078125,1.0
4757246,,,,,,,,-2.359375,0.171875,2.296875,0.05859375,0.0625,0.005859375,-1.9453125,-9.171875,4.0859375,1.0
4757247,,,,,,,,-1.4296875,-0.2109375,1.71484375,0.015625,-0.068359375,0.0234375,-1.0234375,-9.5546875,3.51171875,1.0
4757248,,,,,,,,-0.51171875,-1.0078125,1.75390625,-0.123046875,-0.15234375,0.03125,-0.10546875,-10.36328125,3.55078125,1.0
4757249,,,,,,,,0.28515625,-1.73828125,1.953125,-0.166015625,-0.16015625,0.02734375,0.69921875,-11.08984375,3.7421875,1.0
4757250,36.01341583333333,129.31950133333333,81.25377051316777,112.7164703731712,1.1,220.0,,0.8984375,-1.8515625,2.2734375,-0.66015625,0.060546875,0.1484375,1.3125,-11.20703125,4.046875,1.0
4757251,,,,,,,,0.96875,-1.390625,2.203125,0.0,-0.029296875,-0.080078125,1.390625,-10.74609375,3.96875,1.0
4757252,,,,,,,,0.64453125,-0.47265625,1.8125,0.1640625,0.0078125,-0.150390625,1.08203125,-9.82421875,3.5859375,1.0
4757253,,,,,,,,-0.0234375,0.140625,1.63671875,0.208984375,-0.02734375,-0.234375,0.4296875,-9.2109375,3.43359375,1.0
4757254,,,,,,,,-0.51171875,-0.01171875,1.62109375,0.13671875,-0.078125,-0.30078125,-0.02734375,-9.359375,3.43359375,1.0
4757255,,,,,,,,-0.62109375,-0.328125,1.61328125,0.03515625,-0.1640625,-0.33203125,-0.10546875,-9.67578125,3.43359375,1.0
4757256,,,,,,,,-0.59765625,-0.44140625,1.5,-0.00390625,-0.197265625,-0.3359375,-0.06640625,-9.78125,3.3203125,1.0
4757257,,,,,,,,-0.69140625,-0.44140625,1.19140625,-0.02734375,-0.244140625,-0.318359375,-0.10546875,-9.78125,3.01171875,1.0
4757258,,,,,,,,-0.5703125,0.0546875,0.84765625,0.01953125,-0.208984375,-0.287109375,0.046875,-9.29296875,2.66796875,1.0
4757259,,,,,,,,-0.5234375,0.66796875,0.50390625,0.06640625,-0.169921875,-0.255859375,0.125,-8.671875,2.32421875,1.0
4757260,36.01341516666666,129.31950066666667,81.19367225516139,112.64249698466799,1.0,220.0,,-0.515625,1.12890625,0.140625,0.08203125,-0.166015625,-0.212890625,0.1640625,-8.2109375,1.9765625,1.0
4757261,,,,,,,,-0.39453125,1.43359375,-0.01953125,0.0625,-0.224609375,-0.19140625,0.31640625,-7.91015625,1.82421875,1.0
4757262,,,,,,,,-0.21875,1.625,-0.171875,0.04296875,-0.310546875,-0.181640625,0.5078125,-7.72265625,1.671875,1.0
4757263,,,,,,,,-0.1953125,1.6953125,-0.32421875,0.037109375,-0.337890625,-0.18359375,0.546875,-7.640625,1.51953125,1.0
4757264,,,,,,,,-0.1875,1.89453125,-0.484375,0.046875,-0.421875,-0.173828125,0.5859375,-7.4453125,1.3671875,1.0
4757265,,,,,,,,-0.2890625,2.0390625,-0.71484375,0.048828125,-0.4453125,-0.15625,0.5078125,-7.296875,1.13671875,1.0
4757266,,,,,,,,-0.42578125,2.00390625,-0.80078125,0.060546875,-0.455078125,-0.138671875,0.39453125,-7.33203125,1.05859375,1.0
4757267,,,,,,,,-0.56640625,1.83984375,-0.953125,0.05859375,-0.474609375,-0.103515625,0.27734375,-7.48828125,0.90625,1.0
4757268,,,,,,,,-0.61328125,1.765625,-0.9609375,0.060546875,-0.470703125,-0.083984375,0.23828125,-7.5625,0.90625,1.0
4757269,,,,,,,,-0.7421875,1.41796875,-1.0,0.05078125,-0.47265625,-0.0546875,0.125,-7.91015625,0.8671875,1.0
4757270,36.013414499999996,129.31950016666667,81.14859873045603,112.568523734557,1.0,218.0,,-0.671875,1.2265625,-0.9921875,0.0546875,-0.486328125,-0.021484375,0.203125,-8.10546875,0.8671875,1.0
4757271,,,,,,,,-0.57421875,1.07421875,-0.9609375,0.083984375,-0.505859375,0.0234375,0.31640625,-8.25390625,0.90625,1.0
4757272,,,,,,,,-0.54296875,0.9921875,-1.046875,0.125,-0.5078125,0.05078125,0.35546875,-8.33203125,0.828125,1.0
4757273,,,,,,,,-0.46875,0.9453125,-1.015625,0.16796875,-0.501953125,0.0703125,0.4296875,-8.37109375,0.8671875,1.0
4757274,,,,,,,,-0.3984375,0.984375,-1.078125,0.2265625,-0.494140625,0.087890625,0.5078125,-8.328125,0.828125,1.0
4757275,,,,,,,,-0.3984375,1.05078125,-1.0546875,0.25390625,-0.474609375,0.08984375,0.5078125,-8.25,0.8671875,1.0
4757276,,,,,,,,-0.3984375,1.05078125,-1.0703125,0.267578125,-0.458984375,0.09375,0.5078125,-8.25,0.8671875,1.0
4757277,,,,,,,,-0.3984375,1.04296875,-1.1640625,0.29296875,-0.4375,0.09375,0.5078125,-8.25,0.7890625,1.0
4757278,,,,,,,,-0.4375,1.00390625,-1.23046875,0.287109375,-0.41015625,0.087890625,0.46875,-8.29296875,0.75390625,1.0
4757279,,,,,,,,-0.28515625,0.8828125,-1.1484375,0.26953125,-0.400390625,0.080078125,0.62109375,-8.40625,0.8671875,1.0
4757280,36.01341383333333,129.3194995,81.0885004704528,112.4945503469471,1.0,221.0,,-0.24609375,0.875,-1.01171875,0.244140625,-0.40234375,0.0625,0.66015625,-8.40625,1.01953125,1.0
4757281,,,,,,,,-0.28515625,0.70703125,-1.00390625,0.236328125,-0.376953125,0.0390625,0.62109375,-8.55859375,1.05859375,1.0
4757282,,,,,,,,-0.3671875,0.58984375,-1.05078125,0.216796875,-0.3828125,0.029296875,0.546875,-8.671875,1.01953125,1.0
4757283,,,,,,,,-0.3359375,0.390625,-1.02734375,0.1796875,-0.40234375,0.017578125,0.5859375,-8.8671875,1.05859375,1.0
4757284,,,,,,,,-0.109375,0.31640625,-0.8046875,0.146484375,-0.423828125,0.005859375,0.8125,-8.9375,1.2890625,1.0
4757285,,,,,,,,0.06640625,0.19140625,-0.78125,0.115234375,-0.42578125,-0.017578125,1.00390625,-9.05859375,1.328125,1.0
4757286,,,,,,,,0.13671875,0.03125,-0.70703125,0.09765625,-0.4140625,-0.017578125,1.08203125,-9.2109375,1.40234375,1.0
4757287,,,,,,,,0.16796875,-0.19921875,-0.62890625,0.056640625,-0.404296875,-0.0234375,1.12109375,-9.44140625,1.48046875,1.0
4757288,,,,,,,,0.08203125,-0.58203125,-0.55078125,0.001953125,-0.384765625,-0.01953125,1.04296875,-9.8203125,1.55859375,1.0
4757289,,,,,,,,0.0,-0.6953125,-0.515625,-0.021484375,-0.3671875,-0.01953125,0.96875,-9.9375,1.59375,1.0
4757290,36.013413166666666,129.31949883333334,81.02840220805821,112.4205769605343,1.0,219.0,,-0.046875,-0.96484375,-0.390625,0.244140625,-0.40234375,0.0625,0.9296875,-10.203125,1.7109375,1.0
4757291,,,,,,,,-0.0546875,-1.00390625,-0.40625,-0.087890625,-0.28125,0.013671875,0.9296875,-10.24609375,1.671875,1.0
4757292,,,,,,,,-0.1015625,-0.6953125,-0.4765625,-0.119140625,-0.236328125,0.029296875,0.890625,-9.94140625,1.59375,1.0
4757293,,,,,,,,-0.140625,-0.54296875,-0.50390625,-0.12890625,-0.208984375,0.03515625,0.8515625,-9.78515625,1.55859375,1.0
4757294,,,,,,,,-0.4453125,-0.0390625,-0.6796875,-0.154296875,-0.17578125,0.029296875,0.546875,-9.29296875,1.3671875,1.0
4757295,,,,,,,,-0.71484375,0.26953125,-0.765625,-0.244140625,-0.22265625,0.025390625,0.27734375,-8.9765625,1.25,1.0
4757296,,,,,,,,-0.984375,0.390625,-0.80859375,-0.34765625,-0.314453125,0.01953125,0.0078125,-8.8671875,1.17578125,1.0
4757297,,,,,,,,-1.14453125,0.16015625,-0.84765625,-0.44140625,-0.41796875,0.03125,-0.14453125,-9.09765625,1.09765625,1.0
4757298,,,,,,,,-1.14453125,-0.05859375,-0.90234375,-0.484375,-0.466796875,0.0390625,-0.14453125,-9.3203125,1.01953125,1.0
4757299,,,,,,,,-0.8828125,-1.0859375,-1.15234375,-0.587890625,-0.58203125,0.046875,0.125,-10.359375,0.71484375,1.0
4757300,36.013412333333335,129.31949799999998,80.95327937829632,112.32811022678058,1.1,221.0,0.0,-0.27734375,-1.63671875,-0.4296875,-0.7578125,-0.76171875,0.0859375,0.73828125,-10.9296875,1.328125,1.0
4757301,,,,,,,,0.328125,-3.19140625,0.71875,-0.822265625,-0.814453125,0.109375,1.3515625,-12.50390625,2.3984375,1.0
4757302,,,,,,,,0.6015625,-4.10546875,0.875,-0.86328125,-0.8515625,0.123046875,1.6171875,-13.42578125,2.515625,1.0
4757303,,,,,,,,3.0546875,-2.953125,1.99609375,-0.603515625,-0.95703125,0.099609375,4.0703125,-12.31640625,3.39453125,1.0
4757304,,,,,,,,3.0546875,-1.765625,1.63671875,-0.267578125,-0.74609375,0.08203125,4.0703125,-11.125,3.01171875,1.0
4757305,,,,,,,,1.58984375,0.26953125,0.87890625,0.166015625,-0.388671875,0.03125,2.61328125,-9.09765625,2.24609375,1.0
4757306,,,,,,,,0.51953125,-1.34375,1.015625,0.1796875,-0.375,0.029296875,1.54296875,-10.703125,2.3984375,1.0
4757307,,,,,,,,0.203125,-2.11328125,1.19921875,0.041015625,-0.625,0.052734375,1.234375,-11.46875,2.58984375,1.0
4757308,,,,,,,,-0.0703125,-3.51953125,2.28125,0.01171875,-0.87109375,0.07421875,0.96875,-12.88671875,3.6640625,1.0
4757309,,,,,,,,-0.03515625,-3.59765625,2.39453125,0.099609375,-0.921875,0.095703125,1.00390625,-12.96484375,3.77734375,1.0
4757310,36.01341166666667,129.31949699999998,80.8631316407498,112.2541365640933,1.1,223.0,,0.3125,-2.953125,1.7734375,0.373046875,-0.912109375,0.130859375,1.3515625,-12.3125,3.1640625,1.0
4757311,,,,,,,,0.3125,-2.11328125,1.3984375,0.591796875,-0.755859375,0.1953125,1.3515625,-11.47265625,2.8203125,1.0
4757312,,,,,,,,-0.1328125,-0.92578125,1.10546875,0.658203125,-0.580078125,0.306640625,0.890625,-10.28125,2.58984375,1.0
4757313,,,,,,,,-0.35546875,-0.578125,1.12109375,0.64453125,-0.533203125,0.349609375,0.66015625,-9.9375,2.62890625,1.0
4757314,,,,,,,,-0.171875,0.02734375,0.80078125,0.578125,-0.576171875,0.443359375,0.8125,-9.3203125,2.36328125,1.0
4757315,,,,,,,,0.20703125,-0.05078125,0.53125,0.46484375,-0.708984375,0.49609375,1.16015625,-9.40234375,2.1328125,1.0
4757316,,,,,,,,0.55078125,-0.13671875,0.30859375,0.337890625,-0.837890625,0.513671875,1.46484375,-9.48046875,1.94140625,1.0
4757317,,,,,,,,0.54296875,-0.01171875,0.3125,0.2578125,-0.873046875,0.513671875,1.42578125,-9.359375,1.9765625,1.0
4757318,,,,,,,,0.3671875,0.21875,0.19140625,0.23046875,-0.865234375,0.498046875,1.234375,-9.13671875,1.86328125,1.0
4757319,,,,,,,,0.32421875,0.6015625,0.0703125,0.23828125,-0.833984375,0.482421875,1.16015625,-8.75,1.75,1.0
4757320,36.013411,129.31949649999999,80.81805811054454,112.18016331647146,1.1,219.0,,0.37109375,1.21484375,-0.15234375,0.373046875,-0.912109375,0.130859375,1.16015625,-8.1328125,1.55859375,1.0
4757321,,,,,,,,0.43359375,1.7578125,-0.32421875,0.2421875,-0.83984375,0.4453125,1.19921875,-7.60546875,1.40234375,1.0
4757322,,,,,,,,0.484375,1.91015625,-0.3671875,0.234375,-0.853515625,0.44140625,1.234375,-7.44921875,1.3671875,1.0
4757323,,,,,,,,0.640625,2.140625,-0.57421875,0.193359375,-0.912109375,0.4375,1.42578125,-7.10546875,1.17578125,1.0
4757324,,,,,,,,0.72265625,2.25390625,-0.62109375,0.177734375,-0.919921875,0.431640625,1.42578125,-7.1015625,1.13671875,1.0
4757325,,,,,,,,0.82421875,2.29296875,-0.58984375,0.1640625,-0.908203125,0.416015625,1.50390625,-6.9140625,1.01953125,1.0
4757326,,,,,,,,0.83984375,2.4453125,-0.75390625,0.18359375,-0.87890625,0.38671875,1.58203125,-6.875,0.8671875,1.0
4757327,,,,,,,,1.1484375,2.484375,-1.08203125,0.15625,-0.826171875,0.349609375,1.88671875,-6.87890625,0.71484375,1.0
4757328,,,,,,,,1.28515625,2.484375,-1.08984375,0.138671875,-0.80859375,0.333984375,2.1171875,-6.9140625,0.63671875,1.0
4757329,,,,,,,,1.63671875,2.32421875,-1.03125,0.115234375,-0.76171875,0.314453125,2.30859375,-7.14453125,0.75390625,1.0
4757330,36.01341016666667,129.31949583333332,80.75796001588827,112.08769672149717,1.0,217.0,,0.37109375,1.21484375,-0.15234375,0.373046875,-0.912109375,0.130859375,2.34765625,-7.2578125,0.7890625,1.0
4757331,,,,,,,,1.82421875,1.94140625,-1.0390625,0.099609375,-0.658203125,0.267578125,2.421875,-7.52734375,0.828125,1.0
4757332,,,,,,,,1.82421875,1.55859375,-0.9609375,0.107421875,-0.578125,0.23828125,2.38671875,-7.8671875,0.98046875,1.0
4757333,,,,,,,,1.80078125,1.44140625,-0.890625,0.150390625,-0.4765625,0.203125,2.30859375,-7.8671875,0.90625,1.0
4757334,,,,,,,,1.66015625,1.47265625,-0.9140625,0.2109375,-0.361328125,0.185546875,2.15625,-7.90625,0.90625,1.0
4757335,,,,,,,,1.6328125,1.3984375,-1.0078125,0.234375,-0.265625,0.169921875,2.15625,-7.94921875,0.8671875,1.0
4757336,,,,,,,,1.83203125,1.16796875,-1.1015625,0.21875,-0.232421875,0.15625,2.34765625,-8.17578125,0.7890625,1.0
4757337,,,,,,,,1.953125,0.39453125,-1.16015625,0.189453125,-0.1953125,0.138671875,2.4609375,-8.9375,0.75390625,1.0
4757338,,,,,,,,1.921875,-0.03515625,-1.17578125,0.16015625,-0.14453125,0.1171875,2.421875,-9.359375,0.75390625,1.0
4757339,,,,,,,,1.83984375,-0.3046875,-1.03125,0.1640625,-0.0625,0.095703125,2.34765625,-9.6328125,0.90625,1.0
4757340,36.013409333333335,129.31949516666666,80.69786191690899,111.99523012898132,1.0,215.0,,1.5078125,-0.50390625,-0.77734375,0.373046875,-0.912109375,0.130859375,2.0,-9.82421875,1.17578125,1.0
4757341,,,,,,,,1.125,-0.3125,-0.45703125,0.2578125,0.09765625,0.0546875,1.6171875,-9.63671875,1.51953125,1.0
4757342,,,,,,,,0.98046875,-0.16796875,-0.3203125,0.28125,0.115234375,0.048828125,1.46484375,-9.48046875,1.671875,1.0
4757343,,,,,,,,0.90625,-0.12890625,-0.34375,0.298828125,0.12109375,0.048828125,1.390625,-9.3984375,1.6328125,1.0
4757344,,,,,,,,0.98828125,-0.13671875,-0.52734375,0.265625,0.076171875,0.056640625,1.46484375,-9.4375,1.51953125,1.0
4757345,,,,,,,,1.140625,-0.3046875,-0.62890625,0.224609375,0.0390625,0.0625,1.6171875,-9.59375,1.44140625,1.0
4757346,,,,,,,,1.1484375,-0.34375,-0.7109375,0.19921875,0.0390625,0.056640625,1.6171875,-9.63671875,1.3671875,1.0
4757347,,,,,,,,0.96484375,-0.45703125,-0.66015625,0.162109375,0.08203125,0.05078125,1.42578125,-9.74609375,1.44140625,1.0
4757348,,,,,,,,0.73828125,-0.54296875,-0.70703125,0.080078125,0.123046875,0.05078125,0.9296875,-9.86328125,1.48046875,1.0
4757349,,,,,,,,0.46875,-0.58984375,-0.64453125,0.044921875,0.125,0.05078125,0.8515625,-9.86328125,1.51953125,1.0
4757350,36.01340833333334,129.31949500000002,80.68283820168962,111.88427074244214,1.1,207.0,,1.5078125,-0.50390625,-0.77734375,-0.0625,0.056640625,0.05078125,0.5078125,-9.90234375,1.51953125,1.0
4757351,,,,,,,,0.0546875,-0.62890625,-0.63671875,-0.140625,-0.013671875,0.048828125,0.46875,-9.94140625,1.44140625,1.0
4757352,,,,,,,,0.015625,-0.50390625,-0.57421875,-0.244140625,-0.078125,0.041015625,0.546875,-9.59765625,1.59375,1.0
4757353,,,,,,,,0.16796875,-0.19140625,-0.4296875,-0.31640625,-0.115234375,0.046875,0.66015625,-9.2890625,1.6328125,1.0
4757354,,,,,,,,0.4765625,0.23828125,-0.328125,-0.392578125,-0.16015625,0.04296875,1.12109375,-9.0546875,1.82421875,1.0
4757355,,,,,,,,0.8203125,0.1328125,-0.17578125,-0.494140625,-0.189453125,0.029296875,1.3515625,-9.55859375,1.75,1.0
4757356,,,,,,,,1.01171875,-0.82421875,-0.3828125,-0.560546875,-0.21875,0.021484375,1.46484375,-10.12890625,1.59375,1.0
4757357,,,,,,,,1.12109375,-1.84375,-0.6328125,-0.712890625,-0.3203125,0.001953125,1.58203125,-11.16796875,1.2890625,1.0
4757358,,,,,,,,0.8828125,-1.4140625,-0.1015625,-0.78515625,-0.251953125,-0.0625,1.3515625,-10.74609375,1.75,1.0
4757359,,,,,,,,0.30078125,-0.328125,0.81640625,-0.75390625,-0.02734375,-0.10546875,0.77734375,-9.67578125,2.58984375,1.0
4757360,36.01340733333333,129.31949466666669,80.65278974720627,111.77331121642104,1.1,201.0,,1.5078125,-0.50390625,-0.77734375,-0.748046875,0.099609375,-0.083984375,0.5078125,-9.90234375,1.51953125,1.0
4757361,,,,,,,,-0.375,-1.60546875,1.33984375,-0.837890625,-0.033203125,-0.068359375,0.125,-10.97265625,2.97265625,1.0
4757362,,,,,,,,-0.5078125,-2.73828125,1.46484375,-0.876953125,-0.2421875,-0.0625,0.0078125,-12.1171875,3.01171875,1.0
4757363,,,,,,,,-0.66796875,-2.38671875,2.05078125,-0.748046875,-0.2109375,-0.076171875,-0.14453125,-11.7734375,3.51171875,1.0
4757364,,,,,,,,-1.09765625,-1.71875,2.50390625,-0.5078125,-0.0859375,-0.05859375,-0.56640625,-11.12890625,3.89453125,1.0
4757365,,,,,,,,-1.296875,-1.40625,2.51171875,-0.2890625,-0.0859375,-0.05078125,-0.7578125,-10.8203125,3.85546875,1.0
4757366,,,,,,,,-1.2265625,-1.3671875,2.52734375,-0.212890625,-0.11328125,-0.029296875,-0.6796875,-10.78125,3.85546875,1.0
4757367,,,,,,,,-0.32421875,-1.7421875,2.17578125,-0.130859375,-0.205078125,-0.01171875,0.23828125,-11.16796875,3.47265625,1.0
4757368,,,,,,,,0.43359375,-2.0859375,2.18359375,-0.107421875,-0.255859375,-0.01171875,1.00390625,-11.51171875,3.47265625,1.0
4757369,,,,,,,,0.6640625,-2.1640625,2.11328125,-0.009765625,-0.197265625,-0.056640625,1.3515625,-11.625,3.359375,1.0
4757370,36.013406499999995,129.3194945,80.63776585704355,111.68084503701635,1.0,199.0,,0.6953125,-1.89453125,1.85546875,0.111328125,-0.1484375,-0.107421875,1.19921875,-11.05078125,3.01171875,1.0
4757371,,,,,,,,0.52734375,-1.2734375,1.68359375,0.17578125,-0.12890625,-0.1640625,1.00390625,-10.359375,2.8984375,1.0
4757372,,,,,,,,0.28125,-0.59375,1.515625,0.236328125,-0.10546875,-0.203125,0.66015625,-9.67578125,2.70703125,1.0
4757373,,,,,,,,0.02734375,-0.25,1.37890625,0.240234375,-0.1015625,-0.21875,0.5859375,-9.55859375,2.58984375,1.0
4757374,,,,,,,,-0.1953125,-0.1328125,1.125,0.19921875,-0.12109375,-0.216796875,0.46875,-9.55859375,2.4765625,1.0
4757375,,,,,,,,-0.29296875,0.01953125,0.95703125,0.140625,-0.1484375,-0.208984375,0.39453125,-9.3984375,2.32421875,1.0
4757376,,,,,,,,-0.2890625,0.32421875,0.75,0.12890625,-0.177734375,-0.185546875,0.4296875,-9.09765625,2.1328125,1.0
4757377,,,,,,,,-0.2734375,0.77734375,0.3515625,0.142578125,-0.189453125,-0.173828125,0.46875,-8.6328125,1.75,1.0
4757378,,,,,,,,-0.171875,1.16015625,0.2265625,0.142578125,-0.197265625,-0.17578125,0.5859375,-8.25,1.6328125,1.0
4757379,,,,,,,,-0.00390625,1.50390625,-0.0625,0.130859375,-0.232421875,-0.185546875,0.77734375,-7.91015625,1.3671875,1.0
4757380,36.01340583333333,129.31949416666666,80.60771706109304,111.60687192891483,0.9,201.0,,-0.02734375,1.8125,-0.30078125,0.111328125,-0.1484375,-0.107421875,0.77734375,-7.60546875,1.13671875,1.0
4757381,,,,,,,,-0.12890625,1.91796875,-0.5,0.107421875,-0.3046875,-0.212890625,0.69921875,-7.48828125,0.9453125,1.0
4757382,,,,,,,,-0.3828125,2.07421875,-0.625,0.1015625,-0.3125,-0.22265625,0.46875,-7.33203125,0.828125,1.0
4757383,,,,,,,,-0.4375,2.06640625,-0.6328125,0.091796875,-0.318359375,-0.21484375,0.4296875,-7.328125,0.828125,1.0
4757384,,,,,,,,-0.7890625,2.1015625,-0.6796875,0.115234375,-0.3046875,-0.18359375,0.125,-7.30078125,0.7890625,1.0
4757385,,,,,,,,-0.8046875,1.98828125,-0.80078125,0.126953125,-0.310546875,-0.158203125,0.125,-7.41015625,0.67578125,1.0
4757386,,,,,,,,-0.9453125,1.86328125,-0.88671875,0.1484375,-0.328125,-0.130859375,0.046875,-7.6015625,0.59765625,1.0
4757387,,,,,,,,-0.99609375,1.671875,-0.9375,0.140625,-0.349609375,-0.09375,-0.02734375,-7.72265625,0.5625,1.0
4757388,,,,,,,,-1.07421875,1.3984375,-0.90234375,0.1484375,-0.3515625,-0.078125,-0.10546875,-7.98828125,0.59765625,1.0
4757389,,,,,,,,-1.16796875,1.3203125,-0.91796875,0.16796875,-0.376953125,-0.03125,-0.18359375,-8.1015625,0.63671875,1.0
4757390,36.013405166666665,129.31949416666666,80.60771774003368,111.53289909523893,0.9,197.0,,-0.02734375,1.8125,-0.30078125,0.19140625,-0.400390625,0.001953125,0.77734375,-7.60546875,1.13671875,1.0
4757391,,,,,,,,-1.10546875,1.046875,-0.94921875,0.232421875,-0.43359375,0.03125,0.046875,-8.51953125,0.5625,1.0
4757392,,,,,,,,-0.9609375,0.85546875,-0.9921875,0.24609375,-0.4453125,0.041015625,0.046875,-8.59765625,0.5234375,1.0
4757393,,,,,,,,-0.8828125,0.76953125,-1.046875,0.259765625,-0.4609375,0.060546875,0.1640625,-8.59765625,0.5625,1.0
4757394,,,,,,,,-0.921875,0.953125,-1.1171875,0.29296875,-0.455078125,0.078125,0.0859375,-8.40625,0.484375,1.0
4757395,,,,,,,,-0.921875,1.03125,-1.234375,0.322265625,-0.462890625,0.09375,0.1640625,-8.3671875,0.40625,1.0
4757396,,,,,,,,-0.84375,0.984375,-1.2421875,0.306640625,-0.478515625,0.099609375,0.35546875,-8.44921875,0.33203125,1.0
4757397,,,,,,,,-0.53125,0.82421875,-1.30859375,0.26171875,-0.5390625,0.0859375,0.5859375,-8.5546875,0.37109375,1.0
4757398,,,,,,,,-0.26953125,0.66015625,-1.2890625,0.23828125,-0.560546875,0.0625,0.77734375,-8.75390625,0.37109375,1.0
4757399,,,,,,,,-0.23046875,0.5859375,-1.33984375,0.23046875,-0.564453125,0.05078125,0.8515625,-8.83203125,0.4453125,1.0
4757400,36.013404333333334,129.319494,80.59269385108547,111.44043291805781,0.9,197.0,0.0,-0.1640625,0.4296875,-1.3203125,0.208984375,-0.56640625,0.021484375,0.8125,-8.91015625,0.5625,1.0
4757401,,,,,,,,-0.23828125,0.421875,-1.05859375,0.1953125,-0.568359375,-0.01171875,0.69921875,-8.87109375,0.828125,1.0
4757402,,,,,,,,-0.32421875,0.4140625,-0.875,0.19921875,-0.576171875,-0.033203125,0.66015625,-8.8671875,1.01953125,1.0
4757403,,,,,,,,-0.4609375,0.4453125,-0.73828125,0.19140625,-0.55859375,-0.052734375,0.62109375,-8.87109375,1.09765625,1.0
4757404,,,,,,,,-0.36328125,0.4453125,-0.62890625,0.1796875,-0.54296875,-0.046875,0.77734375,-8.828125,1.17578125,1.0
4757405,,,,,,,,-0.2265625,0.4453125,-0.64453125,0.15625,-0.525390625,-0.03515625,1.19921875,-9.05859375,1.09765625,1.0
4757406,,,,,,,,0.12109375,0.25390625,-0.68359375,0.134765625,-0.5234375,-0.02734375,1.42578125,-9.25390625,1.01953125,1.0
4757407,,,,,,,,0.41015625,-0.10546875,-0.73046875,0.064453125,-0.490234375,-0.021484375,1.54296875,-9.5546875,1.13671875,1.0
4757408,,,,,,,,0.48046875,-0.44921875,-0.53125,-0.009765625,-0.421875,-0.021484375,1.54296875,-10.12890625,1.2890625,1.0
4757409,,,,,,,,0.43359375,-1.0625,-0.453125,-0.048828125,-0.357421875,-0.01953125,1.50390625,-10.51171875,1.328125,1.0
4757410,36.013403333333336,129.31949350000002,80.54762065583532,111.32947325526531,1.0,198.0,,-0.1640625,0.4296875,-1.3203125,-0.08984375,-0.3125,-0.03125,1.50390625,-10.58984375,1.328125,1.0
4757411,,,,,,,,0.29296875,-1.1796875,-0.4296875,-0.08203125,-0.26953125,-0.029296875,1.3515625,-10.24609375,1.25,1.0
4757412,,,,,,,,-0.08984375,-0.41015625,-0.4921875,-0.07421875,-0.21484375,-0.029296875,0.8515625,-9.4765625,1.17578125,1.0
4757413,,,,,,,,-0.74609375,0.0078125,-0.71484375,-0.11328125,-0.201171875,-0.021484375,0.39453125,-9.2890625,1.01953125,1.0
4757414,,,,,,,,-1.1015625,0.125,-0.7734375,-0.197265625,-0.25390625,0.0,0.046875,-9.17578125,0.9453125,1.0
4757415,,,,,,,,-1.53125,-0.09765625,-0.734375,-0.3359375,-0.400390625,0.005859375,-0.375,-9.3984375,0.9453125,1.0
4757416,,,,,,,,-1.421875,-1.0078125,-0.7890625,-0.451171875,-0.513671875,0.021484375,-0.2578125,-10.3203125,0.828125,1.0
4757417,,,,,,,,-0.89453125,-1.890625,-0.58203125,-0.564453125,-0.6328125,0.0390625,0.27734375,-11.203125,0.98046875,1.0
4757418,,,,,,,,-0.01953125,-2.6796875,0.28515625,-0.626953125,-0.748046875,0.041015625,1.16015625,-12.01171875,1.78515625,1.0
4757419,,,,,,,,1.12109375,-4.80859375,0.5859375,-0.681640625,-0.869140625,0.0546875,2.30859375,-14.1484375,1.9765625,1.0
4757420,36.0134025,129.31949350000002,80.5476215031696,111.23700721344292,1.0,194.0,,2.18359375,-5.94140625,1.05078125,-0.6875,-0.9296875,0.041015625,1.50390625,-10.58984375,1.328125,1.0
4757421,,,,,,,,2.90625,-2.6015625,1.84765625,-0.48828125,-0.88671875,0.00390625,4.109375,-11.97265625,3.08984375,1.0
4757422,,,,,,,,2.74609375,-1.4921875,1.6015625,-0.255859375,-0.76953125,-0.01953125,3.95703125,-10.859375,2.8203125,1.0
4757423,,,,,,,,1.93359375,0.15625,0.99609375,0.19140625,-0.498046875,-0.078125,3.15234375,-9.21484375,2.20703125,1.0
4757424,,,,,,,,1.00390625,0.83984375,0.8359375,0.29296875,-0.421875,-0.08984375,2.23046875,-8.515625,2.0546875,1.0
4757425,,,,,,,,-0.2734375,-0.12109375,1.02734375,0.302734375,-0.525390625,-0.068359375,0.96875,-9.4765625,2.28515625,1.0
4757426,,,,,,,,-0.65234375,-3.14453125,1.85546875,0.1796875,-1.072265625,0.017578125,0.62109375,-12.5,3.12890625,1.0
4757427,,,,,,,,-0.19921875,-3.3359375,2.0,0.244140625,-1.140625,0.046875,1.08203125,-12.6953125,3.28125,1.0
4757428,,,,,,,,0.3671875,-2.2734375,1.6015625,0.447265625,-1.115234375,0.099609375,1.65625,-11.62890625,2.8984375,1.0
4757429,,,,,,,,0.328125,-1.31640625,1.2421875,0.556640625,-1.044921875,0.134765625,1.6171875,-10.66796875,2.5546875,1.0
4757430,36.0134015,129.31949283333333,80.48752356629836,111.12604741336526,1.0,198.0,,0.18359375,-0.43359375,0.80859375,-0.6875,-0.9296875,0.041015625,1.46484375,-9.78515625,2.16796875,1.0
4757431,,,,,,,,0.0390625,0.2109375,0.52734375,0.681640625,-0.75,0.3125,1.3125,-9.13671875,1.94140625,1.0
4757432,,,,,,,,0.140625,0.171875,0.39453125,0.484375,-0.88671875,0.376953125,1.54296875,-9.2109375,1.86328125,1.0
4757433,,,,,,,,0.62109375,-0.05859375,0.33203125,0.353515625,-1.001953125,0.39453125,1.96484375,-9.4765625,1.75,1.0
4757434,,,,,,,,0.8359375,-0.2109375,0.15625,0.29296875,-1.017578125,0.40234375,2.078125,-9.515625,1.6328125,1.0
4757435,,,,,,,,0.8984375,-0.05859375,0.1015625,0.302734375,-0.98046875,0.408203125,2.0390625,-9.29296875,1.59375,1.0
4757436,,,,,,,,0.80859375,0.40234375,0.00390625,0.333984375,-0.9375,0.400390625,1.96484375,-8.71484375,1.48046875,1.0
4757437,,,,,,,,0.74609375,0.8671875,-0.12890625,0.37890625,-0.904296875,0.392578125,1.92578125,-8.33203125,1.328125,1.0
4757438,,,,,,,,0.76953125,1.44140625,-0.390625,0.4140625,-0.87109375,0.390625,1.88671875,-7.91015625,1.2109375,1.0
4757439,,,,,,,,0.83203125,1.89453125,-0.48828125,0.431640625,-0.853515625,0.396484375,1.92578125,-7.30078125,1.09765625,1.0
4757440,36.01340033333334,129.319493,80.50254949023972,110.99659509415571,1.1,192.0,,0.9296875,2.39453125,-0.67578125,0.42578125,-0.859375,0.4140625,2.0,-6.9453125,0.98046875,1.0
4757441,,,,,,,,0.953125,2.5390625,-0.78125,0.412109375,-0.857421875,0.41796875,2.078125,-6.6015625,0.98046875,1.0
4757442,,,,,,,,1.0390625,2.73046875,-0.72265625,0.396484375,-0.859375,0.41796875,2.1171875,-6.5625,0.98046875,1.0
4757443,,,,,,,,1.17578125,2.8046875,-0.7890625,0.390625,-0.876953125,0.419921875,2.26953125,-6.56640625,0.828125,1.0
4757444,,,,,,,,1.26171875,2.77734375,-0.921875,0.39453125,-0.890625,0.421875,2.421875,-6.72265625,0.71484375,1.0
4757445,,,,,,,,1.77734375,2.38671875,-1.2421875,0.310546875,-0.904296875,0.404296875,2.99609375,-7.0234375,0.484375,1.0
4757446,,,,,,,,2.05078125,2.30859375,-1.328125,0.2578125,-0.7578125,0.349609375,2.99609375,-7.14453125,0.59765625,1.0
4757447,,,,,,,,1.890625,1.95703125,-1.20703125,0.23828125,-0.609375,0.32421875,2.76953125,-7.56640625,0.828125,1.0
4757448,,,,,,,,1.86328125,1.765625,-1.0234375,0.23828125,-0.548828125,0.3125,2.5390625,-7.7890625,1.01953125,1.0
4757449,,,,,,,,1.6171875,1.3828125,-0.76953125,0.23046875,-0.455078125,0.294921875,2.421875,-8.0234375,1.17578125,1.0
4757450,36.0133995,129.31949283333333,80.48752559945935,110.9041289150836,1.0,188.0,,0.9296875,2.39453125,-0.67578125,0.42578125,-0.859375,0.4140625,2.38671875,-8.06640625,1.328125,1.0
4757451,,,,,,,,1.44921875,1.296875,-0.33984375,0.25390625,-0.39453125,0.25390625,2.30859375,-7.984375,1.51953125,1.0
4757452,,,,,,,,1.45703125,1.3359375,-0.38671875,0.2734375,-0.37890625,0.244140625,2.23046875,-8.0234375,1.51953125,1.0
4757453,,,,,,,,1.35546875,1.2890625,-0.5625,0.3125,-0.380859375,0.228515625,2.19140625,-8.06640625,1.328125,1.0
4757454,,,,,,,,1.44921875,1.05859375,-0.75,0.30078125,-0.3984375,0.228515625,2.26953125,-8.25390625,1.2109375,1.0
4757455,,,,,,,,1.54296875,0.3984375,-0.96484375,0.271484375,-0.375,0.21875,2.34765625,-8.90625,1.01953125,1.0
4757456,,,,,,,,1.58203125,0.23828125,-0.90234375,0.267578125,-0.35546875,0.21484375,2.38671875,-9.0546875,1.09765625,1.0
4757457,,,,,,,,1.55859375,0.1640625,-0.84765625,0.255859375,-0.294921875,0.201171875,2.34765625,-9.1328125,1.17578125,1.0
4757458,,,,,,,,1.34375,0.34765625,-0.65234375,0.28125,-0.189453125,0.177734375,2.1171875,-8.94140625,1.40234375,1.0
4757459,,,,,,,,1.234375,0.3828125,-0.58984375,0.294921875,-0.154296875,0.169921875,2.0,-8.90625,1.48046875,1.0
4757460,36.0133985,129.319493,80.5025513546502,110.79316980469534,1.0,183.0,,1.20703125,0.29296875,-0.55078125,0.42578125,-0.859375,0.4140625,1.96484375,-8.9765625,1.55859375,1.0
4757461,,,,,,,,1.3359375,-0.015625,-0.69140625,0.23828125,-0.193359375,0.16796875,2.078125,-9.2890625,1.44140625,1.0
4757462,,,,,,,,1.4140625,-0.13671875,-0.73828125,0.197265625,-0.21484375,0.169921875,2.15625,-9.3984375,1.40234375,1.0
4757463,,,,,,,,1.4296875,-0.10546875,-0.796875,0.150390625,-0.19140625,0.15625,2.15625,-9.359375,1.3671875,1.0
4757464,,,,,,,,1.3984375,-0.06640625,-0.69140625,0.1171875,-0.125,0.142578125,2.1171875,-9.3203125,1.48046875,1.0
4757465,,,,,,,,1.25390625,-0.10546875,-0.5078125,0.05859375,-0.078125,0.138671875,1.96484375,-9.359375,1.671875,1.0
4757466,,,,,,,,1.22265625,-0.10546875,-0.5078125,0.0234375,-0.05078125,0.130859375,1.92578125,-9.36328125,1.671875,1.0
4757467,,,,,,,,1.10546875,-0.07421875,-0.4609375,-0.048828125,-0.03515625,0.1171875,1.80859375,-9.32421875,1.7109375,1.0
4757468,,,,,,,,1.15234375,0.0078125,-0.5703125,-0.11328125,-0.07421875,0.10546875,1.84765625,-9.25,1.59375,1.0
4757469,,,,,,,,1.046875,0.125,-0.71484375,-0.181640625,-0.1015625,0.09375,1.734375,-9.1328125,1.44140625,1.0
4757470,36.01339733333334,129.31949333333333,80.53260201916952,110.66371762253227,1.1,176.0,,0.84765625,0.3515625,-0.73046875,-0.25,-0.08203125,0.06640625,1.54296875,-8.90625,1.40234375,1.0
4757471,,,,,,,,0.73828125,0.515625,-0.46875,-0.322265625,-0.04296875,0.046875,1.42578125,-8.75390625,1.6328125,1.0
4757472,,,,,,,,0.96875,-0.16796875,-0.16015625,-0.40625,0.001953125,0.01953125,1.65625,-9.44140625,1.90234375,1.0
4757473,,,,,,,,1.26953125,-2.03515625,-0.3046875,-0.55859375,-0.0625,0.03515625,1.96484375,-11.31640625,1.7109375,1.0
4757474,,,,,,,,1.19140625,-3.09375,-0.08984375,-0.8125,-0.234375,0.060546875,1.88671875,-12.390625,1.86328125,1.0
4757475,,,,,,,,0.6171875,-3.1171875,1.15234375,-0.935546875,-0.224609375,0.021484375,1.3125,-12.4296875,3.01171875,1.0
4757476,,,,,,,,0.2734375,-2.9921875,1.7578125,-0.90625,-0.134765625,-0.0078125,0.96875,-12.3125,3.5859375,1.0
4757477,,,,,,,,-0.5,-3.27734375,2.34375,-0.724609375,0.20703125,-0.060546875,0.203125,-12.62109375,4.0859375,1.0
4757478,,,,,,,,-2.00390625,-4.265625,2.66796875,-0.703125,0.216796875,-0.001953125,-1.29296875,-13.6171875,4.31640625,1.0
4757479,,,,,,,,-3.11328125,-2.71875,3.44921875,-0.466796875,0.091796875,-0.052734375,-2.40234375,-12.08984375,5.04296875,1.0
4757480,36.0133965,129.3194936666667,80.56265234693586,110.57125185690859,1.1,169.0,,-2.73828125,-1.109375,3.08984375,-0.046875,-0.052734375,-0.080078125,-2.01953125,-10.4765625,4.66015625,1.0
4757481,,,,,,,,-1.9140625,-0.6796875,2.4375,0.123046875,-0.255859375,-0.060546875,-1.1796875,-10.05859375,4.0078125,1.0
4757482,,,,,,,,-0.3125,-0.9921875,2.0859375,0.015625,-0.333984375,-0.05078125,0.4296875,-10.36328125,3.6640625,1.0
4757483,,,,,,,,0.40234375,-1.453125,2.24609375,-0.10546875,-0.31640625,-0.072265625,1.16015625,-10.8203125,3.81640625,1.0
4757484,,,,,,,,0.578125,-1.60546875,2.4140625,-0.1484375,-0.26953125,-0.134765625,1.3515625,-10.96875,3.96875,1.0
4757485,,,,,,,,0.40234375,-1.328125,2.38671875,-0.09375,-0.2578125,-0.212890625,1.19921875,-10.70703125,3.93359375,1.0
4757486,,,,,,,,0.23828125,-0.75390625,2.0859375,-0.03515625,-0.287109375,-0.259765625,1.04296875,-10.125,3.625,1.0
4757487,,,,,,,,-0.03125,-0.2265625,1.85546875,0.0234375,-0.396484375,-0.341796875,0.8125,-9.59765625,3.39453125,1.0
4757488,,,,,,,,-0.3828125,-0.140625,1.7421875,-0.015625,-0.515625,-0.3984375,0.5078125,-9.515625,3.28125,1.0
4757489,,,,,,,,-0.62109375,-0.53515625,1.86328125,-0.107421875,-0.611328125,-0.41015625,0.31640625,-9.90234375,3.39453125,1.0
4757490,36.0133955,129.31949383333333,80.5776781014405,110.46029274598361,1.0,167.0,,-0.3984375,-0.53515625,1.4296875,-0.046875,-0.052734375,-0.080078125,0.5859375,-9.90234375,2.9375,1.0
4757491,,,,,,,,-0.2265625,-0.10546875,1.09765625,-0.1484375,-0.705078125,-0.37890625,0.8125,-9.4765625,2.58984375,1.0
4757492,,,,,,,,-0.03515625,0.578125,0.73046875,-0.095703125,-0.623046875,-0.345703125,1.04296875,-8.7890625,2.20703125,1.0
4757493,,,,,,,,-0.01953125,0.73046875,0.625,-0.07421875,-0.57421875,-0.326171875,1.08203125,-8.6328125,2.09375,1.0
4757494,,,,,,,,-0.02734375,1.19921875,0.48046875,-0.0625,-0.509765625,-0.267578125,1.12109375,-8.171875,1.94140625,1.0
4757495,,,,,,,,-0.06640625,1.61328125,0.08203125,-0.087890625,-0.513671875,-0.203125,1.12109375,-7.75390625,1.51953125,1.0
4757496,,,,,,,,-0.0078125,1.99609375,-0.36328125,-0.052734375,-0.5625,-0.142578125,1.234375,-7.3671875,1.05859375,1.0
4757497,,,,,,,,0.0546875,2.1484375,-0.5078125,-0.046875,-0.59375,-0.123046875,1.3125,-7.21875,0.90625,1.0
4757498,,,,,,,,0.046875,2.1875,-0.578125,-0.048828125,-0.62109375,-0.115234375,1.3125,-7.18359375,0.828125,1.0
4757499,,,,,,,,-0.0234375,2.2265625,-0.78515625,-0.041015625,-0.673828125,-0.08203125,1.2734375,-7.14453125,0.59765625,1.0
4757500,36.01339483333334,129.319494,80.59270352174819,110.38632005138322,0.8,169.0,0.0,-0.30859375,1.99609375,-0.96875,-0.046875,-0.052734375,-0.080078125,0.5859375,-9.90234375,2.9375,1.0
4757501,,,,,,,,-0.8203125,1.640625,-0.9609375,-0.017578125,-0.66015625,-0.029296875,0.5078125,-7.71875,0.40625,1.0
4757502,,,,,,,,-1.10546875,1.421875,-0.875,0.0,-0.638671875,0.001953125,0.23828125,-7.9453125,0.484375,1.0
4757503,,,,,,,,-1.265625,1.34375,-0.828125,0.009765625,-0.626953125,0.013671875,0.0859375,-8.0234375,0.5234375,1.0
4757504,,,,,,,,-1.54296875,1.15234375,-0.7890625,0.09375,-0.61328125,0.076171875,-0.18359375,-8.21484375,0.5625,1.0
4757505,,,,,,,,-1.45703125,1.0390625,-0.7890625,0.158203125,-0.611328125,0.119140625,-0.10546875,-8.328125,0.5625,1.0
4757506,,,,,,,,-1.1484375,0.76953125,-0.8359375,0.193359375,-0.62109375,0.150390625,0.203125,-8.59375,0.5234375,1.0
4757507,,,,,,,,-0.53125,0.68359375,-0.73828125,0.22265625,-0.638671875,0.169921875,0.8125,-8.671875,0.63671875,1.0
4757508,,,,,,,,-0.4140625,0.68359375,-0.66796875,0.2421875,-0.634765625,0.169921875,0.9296875,-8.67578125,0.71484375,1.0
4757509,,,,,,,,-0.13671875,0.875,-0.65234375,0.3046875,-0.609375,0.166015625,1.19921875,-8.484375,0.75390625,1.0
4757510,36.013394,129.3194945,80.63777858845255,110.29385442377793,0.9,164.0,,-0.12890625,1.09765625,-0.79296875,-0.046875,-0.052734375,-0.080078125,1.19921875,-8.25,0.63671875,1.0
4757511,,,,,,,,-0.19921875,1.16796875,-0.81640625,0.412109375,-0.501953125,0.13671875,1.12109375,-8.171875,0.63671875,1.0
4757512,,,,,,,,-0.26953125,1.20703125,-0.90625,0.41796875,-0.490234375,0.1328125,1.04296875,-8.13671875,0.5625,1.0
4757513,,,,,,,,-0.26953125,1.3203125,-0.86328125,0.412109375,-0.466796875,0.12109375,1.04296875,-8.02734375,0.63671875,1.0
4757514,,,,,,,,-0.18359375,1.46484375,-0.94140625,0.408203125,-0.44921875,0.111328125,1.12109375,-7.8671875,0.59765625,1.0
4757515,,,,,,,,-0.03125,1.6015625,-0.93359375,0.380859375,-0.4453125,0.087890625,1.2734375,-7.71875,0.63671875,1.0
4757516,,,,,,,,0.0,1.640625,-0.98828125,0.359375,-0.4453125,0.078125,1.3125,-7.6796875,0.59765625,1.0
4757517,,,,,,,,0.078125,1.640625,-1.01171875,0.30859375,-0.4453125,0.052734375,1.390625,-7.68359375,0.59765625,1.0
4757518,,,,,,,,0.15234375,1.44140625,-1.26171875,0.201171875,-0.462890625,0.015625,1.46484375,-7.8671875,0.37109375,1.0
4757519,,,,,,,,0.14453125,1.2890625,-1.34765625,0.1484375,-0.46484375,0.005859375,1.46484375,-8.02734375,0.29296875,1.0
4757520,36.01339333333333,129.31949516666666,80.69787822583167,110.21988214269692,0.9,161.0,,-0.0078125,1.28125,-1.234375,-0.046875,-0.052734375,-0.080078125,1.19921875,-8.25,0.63671875,1.0
4757521,,,,,,,,-0.0234375,1.1953125,-1.15625,-0.001953125,-0.455078125,-0.037109375,1.3125,-8.10546875,0.484375,1.0
4757522,,,,,,,,-0.16015625,0.5078125,-1.09375,-0.111328125,-0.423828125,-0.029296875,1.19921875,-8.79296875,0.5234375,1.0
4757523,,,,,,,,-0.31640625,-0.41015625,-0.99609375,-0.208984375,-0.451171875,-0.005859375,1.04296875,-9.703125,0.59765625,1.0
4757524,,,,,,,,-0.32421875,-1.0234375,-0.88671875,-0.2734375,-0.435546875,0.01171875,1.04296875,-10.3203125,0.67578125,1.0
4757525,,,,,,,,-0.4375,-1.515625,-0.55078125,-0.291015625,-0.388671875,0.01953125,0.9296875,-10.8203125,0.98046875,1.0
4757526,,,,,,,,-0.40625,-1.5546875,-0.41796875,-0.291015625,-0.36328125,0.017578125,0.96875,-10.859375,1.09765625,1.0
4757527,,,,,,,,-0.5625,-1.515625,-0.04296875,-0.240234375,-0.318359375,0.015625,0.8125,-10.82421875,1.44140625,1.0
4757528,,,,,,,,-0.61328125,-0.7890625,-0.5078125,-0.16015625,-0.369140625,0.0234375,0.77734375,-10.09765625,0.9453125,1.0
4757529,,,,,,,,-0.73046875,-0.43359375,-0.79296875,-0.142578125,-0.408203125,0.015625,0.66015625,-9.7421875,0.63671875,1.0
4757530,36.0133925,129.31949566666665,80.74295329679722,110.12741651653309,1.0,160.0,,-1.15234375,-0.13671875,-1.19140625,-0.1796875,-0.43359375,0.005859375,0.23828125,-9.44140625,0.21484375,1.0
4757531,,,,,,,,-1.43359375,-0.85546875,-1.12890625,-0.333984375,-0.576171875,-0.00390625,-0.02734375,-10.1640625,0.21484375,1.0
4757532,,,,,,,,-1.3671875,-1.23046875,-1.15625,-0.44140625,-0.705078125,0.0078125,0.046875,-10.55078125,0.140625,1.0
4757533,,,,,,,,-0.8359375,-2.296875,-1.0625,-0.595703125,-0.865234375,0.013671875,0.5859375,-11.62890625,0.1796875,1.0
4757534,,,,,,,,-0.38671875,-2.6015625,-0.4140625,-0.650390625,-0.931640625,0.01171875,1.04296875,-11.9296875,0.7890625,1.0
4757535,,,,,,,,0.1796875,-3.3984375,0.9375,-0.701171875,-1.041015625,0.013671875,1.6171875,-12.734375,2.0546875,1.0
4757536,,,,,,,,0.44140625,-4.1640625,1.21484375,-0.701171875,-1.087890625,0.015625,1.88671875,-13.5,2.28515625,1.0
4757537,,,,,,,,1.1328125,-7.0625,1.25390625,-0.7734375,-1.234375,0.037109375,2.578125,-16.4140625,2.20703125,1.0
4757538,,,,,,,,1.66015625,-7.51171875,1.30859375,-0.80078125,-1.302734375,0.029296875,3.11328125,-16.87109375,2.20703125,1.0
4757539,,,,,,,,3.4921875,-2.71875,1.50390625,-0.576171875,-1.255859375,-0.005859375,4.953125,-12.0859375,2.32421875,1.0
4757540,36.013391666666664,129.31949583333332,80.75797888713852,110.034950613191,1.0,161.0,,3.359375,-1.59765625,1.15234375,-0.1796875,-0.43359375,0.005859375,4.8359375,-10.96875,1.94140625,1.0
4757541,,,,,,,,1.91796875,-0.07421875,1.06640625,0.466796875,-0.578125,-0.138671875,3.41796875,-9.44140625,1.86328125,1.0
4757542,,,,,,,,0.41015625,-0.80859375,1.44921875,0.4765625,-0.576171875,-0.142578125,1.92578125,-10.1640625,2.28515625,1.0
4757543,,,,,,,,-0.48828125,-2.07421875,1.80078125,0.423828125,-0.79296875,-0.107421875,1.04296875,-11.4296875,2.66796875,1.0
4757544,,,,,,,,-0.54296875,-3.19140625,2.3125,0.4375,-1.05078125,-0.041015625,1.00390625,-12.54296875,3.203125,1.0
4757545,,,,,,,,0.2109375,-2.50390625,1.80078125,0.720703125,-1.16015625,0.083984375,1.7734375,-11.8515625,2.74609375,1.0
4757546,,,,,,,,0.5546875,-1.27734375,1.19921875,0.890625,-0.97265625,0.15625,2.1171875,-10.625,2.20703125,1.0
4757547,,,,,,,,0.0703125,-0.40234375,1.28515625,0.91796875,-0.755859375,0.251953125,1.6171875,-9.7421875,2.36328125,1.0
4757548,,,,,,,,-0.03515625,0.09375,1.13671875,0.841796875,-0.7265625,0.337890625,1.50390625,-9.25,2.28515625,1.0
4757549,,,,,,,,0.53125,-0.02734375,0.84375,0.732421875,-0.845703125,0.400390625,2.0390625,-9.36328125,2.0546875,1.0
4757550,36.013391166666665,129.31949666666665,80.83310309928893,109.97947167984671,0.9,157.0,,0.9609375,-0.25,0.78125,0.5390625,-1.03515625,0.419921875,2.421875,-9.59765625,2.0546875,1.0
4757551,,,,,,,,1.1171875,0.1328125,0.91015625,0.470703125,-0.990234375,0.359375,2.5390625,-9.21484375,2.24609375,1.0
4757552,,,,,,,,1.0078125,0.59375,0.78125,0.486328125,-0.947265625,0.337890625,2.421875,-8.75,2.1328125,1.0
4757553,,,,,,,,0.95703125,1.28125,0.43359375,0.529296875,-0.89453125,0.3125,2.34765625,-8.0625,1.82421875,1.0
4757554,,,,,,,,0.88671875,1.81640625,0.1875,0.533203125,-0.876953125,0.302734375,2.26953125,-7.5234375,1.59375,1.0
4757555,,,,,,,,0.94140625,2.35546875,0.125,0.505859375,-0.853515625,0.294921875,2.30859375,-6.984375,1.59375,1.0
4757556,,,,,,,,1.03515625,2.578125,-0.09765625,0.4609375,-0.89453125,0.28515625,2.38671875,-6.7578125,1.40234375,1.0
4757557,,,,,,,,1.109375,2.4609375,-0.2265625,0.443359375,-0.93359375,0.28515625,2.4609375,-6.87890625,1.2890625,1.0
4757558,,,,,,,,1.31640625,2.421875,-0.48046875,0.37890625,-0.970703125,0.28125,2.65234375,-6.91796875,1.05859375,1.0
4757559,,,,,,,,1.40234375,2.34765625,-0.49609375,0.341796875,-0.970703125,0.267578125,2.73046875,-6.98828125,1.05859375,1.0
4757560,36.013390666666666,129.31949733333335,80.89320257276549,109.92399260857412,0.8,150.0,,1.515625,2.34765625,-0.55078125,0.5390625,-1.03515625,0.419921875,2.84375,-6.984375,1.01953125,1.0
4757561,,,,,,,,1.6484375,2.421875,-0.53515625,0.275390625,-0.826171875,0.208984375,2.9609375,-6.91796875,1.05859375,1.0
4757562,,,,,,,,1.6484375,2.4609375,-0.62109375,0.27734375,-0.7890625,0.193359375,2.9609375,-6.875,0.98046875,1.0
4757563,,,,,,,,1.4921875,2.33984375,-0.7890625,0.2890625,-0.70703125,0.162109375,2.8046875,-6.98828125,0.828125,1.0
4757564,,,,,,,,1.41796875,2.22265625,-0.8046875,0.283203125,-0.599609375,0.15234375,2.73046875,-7.1015625,0.828125,1.0
4757565,,,,,,,,1.38671875,2.1015625,-0.71875,0.25390625,-0.453125,0.1328125,2.69140625,-7.22265625,0.9453125,1.0
4757566,,,,,,,,1.38671875,2.0625,-0.57421875,0.2578125,-0.404296875,0.12109375,2.69140625,-7.26171875,1.09765625,1.0
4757567,,,,,,,,1.34765625,1.98828125,-0.51171875,0.26953125,-0.33984375,0.123046875,2.65234375,-7.328125,1.17578125,1.0
4757568,,,,,,,,1.35546875,1.90234375,-0.61328125,0.30859375,-0.28125,0.12109375,2.65234375,-7.41015625,1.09765625,1.0
4757569,,,,,,,,1.35546875,1.94140625,-0.62890625,0.337890625,-0.265625,0.123046875,2.65234375,-7.37109375,1.09765625,1.0
4757570,36.01338966666666,129.31949783333332,80.93827781350387,109.81303377483307,1.0,152.0,,1.32421875,1.6640625,-0.8671875,0.375,-0.216796875,0.12890625,2.61328125,-7.640625,0.90625,1.0
4757571,,,,,,,,1.140625,1.296875,-0.71484375,0.357421875,-0.09765625,0.11328125,2.421875,-7.984375,1.13671875,1.0
4757572,,,,,,,,1.11328125,1.14453125,-0.578125,0.357421875,-0.08203125,0.12109375,2.38671875,-8.1328125,1.2890625,1.0
4757573,,,,,,,,1.08203125,1.05859375,-0.45703125,0.361328125,-0.05859375,0.126953125,2.34765625,-8.21484375,1.44140625,1.0
4757574,,,,,,,,1.05078125,0.98046875,-0.35546875,0.375,-0.05078125,0.12890625,2.30859375,-8.29296875,1.55859375,1.0
4757575,,,,,,,,1.01953125,0.859375,-0.1953125,0.375,-0.06640625,0.142578125,2.26953125,-8.41015625,1.75,1.0
4757576,,,,,,,,1.03515625,0.8125,-0.04296875,0.369140625,-0.0703125,0.16015625,2.26953125,-8.44921875,1.94140625,1.0
4757577,,,,,,,,1.00390625,0.7734375,-0.09765625,0.3671875,-0.080078125,0.173828125,2.23046875,-8.484375,1.90234375,1.0
4757578,,,,,,,,0.890625,0.69140625,-0.24609375,0.349609375,-0.11328125,0.1953125,2.1171875,-8.5546875,1.78515625,1.0
4757579,,,,,,,,0.7890625,0.72265625,-0.4140625,0.3203125,-0.13671875,0.201171875,2.0,-8.515625,1.6328125,1.0
4757580,36.01338916666667,129.31949866666668,81.01340203080066,109.75755484394236,0.9,146.0,,0.76953125,0.63671875,-0.55859375,0.232421875,-0.171875,0.228515625,2.61328125,-7.640625,0.90625,1.0
4757581,,,,,,,,0.78515625,0.484375,-0.53515625,0.15234375,-0.19140625,0.23828125,1.96484375,-8.75,1.55859375,1.0
4757582,,,,,,,,0.9609375,-0.0234375,-0.46875,-0.00390625,-0.21875,0.26171875,2.1171875,-9.25390625,1.6328125,1.0
4757583,,,,,,,,1.04296875,-0.24609375,-0.46875,-0.052734375,-0.234375,0.263671875,2.19140625,-9.4765625,1.6328125,1.0
4757584,,,,,,,,1.13671875,-0.7421875,-0.453125,-0.1328125,-0.25,0.263671875,2.26953125,-9.98046875,1.6328125,1.0
4757585,,,,,,,,1.07421875,-0.93359375,-0.359375,-0.193359375,-0.255859375,0.248046875,2.19140625,-10.16796875,1.7109375,1.0
4757586,,,,,,,,0.9765625,-0.8515625,-0.18359375,-0.2265625,-0.24609375,0.2265625,2.078125,-10.09765625,1.86328125,1.0
4757587,,,,,,,,0.75390625,-0.49609375,-0.08203125,-0.23046875,-0.236328125,0.19921875,1.84765625,-9.7421875,1.94140625,1.0
4757588,,,,,,,,0.72265625,-0.421875,-0.03125,-0.232421875,-0.23046875,0.181640625,1.80859375,-9.671875,1.9765625,1.0
4757589,,,,,,,,0.921875,-0.98828125,0.0859375,-0.298828125,-0.259765625,0.16015625,2.0,-10.24609375,2.0546875,1.0
4757590,36.01338883333334,129.3194995,81.08852607636209,109.72056912026179,0.9,137.0,,1.23828125,-2.88671875,-0.1796875,-0.470703125,-0.365234375,0.166015625,2.30859375,-12.16015625,1.75,1.0
4757591,,,,,,,,1.015625,-4.7109375,0.1328125,-0.69921875,-0.42578125,0.146484375,2.078125,-14.00390625,1.9765625,1.0
4757592,,,,,,,,-0.01953125,-4.08203125,1.76953125,-0.611328125,-0.197265625,0.08203125,1.04296875,-13.38671875,3.55078125,1.0
4757593,,,,,,,,-0.39453125,-4.00390625,2.06640625,-0.51953125,-0.06640625,0.072265625,0.66015625,-13.30859375,3.81640625,1.0
4757594,,,,,,,,-1.62890625,-3.72265625,2.421875,-0.392578125,-0.09375,0.111328125,-0.56640625,-13.0390625,4.125,1.0
4757595,,,,,,,,-2.30859375,-1.61328125,3.37109375,-0.267578125,-0.26953125,0.08984375,-1.25390625,-10.93359375,5.04296875,1.0
4757596,,,,,,,,-2.00390625,-0.15234375,3.04296875,-0.00390625,-0.458984375,0.09765625,-0.94921875,-9.48046875,4.69921875,1.0
4757597,,,,,,,,-1.62109375,1.11328125,1.9296875,0.140625,-0.59375,0.095703125,-0.56640625,-8.2109375,3.5859375,1.0
4757598,,,,,,,,-1.390625,1.2265625,1.6171875,0.111328125,-0.63671875,0.0859375,-0.3359375,-8.1015625,3.28125,1.0
4757599,,,,,,,,-0.171875,0.61328125,1.47265625,-0.0703125,-0.681640625,0.078125,0.890625,-8.71484375,3.12890625,1.0
4757600,36.013388166666665,129.31950049999998,81.17867520079494,109.64659712077547,1.0,129.0,0.0,0.46484375,-0.14453125,1.5859375,-0.25390625,-0.703125,0.00390625,1.54296875,-9.48046875,3.203125,1.0
4757601,,,,,,,,0.9453125,-1.1015625,1.6953125,-0.306640625,-0.69140625,-0.037109375,2.0390625,-10.4375,3.28125,1.0
4757602,,,,,,,,0.5859375,-1.4765625,2.109375,-0.279296875,-0.595703125,-0.068359375,1.6953125,-10.82421875,3.6640625,1.0
4757603,,,,,,,,0.1484375,-1.3515625,2.40234375,-0.1953125,-0.482421875,-0.111328125,1.2734375,-10.70703125,3.93359375,1.0
4757604,,,,,,,,0.05078125,-1.046875,2.4609375,-0.123046875,-0.419921875,-0.16015625,1.19921875,-10.40234375,3.96875,1.0
4757605,,,,,,,,0.109375,-0.703125,2.25,-0.091796875,-0.431640625,-0.1875,1.2734375,-10.05859375,3.7421875,1.0
4757606,,,,,,,,0.0546875,-0.625,2.1328125,-0.087890625,-0.427734375,-0.197265625,1.234375,-9.9765625,3.625,1.0
4757607,,,,,,,,-0.05859375,-0.625,1.91015625,-0.087890625,-0.384765625,-0.203125,1.16015625,-9.98046875,3.39453125,1.0
4757608,,,,,,,,-0.3984375,-0.55859375,1.3984375,-0.080078125,-0.314453125,-0.19921875,0.8515625,-9.8984375,2.859375,1.0
4757609,,,,,,,,-0.46875,-0.328125,1.25390625,-0.076171875,-0.291015625,-0.20703125,0.8125,-9.67578125,2.70703125,1.0
4757610,36.0133875,129.319501,81.22375011074331,109.57262470466347,0.9,130.0,,-0.4140625,0.1015625,0.953125,-0.0546875,-0.306640625,-0.201171875,0.890625,-9.25,2.3984375,1.0
4757611,,,,,,,,-0.32421875,0.37109375,0.76953125,-0.03515625,-0.330078125,-0.19140625,1.00390625,-8.9765625,2.20703125,1.0
4757612,,,,,,,,-0.23046875,0.78515625,0.38671875,-0.025390625,-0.35546875,-0.1796875,1.12109375,-8.5546875,1.82421875,1.0
4757613,,,,,,,,-0.17578125,1.12890625,0.12890625,-0.00390625,-0.3828125,-0.1796875,1.19921875,-8.21484375,1.55859375,1.0
4757614,,,,,,,,-0.046875,1.58984375,-0.1015625,-0.0078125,-0.4140625,-0.18359375,1.3515625,-7.75390625,1.328125,1.0
4757615,,,,,,,,0.08203125,1.89453125,-0.24609375,-0.017578125,-0.447265625,-0.189453125,1.50390625,-7.4453125,1.17578125,1.0
4757616,,,,,,,,0.06640625,1.97265625,-0.32421875,-0.02734375,-0.466796875,-0.1875,1.50390625,-7.3671875,1.09765625,1.0
4757617,,,,,,,,0.04296875,2.1953125,-0.46875,-0.021484375,-0.490234375,-0.189453125,1.50390625,-7.140625,0.9453125,1.0
4757618,,,,,,,,-0.2109375,2.26953125,-0.65234375,-0.021484375,-0.48046875,-0.171875,1.2734375,-7.0625,0.75390625,1.0
4757619,,,,,,,,-0.5390625,2.078125,-0.72265625,-0.01953125,-0.453125,-0.15234375,0.96875,-7.2578125,0.67578125,1.0
4757620,36.013386999999994,129.3195018333333,81.29887432584769,109.51714577431525,0.9,126.0,,-0.87109375,2.0703125,-0.75390625,-0.0546875,-0.306640625,-0.201171875,0.66015625,-7.26171875,0.63671875,1.0
4757621,,,,,,,,-1.1171875,1.95703125,-0.71484375,0.0,-0.412109375,-0.072265625,0.4296875,-7.3671875,0.67578125,1.0
4757622,,,,,,,,-1.19921875,1.83984375,-0.71484375,0.0078125,-0.404296875,-0.0546875,0.35546875,-7.484375,0.67578125,1.0
4757623,,,,,,,,-1.20703125,1.6875,-0.66796875,0.048828125,-0.423828125,0.0,0.35546875,-7.64453125,0.71484375,1.0
4757624,,,,,,,,-1.21484375,1.11328125,-0.73828125,0.0625,-0.46875,0.06640625,0.35546875,-8.2109375,0.63671875,1.0
4757625,,,,,,,,-1.140625,1.11328125,-0.62109375,0.087890625,-0.490234375,0.1015625,0.4296875,-8.2109375,0.75390625,1.0
4757626,,,,,,,,-1.0625,1.07421875,-0.63671875,0.09375,-0.501953125,0.111328125,0.5078125,-8.25390625,0.75390625,1.0
4757627,,,,,,,,-0.94921875,0.953125,-0.70703125,0.140625,-0.560546875,0.134765625,0.62109375,-8.3671875,0.67578125,1.0
4757628,,,,,,,,-0.82421875,0.875,-0.75390625,0.162109375,-0.583984375,0.14453125,0.73828125,-8.4453125,0.63671875,1.0
4757629,,,,,,,,-0.78515625,0.9140625,-0.8359375,0.173828125,-0.587890625,0.14453125,0.77734375,-8.41015625,0.5625,1.0
4757630,36.01338666666666,129.31950266666666,81.37399837685054,109.48016005330005,0.9,121.0,,-0.77734375,0.9140625,-0.9609375,-0.0546875,-0.306640625,-0.201171875,0.77734375,-8.41015625,0.4453125,1.0
4757631,,,,,,,,-0.6953125,0.9921875,-0.9296875,0.1953125,-0.6015625,0.1484375,0.8515625,-8.328125,0.484375,1.0
4757632,,,,,,,,-0.45703125,1.01953125,-0.9375,0.189453125,-0.615234375,0.142578125,1.08203125,-8.2890625,0.484375,1.0
4757633,,,,,,,,-0.3046875,0.984375,-0.984375,0.177734375,-0.630859375,0.12890625,1.234375,-8.328125,0.4453125,1.0
4757634,,,,,,,,-0.140625,0.75390625,-1.09765625,0.15625,-0.650390625,0.111328125,1.390625,-8.55859375,0.33203125,1.0
4757635,,,,,,,,-0.07421875,0.4765625,-1.18359375,0.123046875,-0.654296875,0.095703125,1.46484375,-8.83203125,0.25390625,1.0
4757636,,,,,,,,0.00390625,0.36328125,-1.23046875,0.11328125,-0.6484375,0.091796875,1.54296875,-8.94140625,0.21484375,1.0
4757637,,,,,,,,0.03515625,0.24609375,-1.07421875,0.091796875,-0.640625,0.064453125,1.58203125,-9.0546875,0.37109375,1.0
4757638,,,,,,,,0.1484375,-0.06640625,-0.80078125,0.068359375,-0.599609375,0.04296875,1.6953125,-9.359375,0.63671875,1.0
4757639,,,,,,,,0.2265625,-0.21875,-0.609375,0.041015625,-0.556640625,0.0234375,1.7734375,-9.515625,0.828125,1.0
4757640,36.01338583333334,129.31950333333333,81.43409819993224,109.38769457105849,0.9,122.0,,0.33203125,-0.48046875,-0.44921875,0.029296875,-0.5390625,0.01953125,1.88671875,-9.78125,0.98046875,1.0
4757641,,,,,,,,0.28515625,-0.52734375,-0.40234375,0.037109375,-0.498046875,0.01953125,1.84765625,-9.8203125,1.01953125,1.0
4757642,,,,,,,,0.1171875,-0.41015625,-0.39453125,0.056640625,-0.44921875,0.025390625,1.6953125,-9.70703125,1.01953125,1.0
4757643,,,,,,,,-0.03515625,-0.640625,-0.5390625,0.048828125,-0.412109375,0.04296875,1.54296875,-9.9375,0.8671875,1.0
4757644,,,,,,,,-0.14453125,-0.91796875,-0.578125,-0.01171875,-0.38671875,0.068359375,1.42578125,-10.203125,0.828125,1.0
4757645,,,,,,,,-0.14453125,-0.99609375,-0.5625,-0.10546875,-0.3828125,0.09765625,1.42578125,-10.28125,0.828125,1.0
4757646,,,,,,,,-0.13671875,-0.87109375,-0.46875,-0.169921875,-0.36328125,0.11328125,1.42578125,-10.1640625,0.90625,1.0
4757647,,,,,,,,-0.43359375,-0.41015625,-0.4453125,-0.193359375,-0.32421875,0.130859375,1.12109375,-9.70703125,0.90625,1.0
4757648,,,,,,,,-1.0390625,-0.55859375,-0.5,-0.21875,-0.294921875,0.15234375,0.5078125,-9.86328125,0.828125,1.0
4757649,,,,,,,,-0.984375,-1.890625,-0.4921875,-0.349609375,-0.373046875,0.189453125,0.546875,-11.203125,0.7890625,1.0
4757650,36.013385166666666,129.31950383333333,81.479173109064,109.31372215631036,0.9,121.0,,-0.546875,-3.0703125,-0.3671875,0.029296875,-0.5390625,0.01953125,0.96875,-12.390625,0.8671875,1.0
4757651,,,,,,,,0.953125,-5.4765625,0.65234375,-0.599609375,-0.560546875,0.23046875,2.4609375,-14.80859375,1.82421875,1.0
4757652,,,,,,,,1.34375,-5.97265625,0.9921875,-0.642578125,-0.59765625,0.224609375,2.84375,-15.30078125,2.1328125,1.0
4757653,,,,,,,,2.25,-5.64453125,1.8203125,-0.607421875,-0.6796875,0.19921875,3.7265625,-14.99609375,2.859375,1.0
4757654,,,,,,,,2.296875,-4.71484375,1.8515625,-0.5078125,-0.673828125,0.173828125,3.765625,-14.07421875,2.859375,1.0
4757655,,,,,,,,1.95703125,-2.48828125,1.39453125,-0.119140625,-0.529296875,0.125,3.41796875,-11.8515625,2.36328125,1.0
4757656,,,,,,,,-0.37109375,0.84765625,0.6484375,0.296875,-0.35546875,0.130859375,1.08203125,-8.51953125,1.6328125,1.0
4757657,,,,,,,,-1.0078125,0.921875,0.9609375,0.25,-0.486328125,0.216796875,0.4296875,-8.4453125,1.9765625,1.0
4757658,,,,,,,,-1.3359375,0.1953125,1.25390625,0.2734375,-0.634765625,0.271484375,0.0859375,-9.17578125,2.28515625,1.0
4757659,,,,,,,,-1.25,-0.2265625,1.20703125,0.294921875,-0.71875,0.291015625,0.1640625,-9.59375,2.24609375,1.0
4757660,36.0133845,129.31950466666666,81.55429750429576,109.23975002052217,1.0,122.0,,-0.99609375,-1.3359375,1.23046875,0.30859375,-0.875,0.328125,0.39453125,-10.70703125,2.28515625,1.0
4757661,,,,,,,,-0.58984375,-1.71484375,1.28515625,0.341796875,-1.0078125,0.359375,0.77734375,-11.08984375,2.36328125,1.0
4757662,,,,,,,,-0.125,-1.67578125,1.390625,0.369140625,-1.052734375,0.37890625,1.234375,-11.05078125,2.4765625,1.0
4757663,,,,,,,,0.51171875,-0.9375,1.21484375,0.435546875,-1.138671875,0.4140625,1.84765625,-10.32421875,2.32421875,1.0
4757664,,,,,,,,0.52734375,-0.59375,1.08984375,0.458984375,-1.162109375,0.43359375,1.84765625,-9.9765625,2.20703125,1.0
4757665,,,,,,,,0.453125,0.05859375,0.74609375,0.470703125,-1.146484375,0.48046875,1.734375,-9.32421875,1.90234375,1.0
4757666,,,,,,,,0.33203125,0.01953125,0.60546875,0.4453125,-1.107421875,0.513671875,1.58203125,-9.36328125,1.78515625,1.0
4757667,,,,,,,,0.421875,-0.171875,0.62890625,0.419921875,-1.109375,0.51953125,1.65625,-9.55859375,1.82421875,1.0
4757668,,,,,,,,0.70703125,-0.28125,0.59765625,0.3203125,-1.181640625,0.537109375,1.88671875,-9.671875,1.82421875,1.0
4757669,,,,,,,,0.9140625,-0.38671875,0.55078125,0.30859375,-1.197265625,0.53515625,2.078125,-9.78125,1.78515625,1.0
4757670,36.01338366666666,129.31950533333332,81.61439732836212,109.14728453802374,1.0,125.0,,1.21484375,-0.1953125,0.4609375,0.30859375,-0.875,0.328125,2.34765625,-9.59375,1.7109375,1.0
4757671,,,,,,,,1.3203125,0.07421875,0.3984375,0.396484375,-1.16015625,0.498046875,2.421875,-9.09375,1.59375,1.0
4757672,,,,,,,,1.3359375,0.30078125,0.3046875,0.466796875,-1.1015625,0.4765625,2.38671875,-8.59765625,1.48046875,1.0
4757673,,,,,,,,1.23046875,1.26171875,0.07421875,0.521484375,-1.03125,0.45703125,2.1171875,-7.984375,1.328125,1.0
4757674,,,,,,,,1.03125,1.7578125,-0.19921875,0.546875,-1.00390625,0.453125,1.96484375,-7.44921875,1.13671875,1.0
4757675,,,,,,,,0.94140625,2.1484375,-0.27734375,0.517578125,-1.01171875,0.455078125,1.80859375,-7.14453125,1.09765625,1.0
4757676,,,,,,,,0.83984375,2.265625,-0.33203125,0.498046875,-1.015625,0.453125,1.84765625,-6.94921875,1.09765625,1.0
4757677,,,,,,,,0.89453125,2.83203125,-0.52734375,0.45703125,-1.0859375,0.47265625,2.0,-6.53515625,0.828125,1.0
4757678,,,,,,,,1.1953125,2.82421875,-0.80078125,0.431640625,-1.134765625,0.45703125,2.23046875,-6.60546875,0.63671875,1.0
4757679,,,,,,,,1.36328125,2.78515625,-0.93359375,0.41015625,-1.1328125,0.44140625,2.34765625,-6.68359375,0.484375,1.0
4757680,36.013383,129.31950616666666,81.68952172595434,109.0733124031767,1.0,121.0,,1.21484375,-0.1953125,0.4609375,0.30859375,-0.875,0.328125,2.4609375,-6.8359375,0.33203125,1.0
4757681,,,,,,,,1.71875,2.2421875,-1.37109375,0.30859375,-1.068359375,0.396484375,2.578125,-7.21875,0.29296875,1.0
4757682,,,,,,,,1.765625,2.1640625,-1.33984375,0.2890625,-1.0234375,0.390625,2.5390625,-7.37109375,0.29296875,1.0
4757683,,,,,,,,1.75,1.7734375,-1.1875,0.201171875,-0.841796875,0.353515625,2.5390625,-7.75390625,0.59765625,1.0
4757684,,,,,,,,1.6953125,1.3515625,-0.734375,0.19140625,-0.7109375,0.3359375,2.4609375,-8.0234375,0.9453125,1.0
4757685,,,,,,,,1.6796875,1.390625,-0.59765625,0.197265625,-0.626953125,0.30859375,2.421875,-7.984375,1.09765625,1.0
4757686,,,,,,,,1.6875,1.4296875,-0.52734375,0.2109375,-0.595703125,0.302734375,2.421875,-7.9453125,1.17578125,1.0
4757687,,,,,,,,1.78125,1.57421875,-0.69921875,0.267578125,-0.556640625,0.2890625,2.5,-7.7890625,1.01953125,1.0
4757688,,,,,,,,1.8671875,1.3828125,-0.875,0.314453125,-0.533203125,0.271484375,2.578125,-7.984375,0.8671875,1.0
4757689,,,,,,,,1.91796875,1.296875,-0.9609375,0.3125,-0.529296875,0.26171875,2.61328125,-8.0625,0.7890625,1.0
4757690,36.0133825,129.31950716666668,81.77967069654751,109.01783361743219,1.0,114.0,,2.00390625,0.68359375,-1.15234375,0.29296875,-0.517578125,0.23828125,2.69140625,-8.671875,0.63671875,1.0
4757691,,,,,,,,2.01171875,0.25390625,-1.16796875,0.255859375,-0.470703125,0.21875,2.69140625,-9.09765625,0.63671875,1.0
4757692,,,,,,,,1.94140625,-0.2109375,-0.9921875,0.224609375,-0.416015625,0.189453125,2.61328125,-9.5546875,0.828125,1.0
4757693,,,,,,,,1.7890625,-0.36328125,-0.77734375,0.22265625,-0.34375,0.1640625,2.4609375,-9.703125,1.05859375,1.0
4757694,,,,,,,,1.61328125,-0.41015625,-0.37109375,0.24609375,-0.26953125,0.142578125,2.26953125,-9.74609375,1.48046875,1.0
4757695,,,,,,,,1.5,-0.3359375,-0.09765625,0.28125,-0.208984375,0.134765625,2.15625,-9.671875,1.78515625,1.0
4757696,,,,,,,,1.5078125,-0.34375,-0.00390625,0.3046875,-0.205078125,0.12890625,2.15625,-9.671875,1.90234375,1.0
4757697,,,,,,,,1.74609375,-0.3125,-0.14453125,0.2890625,-0.251953125,0.134765625,2.38671875,-9.6328125,1.78515625,1.0
4757698,,,,,,,,1.859375,-0.2421875,-0.50390625,0.2421875,-0.3125,0.14453125,2.5,-9.55859375,1.44140625,1.0
4757699,,,,,,,,1.9453125,-0.203125,-0.71875,0.173828125,-0.318359375,0.15625,2.578125,-9.515625,1.25,1.0
4757700,36.01338233333333,129.31950833333335,81.88484406060772,108.99934138941506,1.1,102.0,0.0,1.75390625,-0.328125,-1.0703125,0.29296875,-0.517578125,0.23828125,2.69140625,-8.671875,0.63671875,1.0
4757701,,,,,,,,1.0859375,-0.78125,-0.7421875,-0.224609375,-0.18359375,0.130859375,1.6953125,-10.09375,1.2109375,1.0
4757702,,,,,,,,0.78125,-0.86328125,-0.296875,-0.28515625,-0.162109375,0.107421875,1.390625,-10.1640625,1.6328125,1.0
4757703,,,,,,,,0.7421875,-0.89453125,-0.08984375,-0.298828125,-0.154296875,0.095703125,1.3515625,-10.203125,1.82421875,1.0
4757704,,,,,,,,0.82421875,-1.84375,0.32421875,-0.34375,-0.17578125,0.087890625,1.42578125,-11.1640625,2.20703125,1.0
4757705,,,,,,,,0.6640625,-4.01953125,0.33203125,-0.4609375,-0.298828125,0.08203125,1.2734375,-13.34765625,2.16796875,1.0
4757706,,,,,,,,0.28125,-4.921875,0.88671875,-0.603515625,-0.44921875,0.0859375,0.890625,-14.265625,2.66796875,1.0
4757707,,,,,,,,-1.0,-3.4296875,2.78125,-0.57421875,-0.447265625,0.04296875,-0.375,-12.77734375,4.5078125,1.0
4757708,,,,,,,,-1.2265625,-3.1171875,2.91796875,-0.42578125,-0.3515625,0.025390625,-0.6015625,-12.46875,4.62109375,1.0
4757709,,,,,,,,-1.609375,-2.9921875,2.3359375,-0.125,-0.298828125,0.052734375,-0.984375,-12.35546875,4.0078125,1.0
4757710,36.013382,129.31950933333334,81.97499285795932,108.9623558145966,1.1,94.0,,-2.00390625,-2.5234375,2.55078125,-0.20703125,-0.517578125,0.107421875,-1.37109375,-11.890625,4.19921875,1.0
4757711,,,,,,,,-2.078125,-1.4921875,2.921875,-0.166015625,-0.58203125,0.1171875,-1.4453125,-10.86328125,4.546875,1.0
4757712,,,,,,,,-1.84765625,-0.609375,3.07421875,-0.046875,-0.556640625,0.119140625,-1.21484375,-9.9765625,4.69921875,1.0
4757713,,,,,,,,-1.390625,-0.07421875,2.84375,0.12109375,-0.53125,0.0859375,-0.7578125,-9.44140625,4.46875,1.0
4757714,,,,,,,,0.328125,-0.296875,2.453125,0.091796875,-0.544921875,0.052734375,0.96875,-9.671875,4.0859375,1.0
4757715,,,,,,,,0.6640625,-0.41015625,2.375,-0.04296875,-0.49609375,-0.037109375,1.92578125,-9.98046875,4.046875,1.0
4757716,,,,,,,,1.26953125,-0.6015625,2.4140625,-0.07421875,-0.443359375,-0.060546875,2.1171875,-10.09375,4.0859375,1.0
4757717,,,,,,,,1.20703125,-0.74609375,2.46875,-0.1015625,-0.294921875,-0.126953125,1.734375,-10.05859375,4.16015625,1.0
4757718,,,,,,,,0.609375,-0.40234375,2.4375,-0.025390625,-0.197265625,-0.193359375,1.12109375,-9.5546875,3.93359375,1.0
4757719,,,,,,,,0.40234375,-0.171875,2.32421875,-0.013671875,-0.18359375,-0.2109375,0.8515625,-9.359375,3.7421875,1.0
4757720,36.0133815,129.31951033333334,82.06514182921117,108.90687703240505,1.0,92.0,,-2.00390625,-2.5234375,2.55078125,-0.064453125,-0.193359375,-0.232421875,0.69921875,-9.4375,3.703125,1.0
4757721,,,,,,,,-0.06640625,-0.10546875,2.0703125,-0.15234375,-0.185546875,-0.234375,0.5859375,-9.671875,3.625,1.0
4757722,,,,,,,,-0.2578125,-0.40234375,2.0,-0.205078125,-0.169921875,-0.2265625,0.546875,-9.859375,3.47265625,1.0
4757723,,,,,,,,-0.359375,-0.36328125,1.640625,-0.1796875,-0.15625,-0.21875,0.4296875,-9.63671875,3.01171875,1.0
4757724,,,,,,,,-0.421875,-0.05078125,1.3515625,-0.146484375,-0.130859375,-0.220703125,0.39453125,-9.25390625,2.78125,1.0
4757725,,,,,,,,-0.59765625,0.6015625,0.9375,-0.125,-0.109375,-0.216796875,0.27734375,-8.7890625,2.4765625,1.0
4757726,,,,,,,,-0.6875,0.75390625,0.8671875,-0.1015625,-0.103515625,-0.216796875,0.203125,-8.63671875,2.3984375,1.0
4757727,,,,,,,,-0.8828125,0.9921875,0.69140625,-0.078125,-0.123046875,-0.201171875,0.046875,-8.41015625,2.20703125,1.0
4757728,,,,,,,,-0.8671875,1.25390625,0.5078125,-0.05078125,-0.158203125,-0.18359375,0.0859375,-8.13671875,2.015625,1.0
4757729,,,,,,,,-0.73046875,1.59765625,0.2421875,-0.015625,-0.21484375,-0.17578125,0.23828125,-7.79296875,1.75,1.0
4757730,36.0133815,129.3195113333333,82.15529028086195,108.90687787481514,1.0,87.0,,-0.71484375,1.86328125,0.05078125,-0.064453125,-0.193359375,-0.232421875,0.27734375,-7.52734375,1.55859375,1.0
4757731,,,,,,,,-0.59375,2.09375,-0.1484375,0.0390625,-0.3671875,-0.17578125,0.4296875,-7.296875,1.3671875,1.0
4757732,,,,,,,,-0.578125,2.25,-0.3046875,0.04296875,-0.4140625,-0.17578125,0.46875,-7.14453125,1.2109375,1.0
4757733,,,,,,,,-0.67578125,2.2421875,-0.37890625,0.04296875,-0.447265625,-0.171875,0.39453125,-7.140625,1.13671875,1.0
4757734,,,,,,,,-0.77734375,2.27734375,-0.45703125,0.068359375,-0.45703125,-0.15234375,0.31640625,-7.10546875,1.05859375,1.0
4757735,,,,,,,,-0.9921875,2.125,-0.6171875,0.09375,-0.46875,-0.13671875,0.125,-7.2578125,0.90625,1.0
4757736,,,,,,,,-1.125,2.04296875,-0.6640625,0.103515625,-0.470703125,-0.125,0.0078125,-7.33203125,0.8671875,1.0
4757737,,,,,,,,-1.21484375,1.88671875,-0.6640625,0.1171875,-0.482421875,-0.09375,-0.06640625,-7.484375,0.8671875,1.0
4757738,,,,,,,,-1.26953125,1.6875,-0.78515625,0.12890625,-0.494140625,-0.060546875,-0.10546875,-7.68359375,0.75390625,1.0
4757739,,,,,,,,-1.20703125,1.421875,-0.7578125,0.142578125,-0.51953125,-0.0234375,-0.02734375,-7.9453125,0.7890625,1.0
4757740,36.013380999999995,129.31951216666667,82.23041451173478,108.85139895190909,0.9,87.0,,-1.140625,1.15234375,-0.6875,-0.064453125,-0.193359375,-0.232421875,0.046875,-8.21484375,0.8671875,1.0
4757741,,,,,,,,-1.109375,0.9921875,-0.58984375,0.1484375,-0.5546875,0.041015625,0.0859375,-8.37109375,0.98046875,1.0
4757742,,,,,,,,-1.0703125,0.9453125,-0.55078125,0.15625,-0.5625,0.0546875,0.125,-8.40625,1.01953125,1.0
4757743,,,,,,,,-0.9921875,0.984375,-0.48046875,0.181640625,-0.57421875,0.068359375,0.203125,-8.37109375,1.09765625,1.0
4757744,,,,,,,,-1.0,1.05859375,-0.56640625,0.201171875,-0.578125,0.076171875,0.203125,-8.2890625,1.01953125,1.0
4757745,,,,,,,,-0.83984375,1.17578125,-0.62109375,0.25390625,-0.5703125,0.09375,0.35546875,-8.17578125,0.98046875,1.0
4757746,,,,,,,,-0.65625,1.16015625,-0.87890625,0.267578125,-0.572265625,0.11328125,0.546875,-8.17578125,0.75390625,1.0
4757747,,,,,,,,-0.58203125,1.12109375,-0.8515625,0.25,-0.56640625,0.115234375,0.62109375,-8.2109375,0.7890625,1.0
4757748,,,,,,,,-0.46484375,1.08203125,-0.828125,0.220703125,-0.560546875,0.11328125,0.73828125,-8.25,0.828125,1.0
4757749,,,,,,,,-0.265625,1.07421875,-0.84375,0.201171875,-0.548828125,0.109375,0.9296875,-8.25390625,0.828125,1.0
4757750,36.01338066666666,129.31951283333333,82.29051382803328,108.81441309846323,0.9,85.0,,-0.15234375,1.14453125,-0.9140625,0.15625,-0.521484375,0.0625,1.04296875,-8.17578125,0.7890625,1.0
4757751,,,,,,,,-0.234375,0.984375,-0.90625,0.09375,-0.529296875,0.041015625,0.96875,-8.328125,0.7890625,1.0
4757752,,,,,,,,-0.16796875,0.4453125,-0.75,0.03125,-0.53515625,0.017578125,1.04296875,-8.87109375,0.9453125,1.0
4757753,,,,,,,,-0.13671875,0.29296875,-0.75,-0.005859375,-0.5390625,0.01171875,1.08203125,-9.015625,0.9453125,1.0
4757754,,,,,,,,-0.09765625,-0.01953125,-0.66796875,-0.0625,-0.548828125,0.005859375,1.12109375,-9.3203125,1.01953125,1.0
4757755,,,,,,,,0.0,-0.43359375,-0.52734375,-0.14453125,-0.525390625,0.0078125,1.234375,-9.74609375,1.13671875,1.0
4757756,,,,,,,,-0.0078125,-0.7421875,-0.4296875,-0.173828125,-0.4921875,0.017578125,1.234375,-10.0546875,1.2109375,1.0
4757757,,,,,,,,-0.015625,-0.93359375,-0.40625,-0.19921875,-0.4296875,0.03125,1.234375,-10.2421875,1.2109375,1.0
4757758,,,,,,,,0.17578125,-1.19140625,-0.3125,-0.208984375,-0.3984375,0.0390625,1.42578125,-10.5078125,1.2890625,1.0
4757759,,,,,,,,0.25390625,-1.27734375,-0.328125,-0.25390625,-0.3203125,0.056640625,1.58203125,-10.546875,1.25,1.0
4757760,36.01338066666666,129.31951383333333,82.38066228256943,108.81441394337676,1.0,82.0,,0.40625,-1.1171875,-0.265625,-0.248046875,-0.25390625,0.0546875,1.65625,-10.44140625,1.2890625,1.0
4757761,,,,,,,,0.22265625,-0.6953125,-0.3203125,-0.212890625,-0.1640625,0.0390625,1.46484375,-10.01953125,1.2109375,1.0
4757762,,,,,,,,-0.359375,-0.12109375,-0.44140625,-0.212890625,-0.115234375,0.01953125,0.890625,-9.44140625,1.05859375,1.0
4757763,,,,,,,,-0.703125,0.1953125,-0.45703125,-0.255859375,-0.15625,0.01171875,0.546875,-9.13671875,1.01953125,1.0
4757764,,,,,,,,-1.0859375,0.1953125,-0.47265625,-0.345703125,-0.26953125,0.01171875,0.1640625,-9.13671875,0.98046875,1.0
4757765,,,,,,,,-1.1640625,-0.44921875,-0.6328125,-0.49609375,-0.4296875,0.021484375,0.0859375,-9.78515625,0.7890625,1.0
4757766,,,,,,,,-1.01953125,-1.515625,-0.80078125,-0.5859375,-0.521484375,0.029296875,0.23828125,-10.859375,0.59765625,1.0
4757767,,,,,,,,-0.7890625,-2.625,-0.5078125,-0.74609375,-0.66015625,0.0546875,0.46875,-11.97265625,0.828125,1.0
4757768,,,,,,,,0.62890625,-4.5703125,0.7578125,-0.8203125,-0.787109375,0.10546875,1.88671875,-13.921875,2.015625,1.0
4757769,,,,,,,,1.47265625,-5.58984375,1.2265625,-0.85546875,-0.880859375,0.146484375,2.73046875,-14.953125,2.3984375,1.0
4757770,36.013380500000004,129.31951483333333,82.47081090818902,108.79592158191977,1.0,81.0,,2.3515625,-5.23828125,1.8515625,-0.7734375,-0.859375,0.14453125,1.65625,-10.44140625,1.2890625,1.0
4757771,,,,,,,,1.9765625,-2.1953125,1.9296875,-0.380859375,-0.578125,0.1171875,3.2265625,-11.58984375,2.8984375,1.0
4757772,,,,,,,,0.72265625,-0.9296875,1.828125,0.146484375,-0.255859375,0.09375,1.96484375,-10.32421875,2.78125,1.0
4757773,,,,,,,,-0.23828125,-1.0390625,2.390625,0.2890625,-0.1953125,0.0859375,1.00390625,-10.44140625,3.359375,1.0
4757774,,,,,,,,-1.1484375,-1.8515625,2.7109375,0.400390625,-0.279296875,0.08203125,0.0859375,-11.2421875,3.703125,1.0
4757775,,,,,,,,-1.5703125,-3.0,2.5546875,0.43359375,-0.587890625,0.099609375,-0.3359375,-12.39453125,3.5859375,1.0
4757776,,,,,,,,-1.1875,-2.921875,2.1328125,0.458984375,-0.93359375,0.134765625,0.046875,-12.31640625,3.203125,1.0
4757777,,,,,,,,-0.52734375,-1.78125,1.390625,0.666015625,-1.109375,0.21875,0.69921875,-11.16796875,2.515625,1.0
4757778,,,,,,,,-0.328125,-1.3515625,1.2890625,0.7109375,-1.076171875,0.248046875,0.890625,-10.7421875,2.4375,1.0
4757779,,,,,,,,-0.2421875,-0.09765625,1.04296875,0.724609375,-0.9921875,0.333984375,0.96875,-9.4765625,2.24609375,1.0
4757780,36.01338033333333,129.319516,82.57598427857921,108.77742936034142,1.1,80.0,,-0.25,0.05859375,0.94140625,0.548828125,-0.982421875,0.466796875,1.12109375,-9.05859375,1.9765625,1.0
4757781,,,,,,,,0.140625,0.25,0.50390625,0.23046875,-1.125,0.57421875,1.80859375,-9.703125,1.86328125,1.0
4757782,,,,,,,,0.71484375,-0.32421875,0.52734375,0.12109375,-1.14453125,0.60546875,1.80859375,-9.671875,1.86328125,1.0
4757783,,,,,,,,0.77734375,-0.28125,0.6328125,0.099609375,-1.099609375,0.587890625,1.6953125,-9.55859375,1.9765625,1.0
4757784,,,,,,,,0.6875,-0.1484375,0.6328125,0.125,-1.064453125,0.576171875,1.65625,-9.32421875,1.9765625,1.0
4757785,,,,,,,,0.703125,0.2734375,0.55859375,0.216796875,-0.98828125,0.5390625,1.54296875,-8.59375,1.75,1.0
4757786,,,,,,,,0.6953125,1.046875,0.2578125,0.314453125,-0.923828125,0.50390625,1.65625,-8.1015625,1.59375,1.0
4757787,,,,,,,,0.75,1.3125,0.2109375,0.345703125,-0.904296875,0.48828125,1.65625,-7.640625,1.40234375,1.0
4757788,,,,,,,,0.828125,2.15625,-0.1640625,0.396484375,-0.8671875,0.47265625,1.6953125,-7.2578125,1.25,1.0
4757789,,,,,,,,0.859375,2.33984375,-0.30078125,0.40234375,-0.853515625,0.466796875,1.6953125,-7.06640625,1.13671875,1.0
4757790,36.01338,129.319517,82.66613308124522,108.74044379322687,1.0,83.0,,0.8125,2.8828125,-0.45703125,0.38671875,-0.82421875,0.46875,1.6171875,-6.53515625,1.01953125,1.0
4757791,,,,,,,,0.73046875,3.14453125,-0.44921875,0.33984375,-0.80078125,0.4765625,1.50390625,-6.2578125,1.05859375,1.0
4757792,,,,,,,,0.76953125,3.296875,-0.35546875,0.318359375,-0.8125,0.46875,1.50390625,-6.109375,1.17578125,1.0
4757793,,,,,,,,1.17578125,2.875,-0.6484375,0.330078125,-0.88671875,0.46875,1.88671875,-6.53125,0.90625,1.0
4757794,,,,,,,,1.46875,2.6484375,-0.7578125,0.283203125,-0.96875,0.462890625,2.15625,-6.76171875,0.828125,1.0
4757795,,,,,,,,1.69140625,2.29296875,-1.00390625,0.2578125,-0.986328125,0.42578125,2.34765625,-7.10546875,0.59765625,1.0
4757796,,,,,,,,1.7890625,1.95703125,-1.1328125,0.236328125,-0.951171875,0.390625,2.421875,-7.4453125,0.484375,1.0
4757797,,,,,,,,1.76953125,1.8359375,-1.109375,0.2109375,-0.859375,0.333984375,2.421875,-7.68359375,0.5234375,1.0
4757798,,,,,,,,1.8125,1.52734375,-0.859375,0.1953125,-0.755859375,0.294921875,2.421875,-7.87109375,0.7890625,1.0
4757799,,,,,,,,1.79296875,1.40625,-0.68359375,0.20703125,-0.5859375,0.228515625,2.38671875,-8.0625,1.13671875,1.0
4757800,36.01338,129.31951816666665,82.77130627904914,108.74044478374293,1.1,83.0,0.0,1.72265625,1.21484375,-0.27734375,0.259765625,-0.46875,0.197265625,2.30859375,-8.171875,1.40234375,1.0
4757801,,,,,,,,1.62109375,1.24609375,-0.30078125,0.33203125,-0.40625,0.1796875,2.23046875,-8.17578125,1.40234375,1.0
4757802,,,,,,,,1.66796875,1.20703125,-0.31640625,0.365234375,-0.37890625,0.1640625,2.15625,-8.1015625,1.2109375,1.0
4757803,,,,,,,,1.83203125,0.9296875,-0.76953125,0.36328125,-0.330078125,0.14453125,2.38671875,-8.44921875,1.01953125,1.0
4757804,,,,,,,,1.79296875,0.79296875,-0.73828125,0.244140625,-0.259765625,0.099609375,2.34765625,-8.5546875,1.09765625,1.0
4757805,,,,,,,,1.37890625,0.83203125,-0.5625,0.212890625,-0.166015625,0.068359375,1.92578125,-8.515625,1.2890625,1.0
4757806,,,,,,,,1.30078125,0.82421875,-0.45703125,0.208984375,-0.12109375,0.0703125,1.84765625,-8.51953125,1.40234375,1.0
4757807,,,,,,,,1.078125,0.515625,-0.25,0.1640625,-0.099609375,0.06640625,1.50390625,-8.91015625,1.671875,1.0
4757808,,,,,,,,0.99609375,0.1640625,-0.07421875,0.107421875,-0.14453125,0.064453125,1.58203125,-9.3984375,1.82421875,1.0
4757809,,,,,,,,1.03515625,-0.05859375,-0.08203125,0.083984375,-0.166015625,0.0703125,1.65625,-9.4765625,1.82421875,1.0
4757810,36.01338033333333,129.31951916666668,82.86145438778837,108.7774320484086,1.1,73.0,,1.72265625,1.21484375,-0.27734375,0.044921875,-0.1953125,0.078125,1.84765625,-9.4765625,1.7109375,1.0
4757811,,,,,,,,1.33984375,-0.15234375,-0.203125,0.02734375,-0.15234375,0.08203125,1.92578125,-9.36328125,1.671875,1.0
4757812,,,,,,,,1.37890625,-0.03515625,-0.2421875,0.017578125,-0.12109375,0.07421875,1.96484375,-9.29296875,1.671875,1.0
4757813,,,,,,,,1.42578125,0.1171875,-0.28125,-0.009765625,-0.05078125,0.07421875,1.88671875,-9.17578125,1.55859375,1.0
4757814,,,,,,,,1.26953125,0.15625,-0.39453125,-0.1328125,0.01171875,0.078125,1.6171875,-9.21484375,1.3671875,1.0
4757815,,,,,,,,1.05078125,0.1171875,-0.53125,-0.220703125,-0.00390625,0.078125,1.50390625,-9.2890625,1.2890625,1.0
4757816,,,,,,,,0.98046875,0.046875,-0.6015625,-0.263671875,-0.01953125,0.0703125,1.46484375,-9.36328125,1.2890625,1.0
4757817,,,,,,,,0.8203125,-0.10546875,-0.53125,-0.349609375,-0.052734375,0.0546875,1.3515625,-9.4375,1.328125,1.0
4757818,,,,,,,,0.75,-0.21875,-0.42578125,-0.419921875,-0.04296875,0.041015625,1.2734375,-9.5546875,1.40234375,1.0
4757819,,,,,,,,0.7890625,-0.3359375,-0.01953125,-0.451171875,-0.0234375,0.03125,1.3125,-9.67578125,1.78515625,1.0
4757820,36.01338066666666,129.31952,82.93657774841526,108.81441917414259,1.1,64.0,,0.859375,-0.9765625,0.2109375,-0.521484375,0.01953125,0.0234375,1.84765625,-9.4765625,1.7109375,1.0
4757821,,,,,,,,0.90234375,-2.609375,0.2890625,-0.716796875,-0.056640625,0.041015625,1.42578125,-11.96875,1.9765625,1.0
4757822,,,,,,,,0.58984375,-3.3203125,0.71484375,-0.9140625,-0.134765625,0.03125,1.12109375,-12.6953125,2.32421875,1.0
4757823,,,,,,,,-0.3671875,-3.12109375,2.25390625,-0.7265625,0.013671875,-0.025390625,-0.296875,-12.81640625,4.0859375,1.0
4757824,,,,,,,,-1.06640625,-3.875,2.48046875,-0.595703125,-0.015625,0.02734375,-1.0625,-14.07421875,3.703125,1.0
4757825,,,,,,,,-1.91015625,-4.515625,2.45703125,-0.705078125,-0.2578125,0.048828125,-1.75390625,-13.34375,4.19921875,1.0
4757826,,,,,,,,-2.29296875,-3.93359375,2.83203125,-0.6796875,-0.322265625,0.06640625,-2.2890625,-11.89453125,4.390625,1.0
4757827,,,,,,,,-2.796875,-1.78125,2.98828125,-0.046875,-0.212890625,0.0703125,-1.9453125,-10.28125,3.93359375,1.0
4757828,,,,,,,,-2.13671875,-0.70703125,2.61328125,0.109375,-0.1953125,0.1171875,-0.640625,-10.09765625,3.85546875,1.0
4757829,,,,,,,,-0.58984375,-0.8828125,2.60546875,-0.119140625,-0.1796875,0.16796875,0.96875,-10.859375,4.0859375,1.0
4757830,36.01338116666667,129.31952116666668,83.0417504208541,108.86989979278937,1.2000000000000002,60.0,,0.859375,-0.9765625,0.2109375,-0.208984375,-0.0859375,0.130859375,1.84765625,-9.4765625,1.7109375,1.0
4757831,,,,,,,,1.265625,-1.65234375,2.7421875,-0.14453125,0.03515625,0.0546875,1.65625,-10.86328125,3.93359375,1.0
4757832,,,,,,,,0.8515625,-0.72265625,2.4921875,-0.015625,0.0546875,-0.0390625,1.3515625,-10.1640625,3.7421875,1.0
4757833,,,,,,,,0.296875,0.12109375,1.953125,0.064453125,-0.0390625,-0.146484375,0.8125,-9.32421875,3.203125,1.0
4757834,,,,,,,,-0.12890625,-0.03515625,1.86328125,-0.00390625,-0.166015625,-0.21484375,0.39453125,-9.4765625,3.12890625,1.0
4757835,,,,,,,,-0.69140625,-0.76171875,2.13671875,-0.15625,-0.23046875,-0.244140625,-0.14453125,-10.203125,3.39453125,1.0
4757836,,,,,,,,-0.9140625,-1.14453125,2.18359375,-0.212890625,-0.25,-0.248046875,-0.3359375,-10.5859375,3.43359375,1.0
4757837,,,,,,,,-0.9375,-1.03125,1.96875,-0.1328125,-0.23046875,-0.240234375,-0.2578125,-10.32421875,3.05078125,1.0
4757838,,,,,,,,-0.73828125,-0.37890625,1.44921875,-0.04296875,-0.177734375,-0.22265625,-0.10546875,-9.82421875,2.66796875,1.0
4757839,,,,,,,,-0.68359375,0.203125,1.06640625,0.009765625,-0.09375,-0.19140625,-0.02734375,-9.25,2.28515625,1.0
4757840,36.0133815,129.31952183333334,83.10184904087208,108.9068867779651,1.0,58.0,,-0.74609375,0.703125,0.9140625,0.025390625,-0.0625,-0.166015625,-0.06640625,-8.75390625,2.1328125,1.0
4757841,,,,,,,,-0.72265625,1.0,0.68359375,0.033203125,-0.08984375,-0.146484375,-0.02734375,-8.44921875,1.90234375,1.0
4757842,,,,,,,,-0.546875,1.31640625,0.3984375,0.056640625,-0.125,-0.140625,0.1640625,-8.1328125,1.6328125,1.0
4757843,,,,,,,,-0.42578125,1.53515625,0.23828125,0.056640625,-0.158203125,-0.15234375,0.31640625,-7.91015625,1.48046875,1.0
4757844,,,,,,,,-0.35546875,2.03515625,0.03125,0.0703125,-0.169921875,-0.16015625,0.39453125,-7.41015625,1.2890625,1.0
4757845,,,,,,,,-0.34375,2.1875,0.03125,0.0859375,-0.1796875,-0.1796875,0.4296875,-7.26171875,1.2890625,1.0
4757846,,,,,,,,-0.38671875,2.33984375,-0.015625,0.095703125,-0.181640625,-0.171875,0.39453125,-7.1015625,1.25,1.0
4757847,,,,,,,,-0.52734375,2.609375,-0.26171875,0.11328125,-0.18359375,-0.1796875,0.27734375,-6.8359375,1.01953125,1.0
4757848,,,,,,,,-0.703125,2.6484375,-0.34375,0.111328125,-0.205078125,-0.17578125,0.0078125,-6.8359375,0.828125,1.0
4757849,,,,,,,,-1.03515625,2.5625,-0.58984375,0.119140625,-0.208984375,-0.16015625,-0.18359375,-6.87890625,0.71484375,1.0
4757850,36.013381833333334,129.31952266666667,83.17697240015744,108.94387390425405,1.0,58.0,,-1.1640625,2.44921875,-0.75,0.119140625,-0.197265625,-0.126953125,-0.06640625,-8.75390625,2.1328125,1.0
4757851,,,,,,,,-1.21875,2.2109375,-0.8828125,0.091796875,-0.20703125,-0.078125,-0.375,-7.296875,0.4453125,1.0
4757852,,,,,,,,-1.2734375,2.1328125,-0.890625,0.080078125,-0.2109375,-0.07421875,-0.41015625,-7.52734375,0.40625,1.0
4757853,,,,,,,,-1.35546875,1.62890625,-0.8984375,0.068359375,-0.212890625,-0.03515625,-0.44921875,-7.79296875,0.4453125,1.0
4757854,,,,,,,,-1.2109375,1.3203125,-0.828125,0.05859375,-0.212890625,-0.009765625,-0.296875,-8.1015625,0.5234375,1.0
4757855,,,,,,,,-1.09765625,1.16015625,-0.75390625,0.05859375,-0.216796875,0.005859375,-0.18359375,-8.25390625,0.59765625,1.0
4757856,,,,,,,,-0.94140625,1.16796875,-0.68359375,0.064453125,-0.21875,0.01171875,-0.02734375,-8.25,0.67578125,1.0
4757857,,,,,,,,-0.8671875,1.16015625,-0.69140625,0.095703125,-0.20703125,0.025390625,0.0859375,-8.17578125,0.7890625,1.0
4757858,,,,,,,,-0.7890625,1.27734375,-0.5859375,0.123046875,-0.181640625,0.025390625,0.0859375,-8.13671875,0.71484375,1.0
4757859,,,,,,,,-0.828125,1.27734375,-0.66015625,0.134765625,-0.171875,0.02734375,0.125,-8.171875,0.63671875,1.0
4757860,36.013382166666666,129.3195235,83.25209576085288,108.98086103198737,1.0,57.0,,-1.1640625,2.44921875,-0.75,0.134765625,-0.16015625,0.0234375,0.0859375,-8.25390625,0.59765625,1.0
4757861,,,,,,,,-0.7890625,1.11328125,-0.76953125,0.12890625,-0.162109375,0.015625,0.0859375,-8.25390625,0.59765625,1.0
4757862,,,,,,,,-0.828125,1.15234375,-0.81640625,0.103515625,-0.158203125,0.00390625,0.046875,-8.25,0.5625,1.0
4757863,,,,,,,,-0.8671875,1.14453125,-0.78515625,0.087890625,-0.16015625,-0.0078125,0.0078125,-8.33203125,0.63671875,1.0
4757864,,,,,,,,-0.8359375,1.0234375,-0.79296875,0.046875,-0.1640625,-0.025390625,0.0859375,-8.4453125,0.63671875,1.0
4757865,,,,,,,,-0.84375,0.9453125,-0.83984375,-0.013671875,-0.1796875,-0.052734375,0.203125,-8.63671875,0.5625,1.0
4757866,,,,,,,,-0.7265625,0.74609375,-0.875,-0.04296875,-0.1953125,-0.0546875,0.31640625,-8.8671875,0.59765625,1.0
4757867,,,,,,,,-0.515625,0.171875,-0.70703125,-0.1328125,-0.2109375,-0.076171875,0.46875,-9.3984375,0.75390625,1.0
4757868,,,,,,,,-0.4453125,-0.35546875,-0.625,-0.197265625,-0.220703125,-0.0859375,0.46875,-9.9375,0.8671875,1.0
4757869,,,,,,,,-0.4921875,-0.5546875,-0.53125,-0.220703125,-0.224609375,-0.08984375,0.46875,-10.09375,0.8671875,1.0
4757870,36.01338233333333,129.31952433333333,83.32721929390812,108.99935495242714,1.0,57.0,,-1.1640625,2.44921875,-0.75,-0.25390625,-0.208984375,-0.099609375,0.46875,-10.40234375,1.01953125,1.0
4757871,,,,,,,,-0.5078125,-1.16015625,-0.36328125,-0.2734375,-0.185546875,-0.095703125,0.46875,-10.625,0.9453125,1.0
4757872,,,,,,,,-0.37109375,-1.50390625,-0.4453125,-0.2890625,-0.162109375,-0.08984375,0.62109375,-10.890625,0.8671875,1.0
4757873,,,,,,,,-0.109375,-1.55078125,-0.4609375,-0.294921875,-0.14453125,-0.08203125,0.890625,-10.93359375,0.828125,1.0
4757874,,,,,,,,0.06640625,-1.16015625,-0.453125,-0.298828125,-0.080078125,-0.080078125,1.08203125,-10.546875,0.7890625,1.0
4757875,,,,,,,,-0.2109375,-0.77734375,-0.45703125,-0.28125,-0.005859375,-0.08203125,0.8125,-10.1640625,0.75390625,1.0
4757876,,,,,,,,-0.484375,-0.625,-0.44921875,-0.283203125,0.01953125,-0.080078125,0.546875,-10.01953125,0.75390625,1.0
4757877,,,,,,,,-1.05859375,-0.234375,-0.3046875,-0.29296875,0.017578125,-0.06640625,-0.02734375,-9.6328125,0.8671875,1.0
4757878,,,,,,,,-1.44921875,-0.2734375,-0.203125,-0.349609375,-0.03515625,-0.048828125,-0.41015625,-9.671875,0.9453125,1.0
4757879,,,,,,,,-1.671875,-0.9609375,-0.34765625,-0.466796875,-0.13671875,-0.013671875,-0.640625,-10.36328125,0.75390625,1.0
4757880,36.01338283333334,129.3195255,83.43239196156756,109.05483557547609,1.2000000000000002,59.0,,-1.22265625,-1.34375,-0.37890625,-0.60546875,-0.25390625,0.0234375,-0.18359375,-10.74609375,0.67578125,1.0
4757881,,,,,,,,-0.828125,-1.26171875,-0.01171875,-0.697265625,-0.37109375,0.0546875,0.203125,-10.6640625,0.98046875,1.0
4757882,,,,,,,,-0.33203125,-2.09375,0.59765625,-0.7421875,-0.427734375,0.083984375,0.69921875,-11.5078125,1.51953125,1.0
4757883,,,,,,,,0.2890625,-4.30859375,0.7578125,-0.875,-0.462890625,0.123046875,1.3125,-13.7265625,1.59375,1.0
4757884,,,,,,,,1.29296875,-4.37890625,1.234375,-1.017578125,-0.53125,0.134765625,2.30859375,-13.8046875,1.9765625,1.0
4757885,,,,,,,,2.02734375,-2.9453125,1.51953125,-0.923828125,-0.572265625,0.08203125,3.03515625,-12.39453125,2.16796875,1.0
4757886,,,,,,,,2.3046875,-2.25390625,1.55859375,-0.748046875,-0.5625,0.05859375,3.3046875,-11.69921875,2.16796875,1.0
4757887,,,,,,,,2.15234375,-1.328125,1.69140625,-0.318359375,-0.396484375,-0.01171875,2.9609375,-10.55078125,2.36328125,1.0
4757888,,,,,,,,1.33984375,-1.17578125,1.984375,-0.025390625,-0.220703125,-0.078125,2.34765625,-10.625,2.515625,1.0
4757889,,,,,,,,0.10546875,-2.01171875,2.0234375,0.138671875,-0.197265625,-0.1015625,1.12109375,-11.46875,2.5546875,1.0
4757890,36.01338333333333,129.31952666666666,83.5375646270003,109.11031619844456,1.2000000000000002,60.0,,-0.37890625,-2.1328125,1.9765625,0.294921875,-0.443359375,-0.072265625,0.66015625,-11.5859375,2.5546875,1.0
4757891,,,,,,,,-0.04296875,-1.48046875,1.4375,0.34765625,-0.466796875,-0.01953125,1.00390625,-10.93359375,2.0546875,1.0
4757892,,,,,,,,-0.00390625,-1.25,1.26953125,0.3515625,-0.44140625,0.01171875,1.04296875,-10.70703125,1.90234375,1.0
4757893,,,,,,,,0.07421875,-1.09765625,1.09375,0.30078125,-0.34375,0.11328125,1.12109375,-10.44140625,1.671875,1.0
4757894,,,,,,,,0.16015625,-0.90625,0.9453125,0.26953125,-0.33984375,0.177734375,1.2734375,-10.359375,1.55859375,1.0
4757895,,,,,,,,0.40234375,-0.9453125,0.73046875,0.228515625,-0.35546875,0.208984375,1.46484375,-10.44140625,1.48046875,1.0
4757896,,,,,,,,0.44921875,-0.984375,0.76171875,0.201171875,-0.3515625,0.224609375,1.58203125,-10.359375,1.44140625,1.0
4757897,,,,,,,,0.6953125,-0.70703125,0.625,0.19140625,-0.3359375,0.232421875,1.65625,-10.0546875,1.328125,1.0
4757898,,,,,,,,0.60546875,-0.23828125,0.53125,0.2265625,-0.294921875,0.232421875,1.58203125,-9.70703125,1.2890625,1.0
4757899,,,,,,,,0.57421875,-0.01171875,0.484375,0.251953125,-0.271484375,0.234375,1.54296875,-9.4765625,1.25,1.0
4757900,36.013383833333336,129.3195275,83.61268780960623,109.1657965383768,1.1,61.0,0.0,0.48046875,0.5625,0.26953125,0.306640625,-0.2421875,0.236328125,1.42578125,-8.91015625,1.05859375,1.0
4757901,,,,,,,,0.3046875,1.29296875,0.0078125,0.35546875,-0.216796875,0.234375,1.234375,-8.171875,0.828125,1.0
4757902,,,,,,,,0.29296875,1.63671875,-0.0234375,0.375,-0.193359375,0.2421875,1.19921875,-7.828125,0.828125,1.0
4757903,,,,,,,,0.19921875,2.09765625,-0.28515625,0.400390625,-0.17578125,0.251953125,1.08203125,-7.3671875,0.59765625,1.0
4757904,,,,,,,,0.22265625,2.328125,-0.29296875,0.388671875,-0.1796875,0.24609375,1.08203125,-7.140625,0.63671875,1.0
4757905,,,,,,,,0.31640625,2.5546875,-0.32421875,0.357421875,-0.203125,0.2421875,1.16015625,-6.91796875,0.63671875,1.0
4757906,,,,,,,,0.37890625,2.5546875,-0.35546875,0.345703125,-0.21484375,0.25,1.19921875,-6.9140625,0.63671875,1.0
4757907,,,,,,,,0.66796875,2.51953125,-0.34765625,0.326171875,-0.220703125,0.2421875,1.46484375,-6.9453125,0.67578125,1.0
4757908,,,,,,,,0.8828125,2.44140625,-0.38671875,0.326171875,-0.21484375,0.21875,1.65625,-7.0234375,0.67578125,1.0
4757909,,,,,,,,1.05078125,2.40234375,-0.5625,0.318359375,-0.189453125,0.201171875,1.80859375,-7.06640625,0.5234375,1.0
4757910,36.01338416666667,129.319528,83.657761680661,109.20278338347839,0.9,61.0,,1.14453125,2.3203125,-0.671875,0.306640625,-0.2421875,0.236328125,1.42578125,-8.91015625,1.05859375,1.0
4757911,,,,,,,,1.20703125,2.2421875,-0.6328125,0.2265625,-0.078125,0.150390625,1.92578125,-7.22265625,0.5234375,1.0
4757912,,,,,,,,1.21484375,2.01171875,-0.41796875,0.18359375,-0.037109375,0.130859375,1.92578125,-7.4453125,0.75390625,1.0
4757913,,,,,,,,1.078125,1.84375,-0.40625,0.173828125,0.009765625,0.11328125,1.7734375,-7.60546875,0.7890625,1.0
4757914,,,,,,,,0.81640625,1.65234375,-0.265625,0.193359375,0.044921875,0.09765625,1.50390625,-7.7890625,0.9453125,1.0
4757915,,,,,,,,0.625,1.69140625,-0.3671875,0.2265625,0.0703125,0.091796875,1.3125,-7.75390625,0.8671875,1.0
4757916,,,,,,,,0.640625,1.53515625,-0.4296875,0.236328125,0.080078125,0.09765625,1.3125,-7.91015625,0.828125,1.0
4757917,,,,,,,,0.609375,1.26953125,-0.453125,0.21875,0.083984375,0.107421875,1.2734375,-8.171875,0.828125,1.0
4757918,,,,,,,,0.578125,1.03125,-0.515625,0.19140625,0.08203125,0.115234375,1.234375,-8.41015625,0.7890625,1.0
4757919,,,,,,,,0.59375,0.6875,-0.56640625,0.171875,0.06640625,0.12109375,1.234375,-8.75,0.75390625,1.0
4757920,36.013385,129.319529,83.74790925018425,109.29525028276265,1.1,54.0,,0.65625,0.5625,-0.5546875,0.306640625,-0.2421875,0.236328125,1.42578125,-8.91015625,1.05859375,1.0
4757921,,,,,,,,0.7421875,0.41015625,-0.484375,0.173828125,0.033203125,0.130859375,1.3515625,-9.01953125,0.8671875,1.0
4757922,,,,,,,,0.7890625,0.2890625,-0.4296875,0.15234375,0.060546875,0.1328125,1.390625,-9.1328125,0.9453125,1.0
4757923,,,,,,,,0.82421875,0.171875,-0.40234375,0.134765625,0.078125,0.125,1.42578125,-9.25,0.98046875,1.0
4757924,,,,,,,,1.03125,-0.05859375,-0.26171875,0.109375,0.107421875,0.130859375,1.6171875,-9.4765625,1.13671875,1.0
4757925,,,,,,,,1.23828125,-0.06640625,-0.1953125,0.087890625,0.13671875,0.123046875,1.80859375,-9.48046875,1.2109375,1.0
4757926,,,,,,,,1.25390625,-0.1015625,-0.203125,0.080078125,0.16796875,0.119140625,1.80859375,-9.515625,1.2109375,1.0
4757927,,,,,,,,1.15625,-0.1875,-0.24609375,0.06640625,0.1953125,0.10546875,1.6953125,-9.59375,1.17578125,1.0
4757928,,,,,,,,1.1171875,-0.2265625,-0.37109375,0.064453125,0.201171875,0.09765625,1.65625,-9.63671875,1.05859375,1.0
4757929,,,,,,,,0.859375,-0.45703125,-0.484375,0.02734375,0.2109375,0.083984375,1.390625,-9.86328125,0.9453125,1.0
4757930,36.013385666666665,129.31952983333335,83.82303225502665,109.369223832214,1.1,51.0,,0.67578125,-0.6484375,-0.45703125,0.306640625,-0.2421875,0.236328125,1.19921875,-10.05859375,0.98046875,1.0
4757931,,,,,,,,0.375,-0.9453125,-0.44921875,-0.087890625,0.22265625,0.068359375,0.890625,-10.36328125,0.98046875,1.0
4757932,,,,,,,,0.16015625,-0.984375,-0.40234375,-0.12890625,0.19140625,0.060546875,0.66015625,-10.40234375,1.01953125,1.0
4757933,,,,,,,,0.0859375,-0.9453125,-0.31640625,-0.15625,0.16796875,0.052734375,0.5859375,-10.359375,1.09765625,1.0
4757934,,,,,,,,-0.03125,-0.48828125,-0.29296875,-0.1953125,0.095703125,0.033203125,0.46875,-9.8984375,1.09765625,1.0
4757935,,,,,,,,0.19921875,-0.33203125,-0.27734375,-0.228515625,0.0390625,0.025390625,0.69921875,-9.74609375,1.09765625,1.0
4757936,,,,,,,,0.70703125,-0.87109375,-0.29296875,-0.298828125,0.005859375,0.017578125,1.19921875,-10.28125,1.05859375,1.0
4757937,,,,,,,,0.859375,-1.93359375,-0.46875,-0.515625,-0.017578125,0.015625,1.3515625,-11.35546875,0.828125,1.0
4757938,,,,,,,,0.734375,-2.234375,-0.4453125,-0.578125,-0.01953125,0.001953125,1.234375,-11.6640625,0.828125,1.0
4757939,,,,,,,,0.50390625,-1.95703125,-0.08203125,-0.609375,0.001953125,-0.01953125,1.00390625,-11.39453125,1.13671875,1.0
4757940,36.01338666666666,129.31953066666668,83.89815490067085,109.48018379704902,1.2000000000000002,44.0,,0.67578125,-0.6484375,-0.45703125,-0.54296875,0.171875,-0.013671875,0.31640625,-11.8125,2.16796875,1.0
4757941,,,,,,,,-0.453125,-2.75390625,1.18359375,-0.60546875,0.171875,0.017578125,-0.52734375,-12.88671875,2.5546875,1.0
4757942,,,,,,,,-1.33203125,-3.51171875,1.66015625,-0.62109375,0.025390625,0.03125,-1.0625,-12.734375,2.8203125,1.0
4757943,,,,,,,,-1.79296875,-2.46875,2.09765625,-0.400390625,-0.06640625,0.017578125,-1.29296875,-11.9296875,3.08984375,1.0
4757944,,,,,,,,-1.75390625,-1.42578125,1.9375,-0.16015625,-0.095703125,0.005859375,-1.25390625,-10.89453125,2.8984375,1.0
4757945,,,,,,,,-1.484375,-0.9296875,1.73046875,-0.0625,-0.08984375,0.0078125,-0.984375,-10.3984375,2.66796875,1.0
4757946,,,,,,,,-1.1015625,-0.81640625,1.76953125,-0.046875,-0.0546875,0.01171875,-0.6015625,-10.28515625,2.70703125,1.0
4757947,,,,,,,,-0.7578125,-0.9296875,2.0078125,-0.05078125,0.037109375,0.0078125,-0.2578125,-10.40234375,2.9375,1.0
4757948,,,,,,,,-0.26171875,-1.390625,2.19921875,-0.060546875,0.08203125,-0.0078125,0.23828125,-10.86328125,3.12890625,1.0
4757949,,,,,,,,-0.03125,-1.58203125,2.4375,-0.02734375,0.138671875,-0.025390625,0.46875,-11.05078125,3.359375,1.0
4757950,36.013387333333334,129.31953133333334,83.9582531587767,109.55415720462335,1.1,42.0,,-0.0390625,-1.3359375,2.234375,-0.54296875,0.171875,-0.013671875,0.31640625,-11.8125,2.16796875,1.0
4757951,,,,,,,,-0.16015625,-1.03515625,2.03515625,0.12109375,0.19140625,-0.103515625,0.35546875,-10.5078125,2.97265625,1.0
4757952,,,,,,,,-0.28515625,-0.69140625,1.828125,0.171875,0.158203125,-0.154296875,0.23828125,-10.1640625,2.78125,1.0
4757953,,,,,,,,-0.4453125,-0.4609375,1.70703125,0.173828125,0.140625,-0.171875,0.0859375,-9.9375,2.66796875,1.0
4757954,,,,,,,,-0.69140625,-0.38671875,1.53125,0.173828125,0.11328125,-0.197265625,-0.14453125,-9.859375,2.515625,1.0
4757955,,,,,,,,-0.859375,-0.34765625,1.36328125,0.162109375,0.099609375,-0.201171875,-0.296875,-9.82421875,2.36328125,1.0
4757956,,,,,,,,-0.96875,-0.1171875,0.79296875,0.146484375,0.0859375,-0.189453125,-0.375,-9.59765625,1.82421875,1.0
4757957,,,,,,,,-0.828125,0.296875,0.39453125,0.15234375,0.099609375,-0.189453125,-0.21875,-9.171875,1.44140625,1.0
4757958,,,,,,,,-0.76171875,0.37109375,0.35546875,0.154296875,0.109375,-0.18359375,-0.14453125,-9.09375,1.40234375,1.0
4757959,,,,,,,,-0.66015625,0.6796875,0.140625,0.162109375,0.125,-0.1796875,-0.02734375,-8.7890625,1.2109375,1.0
4757960,36.01338783333333,129.31953183333331,84.00332684912071,109.60963726026388,1.0,41.0,,-0.609375,1.25390625,-0.04296875,-0.54296875,0.171875,-0.013671875,0.31640625,-11.8125,2.16796875,1.0
4757961,,,,,,,,-0.5390625,1.71484375,-0.1796875,0.224609375,0.181640625,-0.1796875,0.125,-7.75,0.9453125,1.0
4757962,,,,,,,,-0.5546875,1.8203125,-0.2421875,0.244140625,0.18359375,-0.19140625,0.125,-7.64453125,0.90625,1.0
4757963,,,,,,,,-0.609375,2.05078125,-0.34375,0.25390625,0.17578125,-0.19140625,0.0859375,-7.41015625,0.828125,1.0
4757964,,,,,,,,-0.79296875,2.04296875,-0.4296875,0.2421875,0.171875,-0.189453125,-0.06640625,-7.40625,0.7890625,1.0
4757965,,,,,,,,-1.0390625,2.03515625,-0.56640625,0.2421875,0.185546875,-0.185546875,-0.296875,-7.40625,0.67578125,1.0
4757966,,,,,,,,-1.15234375,2.07421875,-0.66015625,0.25,0.19140625,-0.173828125,-0.41015625,-7.3671875,0.59765625,1.0
4757967,,,,,,,,-1.28515625,1.91796875,-0.71875,0.25,0.197265625,-0.158203125,-0.52734375,-7.5234375,0.5625,1.0
4757968,,,,,,,,-1.25390625,1.8359375,-0.78125,0.22265625,0.181640625,-0.146484375,-0.48828125,-7.6015625,0.5234375,1.0
4757969,,,,,,,,-1.30859375,1.64453125,-0.69140625,0.1796875,0.162109375,-0.125,-0.52734375,-7.7890625,0.63671875,1.0
4757970,36.0133885,129.31953266666667,84.0784498485936,109.68361081143377,1.0,43.0,,-1.31640625,1.4921875,-0.67578125,-0.54296875,0.171875,-0.013671875,-0.52734375,-7.9453125,0.67578125,1.0
4757971,,,,,,,,-1.3984375,1.359375,-0.61328125,0.134765625,0.109375,-0.07421875,-0.6015625,-8.0625,0.75390625,1.0
4757972,,,,,,,,-1.3984375,1.28515625,-0.515625,0.15234375,0.091796875,-0.046875,-0.6015625,-8.1328125,0.8671875,1.0
4757973,,,,,,,,-1.3984375,1.28515625,-0.53125,0.166015625,0.078125,-0.025390625,-0.6015625,-8.1328125,0.8671875,1.0
4757974,,,,,,,,-1.4375,1.3125,-0.5859375,0.1953125,0.080078125,-0.005859375,-0.640625,-8.1015625,0.828125,1.0
4757975,,,,,,,,-1.4375,1.3515625,-0.68359375,0.23046875,0.087890625,0.015625,-0.640625,-8.06640625,0.75390625,1.0
4757976,,,,,,,,-1.3984375,1.390625,-0.76953125,0.25,0.08984375,0.015625,-0.6015625,-8.0234375,0.67578125,1.0
4757977,,,,,,,,-1.35546875,1.375,-0.83203125,0.259765625,0.072265625,0.015625,-0.56640625,-8.0234375,0.63671875,1.0
4757978,,,,,,,,-1.19140625,1.03125,-0.9453125,0.234375,0.001953125,0.01953125,-0.41015625,-8.37109375,0.5625,1.0
4757979,,,,,,,,-1.15625,0.87890625,-0.93359375,0.205078125,-0.05078125,0.017578125,-0.375,-8.515625,0.59765625,1.0
4757980,36.013389,129.3195335,84.15357302026159,109.73909115432772,1.1,44.0,,-1.23046875,0.74609375,-0.87890625,0.193359375,-0.076171875,0.0078125,-0.44921875,-8.63671875,0.67578125,1.0
4757981,,,,,,,,-1.26171875,0.515625,-0.75,0.19921875,-0.11328125,-0.01171875,-0.48828125,-8.8671875,0.828125,1.0
4757982,,,,,,,,-1.19140625,0.27734375,-0.8125,0.19921875,-0.1484375,-0.03125,-0.41015625,-9.09375,0.7890625,1.0
4757983,,,,,,,,-1.19140625,0.203125,-0.8203125,0.1953125,-0.162109375,-0.044921875,-0.41015625,-9.17578125,0.7890625,1.0
4757984,,,,,,,,-1.19921875,0.1640625,-0.796875,0.1796875,-0.193359375,-0.0703125,-0.41015625,-9.2109375,0.828125,1.0
4757985,,,,,,,,-1.20703125,0.0703125,-0.8046875,0.166015625,-0.216796875,-0.091796875,-0.41015625,-9.2890625,0.828125,1.0
4757986,,,,,,,,-1.1796875,-0.08203125,-0.703125,0.140625,-0.25,-0.107421875,-0.375,-9.44140625,0.9453125,1.0
4757987,,,,,,,,-1.1171875,-0.28125,-0.67578125,0.09375,-0.298828125,-0.12109375,-0.296875,-9.6328125,0.98046875,1.0
4757988,,,,,,,,-1.0390625,-0.43359375,-0.63671875,0.060546875,-0.3203125,-0.125,-0.21875,-9.78515625,1.01953125,1.0
4757989,,,,,,,,-0.71875,-0.7421875,-0.55859375,-0.046875,-0.353515625,-0.130859375,0.125,-10.09765625,1.09765625,1.0
4757990,36.0133895,129.31953416666664,84.21367144981113,109.79457135573469,1.1,45.0,,-0.55078125,-0.82421875,-0.58984375,-0.1171875,-0.328125,-0.134765625,0.31640625,-10.1640625,1.05859375,1.0
4757991,,,,,,,,-0.63671875,-0.86328125,-0.57421875,-0.171875,-0.259765625,-0.138671875,0.23828125,-10.20703125,1.05859375,1.0
4757992,,,,,,,,-0.8828125,-0.671875,-0.55078125,-0.212890625,-0.18359375,-0.1484375,0.0078125,-10.01953125,1.05859375,1.0
4757993,,,,,,,,-1.32421875,-0.2421875,-0.47265625,-0.22265625,-0.123046875,-0.16796875,-0.41015625,-9.59765625,1.09765625,1.0
4757994,,,,,,,,-1.72265625,0.0625,-0.57421875,-0.220703125,-0.13671875,-0.185546875,-0.79296875,-9.29296875,0.98046875,1.0
4757995,,,,,,,,-2.1015625,0.1796875,-0.53515625,-0.267578125,-0.201171875,-0.19921875,-1.140625,-9.17578125,0.98046875,1.0
4757996,,,,,,,,-2.18359375,-0.15625,-0.65625,-0.353515625,-0.265625,-0.197265625,-1.21484375,-9.51953125,0.828125,1.0
4757997,,,,,,,,-1.94140625,-0.6640625,-0.73046875,-0.498046875,-0.353515625,-0.205078125,-0.94921875,-10.01953125,0.71484375,1.0
4757998,,,,,,,,-1.265625,-1.19140625,-0.33203125,-0.650390625,-0.470703125,-0.18359375,-0.2578125,-10.546875,1.05859375,1.0
4757999,,,,,,,,-0.828125,-1.875,0.12890625,-0.7265625,-0.658203125,-0.138671875,0.203125,-11.2421875,1.44140625,1.0
4758000,36.013389999999994,129.31953533333333,84.31884410421321,109.85005198845641,1.2000000000000002,50.0,0.0,0.37890625,-3.62890625,0.31640625,-0.765625,-0.931640625,-0.111328125,1.42578125,-13.00390625,1.55859375,1.0
4758001,,,,,,,,2.50390625,-4.6171875,0.8671875,-0.841796875,-1.19140625,-0.125,3.57421875,-14.00390625,2.015625,1.0
4758002,,,,,,,,5.03125,-2.76171875,2.734375,-0.80078125,-1.134765625,-0.177734375,6.140625,-12.15625,3.7421875,1.0
4758003,,,,,,,,5.2890625,-2.265625,3.0,-0.654296875,-0.931640625,-0.19140625,6.40625,-11.66796875,3.96875,1.0
4758004,,,,,,,,2.69140625,-2.1875,2.4375,-0.27734375,-0.359375,-0.232421875,3.83984375,-11.58984375,3.359375,1.0
4758005,,,,,,,,0.8671875,-2.71484375,2.49609375,-0.0234375,0.00390625,-0.275390625,2.0390625,-12.1171875,3.39453125,1.0
4758006,,,,,,,,-0.3828125,-3.453125,2.52734375,0.18359375,-0.0390625,-0.314453125,0.8125,-12.8515625,3.43359375,1.0
4758007,,,,,,,,-0.13671875,-3.296875,2.49609375,0.328125,-0.275390625,-0.30859375,1.08203125,-12.6953125,3.43359375,1.0
4758008,,,,,,,,0.1171875,-3.03125,2.328125,0.37890625,-0.369140625,-0.2890625,1.3515625,-12.43359375,3.28125,1.0
4758009,,,,,,,,0.46875,-2.08203125,1.8359375,0.4453125,-0.35546875,-0.20703125,1.734375,-11.46875,2.8203125,1.0
4758010,36.0133905,129.31953633333333,84.40899201469557,109.90553247942859,1.2000000000000002,53.0,,0.03125,-1.09375,1.56640625,-0.765625,-0.931640625,-0.111328125,1.3125,-10.4765625,2.58984375,1.0
4758011,,,,,,,,-0.3125,-0.59375,1.28515625,0.48828125,0.123046875,0.03515625,0.96875,-9.9765625,2.36328125,1.0
4758012,,,,,,,,-0.49609375,-0.32421875,0.96875,0.435546875,0.189453125,0.1796875,0.77734375,-9.70703125,2.09375,1.0
4758013,,,,,,,,-0.19921875,-0.5546875,0.8203125,0.326171875,0.091796875,0.255859375,1.04296875,-9.9375,1.9765625,1.0
4758014,,,,,,,,0.140625,-0.59375,0.828125,0.177734375,-0.07421875,0.30078125,1.3515625,-9.98046875,2.015625,1.0
4758015,,,,,,,,0.31640625,-0.2421875,0.66015625,0.11328125,-0.146484375,0.3046875,1.50390625,-9.6328125,1.86328125,1.0
4758016,,,,,,,,0.1640625,0.33203125,0.375,0.18359375,-0.09375,0.27734375,1.3125,-9.05859375,1.59375,1.0
4758017,,,,,,,,-0.1953125,1.09765625,0.078125,0.255859375,-0.0390625,0.265625,0.9296875,-8.29296875,1.328125,1.0
4758018,,,,,,,,-0.25,1.7578125,-0.09765625,0.314453125,0.0234375,0.271484375,0.8515625,-7.64453125,1.17578125,1.0
4758019,,,,,,,,-0.171875,2.1015625,-0.23828125,0.34375,0.046875,0.259765625,0.890625,-7.296875,1.05859375,1.0
4758020,36.013391,129.319537,84.46909044201841,109.96101268000177,1.0,53.0,,-0.0703125,2.37109375,-0.4375,0.35546875,0.0625,0.244140625,0.96875,-7.02734375,0.90625,1.0
4758021,,,,,,,,0.10546875,2.75390625,-0.62109375,0.310546875,0.060546875,0.23828125,1.12109375,-6.640625,0.75390625,1.0
4758022,,,,,,,,0.40625,3.05859375,-0.546875,0.185546875,0.029296875,0.2109375,1.390625,-6.33984375,0.8671875,1.0
4758023,,,,,,,,0.640625,3.08984375,-0.546875,0.16015625,0.009765625,0.19921875,1.6171875,-6.296875,0.8671875,1.0
4758024,,,,,,,,0.92578125,2.984375,-0.6484375,0.13671875,0.0,0.1953125,1.88671875,-6.4140625,0.7890625,1.0
4758025,,,,,,,,1.25390625,2.6015625,-0.77734375,0.125,0.0234375,0.18359375,2.19140625,-6.80078125,0.67578125,1.0
4758026,,,,,,,,1.39453125,2.33203125,-0.90625,0.111328125,0.10546875,0.14453125,2.30859375,-7.0625,0.5625,1.0
4758027,,,,,,,,1.37890625,2.28515625,-1.0,0.10546875,0.177734375,0.10546875,2.26953125,-7.10546875,0.484375,1.0
4758028,,,,,,,,1.265625,2.2109375,-1.046875,0.107421875,0.220703125,0.083984375,2.15625,-7.18359375,0.4453125,1.0
4758029,,,,,,,,1.08984375,2.01953125,-1.015625,0.1171875,0.310546875,0.05078125,1.96484375,-7.37109375,0.484375,1.0
4758030,36.0133915,129.31953783333333,84.54421361103763,110.01649302801863,1.0,52.0,,0.71484375,1.828125,-0.87890625,0.134765625,0.400390625,0.015625,1.58203125,-7.56640625,0.63671875,1.0
4758031,,,,,,,,0.4921875,1.58984375,-0.81640625,0.134765625,0.466796875,-0.015625,1.3515625,-7.7890625,0.71484375,1.0
4758032,,,,,,,,0.22265625,1.359375,-0.56640625,0.138671875,0.50390625,-0.0234375,1.08203125,-8.02734375,0.98046875,1.0
4758033,,,,,,,,0.19140625,1.28125,-0.609375,0.1484375,0.51171875,-0.0234375,1.04296875,-8.1015625,0.9453125,1.0
4758034,,,,,,,,0.078125,1.08203125,-0.51953125,0.15234375,0.50390625,-0.01953125,0.9296875,-8.29296875,1.05859375,1.0
4758035,,,,,,,,0.125,1.0390625,-0.54296875,0.173828125,0.466796875,-0.005859375,0.96875,-8.328125,1.05859375,1.0
4758036,,,,,,,,0.32421875,0.84765625,-0.64453125,0.208984375,0.4375,0.01171875,1.16015625,-8.515625,0.98046875,1.0
4758037,,,,,,,,0.4921875,0.5703125,-0.63671875,0.20703125,0.392578125,0.025390625,1.3125,-8.7890625,1.01953125,1.0
4758038,,,,,,,,0.53125,0.4921875,-0.56640625,0.205078125,0.384765625,0.029296875,1.3515625,-8.87109375,1.09765625,1.0
4758039,,,,,,,,0.5859375,0.25390625,-0.4375,0.19921875,0.392578125,0.03515625,1.390625,-9.09765625,1.25,1.0
4758040,36.01339216666667,129.31953866666666,84.61933659813157,110.09046658435084,1.1,49.0,,0.5546875,-0.05859375,-0.26953125,0.134765625,0.400390625,0.015625,1.3515625,-9.3984375,1.44140625,1.0
4758041,,,,,,,,0.37890625,-0.09765625,-0.17578125,0.1953125,0.404296875,0.07421875,1.16015625,-9.4375,1.55859375,1.0
4758042,,,,,,,,0.32421875,0.046875,-0.36328125,0.201171875,0.376953125,0.1015625,1.08203125,-9.2890625,1.40234375,1.0
4758043,,,,,,,,0.21875,-0.03515625,-0.5,0.150390625,0.3359375,0.109375,0.96875,-9.36328125,1.2890625,1.0
4758044,,,,,,,,0.2421875,-0.3046875,-0.4296875,0.052734375,0.287109375,0.126953125,0.96875,-9.6328125,1.3671875,1.0
4758045,,,,,,,,0.21875,-0.91796875,-0.31640625,-0.08203125,0.232421875,0.13671875,0.9296875,-10.24609375,1.48046875,1.0
4758046,,,,,,,,0.1875,-1.18359375,-0.23828125,-0.140625,0.205078125,0.14453125,0.890625,-10.5078125,1.55859375,1.0
4758047,,,,,,,,-0.03515625,-1.63671875,-0.0625,-0.216796875,0.14453125,0.125,0.66015625,-10.97265625,1.7109375,1.0
4758048,,,,,,,,-0.28515625,-1.25390625,-0.0859375,-0.216796875,0.123046875,0.10546875,0.39453125,-10.5859375,1.671875,1.0
4758049,,,,,,,,-0.125,-0.44140625,-0.30078125,-0.169921875,0.119140625,0.078125,0.546875,-9.78515625,1.44140625,1.0
