time,latitude,longitude,enu_x,enu_y,speed,course,ecg,accX,accY,accZ,gyrX,gyrY,gyrZ,eulR,eulP,eulY,validity
4832090,36.013448499999996,129.31954216666665,84.93479570589051,116.34117401418426,1.1,61.0,,-0.62109375,0.9921875,-0.03125,0.0625,0.15234375,-0.072265625,0.62109375,-8.328125,1.6328125,1.0
4832091,,,,,,,,-0.55078125,1.52734375,-0.4765625,0.119140625,0.302734375,0.16015625,0.66015625,-7.79296875,1.2109375,1.0
4832092,,,,,,,,-0.42578125,1.87109375,-0.67578125,0.12109375,0.30078125,0.166015625,0.77734375,-7.4453125,1.01953125,1.0
4832093,,,,,,,,-0.25,2.140625,-0.765625,0.083984375,0.298828125,0.169921875,0.9296875,-7.18359375,0.9453125,1.0
4832094,,,,,,,,-0.12109375,2.33203125,-0.7734375,0.048828125,0.296875,0.171875,1.04296875,-6.984375,0.9453125,1.0
4832095,,,,,,,,-0.05078125,2.53125,-0.8203125,0.021484375,0.296875,0.1640625,1.08203125,-6.80078125,0.90625,1.0
4832096,,,,,,,,0.125,2.30078125,-0.75390625,0.017578125,0.3125,0.15625,1.234375,-7.02734375,0.98046875,1.0
4832097,,,,,,,,0.1328125,2.26171875,-0.75390625,0.013671875,0.328125,0.15234375,1.234375,-7.0625,0.98046875,1.0
4832098,,,,,,,,0.34765625,2.23046875,-0.68359375,0.013671875,0.33984375,0.1328125,1.42578125,-7.10546875,1.05859375,1.0
4832099,,,,,,,,0.51953125,2.1953125,-0.65234375,0.029296875,0.361328125,0.10546875,1.58203125,-7.140625,1.09765625,1.0
4832100,36.01344866666667,129.31954333333334,85.03996863563137,116.35966824054694,1.0,65.0,0.0,0.77734375,1.765625,-0.71484375,0.111328125,0.412109375,0.021484375,1.80859375,-7.56640625,1.05859375,1.0
4832101,,,,,,,,0.82421875,1.83984375,-0.921875,0.138671875,0.431640625,-0.021484375,1.84765625,-7.48828125,0.8671875,1.0
4832102,,,,,,,,0.78515625,1.80078125,-1.0078125,0.150390625,0.44140625,-0.029296875,1.80859375,-7.5234375,0.7890625,1.0
4832103,,,,,,,,0.7578125,1.79296875,-1.06640625,0.158203125,0.474609375,-0.052734375,1.7734375,-7.52734375,0.75390625,1.0
4832104,,,,,,,,0.6875,1.6328125,-1.12109375,0.162109375,0.517578125,-0.068359375,1.6953125,-7.6796875,0.71484375,1.0
4832105,,,,,,,,0.58203125,1.40234375,-1.03125,0.1640625,0.564453125,-0.080078125,1.58203125,-7.91015625,0.828125,1.0
4832106,,,,,,,,0.54296875,1.328125,-1.078125,0.1640625,0.59375,-0.0859375,1.54296875,-7.98828125,0.7890625,1.0
4832107,,,,,,,,0.46484375,0.9375,-1.109375,0.173828125,0.6328125,-0.083984375,1.46484375,-8.3671875,0.7890625,1.0
4832108,,,,,,,,0.359375,0.69921875,-1.24609375,0.171875,0.62890625,-0.08203125,1.3515625,-8.59375,0.67578125,1.0
4832109,,,,,,,,0.3203125,0.546875,-1.29296875,0.171875,0.625,-0.080078125,1.3125,-8.75390625,0.63671875,1.0
4832110,36.01344916666667,129.3195445,85.14514120429018,116.41514888429938,1.1,65.0,,0.25,0.30859375,-1.32421875,0.15625,0.62890625,-0.072265625,1.234375,-8.9765625,0.63671875,1.0
4832111,,,,,,,,0.22265625,0.0703125,-1.1484375,0.14453125,0.6328125,-0.064453125,1.19921875,-9.21484375,0.828125,1.0
4832112,,,,,,,,0.15234375,-0.0078125,-1.046875,0.126953125,0.619140625,-0.052734375,1.12109375,-9.29296875,0.9453125,1.0
4832113,,,,,,,,0.15234375,-0.05078125,-0.98046875,0.126953125,0.626953125,-0.046875,1.12109375,-9.3203125,1.01953125,1.0
4832114,,,,,,,,0.05078125,-0.359375,-0.7734375,0.119140625,0.619140625,-0.021484375,1.00390625,-9.6328125,1.25,1.0
4832115,,,,,,,,0.05859375,-0.59765625,-0.671875,0.123046875,0.583984375,0.001953125,1.00390625,-9.86328125,1.3671875,1.0
4832116,,,,,,,,0.11328125,-0.7578125,-0.58203125,0.126953125,0.5390625,0.013671875,1.04296875,-10.015625,1.48046875,1.0
4832117,,,,,,,,0.28515625,-0.94921875,-0.51953125,0.115234375,0.5,0.03125,1.19921875,-10.203125,1.55859375,1.0
4832118,,,,,,,,0.328125,-0.94921875,-0.4921875,0.103515625,0.484375,0.037109375,1.234375,-10.203125,1.59375,1.0
4832119,,,,,,,,0.375,-0.7265625,-0.4609375,0.083984375,0.462890625,0.05078125,1.2734375,-9.98046875,1.6328125,1.0
4832120,36.013449666666666,129.31954566666667,85.25031377101735,116.47062952931316,1.1,63.0,,0.4765625,-0.61328125,-0.66015625,0.15625,0.62890625,-0.072265625,1.234375,-8.9765625,0.63671875,1.0
4832121,,,,,,,,0.4921875,-0.61328125,-0.69921875,0.017578125,0.41015625,0.068359375,1.3515625,-9.86328125,1.40234375,1.0
4832122,,,,,,,,0.5,-0.57421875,-0.78125,-0.064453125,0.37109375,0.076171875,1.3515625,-9.8203125,1.328125,1.0
4832123,,,,,,,,0.5078125,-0.53515625,-0.69921875,-0.099609375,0.365234375,0.072265625,1.3515625,-9.78515625,1.40234375,1.0
4832124,,,,,,,,0.64453125,-0.796875,-0.4140625,-0.224609375,0.353515625,0.0625,1.46484375,-10.0546875,1.671875,1.0
4832125,,,,,,,,0.8125,-2.12890625,-0.4296875,-0.337890625,0.359375,0.072265625,1.6171875,-11.39453125,1.6328125,1.0
4832126,,,,,,,,0.62890625,-3.61328125,-0.19921875,-0.490234375,0.36328125,0.076171875,1.42578125,-12.8828125,1.82421875,1.0
4832127,,,,,,,,0.0390625,-2.87109375,1.51953125,-0.580078125,0.40625,0.072265625,0.8125,-12.15625,3.47265625,1.0
4832128,,,,,,,,-0.21875,-2.328125,1.96484375,-0.525390625,0.4296875,0.076171875,0.546875,-11.62890625,3.89453125,1.0
4832129,,,,,,,,-1.0390625,-3.19921875,0.9453125,-0.306640625,0.45703125,0.107421875,-0.296875,-12.50390625,2.8203125,1.0
4832130,36.013450166666665,129.319547,85.37051106548381,116.52611032099155,1.2000000000000002,64.0,,-1.67578125,-3.33984375,1.62890625,-0.443359375,0.302734375,0.146484375,-0.94921875,-12.66015625,3.47265625,1.0
4832131,,,,,,,,-1.91796875,-1.76171875,2.43359375,-0.3828125,0.27734375,0.1484375,-1.21484375,-11.0859375,4.23828125,1.0
4832132,,,,,,,,-1.98828125,-1.0234375,2.37109375,-0.21875,0.302734375,0.1484375,-1.29296875,-10.359375,4.16015625,1.0
4832133,,,,,,,,-2.04296875,0.23828125,1.5,0.046875,0.36328125,0.154296875,-1.37109375,-9.09765625,3.28125,1.0
4832134,,,,,,,,-1.7109375,0.31640625,1.109375,0.0546875,0.408203125,0.14453125,-1.0625,-9.015625,2.8984375,1.0
4832135,,,,,,,,-0.66015625,-0.44921875,1.3671875,-0.0703125,0.416015625,0.109375,-0.02734375,-9.78125,3.1640625,1.0
4832136,,,,,,,,-0.26953125,-0.83203125,1.4921875,-0.126953125,0.41015625,0.076171875,0.35546875,-10.16796875,3.28125,1.0
4832137,,,,,,,,0.703125,-1.859375,1.8515625,-0.2109375,0.40625,0.0234375,1.3125,-11.203125,3.625,1.0
4832138,,,,,,,,0.640625,-1.99609375,2.44140625,-0.125,0.552734375,-0.03515625,1.234375,-11.3515625,4.19921875,1.0
4832139,,,,,,,,0.2578125,-1.421875,2.28125,0.126953125,0.65234375,-0.12890625,0.8515625,-10.78515625,4.046875,1.0
4832140,36.0134505,129.31954833333333,85.49070853846186,116.56309790656768,1.2000000000000002,66.0,,-0.62109375,-0.35546875,1.65234375,0.20703125,0.65234375,-0.177734375,-0.02734375,-9.703125,3.43359375,1.0
4832141,,,,,,,,-0.9765625,-0.2109375,1.4375,0.2109375,0.646484375,-0.20703125,-0.375,-9.5546875,3.2421875,1.0
4832142,,,,,,,,-1.17578125,-0.328125,1.0234375,0.16015625,0.623046875,-0.23046875,-0.56640625,-9.67578125,2.859375,1.0
4832143,,,,,,,,-1.18359375,-0.35546875,0.9375,0.140625,0.599609375,-0.234375,-0.56640625,-9.70703125,2.78125,1.0
4832144,,,,,,,,-1.0,-0.40234375,0.625,0.103515625,0.548828125,-0.232421875,-0.375,-9.74609375,2.4765625,1.0
4832145,,,,,,,,-0.82421875,-0.2890625,0.49609375,0.08984375,0.515625,-0.228515625,-0.18359375,-9.6328125,2.36328125,1.0
4832146,,,,,,,,-0.71484375,0.2109375,0.28515625,0.099609375,0.498046875,-0.236328125,-0.06640625,-9.13671875,2.16796875,1.0
4832147,,,,,,,,-0.578125,0.96875,-0.04296875,0.18359375,0.48046875,-0.244140625,0.0859375,-8.3671875,1.86328125,1.0
4832148,,,,,,,,-0.625,1.2734375,-0.13671875,0.201171875,0.462890625,-0.248046875,0.046875,-8.0625,1.78515625,1.0
4832149,,,,,,,,-0.640625,1.87890625,-0.34375,0.2265625,0.4453125,-0.259765625,0.046875,-7.44921875,1.59375,1.0
4832150,36.01345083333333,129.31954933333333,85.58085655095208,116.60008520111296,1.1,66.0,,-0.5859375,2.21484375,-0.54296875,0.20703125,0.65234375,-0.177734375,-0.02734375,-9.703125,3.43359375,1.0
4832151,,,,,,,,-0.5234375,2.4453125,-0.71875,0.185546875,0.34765625,-0.306640625,0.203125,-6.875,1.2890625,1.0
4832152,,,,,,,,-0.50390625,2.515625,-0.796875,0.173828125,0.337890625,-0.3125,0.23828125,-6.80078125,1.2109375,1.0
4832153,,,,,,,,-0.6796875,2.5546875,-0.97265625,0.1640625,0.32421875,-0.31640625,0.0859375,-6.7578125,1.05859375,1.0
4832154,,,,,,,,-0.80859375,2.5078125,-1.03515625,0.15625,0.333984375,-0.3046875,-0.02734375,-6.80078125,1.01953125,1.0
4832155,,,,,,,,-1.1015625,2.34765625,-1.08984375,0.1484375,0.34375,-0.283203125,-0.296875,-6.9453125,0.98046875,1.0
4832156,,,,,,,,-1.203125,2.1484375,-1.1875,0.14453125,0.369140625,-0.24609375,-0.375,-7.14453125,0.90625,1.0
4832157,,,,,,,,-1.2109375,2.109375,-1.1953125,0.146484375,0.369140625,-0.232421875,-0.375,-7.18359375,0.90625,1.0
4832158,,,,,,,,-1.1875,1.6015625,-1.02734375,0.119140625,0.34765625,-0.1953125,-0.3359375,-7.6796875,1.09765625,1.0
4832159,,,,,,,,-1.15625,1.5625,-1.07421875,0.119140625,0.3359375,-0.18359375,-0.296875,-7.72265625,1.05859375,1.0
4832160,36.01345116666666,129.31955066666666,85.7010540217377,116.63707278949161,1.1,70.0,,-1.203125,1.40234375,-1.01171875,0.20703125,0.65234375,-0.177734375,-0.3359375,-7.8671875,1.13671875,1.0
4832161,,,,,,,,-1.203125,1.39453125,-1.02734375,0.16015625,0.296875,-0.140625,-0.3359375,-7.8671875,1.13671875,1.0
4832162,,,,,,,,-1.27734375,1.5859375,-1.08984375,0.16796875,0.279296875,-0.134765625,-0.41015625,-7.6796875,1.09765625,1.0
4832163,,,,,,,,-1.28515625,1.5390625,-1.15234375,0.173828125,0.26171875,-0.130859375,-0.41015625,-7.71875,1.05859375,1.0
4832164,,,,,,,,-1.2578125,1.234375,-1.20703125,0.154296875,0.240234375,-0.119140625,-0.375,-8.0234375,1.01953125,1.0
4832165,,,,,,,,-1.1796875,0.796875,-1.10546875,0.111328125,0.232421875,-0.109375,-0.296875,-8.44921875,1.13671875,1.0
4832166,,,,,,,,-1.1796875,0.72265625,-1.15234375,0.087890625,0.220703125,-0.103515625,-0.296875,-8.51953125,1.09765625,1.0
4832167,,,,,,,,-0.94921875,0.3359375,-0.8828125,0.060546875,0.1953125,-0.095703125,-0.06640625,-8.91015625,1.3671875,1.0
4832168,,,,,,,,-0.8828125,0.109375,-0.69921875,0.046875,0.177734375,-0.087890625,0.0078125,-9.1328125,1.55859375,1.0
4832169,,,,,,,,-0.95703125,-0.0234375,-0.48046875,0.04296875,0.173828125,-0.08984375,-0.06640625,-9.25390625,1.78515625,1.0
4832170,36.013451333333336,129.31955166666665,85.7912022150657,116.65556687862946,1.0,73.0,,-1.00390625,-0.09765625,-0.36328125,0.20703125,0.65234375,-0.177734375,-0.10546875,-9.32421875,1.90234375,1.0
4832171,,,,,,,,-1.04296875,-0.0234375,-0.41015625,0.068359375,0.158203125,-0.123046875,-0.14453125,-9.25,1.86328125,1.0
4832172,,,,,,,,-0.97265625,-0.03125,-0.37890625,0.0234375,0.134765625,-0.150390625,-0.06640625,-9.25390625,1.90234375,1.0
4832173,,,,,,,,-0.98828125,-0.11328125,-0.46484375,-0.037109375,0.11328125,-0.16015625,-0.06640625,-9.3203125,1.82421875,1.0
4832174,,,,,,,,-0.99609375,-0.26171875,-0.640625,-0.1171875,0.1015625,-0.1640625,-0.06640625,-9.48046875,1.6328125,1.0
4832175,,,,,,,,-0.8515625,-0.3828125,-0.85546875,-0.212890625,0.095703125,-0.162109375,0.0859375,-9.59375,1.40234375,1.0
4832176,,,,,,,,-0.70703125,-0.4140625,-1.07421875,-0.25390625,0.091796875,-0.154296875,0.23828125,-9.6328125,1.17578125,1.0
4832177,,,,,,,,-0.484375,-0.453125,-1.20703125,-0.357421875,0.091796875,-0.15234375,0.46875,-9.67578125,1.01953125,1.0
4832178,,,,,,,,-0.26171875,-0.48046875,-1.2734375,-0.455078125,0.11328125,-0.138671875,0.69921875,-9.703125,0.90625,1.0
4832179,,,,,,,,-0.1171875,-0.47265625,-1.1875,-0.548828125,0.142578125,-0.126953125,0.8515625,-9.703125,0.9453125,1.0
4832180,36.013451499999995,129.31955299999998,85.9113998659034,116.67406126082628,1.1,78.0,,-0.046875,-0.3125,-0.8359375,-0.623046875,0.166015625,-0.115234375,0.9296875,-9.5546875,1.25,1.0
4832181,,,,,,,,-0.23828125,-0.44921875,-0.46484375,-0.64453125,0.17578125,-0.11328125,0.73828125,-9.70703125,1.55859375,1.0
4832182,,,,,,,,-0.58203125,-1.1328125,-0.17578125,-0.638671875,0.1875,-0.111328125,0.39453125,-10.3984375,1.82421875,1.0
4832183,,,,,,,,-0.78125,-2.3046875,0.01171875,-0.6875,0.1953125,-0.10546875,0.203125,-11.5859375,1.94140625,1.0
4832184,,,,,,,,-0.78125,-2.95703125,0.109375,-0.7421875,0.173828125,-0.099609375,0.203125,-12.23828125,2.015625,1.0
4832185,,,,,,,,-0.171875,-3.859375,0.91796875,-0.84765625,0.103515625,-0.083984375,0.8125,-13.15625,2.74609375,1.0
4832186,,,,,,,,1.5,-4.75390625,1.33984375,-0.759765625,-0.1328125,-0.0546875,2.5,-14.07421875,3.01171875,1.0
4832187,,,,,,,,3.64453125,-3.75,1.83984375,-0.775390625,-0.140625,-0.05078125,4.64453125,-13.08203125,3.43359375,1.0
4832188,,,,,,,,3.828125,-1.66796875,2.1796875,-0.658203125,0.0234375,-0.041015625,4.8359375,-11.0078125,3.703125,1.0
4832189,,,,,,,,3.484375,-1.09375,2.1640625,-0.4375,0.201171875,-0.06640625,4.4921875,-10.44140625,3.6640625,1.0
4832190,36.013451499999995,129.31955466666668,86.06164715616934,116.6740627312842,1.2000000000000002,85.0,,1.63671875,-1.0390625,2.1328125,0.072265625,0.65625,-0.201171875,2.65234375,-10.40234375,3.625,1.0
4832191,,,,,,,,-0.40234375,-2.2734375,2.69140625,0.10546875,0.630859375,-0.228515625,0.62109375,-11.62890625,4.19921875,1.0
4832192,,,,,,,,-0.8671875,-2.76953125,2.875,0.123046875,0.541015625,-0.248046875,0.1640625,-12.1171875,4.390625,1.0
4832193,,,,,,,,-1.4140625,-2.9609375,2.62890625,0.236328125,0.30078125,-0.224609375,-0.375,-12.3125,4.16015625,1.0
4832194,,,,,,,,-0.8515625,-1.66796875,1.71875,0.38671875,0.181640625,-0.166015625,0.203125,-11.0078125,3.28125,1.0
4832195,,,,,,,,-0.36328125,-0.3359375,1.2890625,0.462890625,0.21875,-0.095703125,0.69921875,-9.67578125,2.8984375,1.0
4832196,,,,,,,,-0.28515625,0.046875,1.2890625,0.421875,0.30078125,-0.013671875,0.77734375,-9.2890625,2.9375,1.0
4832197,,,,,,,,-0.1640625,0.578125,1.09375,0.30078125,0.328125,0.08203125,0.890625,-8.75,2.78125,1.0
4832198,,,,,,,,0.01171875,0.4296875,0.796875,0.158203125,0.279296875,0.16796875,1.04296875,-8.91015625,2.515625,1.0
4832199,,,,,,,,0.13671875,-0.21875,0.63671875,0.07421875,0.244140625,0.197265625,1.16015625,-9.55859375,2.36328125,1.0
4832200,36.013451499999995,129.3195558333333,86.16682025614274,116.67406376218727,1.2000000000000002,86.0,0.0,0.17578125,-0.44921875,0.796875,0.072265625,0.65625,-0.201171875,1.16015625,-9.78125,2.515625,1.0
4832201,,,,,,,,0.0078125,-0.44140625,0.8359375,-0.1171875,0.17578125,0.25,0.96875,-9.78125,2.5546875,1.0
4832202,,,,,,,,-0.15234375,0.1015625,0.57421875,-0.03515625,0.201171875,0.23046875,0.77734375,-9.25,2.28515625,1.0
4832203,,,,,,,,-0.28515625,0.484375,0.375,0.056640625,0.228515625,0.205078125,0.62109375,-8.8671875,2.09375,1.0
4832204,,,,,,,,-0.375,1.2890625,-0.09375,0.11328125,0.244140625,0.185546875,0.5078125,-8.06640625,1.6328125,1.0
4832205,,,,,,,,-0.3515625,1.56640625,-0.30859375,0.138671875,0.255859375,0.1953125,0.5078125,-7.7890625,1.44140625,1.0
4832206,,,,,,,,-0.3046875,1.7578125,-0.3828125,0.138671875,0.263671875,0.185546875,0.546875,-7.60546875,1.3671875,1.0
4832207,,,,,,,,-0.12890625,2.1015625,-0.515625,0.12890625,0.2734375,0.197265625,0.69921875,-7.26171875,1.25,1.0
4832208,,,,,,,,0.046875,2.41015625,-0.5703125,0.125,0.28125,0.19921875,0.8515625,-6.9453125,1.2109375,1.0
4832209,,,,,,,,0.1953125,2.67578125,-0.66796875,0.11328125,0.28125,0.19921875,0.96875,-6.6796875,1.13671875,1.0
4832210,36.013451499999995,129.31955699999997,86.27199335847662,116.67406479478485,1.1,86.0,,0.5390625,2.828125,-0.68359375,0.072265625,0.65625,-0.201171875,1.2734375,-6.53125,1.13671875,1.0
4832211,,,,,,,,0.74609375,2.79296875,-0.69140625,0.087890625,0.314453125,0.158203125,1.46484375,-6.56640625,1.13671875,1.0
4832212,,,,,,,,0.9609375,2.62890625,-0.66796875,0.068359375,0.326171875,0.142578125,1.65625,-6.72265625,1.17578125,1.0
4832213,,,,,,,,1.0546875,2.4375,-0.640625,0.078125,0.33984375,0.109375,1.734375,-6.91796875,1.2109375,1.0
4832214,,,,,,,,1.078125,2.24609375,-0.69140625,0.076171875,0.365234375,0.0703125,1.734375,-7.10546875,1.17578125,1.0
4832215,,,,,,,,0.9765625,1.98046875,-0.73828125,0.083984375,0.396484375,0.0390625,1.6171875,-7.37109375,1.13671875,1.0
4832216,,,,,,,,0.94140625,1.90234375,-0.73828125,0.087890625,0.40625,0.01953125,1.58203125,-7.44921875,1.13671875,1.0
4832217,,,,,,,,0.83984375,1.82421875,-0.75390625,0.103515625,0.427734375,0.00390625,1.46484375,-7.5234375,1.13671875,1.0
4832218,,,,,,,,0.7734375,1.78125,-0.83984375,0.125,0.462890625,-0.009765625,1.390625,-7.6015625,1.09765625,1.0
4832219,,,,,,,,0.7890625,1.42578125,-0.91015625,0.119140625,0.482421875,0.001953125,1.3515625,-8.10546875,1.01953125,1.0
4832220,36.013451499999995,129.3195585,86.40721592038561,116.67406612343076,1.2000000000000002,87.0,,0.5390625,2.828125,-0.68359375,0.072265625,0.65625,-0.201171875,1.42578125,-8.59765625,1.05859375,1.0
4832221,,,,,,,,0.8046875,0.5390625,-0.93359375,0.08203125,0.509765625,0.00390625,1.390625,-8.94140625,1.05859375,1.0
4832222,,,,,,,,0.78125,0.26953125,-0.82421875,0.09375,0.521484375,0.001953125,1.3515625,-9.1328125,1.2109375,1.0
4832223,,,,,,,,0.7890625,0.1953125,-0.765625,0.10546875,0.53125,0.0,1.3515625,-9.09375,1.25,1.0
4832224,,,,,,,,0.71875,0.34765625,-0.734375,0.115234375,0.548828125,0.0,1.2734375,-8.94140625,1.25,1.0
4832225,,,,,,,,0.734375,0.37890625,-0.7109375,0.1171875,0.576171875,0.0,1.19921875,-8.87109375,1.2109375,1.0
4832226,,,,,,,,0.62890625,0.3984375,-0.796875,0.10546875,0.607421875,0.009765625,1.08203125,-8.9375,1.2890625,1.0
4832227,,,,,,,,0.52734375,0.36328125,-0.7734375,0.08203125,0.625,0.005859375,1.04296875,-8.9375,1.25,1.0
4832228,,,,,,,,0.34375,0.1328125,-0.7109375,0.03125,0.65234375,-0.0078125,0.8515625,-9.17578125,1.328125,1.0
4832229,,,,,,,,0.0625,-0.09765625,-0.63671875,-0.017578125,0.66015625,-0.017578125,0.546875,-9.3984375,1.40234375,1.0
4832230,36.01345166666667,129.31955966666666,86.51238884014903,116.69256036806917,1.1,86.0,,-0.08203125,-0.40234375,-0.59765625,-0.0703125,0.65625,-0.033203125,0.39453125,-9.703125,1.44140625,1.0
4832231,,,,,,,,-0.07421875,-0.82421875,-0.3984375,-0.125,0.609375,-0.056640625,0.39453125,-10.12890625,1.6328125,1.0
4832232,,,,,,,,-0.10546875,-0.98828125,-0.23828125,-0.158203125,0.5625,-0.0703125,0.35546875,-10.28125,1.78515625,1.0
4832233,,,,,,,,-0.19140625,-1.3984375,0.0078125,-0.205078125,0.462890625,-0.134765625,0.27734375,-10.703125,2.015625,1.0
4832234,,,,,,,,-0.3046875,-1.3984375,0.0703125,-0.21875,0.408203125,-0.1640625,0.1640625,-10.703125,2.0546875,1.0
4832235,,,,,,,,-0.28125,-0.97265625,0.1328125,-0.19921875,0.408203125,-0.17578125,0.203125,-10.28515625,2.09375,1.0
4832236,,,,,,,,0.015625,-1.69140625,0.078125,-0.2890625,0.392578125,-0.15234375,0.5078125,-11.0078125,2.015625,1.0
4832237,,,,,,,,0.20703125,-2.53515625,0.046875,-0.388671875,0.3671875,-0.13671875,0.69921875,-11.8515625,1.9765625,1.0
4832238,,,,,,,,0.390625,-2.91015625,0.59375,-0.59375,0.33203125,-0.115234375,0.890625,-12.23828125,2.4765625,1.0
4832239,,,,,,,,0.34375,-3.0234375,1.0078125,-0.638671875,0.33203125,-0.095703125,0.8515625,-12.3515625,2.859375,1.0
4832240,36.01345166666667,129.319561,86.63258667111074,116.69256155261147,1.1,85.0,,0.078125,-3.8515625,1.5625,-0.0703125,0.65625,-0.033203125,0.39453125,-9.703125,1.44140625,1.0
4832241,,,,,,,,-0.3046875,-4.76171875,1.33984375,-0.51953125,0.3671875,-0.107421875,0.203125,-14.11328125,3.08984375,1.0
4832242,,,,,,,,-1.30859375,-3.3359375,1.87890625,-0.482421875,0.30078125,-0.103515625,-0.79296875,-12.6953125,3.55078125,1.0
4832243,,,,,,,,-1.42578125,-2.37109375,1.703125,-0.287109375,0.359375,-0.125,-0.91015625,-11.73828125,3.359375,1.0
4832244,,,,,,,,-1.171875,-0.91015625,1.01953125,0.080078125,0.419921875,-0.150390625,-0.640625,-10.28125,2.66796875,1.0
4832245,,,,,,,,-0.59765625,-0.75390625,0.8515625,0.091796875,0.44140625,-0.146484375,-0.06640625,-10.12890625,2.515625,1.0
4832246,,,,,,,,-0.109375,-1.13671875,1.04296875,-0.095703125,0.474609375,-0.146484375,0.4296875,-10.5078125,2.70703125,1.0
4832247,,,,,,,,0.65234375,-1.67578125,1.515625,-0.240234375,0.64453125,-0.197265625,1.19921875,-11.046875,3.1640625,1.0
4832248,,,,,,,,0.796875,-1.71484375,1.87890625,-0.216796875,0.720703125,-0.201171875,1.3515625,-11.08984375,3.51171875,1.0
4832249,,,,,,,,0.94921875,-1.70703125,1.9609375,-0.083984375,0.888671875,-0.2109375,1.50390625,-11.0859375,3.5859375,1.0
4832250,36.013451833333335,129.31956233333332,86.75278431927212,116.71105594671413,1.2000000000000002,86.0,,0.51953125,-0.9375,1.5703125,-0.0703125,0.65625,-0.033203125,1.08203125,-10.32421875,3.203125,1.0
4832251,,,,,,,,0.12109375,-0.6328125,1.44140625,0.205078125,1.009765625,-0.28125,0.69921875,-10.015625,3.08984375,1.0
4832252,,,,,,,,-0.375,-0.32421875,1.41015625,0.25390625,1.052734375,-0.318359375,0.203125,-9.70703125,3.08984375,1.0
4832253,,,,,,,,-1.04296875,-0.1796875,1.609375,0.234375,1.0703125,-0.349609375,-0.44921875,-9.5546875,3.3203125,1.0
4832254,,,,,,,,-1.375,-0.140625,1.23828125,0.21875,1.0234375,-0.3671875,-0.7578125,-9.51953125,2.97265625,1.0
4832255,,,,,,,,-1.390625,0.15625,0.7109375,0.203125,0.97265625,-0.375,-0.7578125,-9.2109375,2.4765625,1.0
4832256,,,,,,,,-1.3984375,0.15625,0.703125,0.19140625,0.951171875,-0.353515625,-0.71875,-9.015625,2.3984375,1.0
4832257,,,,,,,,-1.40625,0.69140625,0.3203125,0.185546875,0.94140625,-0.314453125,-0.7578125,-8.67578125,2.1328125,1.0
4832258,,,,,,,,-1.421875,1.03125,0.10546875,0.16796875,0.93359375,-0.29296875,-0.7578125,-8.2109375,1.86328125,1.0
4832259,,,,,,,,-1.28125,1.671875,-0.1953125,0.140625,0.908203125,-0.279296875,-0.6015625,-7.6796875,1.671875,1.0
4832260,36.01345166666667,129.31956350000002,86.85795760631379,116.69256377803418,1.2000000000000002,87.0,,-1.17578125,2.046875,-0.33984375,0.109375,0.853515625,-0.291015625,-0.48828125,-7.30078125,1.55859375,1.0
4832261,,,,,,,,-0.9296875,2.578125,-0.44140625,0.095703125,0.765625,-0.326171875,-0.21875,-6.76171875,1.48046875,1.0
4832262,,,,,,,,-0.9375,2.69140625,-0.48828125,0.09375,0.75,-0.3359375,-0.21875,-6.640625,1.44140625,1.0
4832263,,,,,,,,-1.03125,2.69140625,-0.65625,0.11328125,0.724609375,-0.34375,-0.296875,-6.640625,1.2890625,1.0
4832264,,,,,,,,-1.0859375,2.53125,-0.7421875,0.119140625,0.71875,-0.341796875,-0.3359375,-6.80078125,1.2109375,1.0
4832265,,,,,,,,-1.3671875,2.26171875,-0.88671875,0.107421875,0.70703125,-0.330078125,-0.6015625,-7.06640625,1.09765625,1.0
4832266,,,,,,,,-1.5390625,2.1015625,-0.90234375,0.09765625,0.6875,-0.3125,-0.7578125,-7.22265625,1.09765625,1.0
4832267,,,,,,,,-1.62109375,1.98828125,-0.87109375,0.103515625,0.671875,-0.2890625,-0.83203125,-7.328125,1.13671875,1.0
4832268,,,,,,,,-1.75390625,1.7109375,-1.00390625,0.109375,0.625,-0.2578125,-0.94921875,-7.60546875,1.01953125,1.0
4832269,,,,,,,,-1.796875,1.40234375,-0.97265625,0.115234375,0.611328125,-0.23046875,-0.984375,-7.90625,1.05859375,1.0
4832270,36.013451499999995,129.31956499999998,86.99318034615102,116.67407190643011,1.2000000000000002,90.0,,-1.8359375,0.9375,-0.87109375,0.103515625,0.568359375,-0.193359375,-1.0234375,-8.37109375,1.17578125,1.0
4832271,,,,,,,,-1.8046875,0.8125,-0.734375,0.09375,0.51171875,-0.158203125,-0.984375,-8.48828125,1.328125,1.0
4832272,,,,,,,,-1.76953125,0.8515625,-0.51171875,0.123046875,0.455078125,-0.12890625,-0.94921875,-8.4453125,1.55859375,1.0
4832273,,,,,,,,-1.69140625,0.96875,-0.53515625,0.1640625,0.3984375,-0.099609375,-0.87109375,-8.328125,1.55859375,1.0
4832274,,,,,,,,-1.72265625,0.953125,-0.828125,0.220703125,0.359375,-0.083984375,-0.91015625,-8.328125,1.2890625,1.0
4832275,,,,,,,,-1.796875,0.76171875,-0.96484375,0.232421875,0.328125,-0.068359375,-0.984375,-8.515625,1.17578125,1.0
4832276,,,,,,,,-1.8359375,0.67578125,-0.97265625,0.22265625,0.3125,-0.052734375,-1.0234375,-8.59765625,1.17578125,1.0
4832277,,,,,,,,-1.7890625,0.4765625,-0.99609375,0.16015625,0.24609375,-0.033203125,-0.984375,-8.79296875,1.17578125,1.0
4832278,,,,,,,,-1.4375,0.4375,-1.12890625,0.119140625,0.1796875,-0.025390625,-0.640625,-8.83203125,1.05859375,1.0
4832279,,,,,,,,-1.27734375,0.54296875,-1.14453125,0.06640625,0.123046875,-0.021484375,-0.48828125,-8.7109375,1.05859375,1.0
4832280,36.013451333333336,129.319566,87.08332890614297,116.65557959212353,1.1,94.0,,-1.35546875,0.46875,-1.0,0.03125,0.115234375,-0.025390625,-0.56640625,-8.79296875,1.2109375,1.0
4832281,,,,,,,,-1.4296875,0.23828125,-0.9609375,-0.0234375,0.08984375,-0.037109375,-0.6796875,-9.21484375,1.2890625,1.0
4832282,,,,,,,,-1.421875,0.0,-0.8828125,-0.0625,0.05078125,-0.037109375,-0.6015625,-9.36328125,1.40234375,1.0
4832283,,,,,,,,-1.3828125,-0.11328125,-0.80859375,-0.0859375,0.037109375,-0.04296875,-0.56640625,-9.3203125,1.44140625,1.0
4832284,,,,,,,,-1.26953125,-0.07421875,-0.68359375,-0.109375,0.0234375,-0.0546875,-0.41015625,-9.13671875,1.671875,1.0
4832285,,,,,,,,-1.15625,0.15234375,-0.5078125,-0.150390625,0.025390625,-0.0703125,-0.41015625,-9.1328125,1.6328125,1.0
4832286,,,,,,,,-1.1640625,0.125,-0.60546875,-0.21875,0.05078125,-0.083984375,-0.375,-9.2109375,1.55859375,1.0
4832287,,,,,,,,-1.1640625,0.0078125,-0.70703125,-0.302734375,0.052734375,-0.099609375,-0.296875,-9.29296875,1.3671875,1.0
4832288,,,,,,,,-1.0859375,-0.03125,-0.765625,-0.341796875,0.056640625,-0.11328125,-0.21875,-9.25,1.3671875,1.0
4832289,,,,,,,,-0.87109375,0.1015625,-0.8359375,-0.4140625,0.064453125,-0.12109375,0.0859375,-9.09375,1.2109375,1.0
4832290,36.01345083333333,129.319567,87.17347783029797,116.60010086064473,1.0,101.0,,-0.640625,0.25390625,-0.8203125,-0.494140625,0.064453125,-0.138671875,-0.56640625,-8.79296875,1.2109375,1.0
4832291,,,,,,,,-0.6484375,0.4609375,-0.78125,-0.580078125,0.08984375,-0.138671875,0.1640625,-8.828125,1.2109375,1.0
4832292,,,,,,,,-0.84765625,0.66015625,-0.52734375,-0.666015625,0.1015625,-0.138671875,-0.02734375,-8.6328125,1.40234375,1.0
4832293,,,,,,,,-1.27734375,0.36328125,-0.00390625,-0.703125,0.111328125,-0.130859375,-0.44921875,-8.94140625,1.86328125,1.0
4832294,,,,,,,,-1.33203125,-1.4296875,0.02734375,-0.748046875,0.09375,-0.1171875,-0.48828125,-10.7421875,1.82421875,1.0
4832295,,,,,,,,-0.7109375,-2.44921875,0.52734375,-0.8671875,0.00390625,-0.095703125,0.125,-11.7734375,2.24609375,1.0
4832296,,,,,,,,-0.296875,-2.82421875,0.875,-0.91796875,-0.078125,-0.09375,0.546875,-12.15625,2.5546875,1.0
4832297,,,,,,,,1.45703125,-4.41796875,1.80078125,-0.974609375,-0.203125,-0.08203125,2.30859375,-13.76953125,3.39453125,1.0
4832298,,,,,,,,2.7890625,-6.40234375,2.1328125,-1.0625,-0.216796875,-0.083984375,3.6484375,-15.7578125,3.625,1.0
4832299,,,,,,,,4.66796875,-7.421875,2.92578125,-1.130859375,-0.041015625,-0.107421875,5.52734375,-16.796875,4.31640625,1.0
4832300,36.01345033333334,129.319568,87.26362675628849,116.54462213118151,1.0,109.0,0.0,5.2265625,-3.15234375,3.79296875,-0.494140625,0.064453125,-0.138671875,6.1015625,-12.54296875,5.08203125,1.0
4832301,,,,,,,,3.1015625,-0.9609375,2.99609375,-0.1796875,0.623046875,-0.28515625,3.9921875,-10.359375,4.23828125,1.0
4832302,,,,,,,,2.20703125,-0.921875,2.75,0.29296875,0.78515625,-0.4140625,2.23046875,-10.5859375,3.89453125,1.0
4832303,,,,,,,,0.46875,-1.66015625,2.734375,0.26953125,0.71875,-0.421875,1.390625,-11.046875,4.0078125,1.0
4832304,,,,,,,,-0.98046875,-2.76953125,3.1640625,0.1875,0.5078125,-0.40625,-0.41015625,-12.66015625,4.62109375,1.0
4832305,,,,,,,,-1.07421875,-2.47265625,2.2265625,0.283203125,0.326171875,-0.26171875,-0.06640625,-11.85546875,3.5859375,1.0
4832306,,,,,,,,-0.27734375,-0.82421875,1.73828125,0.345703125,0.451171875,-0.158203125,0.73828125,-10.20703125,3.12890625,1.0
4832307,,,,,,,,-0.578125,0.27734375,1.52734375,0.26171875,0.6796875,-0.001953125,0.4296875,-9.09765625,2.97265625,1.0
4832308,,,,,,,,-0.73046875,0.39453125,1.3671875,0.203125,0.701171875,0.052734375,0.27734375,-8.9765625,2.8203125,1.0
4832309,,,,,,,,-0.7890625,0.5,0.9609375,0.048828125,0.6171875,0.125,0.203125,-8.8671875,2.4375,1.0
4832310,36.01344983333333,129.31956899999997,87.35377567779133,116.48914340244102,1.0,113.0,,-0.453125,0.0859375,0.640625,-0.123046875,0.46484375,0.1484375,0.5078125,-9.2890625,2.1328125,1.0
4832311,,,,,,,,-0.16015625,-0.01953125,0.921875,-0.259765625,0.376953125,0.146484375,0.77734375,-9.3984375,2.3984375,1.0
4832312,,,,,,,,-0.109375,0.171875,0.91015625,-0.2578125,0.392578125,0.12109375,0.8125,-9.2109375,2.36328125,1.0
4832313,,,,,,,,-0.19921875,0.9140625,0.34765625,-0.181640625,0.43359375,0.09375,0.69921875,-8.48828125,1.78515625,1.0
4832314,,,,,,,,-0.19140625,1.23046875,-0.01953125,-0.130859375,0.48046875,0.0703125,0.69921875,-8.171875,1.40234375,1.0
4832315,,,,,,,,-0.20703125,1.65234375,-0.37109375,-0.12109375,0.498046875,0.07421875,0.66015625,-7.75390625,1.05859375,1.0
4832316,,,,,,,,-0.12890625,1.734375,-0.484375,-0.12109375,0.5078125,0.0703125,0.73828125,-7.6796875,0.9453125,1.0
4832317,,,,,,,,-0.07421875,2.00390625,-0.546875,-0.15234375,0.5234375,0.060546875,0.77734375,-7.41015625,0.8671875,1.0
4832318,,,,,,,,0.1328125,2.30859375,-0.5390625,-0.185546875,0.5546875,0.052734375,0.96875,-7.1015625,0.8671875,1.0
4832319,,,,,,,,0.33984375,2.43359375,-0.63671875,-0.197265625,0.576171875,0.048828125,1.16015625,-6.984375,0.75390625,1.0
4832320,36.0134495,129.31957,87.44392442425807,116.45215788197652,1.0,113.0,,0.46875,2.44140625,-0.5859375,-0.17578125,0.642578125,0.0390625,1.2734375,-6.984375,0.7890625,1.0
4832321,,,,,,,,0.5234375,2.44140625,-0.66015625,-0.125,0.693359375,0.017578125,1.3125,-6.984375,0.71484375,1.0
4832322,,,,,,,,0.5703125,2.32421875,-0.61328125,-0.099609375,0.720703125,0.001953125,1.3515625,-7.10546875,0.75390625,1.0
4832323,,,,,,,,0.5546875,2.171875,-0.73046875,-0.02734375,0.787109375,-0.033203125,1.3125,-7.26171875,0.63671875,1.0
4832324,,,,,,,,0.4765625,2.01953125,-0.73828125,0.005859375,0.80078125,-0.052734375,1.234375,-7.41015625,0.63671875,1.0
4832325,,,,,,,,0.44921875,1.828125,-0.78515625,0.029296875,0.8125,-0.07421875,1.19921875,-7.6015625,0.59765625,1.0
4832326,,,,,,,,0.41015625,1.75,-0.79296875,0.0390625,0.8125,-0.080078125,1.16015625,-7.6796875,0.59765625,1.0
4832327,,,,,,,,0.33984375,1.7109375,-0.68359375,0.048828125,0.8359375,-0.1015625,1.08203125,-7.72265625,0.71484375,1.0
4832328,,,,,,,,0.26171875,1.67578125,-0.625,0.076171875,0.85546875,-0.111328125,1.00390625,-7.75390625,0.7890625,1.0
4832329,,,,,,,,0.26171875,1.62890625,-0.625,0.083984375,0.861328125,-0.115234375,1.00390625,-7.79296875,0.7890625,1.0
4832330,36.01344916666667,129.319571,87.53407316885838,116.41517236351805,1.0,114.0,,0.1953125,1.54296875,-0.6171875,-0.17578125,0.642578125,0.0390625,1.2734375,-6.984375,0.7890625,1.0
4832331,,,,,,,,0.1953125,1.27734375,-0.671875,0.103515625,0.85546875,-0.12890625,0.9296875,-8.13671875,0.7890625,1.0
4832332,,,,,,,,0.1953125,1.046875,-0.75390625,0.09765625,0.845703125,-0.130859375,0.9296875,-8.3671875,0.71484375,1.0
4832333,,,,,,,,0.1953125,0.76953125,-0.80859375,0.103515625,0.849609375,-0.13671875,0.9296875,-8.63671875,0.67578125,1.0
4832334,,,,,,,,0.203125,0.30078125,-0.79296875,0.09375,0.845703125,-0.126953125,0.9296875,-9.09375,0.71484375,1.0
4832335,,,,,,,,0.27734375,0.265625,-0.65625,0.078125,0.85546875,-0.125,1.00390625,-9.1328125,0.8671875,1.0
4832336,,,,,,,,0.2421875,0.29296875,-0.39453125,0.056640625,0.861328125,-0.126953125,0.96875,-9.09765625,1.13671875,1.0
4832337,,,,,,,,-0.06640625,0.02734375,-0.34375,0.0625,0.865234375,-0.1171875,0.66015625,-9.36328125,1.2109375,1.0
4832338,,,,,,,,-0.32421875,-0.2109375,-0.09765625,0.0546875,0.802734375,-0.103515625,0.39453125,-9.59765625,1.48046875,1.0
4832339,,,,,,,,-0.39453125,-0.2890625,-0.02734375,0.048828125,0.796875,-0.107421875,0.31640625,-9.671875,1.55859375,1.0
4832340,36.01344866666667,129.319572,87.62422209639276,116.35969363711322,1.0,116.0,,-0.5078125,-0.59375,0.0,-0.17578125,0.642578125,0.0390625,0.203125,-9.9765625,1.59375,1.0
4832341,,,,,,,,-0.43359375,-0.86328125,-0.07421875,-0.005859375,0.705078125,-0.087890625,0.27734375,-10.24609375,1.51953125,1.0
4832342,,,,,,,,-0.38671875,-0.9765625,-0.08203125,-0.025390625,0.6796875,-0.087890625,0.31640625,-10.359375,1.51953125,1.0
4832343,,,,,,,,-0.30859375,-0.9375,0.0390625,-0.08203125,0.607421875,-0.09375,0.4296875,-10.2421875,1.6328125,1.0
4832344,,,,,,,,-0.265625,-0.83203125,0.0390625,-0.119140625,0.548828125,-0.107421875,0.4296875,-10.203125,1.6328125,1.0
4832345,,,,,,,,-0.15625,-0.44921875,-0.14453125,-0.146484375,0.513671875,-0.119140625,0.546875,-9.8203125,1.44140625,1.0
4832346,,,,,,,,-0.04296875,-0.06640625,-0.359375,-0.216796875,0.490234375,-0.130859375,0.66015625,-9.4375,1.2109375,1.0
4832347,,,,,,,,0.02734375,-0.05859375,-0.2734375,-0.26171875,0.486328125,-0.130859375,0.73828125,-9.4375,1.2890625,1.0
4832348,,,,,,,,0.5234375,-1.24609375,-0.33984375,-0.46875,0.486328125,-0.13671875,1.234375,-10.625,1.17578125,1.0
4832349,,,,,,,,0.6328125,-1.66015625,-0.32421875,-0.564453125,0.4765625,-0.140625,1.3515625,-11.046875,1.17578125,1.0
4832350,36.013448499999996,129.31957316666666,87.72939538721172,116.34120147784806,1.0,114.0,,0.81640625,-2.265625,-0.1796875,-0.75,0.46875,-0.130859375,1.54296875,-11.66796875,1.25,1.0
4832351,,,,,,,,0.6171875,-1.51953125,0.796875,-0.689453125,0.55859375,-0.134765625,1.3515625,-10.9296875,2.1328125,1.0
4832352,,,,,,,,0.15625,-1.8203125,0.92578125,-0.576171875,0.64453125,-0.140625,0.890625,-11.2421875,2.20703125,1.0
4832353,,,,,,,,-0.04296875,-3.11328125,0.828125,-0.62890625,0.6640625,-0.130859375,0.69921875,-12.5390625,2.0546875,1.0
4832354,,,,,,,,-0.15625,-4.4921875,1.234375,-0.740234375,0.59375,-0.126953125,0.5859375,-13.921875,2.3984375,1.0
4832355,,,,,,,,-0.1953125,-2.5625,2.01953125,-0.587890625,0.625,-0.125,0.546875,-12.0078125,3.12890625,1.0
4832356,,,,,,,,-0.703125,-0.72265625,1.359375,-0.158203125,0.80859375,-0.142578125,0.046875,-10.1640625,2.4375,1.0
4832357,,,,,,,,-1.125,-0.41796875,1.27734375,0.068359375,1.001953125,-0.134765625,-0.375,-9.86328125,2.36328125,1.0
4832358,,,,,,,,-1.046875,-1.296875,1.4609375,0.01171875,1.0703125,-0.107421875,-0.296875,-10.74609375,2.5546875,1.0
4832359,,,,,,,,-0.12890625,-2.37109375,2.02734375,-0.103515625,1.041015625,-0.1171875,0.62109375,-11.81640625,3.12890625,1.0
4832360,36.01344783333333,129.31957416666668,87.8195445064291,116.26722954609897,1.0,118.0,,0.33203125,-2.67578125,2.2578125,-0.75,0.46875,-0.130859375,1.54296875,-11.66796875,1.25,1.0
4832361,,,,,,,,0.41015625,-2.5546875,2.33203125,-0.005859375,1.12890625,-0.146484375,1.16015625,-12.0078125,3.43359375,1.0
4832362,,,,,,,,0.29296875,-2.33203125,2.28515625,0.080078125,1.19140625,-0.15625,1.04296875,-11.77734375,3.39453125,1.0
4832363,,,,,,,,-0.328125,-1.21484375,2.1015625,0.255859375,1.259765625,-0.19921875,0.4296875,-10.66796875,3.2421875,1.0
4832364,,,,,,,,-0.5546875,-0.83984375,1.94921875,0.369140625,1.26953125,-0.25,0.203125,-10.28515625,3.12890625,1.0
4832365,,,,,,,,-1.18359375,-0.00390625,1.45703125,0.37890625,1.248046875,-0.26953125,-0.41015625,-9.4375,2.70703125,1.0
4832366,,,,,,,,-1.4609375,0.1796875,0.89453125,0.267578125,1.171875,-0.267578125,-0.6796875,-9.25390625,2.20703125,1.0
4832367,,,,,,,,-1.46875,0.265625,0.7265625,0.236328125,1.140625,-0.263671875,-0.6796875,-9.17578125,2.0546875,1.0
4832368,,,,,,,,-1.3984375,0.5625,0.54296875,0.189453125,1.09765625,-0.244140625,-0.6015625,-8.8671875,1.90234375,1.0
4832369,,,,,,,,-1.40625,0.74609375,0.47265625,0.173828125,1.080078125,-0.220703125,-0.6015625,-8.67578125,1.86328125,1.0
4832370,36.013447166666666,129.31957516666668,87.90969362407506,116.19325761393107,1.2000000000000002,120.0,,-1.33203125,1.3984375,0.21875,-0.75,0.46875,-0.130859375,1.54296875,-11.66796875,1.25,1.0
4832371,,,,,,,,-1.21484375,1.97265625,0.00390625,0.185546875,1.087890625,-0.201171875,-0.41015625,-7.44921875,1.44140625,1.0
4832372,,,,,,,,-1.1484375,2.38671875,-0.2578125,0.185546875,1.056640625,-0.216796875,-0.3359375,-7.02734375,1.2109375,1.0
4832373,,,,,,,,-1.1484375,2.46484375,-0.36328125,0.166015625,1.009765625,-0.234375,-0.3359375,-6.94921875,1.13671875,1.0
4832374,,,,,,,,-1.15625,2.65625,-0.42578125,0.142578125,0.95703125,-0.248046875,-0.3359375,-6.76171875,1.09765625,1.0
4832375,,,,,,,,-1.27734375,2.41796875,-0.44140625,0.12890625,0.90625,-0.267578125,-0.44921875,-6.98828125,1.09765625,1.0
4832376,,,,,,,,-1.40234375,2.30078125,-0.51171875,0.123046875,0.873046875,-0.271484375,-0.56640625,-7.10546875,1.05859375,1.0
4832377,,,,,,,,-1.6015625,2.1015625,-0.52734375,0.134765625,0.845703125,-0.267578125,-0.7578125,-7.30078125,1.05859375,1.0
4832378,,,,,,,,-1.68359375,2.140625,-0.53515625,0.138671875,0.841796875,-0.265625,-0.83203125,-7.2578125,1.05859375,1.0
4832379,,,,,,,,-1.8515625,1.7890625,-0.57421875,0.15625,0.783203125,-0.224609375,-0.984375,-7.60546875,1.05859375,1.0
4832380,36.01344666666667,129.31957616666665,87.9998425567249,116.13777889211809,1.0,122.0,,-2.0078125,1.4453125,-0.40625,-0.75,0.46875,-0.130859375,-1.140625,-7.94921875,1.25,1.0
4832381,,,,,,,,-2.0078125,1.19921875,-0.3125,0.126953125,0.669921875,-0.146484375,-1.140625,-8.171875,1.3671875,1.0
4832382,,,,,,,,-2.046875,1.12109375,-0.28515625,0.134765625,0.64453125,-0.1328125,-1.1796875,-8.25390625,1.40234375,1.0
4832383,,,,,,,,-1.96875,1.12109375,-0.26953125,0.16796875,0.59765625,-0.10546875,-1.1015625,-8.25390625,1.44140625,1.0
4832384,,,,,,,,-1.96875,1.23046875,-0.40625,0.20703125,0.5546875,-0.08984375,-1.1015625,-8.1328125,1.328125,1.0
4832385,,,,,,,,-1.9921875,1.2578125,-0.80078125,0.24609375,0.482421875,-0.08203125,-1.140625,-8.10546875,0.98046875,1.0
4832386,,,,,,,,-1.9921875,1.13671875,-0.73828125,0.228515625,0.44921875,-0.08203125,-1.140625,-8.21484375,1.05859375,1.0
4832387,,,,,,,,-1.90625,0.9765625,-0.80859375,0.19140625,0.376953125,-0.072265625,-1.0625,-8.3671875,1.01953125,1.0
4832388,,,,,,,,-1.75390625,0.74609375,-0.86328125,0.15234375,0.32421875,-0.0703125,-0.91015625,-8.59765625,0.98046875,1.0
4832389,,,,,,,,-1.68359375,0.66015625,-0.83203125,0.134765625,0.302734375,-0.060546875,-0.83203125,-8.67578125,1.01953125,1.0
4832390,36.01344616666667,129.31957683333334,88.05994203284293,116.08229986920671,0.9,126.0,,-1.5625,0.61328125,-0.84765625,-0.75,0.46875,-0.130859375,-0.71875,-8.7109375,1.01953125,1.0
4832391,,,,,,,,-1.36328125,0.62109375,-0.86328125,0.0703125,0.24609375,-0.0703125,-0.52734375,-8.7109375,1.01953125,1.0
4832392,,,,,,,,-1.2109375,0.53125,-0.78515625,0.0390625,0.212890625,-0.091796875,-0.375,-8.79296875,1.09765625,1.0
4832393,,,,,,,,-1.171875,0.33984375,-0.6796875,-0.001953125,0.203125,-0.103515625,-0.3359375,-8.9765625,1.2109375,1.0
4832394,,,,,,,,-1.171875,0.0390625,-0.45703125,-0.0390625,0.181640625,-0.126953125,-0.3359375,-9.29296875,1.44140625,1.0
4832395,,,,,,,,-1.1015625,-0.38671875,-0.33203125,-0.0625,0.185546875,-0.14453125,-0.2578125,-9.70703125,1.55859375,1.0
4832396,,,,,,,,-1.1484375,-0.65625,-0.25,-0.083984375,0.1953125,-0.154296875,-0.296875,-9.98046875,1.6328125,1.0
4832397,,,,,,,,-1.15625,-0.93359375,-0.2421875,-0.099609375,0.21484375,-0.162109375,-0.296875,-10.2421875,1.6328125,1.0
4832398,,,,,,,,-1.1953125,-1.0,-0.38671875,-0.1328125,0.23828125,-0.16796875,-0.3359375,-10.32421875,1.48046875,1.0
4832399,,,,,,,,-1.01171875,-1.0390625,-0.5234375,-0.18359375,0.2578125,-0.17578125,-0.14453125,-10.36328125,1.328125,1.0
4832400,36.01344516666666,129.31957716666665,88.08999260214748,115.97134092023168,1.0,139.0,0.0,-0.796875,-1.078125,-0.5859375,-0.259765625,0.259765625,-0.1875,0.0859375,-10.40234375,1.25,1.0
4832401,,,,,,,,-0.421875,-0.9921875,-0.62890625,-0.33984375,0.25,-0.201171875,0.46875,-10.3203125,1.17578125,1.0
4832402,,,,,,,,-0.3125,-0.9921875,-0.67578125,-0.443359375,0.255859375,-0.220703125,0.5859375,-10.32421875,1.09765625,1.0
4832403,,,,,,,,-0.3125,-0.91796875,-0.57421875,-0.486328125,0.283203125,-0.22265625,0.5859375,-10.24609375,1.17578125,1.0
4832404,,,,,,,,-0.52734375,-0.71875,-0.4609375,-0.5546875,0.345703125,-0.234375,0.39453125,-10.05859375,1.25,1.0
4832405,,,,,,,,-0.7578125,-0.2890625,-0.51953125,-0.58203125,0.408203125,-0.251953125,0.1640625,-9.63671875,1.13671875,1.0
4832406,,,,,,,,-1.05078125,-0.12890625,-0.47265625,-0.603515625,0.4296875,-0.267578125,-0.10546875,-9.4765625,1.13671875,1.0
4832407,,,,,,,,-1.44921875,-0.9921875,-0.91015625,-0.736328125,0.41015625,-0.283203125,-0.48828125,-10.359375,0.59765625,1.0
4832408,,,,,,,,-1.38671875,-1.4921875,-0.921875,-0.828125,0.37109375,-0.279296875,-0.41015625,-10.859375,0.5625,1.0
4832409,,,,,,,,-1.05078125,-1.3671875,-0.4609375,-1.001953125,0.271484375,-0.255859375,-0.06640625,-10.74609375,0.9453125,1.0
4832410,36.01344433333334,129.31957783333334,88.15009245396334,115.87887548200254,1.0,148.0,,-0.22265625,-1.16015625,0.3203125,-0.259765625,0.259765625,-0.1875,0.77734375,-10.546875,1.6328125,1.0
4832411,,,,,,,,0.14453125,-1.84375,0.61328125,-0.986328125,0.158203125,-0.1796875,1.16015625,-11.2421875,1.82421875,1.0
4832412,,,,,,,,1.69921875,-4.30859375,1.7578125,-1.203125,0.16796875,-0.140625,2.73046875,-13.7265625,2.8203125,1.0
4832413,,,,,,,,2.83984375,-3.3828125,2.4140625,-1.1875,0.1796875,-0.138671875,3.87890625,-12.81640625,3.359375,1.0
4832414,,,,,,,,3.29296875,-2.1171875,2.34375,-0.759765625,0.328125,-0.1875,4.33984375,-11.546875,3.203125,1.0
4832415,,,,,,,,2.44140625,-1.19140625,2.125,-0.310546875,0.576171875,-0.25,3.49609375,-10.625,2.9375,1.0
4832416,,,,,,,,1.93359375,-1.11328125,2.28515625,-0.177734375,0.671875,-0.275390625,2.99609375,-10.55078125,3.08984375,1.0
4832417,,,,,,,,0.5625,-1.6875,2.78125,-0.02734375,0.697265625,-0.330078125,1.65625,-11.12890625,3.5859375,1.0
4832418,,,,,,,,-0.06640625,-2.109375,2.8515625,0.095703125,0.591796875,-0.3515625,1.04296875,-11.55078125,3.6640625,1.0
4832419,,,,,,,,-0.203125,-1.8125,2.29296875,0.201171875,0.529296875,-0.3203125,0.9296875,-11.2421875,3.12890625,1.0
4832420,36.013443333333335,129.31957833333334,88.19516775743328,115.767916683984,1.0,153.0,,-0.2265625,-1.23828125,1.87890625,-0.259765625,0.259765625,-0.1875,0.9296875,-10.6640625,2.74609375,1.0
4832421,,,,,,,,-0.3046875,-0.39453125,1.72265625,0.421875,0.72265625,-0.123046875,0.8515625,-9.8203125,2.62890625,1.0
4832422,,,,,,,,-0.3515625,-0.125,1.6171875,0.42578125,0.7890625,-0.0703125,0.8125,-9.5546875,2.5546875,1.0
4832423,,,,,,,,-0.41015625,0.36328125,1.3828125,0.341796875,0.861328125,0.068359375,0.73828125,-9.0546875,2.3984375,1.0
4832424,,,,,,,,-0.328125,0.40234375,1.29296875,0.283203125,0.833984375,0.109375,0.8125,-9.015625,2.32421875,1.0
4832425,,,,,,,,-0.03515625,0.1796875,0.80078125,0.17578125,0.736328125,0.166015625,1.08203125,-9.25,1.86328125,1.0
4832426,,,,,,,,-0.171875,0.48828125,0.80859375,-0.001953125,0.5625,0.171875,0.890625,-8.94140625,1.90234375,1.0
4832427,,,,,,,,-0.26171875,0.6015625,0.72265625,0.041015625,0.55078125,0.15234375,0.77734375,-8.83203125,1.82421875,1.0
4832428,,,,,,,,-0.62109375,0.953125,0.32421875,0.103515625,0.546875,0.12890625,0.39453125,-8.48828125,1.44140625,1.0
4832429,,,,,,,,-0.65234375,1.0703125,0.2421875,0.11328125,0.52734375,0.126953125,0.35546875,-8.37109375,1.3671875,1.0
4832430,36.0134425,129.31957883333334,88.24024287973947,115.67545109442932,1.1,156.0,,-0.74609375,1.4140625,0.109375,-0.259765625,0.259765625,-0.1875,0.23828125,-8.0234375,1.25,1.0
4832431,,,,,,,,-0.73046875,1.64453125,0.01953125,0.095703125,0.50390625,0.150390625,0.23828125,-7.79296875,1.17578125,1.0
4832432,,,,,,,,-0.55078125,1.7578125,0.00390625,0.09765625,0.513671875,0.16796875,0.39453125,-7.68359375,1.17578125,1.0
4832433,,,,,,,,-0.29296875,1.95703125,-0.08984375,0.111328125,0.533203125,0.171875,0.62109375,-7.484375,1.09765625,1.0
4832434,,,,,,,,0.0,2.03515625,-0.18359375,0.11328125,0.5390625,0.166015625,0.890625,-7.40625,1.01953125,1.0
4832435,,,,,,,,0.30859375,2.11328125,-0.28125,0.09375,0.541015625,0.134765625,1.16015625,-7.328125,0.9453125,1.0
4832436,,,,,,,,0.4296875,2.07421875,-0.2890625,0.08203125,0.55078125,0.123046875,1.2734375,-7.37109375,0.9453125,1.0
4832437,,,,,,,,0.5625,1.99609375,-0.26171875,0.064453125,0.572265625,0.10546875,1.390625,-7.4453125,0.98046875,1.0
4832438,,,,,,,,0.62109375,1.7265625,-0.20703125,0.0546875,0.587890625,0.060546875,1.42578125,-7.72265625,1.05859375,1.0
4832439,,,,,,,,0.66796875,1.765625,-0.17578125,0.046875,0.6015625,0.037109375,1.46484375,-7.6796875,1.09765625,1.0
4832440,36.01344183333333,129.31957933333334,88.28531781360833,115.60147871518555,0.9,156.0,,0.67578125,1.7265625,-0.18359375,0.06640625,0.634765625,0.0,1.46484375,-7.72265625,1.09765625,1.0
4832441,,,,,,,,0.609375,1.7265625,-0.3515625,0.107421875,0.669921875,-0.041015625,1.390625,-7.71875,0.9453125,1.0
4832442,,,,,,,,0.546875,1.64453125,-0.4140625,0.138671875,0.705078125,-0.064453125,1.3125,-7.79296875,0.90625,1.0
4832443,,,,,,,,0.46875,1.328125,-0.66015625,0.14453125,0.71875,-0.083984375,1.234375,-8.1015625,0.67578125,1.0
4832444,,,,,,,,0.5078125,1.13671875,-0.63671875,0.119140625,0.732421875,-0.1015625,1.2734375,-8.2890625,0.71484375,1.0
4832445,,,,,,,,0.40234375,0.91015625,-0.69140625,0.099609375,0.763671875,-0.11328125,1.16015625,-8.51953125,0.67578125,1.0
4832446,,,,,,,,0.31640625,0.83203125,-0.66015625,0.1015625,0.775390625,-0.11328125,1.08203125,-8.59765625,0.71484375,1.0
4832447,,,,,,,,0.28515625,0.515625,-0.5390625,0.103515625,0.80859375,-0.1171875,1.04296875,-8.90625,0.8671875,1.0
4832448,,,,,,,,0.25390625,0.43359375,-0.5859375,0.111328125,0.822265625,-0.1171875,1.00390625,-8.9765625,0.828125,1.0
4832449,,,,,,,,0.140625,0.5078125,-0.33984375,0.09765625,0.826171875,-0.115234375,0.890625,-8.90625,1.09765625,1.0
4832450,36.01344099999999,129.3195798333333,88.33039293237721,115.50901312547376,1.0,160.0,,0.0625,0.5078125,-0.234375,0.091796875,0.865234375,-0.119140625,0.8125,-8.90625,1.2109375,1.0
4832451,,,,,,,,-0.08984375,0.42578125,-0.1875,0.1015625,0.873046875,-0.107421875,0.66015625,-8.9765625,1.2890625,1.0
4832452,,,,,,,,-0.12109375,0.38671875,-0.1953125,0.09765625,0.869140625,-0.095703125,0.62109375,-9.01953125,1.2890625,1.0
4832453,,,,,,,,-0.11328125,0.265625,-0.2421875,0.09765625,0.84375,-0.09375,0.62109375,-9.1328125,1.25,1.0
4832454,,,,,,,,-0.11328125,0.1484375,-0.25,0.0859375,0.826171875,-0.095703125,0.62109375,-9.25,1.25,1.0
4832455,,,,,,,,0.01953125,-0.1953125,-0.1953125,-0.021484375,0.79296875,-0.087890625,0.73828125,-9.59375,1.328125,1.0
4832456,,,,,,,,-0.1328125,-0.234375,-0.1640625,-0.060546875,0.787109375,-0.0859375,0.5859375,-9.6328125,1.3671875,1.0
4832457,,,,,,,,-0.09765625,-0.2734375,-0.12109375,-0.134765625,0.748046875,-0.08984375,0.62109375,-9.67578125,1.40234375,1.0
4832458,,,,,,,,-0.01171875,-0.35546875,-0.1484375,-0.16796875,0.708984375,-0.09375,0.69921875,-9.7421875,1.3671875,1.0
4832459,,,,,,,,0.06640625,-0.47265625,-0.2109375,-0.23046875,0.6328125,-0.10546875,0.77734375,-9.86328125,1.2890625,1.0
4832460,36.01344016666667,129.31958033333333,88.37546805851915,115.41654753829602,1.0,160.0,,0.1015625,-0.5390625,-0.203125,0.091796875,0.865234375,-0.119140625,0.8125,-8.90625,1.2109375,1.0
4832461,,,,,,,,0.2109375,-0.5390625,-0.1640625,-0.384765625,0.5546875,-0.138671875,0.9296875,-9.94140625,1.2890625,1.0
4832462,,,,,,,,0.28515625,-0.6484375,-0.046875,-0.462890625,0.56640625,-0.138671875,1.00390625,-10.05859375,1.3671875,1.0
4832463,,,,,,,,0.47265625,-1.3359375,-0.140625,-0.50390625,0.5703125,-0.130859375,1.19921875,-10.7421875,1.25,1.0
4832464,,,,,,,,0.671875,-2.86328125,-0.25390625,-0.662109375,0.5703125,-0.107421875,1.390625,-12.2734375,1.09765625,1.0
4832465,,,,,,,,0.5859375,-3.23828125,0.0859375,-0.814453125,0.5625,-0.078125,1.3125,-12.65625,1.3671875,1.0
4832466,,,,,,,,0.28515625,-2.30078125,1.2421875,-0.7890625,0.671875,-0.07421875,1.00390625,-11.73828125,2.3984375,1.0
4832467,,,,,,,,-0.25,-2.9921875,1.09765625,-0.654296875,0.75,-0.064453125,0.46875,-12.4296875,2.20703125,1.0
4832468,,,,,,,,-0.32421875,-3.51953125,0.86328125,-0.638671875,0.765625,-0.046875,0.39453125,-12.96484375,1.94140625,1.0
4832469,,,,,,,,-0.47265625,-3.54296875,1.53125,-0.71875,0.66796875,-0.015625,0.23828125,-13.00390625,2.5546875,1.0
4832470,36.01343933333333,129.31958066666667,88.40551845112013,115.32408179932506,1.0,158.0,,-0.5859375,-2.30859375,2.16796875,0.091796875,0.865234375,-0.119140625,0.125,-11.7734375,3.12890625,1.0
4832471,,,,,,,,-0.88671875,-0.8515625,1.71484375,-0.34765625,0.763671875,-0.033203125,-0.18359375,-10.3203125,2.62890625,1.0
4832472,,,,,,,,-1.0,-0.43359375,1.42578125,-0.1171875,0.841796875,-0.03515625,-0.296875,-9.90234375,2.32421875,1.0
4832473,,,,,,,,-0.71484375,-0.69921875,1.38671875,-0.09375,0.865234375,-0.046875,-0.02734375,-10.16796875,2.28515625,1.0
4832474,,,,,,,,-0.29296875,-1.19921875,1.65625,-0.123046875,0.904296875,-0.078125,0.39453125,-10.6640625,2.5546875,1.0
4832475,,,,,,,,0.5546875,-2.30078125,2.20703125,-0.06640625,1.015625,-0.119140625,1.234375,-11.77734375,3.08984375,1.0
4832476,,,,,,,,0.6640625,-2.25390625,2.3515625,0.0,1.083984375,-0.134765625,1.3515625,-11.73828125,3.2421875,1.0
4832477,,,,,,,,0.38671875,-1.640625,2.2578125,0.166015625,1.21875,-0.169921875,1.08203125,-11.125,3.1640625,1.0
4832478,,,,,,,,0.00390625,-1.0,2.06640625,0.328125,1.3125,-0.224609375,0.69921875,-10.48046875,3.01171875,1.0
4832479,,,,,,,,-0.46484375,-0.42578125,1.875,0.392578125,1.318359375,-0.291015625,0.23828125,-9.8984375,2.859375,1.0
4832480,36.0134385,129.319581,88.43556884336084,115.23161605977423,1.0,158.0,,-0.953125,0.10546875,1.4921875,0.091796875,0.865234375,-0.119140625,0.125,-11.7734375,3.12890625,1.0
4832481,,,,,,,,-1.4921875,0.3203125,0.9296875,0.265625,1.11328125,-0.34375,-0.71875,-9.1328125,2.09375,1.0
4832482,,,,,,,,-1.58203125,0.5546875,0.7890625,0.25,1.087890625,-0.33984375,-0.79296875,-8.90625,1.9765625,1.0
4832483,,,,,,,,-1.59765625,0.85546875,0.53125,0.234375,1.06640625,-0.3203125,-0.79296875,-8.59375,1.75,1.0
4832484,,,,,,,,-1.4609375,1.30859375,0.23046875,0.22265625,1.0390625,-0.31640625,-0.640625,-8.1328125,1.48046875,1.0
4832485,,,,,,,,-1.28515625,1.8046875,-0.0625,0.18359375,0.98046875,-0.3125,-0.44921875,-7.640625,1.2109375,1.0
4832486,,,,,,,,-1.1015625,2.06640625,-0.11328125,0.150390625,0.943359375,-0.31640625,-0.2578125,-7.37109375,1.17578125,1.0
4832487,,,,,,,,-1.00390625,2.33984375,-0.13671875,0.080078125,0.87890625,-0.326171875,-0.14453125,-7.1015625,1.17578125,1.0
4832488,,,,,,,,-0.90234375,2.44921875,-0.23046875,0.044921875,0.83203125,-0.33984375,-0.02734375,-6.984375,1.09765625,1.0
4832489,,,,,,,,-0.91796875,2.48828125,-0.27734375,0.041015625,0.8125,-0.34375,-0.02734375,-6.9453125,1.05859375,1.0
4832490,36.01343766666666,129.31958133333333,88.46561923904278,115.13915032064412,1.0,161.0,,-1.09765625,2.40234375,-0.37109375,0.033203125,0.791015625,-0.353515625,-0.18359375,-7.0234375,0.98046875,1.0
4832491,,,,,,,,-1.234375,2.2109375,-0.34765625,0.048828125,0.787109375,-0.345703125,-0.296875,-7.22265625,1.01953125,1.0
4832492,,,,,,,,-1.51171875,2.05859375,-0.4296875,0.056640625,0.78515625,-0.341796875,-0.56640625,-7.37109375,0.9453125,1.0
4832493,,,,,,,,-1.6015625,1.93359375,-0.5234375,0.068359375,0.755859375,-0.318359375,-0.640625,-7.484375,0.8671875,1.0
4832494,,,,,,,,-1.78515625,1.62109375,-0.578125,0.103515625,0.708984375,-0.28515625,-0.79296875,-7.79296875,0.828125,1.0
4832495,,,,,,,,-1.87109375,1.421875,-0.5703125,0.126953125,0.677734375,-0.259765625,-0.87109375,-7.98828125,0.8671875,1.0
4832496,,,,,,,,-1.87890625,1.19140625,-0.6640625,0.125,0.6328125,-0.236328125,-0.87109375,-8.2109375,0.7890625,1.0
4832497,,,,,,,,-1.85546875,0.9140625,-0.5703125,0.130859375,0.583984375,-0.2109375,-0.83203125,-8.484375,0.90625,1.0
4832498,,,,,,,,-1.78125,0.72265625,-0.47265625,0.134765625,0.521484375,-0.185546875,-0.7578125,-8.67578125,1.01953125,1.0
4832499,,,,,,,,-1.7890625,0.71484375,-0.48046875,0.142578125,0.490234375,-0.181640625,-0.7578125,-8.67578125,1.01953125,1.0
4832500,36.01343683333334,129.31958133333333,88.46562017045957,115.04668428031508,0.9,167.0,0.0,-1.6796875,1.16796875,-0.44921875,0.263671875,0.439453125,-0.166015625,-0.640625,-8.2109375,1.09765625,1.0
4832501,,,,,,,,-1.65625,1.390625,-0.7265625,0.306640625,0.404296875,-0.142578125,-0.6015625,-7.98828125,0.8671875,1.0
4832502,,,,,,,,-1.6484375,1.45703125,-0.7890625,0.294921875,0.39453125,-0.142578125,-0.6015625,-7.91015625,0.828125,1.0
4832503,,,,,,,,-1.54296875,1.3359375,-0.8515625,0.2578125,0.35546875,-0.142578125,-0.48828125,-8.0234375,0.7890625,1.0
4832504,,,,,,,,-1.390625,1.09765625,-0.796875,0.20703125,0.310546875,-0.13671875,-0.3359375,-8.25,0.8671875,1.0
4832505,,,,,,,,-1.24609375,0.82421875,-0.70703125,0.162109375,0.265625,-0.130859375,-0.18359375,-8.515625,0.98046875,1.0
4832506,,,,,,,,-1.20703125,0.59375,-0.63671875,0.1484375,0.248046875,-0.134765625,-0.14453125,-8.75,1.05859375,1.0
4832507,,,,,,,,-1.24609375,0.39453125,-0.54296875,0.103515625,0.228515625,-0.134765625,-0.18359375,-8.9375,1.17578125,1.0
4832508,,,,,,,,-1.40625,0.0390625,-0.4375,0.09375,0.220703125,-0.130859375,-0.3359375,-9.2890625,1.2890625,1.0
4832509,,,,,,,,-1.375,-0.03515625,-0.3984375,0.091796875,0.220703125,-0.134765625,-0.296875,-9.359375,1.328125,1.0
4832510,36.013435666666666,129.31958083333333,88.42054727691696,114.91723136753558,0.9,175.0,,-1.26171875,-0.07421875,-0.453125,0.263671875,0.439453125,-0.166015625,-0.18359375,-9.40234375,1.2890625,1.0
4832511,,,,,,,,-1.0,-0.38671875,-0.4609375,0.052734375,0.16015625,-0.12109375,0.0859375,-9.70703125,1.2890625,1.0
4832512,,,,,,,,-0.9296875,-0.54296875,-0.4609375,0.037109375,0.138671875,-0.12890625,0.1640625,-9.86328125,1.2890625,1.0
4832513,,,,,,,,-0.69140625,-0.97265625,-0.1640625,-0.025390625,0.09375,-0.125,0.39453125,-10.28515625,1.59375,1.0
4832514,,,,,,,,-0.48046875,-1.15625,-0.1171875,-0.095703125,0.076171875,-0.13671875,0.62109375,-10.4765625,1.6328125,1.0
4832515,,,,,,,,-0.37109375,-1.125,-0.21484375,-0.12109375,0.099609375,-0.146484375,0.73828125,-10.4375,1.51953125,1.0
4832516,,,,,,,,-0.45703125,-1.0859375,-0.25390625,-0.142578125,0.115234375,-0.154296875,0.66015625,-10.3984375,1.48046875,1.0
4832517,,,,,,,,-0.46484375,-0.93359375,-0.4609375,-0.228515625,0.169921875,-0.162109375,0.66015625,-10.24609375,1.25,1.0
4832518,,,,,,,,-0.5546875,-0.58203125,-0.55078125,-0.322265625,0.201171875,-0.158203125,0.5859375,-9.8984375,1.13671875,1.0
4832519,,,,,,,,-0.59375,-0.42578125,-0.51171875,-0.408203125,0.216796875,-0.154296875,0.546875,-9.74609375,1.13671875,1.0
4832520,36.013434833333335,129.31958033333333,88.37547401219851,114.82476487336417,0.9,184.0,,-1.0625,-0.1953125,-0.43359375,-0.48828125,0.23828125,-0.142578125,0.0859375,-9.51953125,1.17578125,1.0
4832521,,,,,,,,-1.29296875,-0.41015625,-0.3125,-0.568359375,0.232421875,-0.126953125,-0.14453125,-9.74609375,1.25,1.0
4832522,,,,,,,,-1.375,-1.09375,-0.37109375,-0.685546875,0.181640625,-0.10546875,-0.21875,-10.44140625,1.13671875,1.0
4832523,,,,,,,,-1.0703125,-1.5,-0.1484375,-0.818359375,0.109375,-0.072265625,0.0859375,-10.86328125,1.2890625,1.0
4832524,,,,,,,,-0.609375,-1.15234375,0.390625,-0.892578125,0.0,-0.04296875,0.546875,-10.5078125,1.75,1.0
4832525,,,,,,,,0.04296875,-1.13671875,0.97265625,-0.84765625,-0.076171875,-0.021484375,1.19921875,-10.5078125,2.24609375,1.0
4832526,,,,,,,,0.15625,-1.59765625,1.01171875,-0.82421875,-0.0703125,-0.01953125,1.3125,-10.97265625,2.24609375,1.0
4832527,,,,,,,,1.12109375,-4.140625,1.28125,-0.974609375,-0.03125,0.001953125,2.26953125,-13.5390625,2.3984375,1.0
4832528,,,,,,,,1.88671875,-4.1328125,2.11328125,-0.998046875,-0.0390625,-0.017578125,3.03515625,-13.54296875,3.12890625,1.0
4832529,,,,,,,,3.375,-2.36328125,2.765625,-0.751953125,-0.005859375,-0.072265625,4.53125,-11.77734375,3.703125,1.0
4832530,36.01343383333334,129.3195795,88.30035146690378,114.71380486844009,1.0,195.0,,3.2578125,-1.62890625,2.78125,-0.392578125,0.22265625,-0.12890625,4.4140625,-11.05078125,3.6640625,1.0
4832531,,,,,,,,1.52734375,-1.7421875,2.61328125,-0.16015625,0.458984375,-0.173828125,2.69140625,-11.16796875,3.47265625,1.0
4832532,,,,,,,,-0.16796875,-2.69921875,2.57421875,0.017578125,0.501953125,-0.208984375,1.00390625,-12.12109375,3.43359375,1.0
4832533,,,,,,,,-0.48046875,-2.85546875,2.56640625,0.087890625,0.453125,-0.2109375,0.69921875,-12.2734375,3.43359375,1.0
4832534,,,,,,,,-0.49609375,-2.69921875,2.55078125,0.181640625,0.30078125,-0.1953125,0.69921875,-12.1171875,3.43359375,1.0
4832535,,,,,,,,-0.2421875,-2.31640625,2.3671875,0.296875,0.228515625,-0.150390625,0.96875,-11.73828125,3.28125,1.0
4832536,,,,,,,,-0.13671875,-1.62890625,2.01953125,0.3984375,0.29296875,-0.072265625,1.08203125,-11.046875,2.97265625,1.0
4832537,,,,,,,,-0.3671875,-0.6796875,1.75390625,0.43359375,0.435546875,0.015625,0.8515625,-10.09375,2.74609375,1.0
4832538,,,,,,,,-0.6484375,-0.1796875,1.5078125,0.408203125,0.51953125,0.09375,0.546875,-9.59375,2.5546875,1.0
4832539,,,,,,,,-0.671875,0.43359375,1.11328125,0.341796875,0.4921875,0.16015625,0.5078125,-8.9765625,2.20703125,1.0
4832540,36.01343283333333,129.31957916666667,88.27030311777857,114.60284531647468,1.1,196.0,,-0.1796875,0.43359375,0.81640625,-0.392578125,0.22265625,-0.12890625,4.4140625,-11.05078125,3.6640625,1.0
4832541,,,,,,,,0.1171875,0.546875,0.79296875,0.068359375,0.28515625,0.19921875,1.234375,-8.8671875,1.94140625,1.0
4832542,,,,,,,,-0.08984375,1.015625,0.73828125,0.080078125,0.32421875,0.189453125,1.00390625,-8.40625,1.90234375,1.0
4832543,,,,,,,,-0.37109375,1.4765625,0.53125,0.119140625,0.37109375,0.189453125,0.69921875,-7.94921875,1.7109375,1.0
4832544,,,,,,,,-0.63671875,1.98046875,0.15625,0.16015625,0.412109375,0.1796875,0.39453125,-7.4453125,1.3671875,1.0
4832545,,,,,,,,-0.61328125,2.28125,-0.05078125,0.1484375,0.40625,0.181640625,0.39453125,-7.14453125,1.17578125,1.0
4832546,,,,,,,,-0.60546875,2.36328125,-0.10546875,0.126953125,0.404296875,0.18359375,0.39453125,-7.06640625,1.13671875,1.0
4832547,,,,,,,,-0.3828125,2.5234375,-0.23828125,0.083984375,0.3984375,0.18359375,0.5859375,-6.9140625,1.01953125,1.0
4832548,,,,,,,,-0.17578125,2.71484375,-0.3203125,0.044921875,0.3984375,0.18359375,0.77734375,-6.72265625,0.9453125,1.0
4832549,,,,,,,,0.15234375,2.5234375,-0.25390625,0.029296875,0.41796875,0.171875,1.08203125,-6.9140625,1.01953125,1.0
4832550,36.013431999999995,129.319579,88.25527931431286,114.51037912302401,1.1,194.0,,0.375,2.48046875,-0.26953125,0.029296875,0.423828125,0.154296875,1.2734375,-6.94921875,1.01953125,1.0
4832551,,,,,,,,0.69921875,2.2578125,-0.3515625,0.017578125,0.453125,0.134765625,1.58203125,-7.1796875,0.9453125,1.0
4832552,,,,,,,,0.75,2.140625,-0.27734375,0.029296875,0.4765625,0.119140625,1.6171875,-7.296875,1.01953125,1.0
4832553,,,,,,,,0.921875,1.94921875,-0.28515625,0.037109375,0.501953125,0.072265625,1.7734375,-7.484375,1.01953125,1.0
4832554,,,,,,,,0.9453125,1.71875,-0.33984375,0.0546875,0.515625,0.001953125,1.7734375,-7.71875,0.98046875,1.0
4832555,,,,,,,,0.828125,1.21484375,-0.36328125,0.068359375,0.55859375,-0.068359375,1.65625,-8.2109375,0.98046875,1.0
4832556,,,,,,,,0.63671875,1.13671875,-0.4453125,0.076171875,0.572265625,-0.080078125,1.46484375,-8.2890625,0.90625,1.0
4832557,,,,,,,,0.30078125,0.9375,-0.5390625,0.083984375,0.619140625,-0.083984375,1.12109375,-8.484375,0.828125,1.0
4832558,,,,,,,,0.0703125,0.70703125,-0.5078125,0.1015625,0.65234375,-0.076171875,0.890625,-8.71484375,0.8671875,1.0
4832559,,,,,,,,0.078125,0.59375,-0.4375,0.107421875,0.662109375,-0.078125,0.890625,-8.828125,0.9453125,1.0
4832560,36.01343133333333,129.31957866666667,88.22523059283158,114.43640598844271,1.0,198.0,,0.1171875,0.39453125,-0.42578125,0.111328125,0.662109375,-0.076171875,0.9296875,-9.01953125,0.98046875,1.0
4832561,,,,,,,,0.23046875,0.2421875,-0.36328125,0.1328125,0.646484375,-0.07421875,1.04296875,-9.17578125,1.05859375,1.0
4832562,,,,,,,,0.30859375,0.2421875,-0.30078125,0.13671875,0.625,-0.0703125,1.12109375,-9.171875,1.13671875,1.0
4832563,,,,,,,,0.24609375,0.30859375,-0.36328125,0.177734375,0.59765625,-0.072265625,1.04296875,-9.09765625,1.09765625,1.0
4832564,,,,,,,,0.1328125,0.53125,-0.38671875,0.208984375,0.5859375,-0.068359375,0.9296875,-8.8671875,1.09765625,1.0
4832565,,,,,,,,0.1328125,0.75390625,-0.46484375,0.234375,0.556640625,-0.0703125,0.9296875,-8.63671875,1.05859375,1.0
4832566,,,,,,,,0.140625,0.75390625,-0.51953125,0.228515625,0.533203125,-0.06640625,0.9296875,-8.63671875,1.01953125,1.0
4832567,,,,,,,,-0.08984375,0.4765625,-0.42578125,0.201171875,0.5078125,-0.05078125,0.69921875,-8.90625,1.13671875,1.0
4832568,,,,,,,,-0.1953125,0.28515625,-0.3359375,0.169921875,0.482421875,-0.029296875,0.5859375,-9.09375,1.25,1.0
4832569,,,,,,,,-0.2734375,0.1640625,-0.2265625,0.15234375,0.46875,-0.01953125,0.5078125,-9.2109375,1.3671875,1.0
4832570,36.0134305,129.31957816666667,88.18015732172807,114.34393949537167,1.1,198.0,,-0.15234375,-0.10546875,-0.05078125,0.111328125,0.662109375,-0.076171875,0.9296875,-9.01953125,0.98046875,1.0
4832571,,,,,,,,0.171875,-0.10546875,-0.11328125,0.064453125,0.34765625,0.015625,0.9296875,-9.48046875,1.51953125,1.0
4832572,,,,,,,,0.33203125,-0.11328125,-0.16015625,0.00390625,0.298828125,0.0234375,1.08203125,-9.48046875,1.48046875,1.0
4832573,,,,,,,,0.41796875,-0.1875,-0.19921875,-0.06640625,0.24609375,0.017578125,1.16015625,-9.5546875,1.44140625,1.0
4832574,,,,,,,,0.30078125,-0.33984375,-0.10546875,-0.15234375,0.1875,0.00390625,1.04296875,-9.70703125,1.51953125,1.0
4832575,,,,,,,,0.234375,-0.3046875,-0.08984375,-0.212890625,0.134765625,-0.001953125,0.96875,-9.67578125,1.51953125,1.0
4832576,,,,,,,,0.38671875,-0.06640625,-0.15234375,-0.2734375,0.125,0.001953125,1.12109375,-9.44140625,1.44140625,1.0
4832577,,,,,,,,0.6640625,-0.06640625,-0.12109375,-0.35546875,0.1484375,0.025390625,1.390625,-9.4375,1.44140625,1.0
4832578,,,,,,,,1.046875,-0.9375,-0.00390625,-0.478515625,0.220703125,0.04296875,1.7734375,-10.32421875,1.51953125,1.0
4832579,,,,,,,,1.12890625,-2.04296875,0.04296875,-0.662109375,0.28125,0.0625,1.84765625,-11.4296875,1.51953125,1.0
4832580,36.0134295,129.3195773333333,88.10503476700161,114.23297949233009,1.2000000000000002,203.0,,1.3359375,-3.03125,0.44921875,-0.822265625,0.267578125,0.0703125,2.0390625,-12.43359375,1.86328125,1.0
4832581,,,,,,,,1.27734375,-2.70703125,0.94921875,-0.83203125,0.28515625,0.05078125,1.96484375,-12.1171875,2.28515625,1.0
4832582,,,,,,,,1.0546875,-2.44140625,1.36328125,-0.763671875,0.357421875,0.02734375,1.734375,-11.8515625,2.66796875,1.0
4832583,,,,,,,,0.51953125,-3.19140625,1.51171875,-0.673828125,0.501953125,-0.001953125,1.19921875,-12.62109375,2.74609375,1.0
4832584,,,,,,,,0.1796875,-3.87890625,1.38671875,-0.68359375,0.529296875,0.0078125,0.8515625,-13.30859375,2.58984375,1.0
4832585,,,,,,,,-0.73046875,-4.75390625,1.56640625,-0.767578125,0.462890625,0.013671875,-0.06640625,-14.19140625,2.70703125,1.0
4832586,,,,,,,,-1.0,-3.3671875,2.203125,-0.583984375,0.51171875,-0.0078125,-0.3359375,-12.8125,3.28125,1.0
4832587,,,,,,,,-0.875,-1.3671875,1.65234375,-0.33203125,0.58984375,-0.01953125,-0.21875,-10.8203125,2.70703125,1.0
4832588,,,,,,,,-0.83984375,-0.984375,1.5,0.080078125,0.84375,-0.0078125,-0.10546875,-10.74609375,2.78125,1.0
4832589,,,,,,,,-0.76171875,-1.2890625,1.71875,-0.001953125,0.919921875,0.025390625,0.31640625,-11.390625,3.28125,1.0
4832590,36.0134285,129.31957683333334,88.05996168319285,114.1220197907318,1.1,202.0,,1.3359375,-3.03125,0.44921875,0.130859375,1.076171875,-0.064453125,1.390625,-11.47265625,3.43359375,1.0
4832591,,,,,,,,0.88671875,-1.47265625,2.21875,0.294921875,1.166015625,-0.125,1.50390625,-10.9296875,3.3203125,1.0
4832592,,,,,,,,0.734375,-0.82421875,1.83984375,0.404296875,1.1953125,-0.20703125,1.3515625,-10.28515625,2.97265625,1.0
4832593,,,,,,,,0.2421875,0.09765625,1.6328125,0.4453125,1.212890625,-0.291015625,0.8515625,-9.36328125,2.8203125,1.0
4832594,,,,,,,,-0.5390625,0.47265625,1.6640625,0.404296875,1.193359375,-0.34765625,0.0859375,-8.98046875,2.8984375,1.0
4832595,,,,,,,,-1.16796875,0.46484375,1.6171875,0.322265625,1.109375,-0.36328125,-0.52734375,-8.98046875,2.8984375,1.0
4832596,,,,,,,,-1.265625,0.50390625,1.4921875,0.283203125,1.046875,-0.37109375,-0.6015625,-8.9375,2.8203125,1.0
4832597,,,,,,,,-1.453125,0.6875,1.1015625,0.24609375,0.9375,-0.3671875,-0.7578125,-8.75,2.4765625,1.0
4832598,,,,,,,,-1.3984375,1.13671875,0.71875,0.23046875,0.916015625,-0.341796875,-0.6796875,-8.29296875,2.1328125,1.0
4832599,,,,,,,,-1.4140625,1.3203125,0.5390625,0.208984375,0.90234375,-0.30859375,-0.6796875,-8.1015625,1.9765625,1.0
4832600,36.01342733333333,129.31957633333334,88.0148887813712,113.99256688068496,1.2000000000000002,199.0,0.0,-1.27734375,1.7421875,0.2734375,0.177734375,0.8828125,-0.271484375,-0.52734375,-7.68359375,1.75,1.0
4832601,,,,,,,,-1.0234375,2.08203125,0.078125,0.134765625,0.8203125,-0.259765625,-0.2578125,-7.33203125,1.59375,1.0
4832602,,,,,,,,-0.95703125,2.15625,0.0703125,0.125,0.783203125,-0.265625,-0.18359375,-7.2578125,1.59375,1.0
4832603,,,,,,,,-0.89453125,2.30078125,-0.09765625,0.09765625,0.71484375,-0.271484375,-0.10546875,-7.1015625,1.44140625,1.0
4832604,,,,,,,,-0.90234375,2.30078125,-0.10546875,0.087890625,0.666015625,-0.28125,-0.14453125,-7.1015625,1.40234375,1.0
4832605,,,,,,,,-0.99609375,2.30078125,-0.203125,0.09375,0.6328125,-0.27734375,-0.375,-7.1015625,1.328125,1.0
4832606,,,,,,,,-1.30859375,2.265625,-0.2890625,0.099609375,0.623046875,-0.2734375,-0.48828125,-7.14453125,1.2890625,1.0
4832607,,,,,,,,-1.546875,2.30078125,-0.41796875,0.111328125,0.59765625,-0.259765625,-0.71875,-7.1015625,1.17578125,1.0
4832608,,,,,,,,-1.71484375,2.1328125,-0.63671875,0.1171875,0.578125,-0.24609375,-0.87109375,-7.26171875,0.98046875,1.0
4832609,,,,,,,,-1.80859375,1.7421875,-0.8125,0.091796875,0.521484375,-0.197265625,-0.94921875,-7.640625,0.828125,1.0
4832610,36.01342666666667,129.31957583333332,87.96981531825874,113.91859359601466,1.1,201.0,,-1.73046875,1.50390625,-0.8671875,0.0703125,0.48046875,-0.154296875,-0.87109375,-7.87109375,0.7890625,1.0
4832611,,,,,,,,-1.35546875,1.12109375,-0.7265625,0.060546875,0.431640625,-0.115234375,-0.48828125,-8.25390625,0.9453125,1.0
4832612,,,,,,,,-1.25,1.046875,-0.65234375,0.052734375,0.40625,-0.10546875,-0.375,-8.328125,1.01953125,1.0
4832613,,,,,,,,-1.05859375,1.046875,-0.50390625,0.0625,0.34765625,-0.095703125,-0.18359375,-8.328125,1.17578125,1.0
4832614,,,,,,,,-1.0859375,1.3046875,-0.56640625,0.142578125,0.3125,-0.08984375,-0.21875,-8.0625,1.13671875,1.0
4832615,,,,,,,,-1.171875,1.3359375,-0.70703125,0.216796875,0.32421875,-0.095703125,-0.296875,-8.02734375,1.01953125,1.0
4832616,,,,,,,,-1.28515625,1.296875,-0.8671875,0.23828125,0.3125,-0.095703125,-0.41015625,-8.06640625,0.8671875,1.0
4832617,,,,,,,,-1.28515625,1.05859375,-0.9375,0.255859375,0.2734375,-0.09375,-0.41015625,-8.2890625,0.828125,1.0
4832618,,,,,,,,-1.2109375,0.74609375,-0.80859375,0.234375,0.220703125,-0.091796875,-0.3359375,-8.59765625,0.98046875,1.0
4832619,,,,,,,,-1.1328125,0.74609375,-0.78515625,0.232421875,0.205078125,-0.095703125,-0.2578125,-8.59375,1.01953125,1.0
4832620,36.013425999999995,129.31957516666668,87.9097171274379,113.84462016028142,1.0,205.0,,-1.01953125,0.5,-0.74609375,0.0703125,0.48046875,-0.154296875,-0.14453125,-8.83203125,1.09765625,1.0
4832621,,,,,,,,-1.05859375,0.34765625,-0.69140625,0.23828125,0.15625,-0.087890625,-0.18359375,-8.9765625,1.17578125,1.0
4832622,,,,,,,,-1.1015625,0.22265625,-0.6015625,0.20703125,0.126953125,-0.087890625,-0.2578125,-9.2109375,1.328125,1.0
4832623,,,,,,,,-1.140625,0.0703125,-0.53125,0.193359375,0.107421875,-0.08984375,-0.2578125,-9.25,1.3671875,1.0
4832624,,,,,,,,-1.2265625,-0.13671875,-0.43359375,0.1796875,0.07421875,-0.0859375,-0.3359375,-9.44140625,1.48046875,1.0
4832625,,,,,,,,-1.109375,-0.3671875,-0.45703125,0.130859375,0.03125,-0.076171875,-0.21875,-9.671875,1.48046875,1.0
4832626,,,,,,,,-0.92578125,-0.56640625,-0.39453125,0.08984375,0.0078125,-0.0546875,-0.02734375,-9.86328125,1.55859375,1.0
4832627,,,,,,,,-0.7265625,-0.7578125,-0.2890625,0.03515625,-0.01171875,-0.037109375,0.1640625,-10.0546875,1.671875,1.0
4832628,,,,,,,,-0.7265625,-0.765625,-0.2890625,-0.02734375,-0.01953125,-0.025390625,0.203125,-10.12890625,1.7109375,1.0
4832629,,,,,,,,-0.62109375,-0.87890625,-0.17578125,-0.078125,-0.01171875,-0.01953125,0.31640625,-10.125,1.75,1.0
