time,latitude,longitude,enu_x,enu_y,speed,course,ecg,accX,accY,accZ,gyrX,gyrY,gyrZ,eulR,eulP,eulY,validity
4817850,36.013400833333336,129.319539,84.64937681366615,111.05211369897478,1.2000000000000002,232.0,,-1.15234375,-3.15234375,1.55859375,-0.501953125,0.4609375,0.0546875,-0.56640625,-12.5390625,3.05078125,1.0
4817851,,,,,,,,-1.296875,-1.8828125,1.3671875,-0.24609375,0.470703125,0.02734375,-0.71875,-11.28515625,2.8203125,1.0
4817852,,,,,,,,-1.25,-0.9609375,1.0625,-0.072265625,0.50390625,0.01171875,-0.6796875,-10.36328125,2.515625,1.0
4817853,,,,,,,,-1.171875,-0.42578125,1.09375,0.12890625,0.5859375,0.005859375,-0.6015625,-9.82421875,2.5546875,1.0
4817854,,,,,,,,-1.08984375,-0.30859375,1.23828125,0.14453125,0.625,0.00390625,-0.52734375,-9.70703125,2.70703125,1.0
4817855,,,,,,,,-0.69921875,-0.80859375,1.8359375,0.083984375,0.69921875,-0.001953125,-0.14453125,-10.20703125,3.3203125,1.0
4817856,,,,,,,,0.0,-1.8046875,1.98046875,-0.01171875,0.71484375,-0.033203125,0.546875,-11.203125,3.47265625,1.0
4817857,,,,,,,,0.19921875,-2.07421875,1.98046875,-0.02734375,0.71875,-0.0703125,0.73828125,-11.47265625,3.47265625,1.0
4817858,,,,,,,,0.3125,-2.2578125,2.01953125,0.029296875,0.759765625,-0.115234375,0.8515625,-11.66796875,3.51171875,1.0
4817859,,,,,,,,0.19140625,-1.8359375,1.96484375,0.146484375,0.8203125,-0.173828125,0.73828125,-11.24609375,3.47265625,1.0
4817860,36.01340033333334,129.31953800000002,84.55922891788892,110.99663320541848,1.1,232.0,,-0.62890625,-0.1171875,1.328125,0.328125,0.81640625,-0.3203125,-0.06640625,-9.51953125,2.8984375,1.0
4817861,,,,,,,,-0.9375,-0.1640625,1.05078125,0.232421875,0.7265625,-0.384765625,-0.3359375,-9.55859375,2.66796875,1.0
4817862,,,,,,,,-1.01953125,-0.1328125,0.921875,0.21484375,0.701171875,-0.392578125,-0.41015625,-9.515625,2.5546875,1.0
4817863,,,,,,,,-1.08203125,0.02734375,0.62890625,0.1796875,0.67578125,-0.40234375,-0.44921875,-9.359375,2.28515625,1.0
4817864,,,,,,,,-1.05859375,0.28515625,0.34375,0.18359375,0.673828125,-0.392578125,-0.41015625,-9.09765625,2.015625,1.0
4817865,,,,,,,,-1.0625,0.81640625,0.046875,0.193359375,0.71875,-0.376953125,-0.375,-8.55859375,1.75,1.0
4817866,,,,,,,,-0.9921875,1.19140625,-0.125,0.19921875,0.734375,-0.376953125,-0.296875,-8.171875,1.59375,1.0
4817867,,,,,,,,-0.86328125,1.6953125,-0.453125,0.19921875,0.728515625,-0.380859375,-0.14453125,-7.68359375,1.2890625,1.0
4817868,,,,,,,,-0.75390625,1.95703125,-0.62109375,0.19140625,0.724609375,-0.388671875,-0.02734375,-7.40625,1.13671875,1.0
4817869,,,,,,,,-0.6328125,2.140625,-0.75390625,0.173828125,0.681640625,-0.3984375,0.125,-7.21875,1.01953125,1.0
4817870,36.01339966666667,129.319537,84.46908119496209,110.92265950550791,1.1,230.0,,-0.6796875,2.29296875,-0.84375,0.328125,0.81640625,-0.3203125,-0.06640625,-9.51953125,2.8984375,1.0
4817871,,,,,,,,-0.58203125,2.515625,-0.9453125,0.119140625,0.623046875,-0.447265625,0.23828125,-6.8359375,0.8671875,1.0
4817872,,,,,,,,-0.71875,2.4375,-1.08984375,0.111328125,0.611328125,-0.453125,0.125,-6.91796875,0.75390625,1.0
4817873,,,,,,,,-0.8125,2.35546875,-1.13671875,0.109375,0.609375,-0.458984375,0.046875,-6.98828125,0.71484375,1.0
4817874,,,,,,,,-1.03515625,2.15625,-1.19140625,0.1171875,0.609375,-0.44921875,-0.14453125,-7.18359375,0.67578125,1.0
4817875,,,,,,,,-1.2578125,1.95703125,-1.20703125,0.0859375,0.611328125,-0.4375,-0.3359375,-7.37109375,0.67578125,1.0
4817876,,,,,,,,-1.43359375,1.83203125,-1.22265625,0.06640625,0.583984375,-0.412109375,-0.48828125,-7.48828125,0.67578125,1.0
4817877,,,,,,,,-1.5859375,1.55859375,-1.23828125,0.091796875,0.556640625,-0.35546875,-0.6015625,-7.75390625,0.67578125,1.0
4817878,,,,,,,,-1.640625,1.3671875,-1.20703125,0.09375,0.55078125,-0.34765625,-0.640625,-7.9453125,0.71484375,1.0
4817879,,,,,,,,-1.6953125,1.05078125,-1.1484375,0.095703125,0.515625,-0.306640625,-0.6796875,-8.25390625,0.7890625,1.0
4817880,36.01339933333334,129.319536,84.37893311791825,110.88567222344324,0.9,232.0,,-1.7421875,0.78515625,-1.1171875,0.328125,0.81640625,-0.3203125,-0.06640625,-9.51953125,2.8984375,1.0
4817881,,,,,,,,-1.71875,0.546875,-0.98046875,0.064453125,0.423828125,-0.24609375,-0.6796875,-8.75,0.98046875,1.0
4817882,,,,,,,,-1.6875,0.546875,-0.94921875,0.052734375,0.40234375,-0.23828125,-0.640625,-8.75390625,1.01953125,1.0
4817883,,,,,,,,-1.58984375,0.60546875,-0.83203125,0.07421875,0.361328125,-0.224609375,-0.52734375,-8.671875,1.13671875,1.0
4817884,,,,,,,,-1.55859375,0.60546875,-0.80078125,0.08984375,0.34375,-0.220703125,-0.48828125,-8.67578125,1.17578125,1.0
4817885,,,,,,,,-1.4609375,0.72265625,-0.93359375,0.146484375,0.3125,-0.21875,-0.375,-8.55859375,1.05859375,1.0
4817886,,,,,,,,-1.4453125,0.78125,-1.26171875,0.185546875,0.2890625,-0.228515625,-0.3359375,-8.48828125,0.75390625,1.0
4817887,,,,,,,,-1.375,0.73828125,-1.29296875,0.162109375,0.24609375,-0.232421875,-0.2578125,-8.515625,0.75390625,1.0
4817888,,,,,,,,-1.24609375,0.8046875,-1.1640625,0.14453125,0.185546875,-0.240234375,-0.10546875,-8.4453125,0.90625,1.0
4817889,,,,,,,,-1.26171875,0.69140625,-1.09765625,0.14453125,0.171875,-0.2421875,-0.10546875,-8.55859375,0.98046875,1.0
4817890,36.013399166666666,129.319535,84.28878486429112,110.86717814873157,0.9,238.0,,-1.28515625,0.28515625,-1.04296875,0.115234375,0.154296875,-0.25,-0.10546875,-8.94140625,1.05859375,1.0
4817891,,,,,,,,-1.26171875,-0.17578125,-0.8984375,0.0703125,0.130859375,-0.26171875,-0.06640625,-9.3984375,1.2109375,1.0
4817892,,,,,,,,-1.27734375,-0.375,-0.78125,0.017578125,0.09765625,-0.265625,-0.06640625,-9.59765625,1.328125,1.0
4817893,,,,,,,,-1.2265625,-0.60546875,-0.55859375,-0.009765625,0.072265625,-0.271484375,0.0078125,-9.8203125,1.55859375,1.0
4817894,,,,,,,,-1.25,-0.69140625,-0.5234375,-0.009765625,0.048828125,-0.275390625,0.0078125,-9.90234375,1.59375,1.0
4817895,,,,,,,,-1.2421875,-0.95703125,-0.70703125,-0.060546875,0.03125,-0.27734375,0.046875,-10.1640625,1.40234375,1.0
4817896,,,,,,,,-0.8828125,-1.01171875,-0.8125,-0.125,0.0078125,-0.26953125,0.4296875,-10.203125,1.2890625,1.0
4817897,,,,,,,,-0.71484375,-0.96484375,-0.828125,-0.20703125,-0.005859375,-0.267578125,0.62109375,-10.16796875,1.25,1.0
4817898,,,,,,,,-0.5078125,-0.8125,-0.6875,-0.275390625,0.021484375,-0.2578125,0.8515625,-10.01953125,1.3671875,1.0
4817899,,,,,,,,-0.59765625,-0.46875,-0.62890625,-0.3203125,0.052734375,-0.25,0.77734375,-9.67578125,1.40234375,1.0
4817900,36.01339883333333,129.3195335,84.15356256777099,110.8301904361428,1.2000000000000002,246.0,0.0,-0.8515625,-0.078125,-0.734375,-0.37890625,0.07421875,-0.232421875,0.546875,-9.29296875,1.25,1.0
4817901,,,,,,,,-1.01953125,0.15234375,-0.6953125,-0.4296875,0.064453125,-0.20703125,0.39453125,-9.05859375,1.25,1.0
4817902,,,,,,,,-1.18359375,0.0859375,-0.640625,-0.46875,0.052734375,-0.203125,0.23828125,-9.1328125,1.2890625,1.0
4817903,,,,,,,,-1.12890625,-0.7421875,-0.6015625,-0.654296875,-0.033203125,-0.150390625,0.31640625,-9.98046875,1.25,1.0
4817904,,,,,,,,-0.37890625,-1.84765625,0.39453125,-0.79296875,-0.130859375,-0.1171875,1.08203125,-11.08984375,2.16796875,1.0
4817905,,,,,,,,0.2265625,-2.75,1.01953125,-0.90234375,-0.234375,-0.06640625,1.6953125,-12.01171875,2.66796875,1.0
4817906,,,,,,,,1.1015625,-4.42578125,1.296875,-0.939453125,-0.23828125,-0.05078125,2.578125,-13.6875,2.8984375,1.0
4817907,,,,,,,,2.44140625,-6.01953125,1.4296875,-1.060546875,-0.1953125,-0.021484375,3.91796875,-15.30078125,2.9375,1.0
4817908,,,,,,,,4.73046875,-5.23828125,2.34375,-1.109375,-0.158203125,-0.044921875,6.21484375,-14.53125,3.7421875,1.0
4817909,,,,,,,,5.23046875,-4.11328125,2.58203125,-0.994140625,-0.091796875,-0.08984375,6.71484375,-13.421875,3.93359375,1.0
4817910,36.01339866666667,129.31953216666668,84.03336483347854,110.811696077354,1.1,251.0,,3.8359375,-1.61328125,2.56640625,-0.37890625,0.07421875,-0.232421875,5.3359375,-10.9296875,3.85546875,1.0
4817911,,,,,,,,1.4140625,-1.34765625,1.9296875,0.017578125,0.48828125,-0.291015625,2.921875,-10.6640625,3.203125,1.0
4817912,,,,,,,,-0.52734375,-2.08203125,2.26171875,0.1875,0.40625,-0.337890625,1.00390625,-11.39453125,3.55078125,1.0
4817913,,,,,,,,-1.015625,-2.43359375,2.50390625,0.25,0.220703125,-0.330078125,0.546875,-11.73828125,3.81640625,1.0
4817914,,,,,,,,-1.0,-1.9375,2.2734375,0.310546875,0.041015625,-0.265625,0.5859375,-11.2421875,3.625,1.0
4817915,,,,,,,,-0.6796875,-0.87890625,1.65234375,0.443359375,0.05078125,-0.09375,0.9296875,-10.16796875,3.05078125,1.0
4817916,,,,,,,,-0.71875,-0.49609375,1.3984375,0.47265625,0.123046875,-0.0234375,0.890625,-9.78125,2.8203125,1.0
4817917,,,,,,,,-1.24609375,0.76953125,0.96875,0.466796875,0.25390625,0.107421875,0.35546875,-8.515625,2.4375,1.0
4817918,,,,,,,,-1.22265625,1.07421875,0.69140625,0.376953125,0.2890625,0.228515625,0.35546875,-8.21484375,2.20703125,1.0
4817919,,,,,,,,-0.734375,1.11328125,0.4296875,0.224609375,0.171875,0.291015625,0.8125,-8.17578125,1.9765625,1.0
4817920,36.0133985,129.31953066666668,83.89814236050886,110.79320157749896,1.2000000000000002,254.0,,-0.2109375,1.04296875,0.4140625,-0.37890625,0.07421875,-0.232421875,1.3125,-8.25,1.9765625,1.0
4817921,,,,,,,,0.125,1.00390625,0.453125,-0.064453125,-0.072265625,0.30078125,1.6171875,-8.2890625,2.015625,1.0
4817922,,,,,,,,0.1796875,1.12890625,0.38671875,-0.08984375,-0.068359375,0.30078125,1.65625,-8.17578125,1.94140625,1.0
4817923,,,,,,,,0.10546875,1.51953125,0.203125,-0.06640625,-0.001953125,0.28515625,1.54296875,-7.79296875,1.75,1.0
4817924,,,,,,,,-0.0078125,1.87109375,0.046875,-0.02734375,0.0390625,0.27734375,1.390625,-7.44921875,1.59375,1.0
4817925,,,,,,,,0.0234375,2.26171875,-0.1796875,0.0,0.056640625,0.25390625,1.390625,-7.06640625,1.3671875,1.0
4817926,,,,,,,,0.19140625,2.4140625,-0.2578125,0.009765625,0.05859375,0.25390625,1.54296875,-6.9140625,1.2890625,1.0
4817927,,,,,,,,0.48046875,2.61328125,-0.3359375,0.01171875,0.068359375,0.2421875,1.80859375,-6.72265625,1.2109375,1.0
4817928,,,,,,,,0.92578125,2.38671875,-0.6015625,0.01171875,0.091796875,0.21875,2.23046875,-6.94921875,0.9453125,1.0
4817929,,,,,,,,1.01171875,2.34765625,-0.6484375,0.009765625,0.109375,0.201171875,2.30859375,-6.984375,0.90625,1.0
4817930,36.0133985,129.31952950000002,83.79296918782308,110.79320057347145,1.1,256.0,,1.15625,2.27734375,-0.7265625,-0.37890625,0.07421875,-0.232421875,2.421875,-7.0625,0.828125,1.0
4817931,,,,,,,,1.1796875,2.0859375,-0.734375,-0.0390625,0.263671875,0.140625,2.421875,-7.2578125,0.828125,1.0
4817932,,,,,,,,1.1953125,1.81640625,-0.7265625,-0.0390625,0.33203125,0.11328125,2.421875,-7.52734375,0.828125,1.0
4817933,,,,,,,,1.21875,1.7109375,-0.734375,-0.03515625,0.388671875,0.0625,2.421875,-7.64453125,0.828125,1.0
4817934,,,,,,,,1.19140625,1.47265625,-0.6953125,-0.033203125,0.427734375,0.04296875,2.38671875,-7.87109375,0.8671875,1.0
4817935,,,,,,,,0.859375,1.12890625,-0.6953125,-0.0234375,0.458984375,0.01171875,2.0390625,-8.21484375,0.8671875,1.0
4817936,,,,,,,,0.74609375,1.05078125,-0.734375,-0.013671875,0.470703125,0.00390625,1.92578125,-8.29296875,0.828125,1.0
4817937,,,,,,,,0.484375,1.015625,-0.703125,0.005859375,0.501953125,-0.005859375,1.65625,-8.33203125,0.8671875,1.0
4817938,,,,,,,,0.26171875,1.015625,-0.7109375,0.0390625,0.5390625,-0.005859375,1.42578125,-8.33203125,0.8671875,1.0
4817939,,,,,,,,0.15625,0.9765625,-0.60546875,0.056640625,0.552734375,0.001953125,1.3125,-8.37109375,0.98046875,1.0
4817940,36.01339816666667,129.31952816666666,83.67277162638442,110.75621301184302,1.1,254.0,,0.0859375,0.9375,-0.6953125,0.087890625,0.525390625,0.01953125,1.234375,-8.41015625,0.90625,1.0
4817941,,,,,,,,0.29296875,0.8515625,-0.90234375,0.091796875,0.46875,0.03125,1.42578125,-8.484375,0.71484375,1.0
4817942,,,,,,,,0.33984375,0.8515625,-0.98828125,0.09375,0.44140625,0.037109375,1.46484375,-8.48828125,0.63671875,1.0
4817943,,,,,,,,0.38671875,0.84375,-1.0703125,0.078125,0.40234375,0.03515625,1.50390625,-8.48828125,0.5625,1.0
4817944,,,,,,,,0.43359375,0.80859375,-1.1171875,0.07421875,0.390625,0.03125,1.54296875,-8.51953125,0.5234375,1.0
4817945,,,,,,,,0.48046875,0.69140625,-0.98046875,0.0390625,0.392578125,0.029296875,1.58203125,-8.6328125,0.67578125,1.0
4817946,,,,,,,,0.5390625,0.38671875,-0.796875,-0.005859375,0.400390625,0.037109375,1.6171875,-8.94140625,0.8671875,1.0
4817947,,,,,,,,0.5390625,0.30859375,-0.796875,-0.013671875,0.404296875,0.03515625,1.6171875,-9.015625,0.8671875,1.0
4817948,,,,,,,,0.43359375,0.1484375,-0.71875,-0.0234375,0.419921875,0.04296875,1.50390625,-9.171875,0.9453125,1.0
4817949,,,,,,,,0.36328125,0.109375,-0.71875,-0.02734375,0.4296875,0.052734375,1.42578125,-9.2109375,0.9453125,1.0
4817950,36.013397833333336,129.31952683333333,83.55257406635585,110.71922545165893,1.1,253.0,,0.3125,0.1171875,-0.7265625,-0.025390625,0.462890625,0.052734375,1.3515625,-9.21484375,0.9453125,1.0
4817951,,,,,,,,0.28125,0.1171875,-0.69140625,-0.037109375,0.482421875,0.060546875,1.3125,-9.21484375,0.98046875,1.0
4817952,,,,,,,,0.21875,0.1484375,-0.60546875,-0.0859375,0.478515625,0.060546875,1.234375,-9.171875,1.05859375,1.0
4817953,,,,,,,,0.2734375,0.078125,-0.63671875,-0.13671875,0.46484375,0.064453125,1.2734375,-9.25390625,1.01953125,1.0
4817954,,,,,,,,0.359375,-0.15234375,-0.703125,-0.197265625,0.4296875,0.052734375,1.3515625,-9.48046875,0.9453125,1.0
4817955,,,,,,,,0.3359375,-0.37890625,-0.65234375,-0.271484375,0.38671875,0.033203125,1.3125,-9.703125,0.98046875,1.0
4817956,,,,,,,,0.296875,-0.56640625,-0.63671875,-0.30859375,0.373046875,0.029296875,1.2734375,-9.90234375,0.98046875,1.0
4817957,,,,,,,,0.3046875,-0.48828125,-0.45703125,-0.365234375,0.369140625,0.001953125,1.2734375,-9.8203125,1.13671875,1.0
4817958,,,,,,,,0.84765625,-0.71875,-0.07421875,-0.392578125,0.3828125,-0.001953125,1.80859375,-10.05859375,1.48046875,1.0
4817959,,,,,,,,1.078125,-1.62890625,-0.15625,-0.453125,0.40625,0.00390625,2.0390625,-10.96875,1.3671875,1.0
4817960,36.013397499999996,129.3195255,83.43237650511612,110.68223789238922,1.1,252.0,,1.125,-2.9609375,-0.2265625,-0.025390625,0.462890625,0.052734375,2.078125,-12.3125,1.25,1.0
4817961,,,,,,,,0.98828125,-3.3359375,0.1796875,-0.759765625,0.34765625,0.025390625,1.92578125,-12.6953125,1.59375,1.0
4817962,,,,,,,,0.296875,-3.55859375,1.09375,-0.740234375,0.388671875,-0.0234375,1.234375,-12.921875,2.4375,1.0
4817963,,,,,,,,-0.31640625,-4.5078125,1.9140625,-0.65234375,0.544921875,-0.046875,0.62109375,-13.88671875,3.203125,1.0
4817964,,,,,,,,-1.42578125,-5.57421875,2.359375,-0.65234375,0.59375,-0.017578125,-0.48828125,-14.953125,3.5859375,1.0
4817965,,,,,,,,-1.9609375,-4.1484375,2.953125,-0.634765625,0.4609375,0.001953125,-1.0234375,-13.5390625,4.125,1.0
4817966,,,,,,,,-1.9140625,-2.37109375,2.453125,-0.216796875,0.4296875,-0.03125,-0.984375,-11.7734375,3.5859375,1.0
4817967,,,,,,,,-1.140625,-1.10546875,1.8046875,0.1328125,0.458984375,-0.01171875,-0.21875,-10.51171875,2.9375,1.0
4817968,,,,,,,,-0.52734375,-1.26171875,1.85546875,0.083984375,0.5546875,0.0234375,0.73828125,-10.93359375,3.2421875,1.0
4817969,,,,,,,,0.59765625,-2.1015625,2.46875,-0.107421875,0.673828125,0.03125,1.50390625,-11.5078125,3.625,1.0
4817970,36.013397166666664,129.31952416666667,83.31217894296034,110.64525033499902,1.1,251.0,,1.140625,-2.41015625,2.5859375,-0.025390625,0.462890625,0.052734375,2.0390625,-11.81640625,3.7421875,1.0
4817971,,,,,,,,1.1484375,-2.1328125,2.31640625,-0.072265625,0.85546875,-0.048828125,2.0390625,-11.55078125,3.47265625,1.0
4817972,,,,,,,,0.71875,-0.984375,1.6953125,0.080078125,0.853515625,-0.158203125,1.6171875,-10.40234375,2.859375,1.0
4817973,,,,,,,,0.55859375,-0.79296875,1.609375,0.109375,0.87890625,-0.20703125,1.46484375,-10.203125,2.78125,1.0
4817974,,,,,,,,-0.0234375,-0.48828125,1.6328125,0.095703125,0.9609375,-0.291015625,0.890625,-9.8984375,2.8203125,1.0
4817975,,,,,,,,-0.53515625,-0.6015625,1.76171875,0.0234375,1.03515625,-0.33984375,0.39453125,-10.01953125,2.97265625,1.0
4817976,,,,,,,,-1.09765625,-0.75390625,1.83203125,-0.025390625,1.013671875,-0.330078125,-0.14453125,-10.1640625,3.05078125,1.0
4817977,,,,,,,,-1.2265625,-0.640625,1.5546875,-0.03515625,0.9375,-0.31640625,-0.2578125,-10.0546875,2.78125,1.0
4817978,,,,,,,,-1.203125,-0.1796875,1.203125,-0.01171875,0.892578125,-0.294921875,-0.21875,-9.59375,2.4375,1.0
4817979,,,,,,,,-1.3046875,0.5,0.69140625,0.013671875,0.90625,-0.279296875,-0.296875,-8.90625,1.94140625,1.0
4817980,36.01339683333333,129.319523,83.20700612099135,110.60826292148715,1.1,252.0,,-1.19921875,1.27734375,0.328125,-0.025390625,0.462890625,0.052734375,-0.18359375,-8.1328125,1.59375,1.0
4817981,,,,,,,,-1.0234375,1.53515625,0.23828125,-0.0234375,0.880859375,-0.244140625,0.0078125,-7.87109375,1.51953125,1.0
4817982,,,,,,,,-0.8359375,1.91796875,0.0859375,-0.025390625,0.86328125,-0.23828125,0.203125,-7.48828125,1.3671875,1.0
4817983,,,,,,,,-0.6328125,2.37890625,-0.19921875,-0.02734375,0.7890625,-0.27734375,0.4296875,-7.02734375,1.09765625,1.0
4817984,,,,,,,,-0.6484375,2.45703125,-0.23828125,-0.021484375,0.771484375,-0.283203125,0.4296875,-6.94921875,1.05859375,1.0
4817985,,,,,,,,-0.81640625,2.609375,-0.484375,-0.001953125,0.7421875,-0.30078125,0.27734375,-6.80078125,0.828125,1.0
4817986,,,,,,,,-1.13671875,2.5703125,-0.796875,0.001953125,0.712890625,-0.30078125,-0.02734375,-6.8359375,0.5234375,1.0
4817987,,,,,,,,-1.26171875,2.4921875,-0.8359375,0.0078125,0.70703125,-0.29296875,-0.14453125,-6.9140625,0.484375,1.0
4817988,,,,,,,,-1.70703125,2.32421875,-0.8984375,0.017578125,0.705078125,-0.26171875,-0.56640625,-7.0625,0.4453125,1.0
4817989,,,,,,,,-1.90625,2.25,-0.7890625,0.021484375,0.701171875,-0.251953125,-0.7578125,-7.140625,0.5625,1.0
4817990,36.01339666666667,129.31952199999998,83.11685785751376,110.58976886114269,1.0,252.0,,-2.1484375,2.09375,-0.796875,-0.025390625,0.462890625,0.052734375,-0.18359375,-8.1328125,1.59375,1.0
4817991,,,,,,,,-2.3125,1.94140625,-0.77734375,0.0234375,0.619140625,-0.169921875,-1.140625,-7.4453125,0.59765625,1.0
4817992,,,,,,,,-2.3203125,1.7109375,-0.859375,0.017578125,0.55078125,-0.091796875,-1.140625,-7.79296875,0.5625,1.0
4817993,,,,,,,,-2.3125,1.58984375,-0.828125,0.017578125,0.52734375,-0.064453125,-1.0234375,-7.87109375,0.63671875,1.0
4817994,,,,,,,,-2.11328125,1.4375,-0.72265625,0.001953125,0.439453125,-0.009765625,-0.83203125,-8.02734375,0.75390625,1.0
4817995,,,,,,,,-1.95703125,1.28125,-0.578125,0.001953125,0.376953125,0.0078125,-0.71875,-8.1328125,0.8671875,1.0
4817996,,,,,,,,-1.75,1.16015625,-0.625,0.01171875,0.3203125,0.013671875,-0.48828125,-8.25390625,0.75390625,1.0
4817997,,,,,,,,-1.515625,1.08203125,-0.625,0.04296875,0.27734375,0.015625,-0.375,-8.2890625,0.828125,1.0
4817998,,,,,,,,-1.515625,1.08203125,-0.59375,0.0625,0.2578125,0.0078125,-0.2578125,-8.2890625,0.7890625,1.0
4817999,,,,,,,,-1.3515625,1.12109375,-0.71484375,0.0859375,0.23828125,-0.0078125,-0.2578125,-8.2109375,0.67578125,1.0
4818000,36.0133965,129.3195208333333,83.0116848572597,110.57127465759558,1.0,255.0,0.0,-2.1484375,2.09375,-0.796875,-0.025390625,0.462890625,0.052734375,-0.21875,-8.25390625,0.5625,1.0
4818001,,,,,,,,-1.34375,1.15234375,-0.921875,0.095703125,0.18359375,-0.048828125,-0.21875,-8.17578125,0.484375,1.0
4818002,,,,,,,,-1.3359375,1.3046875,-1.015625,0.08203125,0.146484375,-0.083984375,-0.21875,-8.0625,0.4453125,1.0
4818003,,,,,,,,-1.19140625,1.3828125,-1.0625,0.056640625,0.103515625,-0.1171875,-0.06640625,-7.984375,0.40625,1.0
4818004,,,,,,,,-1.125,1.2578125,-1.14453125,0.017578125,0.060546875,-0.150390625,0.0078125,-8.1015625,0.33203125,1.0
4818005,,,,,,,,-1.0546875,0.8671875,-1.26171875,-0.044921875,0.029296875,-0.169921875,0.0859375,-8.48828125,0.21484375,1.0
4818006,,,,,,,,-1.0234375,0.68359375,-1.22265625,-0.0859375,0.01953125,-0.1796875,0.125,-8.671875,0.25390625,1.0
4818007,,,,,,,,-0.953125,-0.05078125,-1.22265625,-0.1640625,0.005859375,-0.1875,0.203125,-9.3984375,0.25390625,1.0
4818008,,,,,,,,-0.9765625,-0.5859375,-1.06640625,-0.263671875,-0.0234375,-0.19140625,0.203125,-9.94140625,0.37109375,1.0
4818009,,,,,,,,-0.9921875,-1.3515625,-0.77734375,-0.35546875,-0.044921875,-0.19921875,0.203125,-10.703125,0.63671875,1.0
4818010,36.0133965,129.31951966666665,82.90651168173291,110.57127366449151,1.0,260.0,,-0.71875,-1.54296875,-0.64453125,-0.025390625,0.462890625,0.052734375,0.5078125,-10.89453125,0.71484375,1.0
4818011,,,,,,,,-0.15234375,-1.54296875,-0.7578125,-0.41015625,-0.033203125,-0.189453125,1.08203125,-10.89453125,0.5625,1.0
4818012,,,,,,,,0.17578125,-1.421875,-0.7890625,-0.390625,0.01953125,-0.17578125,1.42578125,-10.78125,0.484375,1.0
4818013,,,,,,,,0.0078125,-1.15234375,-0.7578125,-0.39453125,0.109375,-0.16796875,1.2734375,-10.5078125,0.484375,1.0
4818014,,,,,,,,-0.4296875,-1.0,-0.7890625,-0.318359375,0.2421875,-0.177734375,0.8515625,-10.36328125,0.40625,1.0
4818015,,,,,,,,-1.25,-0.9609375,-0.6640625,-0.3125,0.25390625,-0.1953125,0.046875,-10.32421875,0.484375,1.0
4818016,,,,,,,,-1.45703125,-1.8828125,-0.74609375,-0.3828125,0.177734375,-0.18359375,-0.14453125,-11.2421875,0.37109375,1.0
4818017,,,,,,,,-1.234375,-2.07421875,-0.71484375,-0.515625,0.056640625,-0.162109375,0.0859375,-11.43359375,0.37109375,1.0
4818018,,,,,,,,-0.859375,-1.64453125,0.03515625,-0.603515625,-0.02734375,-0.142578125,0.46875,-11.01171875,1.05859375,1.0
4818019,,,,,,,,-0.56640625,-2.203125,0.61328125,-0.59375,0.013671875,-0.09375,0.77734375,-11.58984375,1.55859375,1.0
4818020,36.01339666666667,129.31951833333332,82.78631359297671,110.5897657400406,1.0,266.0,,-0.18359375,-3.3515625,0.828125,-0.693359375,0.0390625,-0.029296875,1.16015625,-12.734375,1.7109375,1.0
4818021,,,,,,,,0.89453125,-4.41796875,1.09765625,-0.859375,0.01171875,0.015625,2.23046875,-13.80859375,1.90234375,1.0
4818022,,,,,,,,1.1953125,-4.03515625,1.2109375,-0.875,-0.005859375,0.0,2.5390625,-13.421875,1.9765625,1.0
4818023,,,,,,,,1.69140625,-2.4921875,1.28125,-0.619140625,0.083984375,-0.060546875,3.03515625,-11.89453125,1.9765625,1.0
4818024,,,,,,,,1.38671875,-0.73046875,1.4609375,-0.419921875,0.2109375,-0.091796875,2.73046875,-10.12890625,2.1328125,1.0
4818025,,,,,,,,0.95703125,-0.953125,1.94140625,-0.03515625,0.357421875,-0.150390625,2.30859375,-10.359375,2.58984375,1.0
4818026,,,,,,,,0.43359375,-2.1015625,2.28125,0.041015625,0.111328125,-0.189453125,1.80859375,-11.5078125,2.9375,1.0
4818027,,,,,,,,0.3125,-2.265625,2.203125,0.087890625,0.056640625,-0.19140625,1.6953125,-11.6640625,2.859375,1.0
4818028,,,,,,,,0.10546875,-2.02734375,1.95703125,0.1796875,0.029296875,-0.1796875,1.50390625,-11.4296875,2.62890625,1.0
4818029,,,,,,,,0.05859375,-1.796875,1.875,0.212890625,0.060546875,-0.166015625,1.46484375,-11.203125,2.5546875,1.0
4818030,36.013397000000005,129.31951716666666,82.68114006975563,110.62675116480631,1.1,276.0,,0.12109375,-1.11328125,1.58203125,0.265625,0.169921875,-0.13671875,1.54296875,-10.51171875,2.28515625,1.0
4818031,,,,,,,,0.2734375,-0.88671875,1.3125,0.193359375,0.302734375,-0.0546875,1.734375,-10.20703125,1.94140625,1.0
4818032,,,,,,,,0.54296875,-0.80859375,0.953125,0.11328125,0.375,0.013671875,1.96484375,-10.20703125,1.7109375,1.0
4818033,,,,,,,,0.6640625,-0.88671875,0.9375,0.064453125,0.443359375,0.04296875,2.078125,-10.40234375,1.671875,1.0
4818034,,,,,,,,0.59375,-1.18359375,0.8515625,0.03515625,0.455078125,0.052734375,1.84765625,-10.58984375,1.6328125,1.0
4818035,,,,,,,,0.296875,-1.10546875,0.76171875,0.044921875,0.4765625,0.0390625,1.54296875,-10.3984375,1.48046875,1.0
4818036,,,,,,,,0.0,-0.80078125,0.60546875,0.08203125,0.486328125,0.037109375,1.390625,-10.203125,1.40234375,1.0
4818037,,,,,,,,-0.26171875,-0.29296875,0.46875,0.138671875,0.48828125,0.0234375,1.04296875,-9.4375,1.2109375,1.0
4818038,,,,,,,,-0.40625,0.43359375,0.30078125,0.18359375,0.4765625,0.009765625,0.96875,-8.98046875,1.13671875,1.0
4818039,,,,,,,,-0.5625,1.12109375,0.14453125,0.205078125,0.447265625,0.013671875,0.8125,-8.2890625,1.01953125,1.0
4818040,36.013397166666664,129.319516,82.57596672076079,110.64524338403913,1.1,277.0,,-0.66015625,1.54296875,0.0,0.21484375,0.443359375,0.0234375,0.69921875,-7.8671875,0.90625,1.0
4818041,,,,,,,,-0.73046875,1.88671875,-0.140625,0.2265625,0.455078125,0.0390625,0.62109375,-7.52734375,0.7890625,1.0
4818042,,,,,,,,-0.72265625,1.96484375,-0.1328125,0.236328125,0.46484375,0.052734375,0.62109375,-7.4453125,0.828125,1.0
4818043,,,,,,,,-0.4765625,2.234375,-0.31640625,0.234375,0.453125,0.046875,0.8515625,-7.18359375,0.67578125,1.0
4818044,,,,,,,,-0.31640625,2.2734375,-0.42578125,0.2265625,0.44921875,0.02734375,1.00390625,-7.140625,0.59765625,1.0
4818045,,,,,,,,0.0,2.33984375,-0.5625,0.212890625,0.421875,0.001953125,1.3125,-7.0625,0.484375,1.0
4818046,,,,,,,,0.046875,2.37890625,-0.5703125,0.203125,0.412109375,-0.01171875,1.3515625,-7.02734375,0.484375,1.0
4818047,,,,,,,,0.19921875,2.265625,-0.6796875,0.185546875,0.412109375,-0.041015625,1.50390625,-7.14453125,0.40625,1.0
4818048,,,,,,,,0.27734375,2.1484375,-0.77734375,0.16796875,0.439453125,-0.083984375,1.58203125,-7.26171875,0.33203125,1.0
4818049,,,,,,,,0.421875,1.99609375,-0.75390625,0.12890625,0.462890625,-0.119140625,1.734375,-7.41015625,0.37109375,1.0
4818050,36.01339733333334,129.3195151666667,82.50084285524807,110.66373588634652,0.9,278.0,,0.375,1.8359375,-0.5859375,0.048828125,0.541015625,-0.17578125,1.6953125,-7.56640625,0.5625,1.0
4818051,,,,,,,,0.328125,1.64453125,-0.56640625,0.03515625,0.59375,-0.201171875,1.65625,-7.75390625,0.59765625,1.0
4818052,,,,,,,,0.2734375,1.48046875,-0.49609375,0.041015625,0.638671875,-0.2265625,1.6171875,-7.90625,0.67578125,1.0
4818053,,,,,,,,0.15234375,1.4453125,-0.51171875,0.060546875,0.662109375,-0.2421875,1.50390625,-7.9453125,0.67578125,1.0
4818054,,,,,,,,0.0234375,1.28125,-0.71875,0.072265625,0.677734375,-0.24609375,1.390625,-8.1015625,0.484375,1.0
4818055,,,,,,,,-0.0703125,1.23828125,-0.734375,0.076171875,0.677734375,-0.2578125,1.3125,-8.17578125,0.40625,1.0
4818056,,,,,,,,-0.15625,1.19140625,-0.87109375,0.091796875,0.681640625,-0.259765625,1.234375,-8.17578125,0.37109375,1.0
4818057,,,,,,,,-0.24609375,1.11328125,-0.96484375,0.10546875,0.677734375,-0.24609375,1.16015625,-8.25390625,0.29296875,1.0
4818058,,,,,,,,-0.25390625,1.11328125,-1.01171875,0.115234375,0.68359375,-0.248046875,1.16015625,-8.25390625,0.25390625,1.0
4818059,,,,,,,,-0.30859375,1.06640625,-1.109375,0.119140625,0.6796875,-0.23828125,1.12109375,-8.2890625,0.1796875,1.0
4818060,36.01339766666667,129.319514,82.3956693318657,110.7007213155278,1.0,281.0,,-0.33203125,0.9765625,-1.05859375,0.080078125,0.677734375,-0.234375,1.12109375,-8.37109375,0.25390625,1.0
4818061,,,,,,,,-0.1796875,0.66796875,-1.07421875,0.048828125,0.677734375,-0.2109375,1.2734375,-8.67578125,0.25390625,1.0
4818062,,,,,,,,-0.1875,0.5859375,-1.03515625,0.01171875,0.671875,-0.20703125,1.2734375,-8.75,0.29296875,1.0
4818063,,,,,,,,-0.1953125,0.4296875,-1.05078125,-0.041015625,0.619140625,-0.171875,1.2734375,-8.90625,0.29296875,1.0
4818064,,,,,,,,-0.2109375,0.39453125,-1.05859375,-0.04296875,0.6171875,-0.16015625,1.2734375,-8.9375,0.29296875,1.0
4818065,,,,,,,,-0.25,0.0390625,-0.98046875,-0.078125,0.623046875,-0.13671875,1.234375,-9.2890625,0.37109375,1.0
4818066,,,,,,,,-0.28515625,-0.2265625,-0.7890625,-0.11328125,0.623046875,-0.1171875,1.19921875,-9.55859375,0.5625,1.0
4818067,,,,,,,,-0.171875,-0.50390625,-0.67578125,-0.140625,0.611328125,-0.115234375,1.3125,-9.8203125,0.67578125,1.0
4818068,,,,,,,,-0.09375,-0.6953125,-0.515625,-0.19921875,0.580078125,-0.099609375,1.390625,-10.015625,0.828125,1.0
4818069,,,,,,,,-0.02734375,-0.7734375,-0.46875,-0.21875,0.552734375,-0.095703125,1.46484375,-10.09375,0.8671875,1.0
4818070,36.013398,129.3195125,82.26044633411372,110.73770646456438,1.1,283.0,,0.1640625,-0.7734375,-0.453125,0.080078125,0.677734375,-0.234375,1.12109375,-8.37109375,0.25390625,1.0
4818071,,,,,,,,0.39453125,-0.6875,-0.69140625,-0.25390625,0.431640625,-0.060546875,1.88671875,-10.015625,0.59765625,1.0
4818072,,,,,,,,0.43359375,-0.57421875,-0.875,-0.2734375,0.416015625,-0.0546875,1.92578125,-9.8984375,0.40625,1.0
4818073,,,,,,,,0.671875,-0.34375,-1.05078125,-0.302734375,0.416015625,-0.029296875,2.15625,-9.67578125,0.21484375,1.0
4818074,,,,,,,,0.83203125,-0.1796875,-1.01953125,-0.33984375,0.44140625,0.005859375,2.30859375,-9.51953125,0.21484375,1.0
4818075,,,,,,,,0.9921875,-0.21875,-0.8046875,-0.392578125,0.51171875,0.041015625,2.4609375,-9.5546875,0.40625,1.0
4818076,,,,,,,,1.0703125,-0.41015625,-0.7890625,-0.431640625,0.552734375,0.056640625,2.5390625,-9.7421875,0.40625,1.0
4818077,,,,,,,,1.23828125,-1.09375,-0.6640625,-0.525390625,0.640625,0.08984375,2.69140625,-10.4375,0.484375,1.0
4818078,,,,,,,,1.140625,-2.15625,-0.73828125,-0.69921875,0.69140625,0.115234375,2.578125,-11.51171875,0.37109375,1.0
4818079,,,,,,,,1.0078125,-2.953125,-0.78515625,-0.857421875,0.681640625,0.12890625,2.421875,-12.3125,0.25390625,1.0
4818080,36.013398333333335,129.3195113333333,82.15527281270067,110.7746918969986,1.1,285.0,,0.765625,-2.01953125,0.54296875,0.080078125,0.677734375,-0.234375,1.12109375,-8.37109375,0.25390625,1.0
4818081,,,,,,,,0.40625,-3.421875,1.2890625,-0.76171875,1.1640625,0.103515625,1.7734375,-12.8125,2.1328125,1.0
4818082,,,,,,,,-0.3828125,-4.72265625,1.3203125,-0.83203125,1.150390625,0.119140625,0.96875,-14.11328125,2.1328125,1.0
4818083,,,,,,,,-0.94140625,-4.66796875,2.0703125,-0.810546875,1.02734375,0.123046875,0.39453125,-14.0703125,2.8203125,1.0
4818084,,,,,,,,-1.125,-4.1328125,2.515625,-0.64453125,1.02734375,0.11328125,0.203125,-13.54296875,3.2421875,1.0
4818085,,,,,,,,-1.45703125,-2.71484375,2.921875,-0.15234375,1.146484375,0.0703125,-0.14453125,-12.12109375,3.625,1.0
4818086,,,,,,,,-1.47265625,-2.4765625,3.09765625,0.158203125,1.26171875,0.099609375,-0.18359375,-11.890625,3.81640625,1.0
4818087,,,,,,,,0.0546875,-2.2109375,3.296875,0.255859375,1.240234375,0.072265625,1.3125,-11.625,4.0859375,1.0
4818088,,,,,,,,1.21875,-2.01953125,2.56640625,0.32421875,1.234375,0.001953125,2.4609375,-11.4296875,3.39453125,1.0
4818089,,,,,,,,1.1953125,-2.01171875,2.21484375,0.30078125,1.234375,-0.068359375,2.421875,-11.4296875,3.08984375,1.0
4818090,36.01339866666667,129.31950999999998,82.03507455556093,110.81167718973141,1.2000000000000002,284.0,,0.8515625,-1.75,2.0,0.283203125,1.23828125,-0.109375,2.078125,-11.16796875,2.8984375,1.0
4818091,,,,,,,,-0.11328125,-0.83203125,1.9140625,0.26953125,1.259765625,-0.203125,1.12109375,-10.2421875,2.859375,1.0
4818092,,,,,,,,-0.34375,-0.53125,1.9375,0.2890625,1.265625,-0.24609375,0.890625,-9.9375,2.8984375,1.0
4818093,,,,,,,,-0.78125,-0.02734375,1.69921875,0.31640625,1.251953125,-0.283203125,0.46875,-9.4375,2.70703125,1.0
4818094,,,,,,,,-1.1484375,0.1953125,1.17578125,0.22265625,1.15234375,-0.3046875,0.125,-9.2109375,2.24609375,1.0
4818095,,,,,,,,-1.28125,0.5,0.6015625,0.111328125,1.0859375,-0.29296875,0.0078125,-8.90625,1.7109375,1.0
4818096,,,,,,,,-1.25,0.5703125,0.44140625,0.068359375,1.0703125,-0.29296875,0.046875,-8.83203125,1.55859375,1.0
4818097,,,,,,,,-1.1484375,0.9921875,-0.03515625,0.04296875,1.056640625,-0.26953125,0.1640625,-8.41015625,1.09765625,1.0
4818098,,,,,,,,-0.97265625,1.3359375,-0.3046875,0.060546875,1.05859375,-0.232421875,0.35546875,-8.0625,0.8671875,1.0
4818099,,,,,,,,-0.8984375,1.4453125,-0.42578125,0.0703125,1.064453125,-0.236328125,0.4296875,-7.9453125,0.75390625,1.0
4818100,36.013399,129.31950916666668,81.95995051717026,110.84866290404597,1.0,289.0,0.0,-0.60546875,2.09375,-0.71875,0.283203125,1.23828125,-0.109375,2.078125,-11.16796875,2.8984375,1.0
4818101,,,,,,,,-0.5390625,2.25,-0.8203125,0.0625,1.033203125,-0.28125,0.8125,-7.14453125,0.40625,1.0
4818102,,,,,,,,-0.5078125,2.32421875,-0.7890625,0.04296875,1.02734375,-0.2890625,0.8515625,-7.06640625,0.4453125,1.0
4818103,,,,,,,,-0.875,2.46875,-0.6953125,0.00390625,1.037109375,-0.296875,0.5078125,-6.91796875,0.5625,1.0
4818104,,,,,,,,-1.42578125,2.1953125,-0.58203125,0.060546875,1.09765625,-0.279296875,-0.02734375,-7.1796875,0.71484375,1.0
4818105,,,,,,,,-1.7109375,2.30078125,-0.64453125,0.111328125,1.080078125,-0.2578125,-0.296875,-7.06640625,0.67578125,1.0
4818106,,,,,,,,-1.86328125,2.30078125,-0.66015625,0.12890625,1.060546875,-0.240234375,-0.44921875,-7.06640625,0.67578125,1.0
4818107,,,,,,,,-2.0625,2.33984375,-0.859375,0.17578125,1.0078125,-0.205078125,-0.640625,-7.0234375,0.5234375,1.0
4818108,,,,,,,,-2.1484375,2.25390625,-0.8515625,0.1640625,0.94921875,-0.171875,-0.71875,-7.10546875,0.5625,1.0
4818109,,,,,,,,-2.1484375,2.25390625,-0.83203125,0.140625,0.931640625,-0.166015625,-0.71875,-7.10546875,0.59765625,1.0
4818110,36.0133995,129.31950816666668,81.86980156682988,110.9041416884753,1.0,290.0,,-2.1796875,1.98046875,-0.76953125,0.099609375,0.875,-0.146484375,-0.7578125,-7.37109375,0.67578125,1.0
4818111,,,,,,,,-2.140625,1.81640625,-0.640625,0.064453125,0.810546875,-0.12890625,-0.71875,-7.52734375,0.828125,1.0
4818112,,,,,,,,-1.98828125,1.81640625,-0.6171875,0.044921875,0.7421875,-0.11328125,-0.56640625,-7.5234375,0.8671875,1.0
4818113,,,,,,,,-1.6328125,1.55078125,-0.625,0.03515625,0.658203125,-0.111328125,-0.21875,-7.79296875,0.8671875,1.0
4818114,,,,,,,,-1.44140625,1.16015625,-0.640625,0.03125,0.59765625,-0.103515625,-0.02734375,-8.17578125,0.8671875,1.0
4818115,,,,,,,,-1.40625,0.77734375,-0.65625,0.001953125,0.56640625,-0.09375,0.0078125,-8.55859375,0.8671875,1.0
4818116,,,,,,,,-1.47265625,0.4296875,-0.54296875,-0.009765625,0.55859375,-0.083984375,-0.06640625,-8.90625,0.98046875,1.0
4818117,,,,,,,,-1.3984375,0.15625,-0.51171875,-0.01171875,0.52734375,-0.072265625,0.0078125,-9.17578125,1.01953125,1.0
4818118,,,,,,,,-1.3515625,0.00390625,-0.56640625,-0.001953125,0.47265625,-0.060546875,0.046875,-9.3203125,0.98046875,1.0
4818119,,,,,,,,-1.234375,-0.12890625,-0.609375,-0.017578125,0.431640625,-0.072265625,0.1640625,-9.44140625,0.9453125,1.0
4818120,36.01340016666666,129.31950700000002,81.76462770667035,110.97811354185683,1.1,296.0,,-1.1875,0.0234375,-0.49609375,-0.048828125,0.39453125,-0.080078125,-0.7578125,-7.37109375,0.67578125,1.0
4818121,,,,,,,,-1.15234375,0.1796875,-0.609375,-0.048828125,0.380859375,-0.09375,0.23828125,-9.13671875,0.9453125,1.0
4818122,,,,,,,,-1.15234375,0.21484375,-0.6875,-0.046875,0.3671875,-0.091796875,0.23828125,-9.09375,0.8671875,1.0
4818123,,,,,,,,-1.04296875,0.25390625,-0.91015625,-0.1015625,0.32421875,-0.107421875,0.35546875,-9.05859375,0.63671875,1.0
4818124,,,,,,,,-0.9609375,0.25390625,-0.94921875,-0.142578125,0.302734375,-0.115234375,0.4296875,-9.05859375,0.59765625,1.0
4818125,,,,,,,,-0.8515625,0.0625,-1.0078125,-0.23046875,0.287109375,-0.1171875,0.546875,-9.25390625,0.5234375,1.0
4818126,,,,,,,,-0.5859375,-0.3203125,-1.0625,-0.34375,0.26171875,-0.111328125,0.8125,-9.63671875,0.4453125,1.0
4818127,,,,,,,,-0.5078125,-0.43359375,-1.0078125,-0.40625,0.255859375,-0.107421875,0.890625,-9.7421875,0.484375,1.0
4818128,,,,,,,,-0.20703125,-0.84765625,-1.12109375,-0.5234375,0.267578125,-0.099609375,1.19921875,-10.16796875,0.33203125,1.0
4818129,,,,,,,,-0.20703125,-0.84765625,-1.09765625,-0.626953125,0.2890625,-0.08203125,1.2734375,-10.20703125,0.33203125,1.0
4818130,36.01340066666667,129.31950616666666,81.68950349720299,111.03359246768784,1.0,300.0,,-0.0546875,-0.95703125,-1.00390625,-0.701171875,0.3359375,-0.05859375,1.390625,-10.2421875,0.40625,1.0
4818131,,,,,,,,-0.09375,-0.82421875,-0.8671875,-0.74609375,0.41796875,-0.033203125,1.3125,-10.1640625,0.4453125,1.0
4818132,,,,,,,,-0.26953125,-0.6640625,-0.56640625,-0.7578125,0.505859375,-0.01171875,1.12109375,-10.01953125,0.67578125,1.0
4818133,,,,,,,,-0.38671875,-0.6640625,-0.46484375,-0.7421875,0.55078125,0.00390625,1.00390625,-10.015625,0.75390625,1.0
4818134,,,,,,,,-1.01953125,-2.37109375,0.25,-0.751953125,0.58984375,0.03125,0.35546875,-11.73828125,1.3671875,1.0
4818135,,,,,,,,-0.18359375,-3.7734375,0.89453125,-0.953125,0.357421875,0.08203125,1.16015625,-13.15625,1.86328125,1.0
4818136,,,,,,,,1.0859375,-3.8828125,1.48046875,-0.9375,0.26953125,0.08984375,2.421875,-13.2734375,2.36328125,1.0
4818137,,,,,,,,2.26171875,-3.98046875,1.375,-0.80859375,0.47265625,0.123046875,3.57421875,-13.3828125,2.1328125,1.0
4818138,,,,,,,,2.66015625,-3.16796875,1.75,-0.775390625,0.587890625,0.134765625,3.95703125,-12.58203125,2.4765625,1.0
4818139,,,,,,,,2.40625,-2.0859375,2.1484375,-0.556640625,0.83203125,0.083984375,3.6875,-11.5078125,2.8203125,1.0
4818140,36.0134015,129.31950533333332,81.61437894462851,111.12605781015027,1.1,311.0,,0.890625,-1.51171875,2.5546875,-0.04296875,1.060546875,0.021484375,2.15625,-10.9296875,3.203125,1.0
4818141,,,,,,,,-0.59765625,-2.05078125,2.921875,0.09375,1.0078125,0.001953125,0.66015625,-11.46875,3.5859375,1.0
4818142,,,,,,,,-1.125,-2.30859375,3.0625,0.1171875,0.9375,-0.005859375,0.125,-11.73828125,3.7421875,1.0
4818143,,,,,,,,-1.1484375,-2.39453125,2.9453125,0.1796875,0.6953125,0.013671875,0.0859375,-11.8125,3.6640625,1.0
4818144,,,,,,,,-0.44140625,-1.7734375,2.4453125,0.23828125,0.572265625,0.048828125,0.77734375,-11.203125,3.203125,1.0
4818145,,,,,,,,0.1015625,-1.19921875,2.1484375,0.19140625,0.58203125,0.095703125,1.3125,-10.62890625,2.9375,1.0
4818146,,,,,,,,0.1875,-1.12109375,2.0625,0.171875,0.59765625,0.134765625,1.390625,-10.546875,2.859375,1.0
4818147,,,,,,,,-0.13671875,-0.65625,1.6953125,0.109375,0.64453125,0.16796875,1.04296875,-10.09765625,2.515625,1.0
4818148,,,,,,,,-0.53515625,-0.234375,1.2578125,0.06640625,0.67578125,0.1953125,0.62109375,-9.67578125,2.09375,1.0
4818149,,,,,,,,-0.5859375,-0.15625,1.1953125,0.0078125,0.64453125,0.193359375,0.546875,-9.59375,2.0546875,1.0
4818150,36.013402166666665,129.31950433333336,81.52422982950374,111.20002980613721,1.1,314.0,,-0.75390625,0.08203125,1.00390625,-0.083984375,0.59375,0.169921875,2.15625,-10.9296875,3.203125,1.0
4818151,,,,,,,,-0.5390625,0.08984375,1.01171875,-0.150390625,0.560546875,0.158203125,0.546875,-9.359375,1.86328125,1.0
4818152,,,,,,,,-0.515625,0.2890625,0.94140625,-0.146484375,0.5703125,0.138671875,0.546875,-9.171875,1.78515625,1.0
4818153,,,,,,,,-0.65234375,0.7109375,0.55078125,-0.083984375,0.587890625,0.1171875,0.39453125,-8.75,1.40234375,1.0
4818154,,,,,,,,-0.828125,1.25390625,0.29296875,-0.025390625,0.6171875,0.109375,0.203125,-8.21484375,1.13671875,1.0
4818155,,,,,,,,-0.921875,1.4921875,0.19921875,0.005859375,0.642578125,0.1015625,0.0859375,-7.98828125,1.05859375,1.0
4818156,,,,,,,,-0.9921875,1.72265625,0.16015625,0.01171875,0.654296875,0.10546875,0.0078125,-7.75390625,1.01953125,1.0
4818157,,,,,,,,-0.9765625,2.06640625,0.03125,0.029296875,0.6796875,0.1015625,0.0078125,-7.41015625,0.90625,1.0
4818158,,,,,,,,-0.796875,2.44140625,-0.09375,0.046875,0.693359375,0.1015625,0.1640625,-7.02734375,0.7890625,1.0
4818159,,,,,,,,-0.58984375,2.52734375,-0.21484375,0.0390625,0.69140625,0.087890625,0.35546875,-6.94921875,0.67578125,1.0
4818160,36.01340283333333,129.31950366666666,81.46413018986362,111.27400208124139,1.1,315.0,,-0.26171875,2.52734375,-0.19140625,0.0078125,0.66796875,0.06640625,0.66015625,-6.94921875,0.71484375,1.0
4818161,,,,,,,,0.0234375,2.3359375,-0.16796875,-0.00390625,0.6640625,0.0390625,0.9296875,-7.14453125,0.75390625,1.0
4818162,,,,,,,,0.18359375,2.265625,-0.09375,-0.017578125,0.6640625,0.029296875,1.08203125,-7.21875,0.828125,1.0
4818163,,,,,,,,0.31640625,2.06640625,-0.0546875,-0.01953125,0.6484375,-0.001953125,1.19921875,-7.40625,0.8671875,1.0
4818164,,,,,,,,0.4765625,1.796875,-0.0625,-0.00390625,0.630859375,-0.03125,1.3515625,-7.68359375,0.8671875,1.0
4818165,,,,,,,,0.58984375,1.33984375,0.0,-0.013671875,0.619140625,-0.0703125,1.46484375,-8.13671875,0.9453125,1.0
4818166,,,,,,,,0.515625,1.26171875,-0.0390625,-0.013671875,0.62890625,-0.080078125,1.390625,-8.21484375,0.90625,1.0
4818167,,,,,,,,0.27734375,1.18359375,-0.0078125,-0.001953125,0.66796875,-0.107421875,1.16015625,-8.29296875,0.9453125,1.0
4818168,,,,,,,,-0.03125,1.17578125,-0.0625,0.048828125,0.736328125,-0.126953125,0.8515625,-8.2890625,0.90625,1.0
4818169,,,,,,,,-0.0703125,1.140625,-0.0625,0.068359375,0.744140625,-0.1328125,0.8125,-8.328125,0.90625,1.0
4818170,36.01340366666667,129.3195031666667,81.41905512116243,111.36646770446663,1.0,321.0,,-0.10546875,1.0234375,-0.15625,0.09375,0.720703125,-0.138671875,0.66015625,-6.94921875,0.71484375,1.0
4818171,,,,,,,,-0.078125,0.78515625,-0.40234375,0.08984375,0.666015625,-0.142578125,0.8125,-8.671875,0.59765625,1.0
4818172,,,,,,,,-0.12109375,0.74609375,-0.453125,0.08203125,0.623046875,-0.154296875,0.73828125,-8.7890625,0.484375,1.0
4818173,,,,,,,,-0.16796875,0.5546875,-0.546875,0.083984375,0.615234375,-0.166015625,0.73828125,-8.90625,0.484375,1.0
4818174,,,,,,,,-0.28515625,0.47265625,-0.59375,0.083984375,0.61328125,-0.162109375,0.62109375,-8.98046875,0.4453125,1.0
4818175,,,,,,,,-0.484375,0.51171875,-0.45703125,0.0703125,0.599609375,-0.154296875,0.4296875,-8.9375,0.59765625,1.0
4818176,,,,,,,,-0.52734375,0.5390625,-0.38671875,0.0703125,0.6015625,-0.146484375,0.39453125,-8.90625,0.67578125,1.0
4818177,,,,,,,,-0.61328125,0.546875,-0.36328125,0.08984375,0.59375,-0.134765625,0.31640625,-8.90625,0.71484375,1.0
4818178,,,,,,,,-0.765625,0.50390625,-0.42578125,0.09375,0.5546875,-0.11328125,0.1640625,-8.9375,0.67578125,1.0
4818179,,,,,,,,-0.69921875,0.34765625,-0.51171875,0.08203125,0.505859375,-0.095703125,0.23828125,-9.09765625,0.59765625,1.0
4818180,36.0134045,129.3195025,81.35895530962564,111.45893318855983,1.0,322.0,,-0.57421875,0.1875,-0.48046875,0.048828125,0.4609375,-0.091796875,0.35546875,-9.25,0.63671875,1.0
4818181,,,,,,,,-0.46875,-0.15625,-0.37890625,0.0078125,0.431640625,-0.091796875,0.46875,-9.59765625,0.75390625,1.0
4818182,,,,,,,,-0.23828125,-0.5390625,-0.11328125,-0.0390625,0.404296875,-0.09375,0.69921875,-9.98046875,1.01953125,1.0
4818183,,,,,,,,-0.20703125,-0.6171875,-0.03515625,-0.046875,0.384765625,-0.095703125,0.73828125,-10.0546875,1.09765625,1.0
4818184,,,,,,,,-0.046875,-0.77734375,0.00390625,-0.08984375,0.337890625,-0.111328125,0.890625,-10.20703125,1.13671875,1.0
4818185,,,,,,,,0.0234375,-0.8828125,0.05078125,-0.11328125,0.287109375,-0.12890625,0.96875,-10.3203125,1.17578125,1.0
4818186,,,,,,,,0.24609375,-0.625,-0.25,-0.12109375,0.25390625,-0.146484375,1.19921875,-10.0546875,0.8671875,1.0
4818187,,,,,,,,0.3828125,-0.0859375,-0.46484375,-0.146484375,0.26953125,-0.140625,1.3515625,-9.515625,0.63671875,1.0
4818188,,,,,,,,0.375,0.10546875,-0.49609375,-0.166015625,0.298828125,-0.140625,1.3515625,-9.32421875,0.59765625,1.0
4818189,,,,,,,,0.44140625,0.41015625,-0.59375,-0.22265625,0.373046875,-0.123046875,1.42578125,-9.015625,0.484375,1.0
4818190,36.01340533333334,129.31950166666667,81.28383076400215,111.55139853499304,1.0,323.0,,0.59765625,0.33203125,-0.609375,0.048828125,0.4609375,-0.091796875,1.58203125,-9.09765625,0.4453125,1.0
4818191,,,,,,,,1.0546875,-0.31640625,-0.5859375,-0.47265625,0.447265625,-0.0703125,2.0390625,-9.74609375,0.4453125,1.0
4818192,,,,,,,,1.19921875,-0.69921875,-0.6015625,-0.55859375,0.431640625,-0.06640625,2.19140625,-10.12890625,0.40625,1.0
4818193,,,,,,,,1.39453125,-1.7265625,-0.8515625,-0.71484375,0.3828125,-0.05859375,2.38671875,-11.1640625,0.1015625,1.0
4818194,,,,,,,,0.97265625,-1.8359375,-0.6640625,-0.779296875,0.39453125,-0.140625,1.96484375,-11.28515625,0.1796875,1.0
4818195,,,,,,,,0.06640625,-3.7734375,0.45703125,-0.712890625,0.88671875,-0.212890625,1.08203125,-13.234375,1.17578125,1.0
4818196,,,,,,,,-0.25390625,-4.421875,0.74609375,-0.7734375,1.044921875,-0.197265625,0.77734375,-13.8828125,1.40234375,1.0
4818197,,,,,,,,-1.18359375,-4.34765625,2.34375,-0.6875,1.021484375,-0.197265625,-0.14453125,-13.80859375,2.9375,1.0
4818198,,,,,,,,-1.23828125,-2.01171875,2.3359375,-0.248046875,0.94921875,-0.20703125,-0.18359375,-11.46875,2.8984375,1.0
4818199,,,,,,,,-1.16796875,-1.43359375,1.9921875,-0.015625,0.951171875,-0.212890625,-0.10546875,-10.890625,2.5546875,1.0
4818200,36.01340616666666,129.319501,81.22373096000312,111.64386401921269,1.1,328.0,0.0,-0.875,-0.82421875,1.46875,0.212890625,1.00390625,-0.1953125,0.203125,-10.28125,2.0546875,1.0
4818201,,,,,,,,-0.04296875,-1.28125,1.75390625,0.119140625,1.0703125,-0.150390625,1.04296875,-10.74609375,2.36328125,1.0
4818202,,,,,,,,0.87109375,-2.125,2.42578125,0.01171875,1.095703125,-0.15234375,1.96484375,-11.5859375,3.05078125,1.0
4818203,,,,,,,,1.09765625,-2.31640625,2.609375,0.029296875,1.115234375,-0.16015625,2.19140625,-11.77734375,3.2421875,1.0
4818204,,,,,,,,1.359375,-2.35546875,2.5859375,0.140625,1.197265625,-0.203125,2.4609375,-11.81640625,3.2421875,1.0
4818205,,,,,,,,1.23828125,-1.7109375,2.0859375,0.2890625,1.27734375,-0.244140625,2.34765625,-11.1640625,2.78125,1.0
4818206,,,,,,,,0.68359375,-1.05859375,1.7734375,0.400390625,1.390625,-0.310546875,1.80859375,-10.51171875,2.515625,1.0
4818207,,,,,,,,-0.1796875,-0.1015625,1.51953125,0.44921875,1.5078125,-0.388671875,0.96875,-9.5546875,2.32421875,1.0
4818208,,,,,,,,-0.50390625,0.08203125,1.53515625,0.439453125,1.544921875,-0.41796875,0.66015625,-9.36328125,2.36328125,1.0
4818209,,,,,,,,-1.109375,0.37890625,1.5078125,0.41015625,1.564453125,-0.458984375,0.0859375,-9.0546875,2.3984375,1.0
4818210,36.013407,129.31950033333334,81.16363115485812,111.7363295050914,1.0,328.0,,-1.4921875,0.33203125,1.26953125,0.212890625,1.00390625,-0.1953125,-0.2578125,-9.09375,2.24609375,1.0
4818211,,,,,,,,-1.515625,0.25,0.96875,0.197265625,1.26171875,-0.40234375,-0.2578125,-9.17578125,1.9765625,1.0
4818212,,,,,,,,-1.484375,0.32421875,0.76171875,0.169921875,1.21875,-0.388671875,-0.21875,-9.09375,1.78515625,1.0
4818213,,,,,,,,-1.33203125,1.3828125,-0.07421875,0.13671875,1.16796875,-0.353515625,-0.02734375,-8.0234375,1.01953125,1.0
4818214,,,,,,,,-1.21875,1.61328125,-0.265625,0.103515625,1.130859375,-0.357421875,0.125,-7.79296875,0.8671875,1.0
4818215,,,,,,,,-0.890625,2.03515625,-0.40234375,0.080078125,1.064453125,-0.369140625,0.46875,-7.3671875,0.75390625,1.0
4818216,,,,,,,,-0.8671875,2.06640625,-0.41796875,0.068359375,1.029296875,-0.392578125,0.5078125,-7.328125,0.75390625,1.0
4818217,,,,,,,,-0.921875,2.25,-0.6328125,0.0703125,0.98046875,-0.412109375,0.46875,-7.140625,0.5625,1.0
4818218,,,,,,,,-1.06640625,2.2421875,-0.765625,0.07421875,0.962890625,-0.4140625,0.35546875,-7.14453125,0.4453125,1.0
4818219,,,,,,,,-1.19140625,2.203125,-0.93359375,0.0703125,0.96875,-0.41015625,0.23828125,-7.1796875,0.29296875,1.0
4818220,36.01340783333333,129.31949983333334,81.11855608960153,111.82879512961532,1.1,331.0,,-1.453125,2.04296875,-0.98828125,0.068359375,0.9921875,-0.3984375,0.0078125,-7.328125,0.25390625,1.0
4818221,,,,,,,,-1.7734375,1.7265625,-0.8671875,0.06640625,1.013671875,-0.380859375,-0.296875,-7.640625,0.40625,1.0
4818222,,,,,,,,-1.94921875,1.6875,-0.7265625,0.05859375,0.986328125,-0.353515625,-0.44921875,-7.68359375,0.5625,1.0
4818223,,,,,,,,-1.99609375,1.375,-0.66796875,0.06640625,0.96875,-0.337890625,-0.48828125,-7.984375,0.63671875,1.0
4818224,,,,,,,,-2.01171875,1.25,-0.5390625,0.078125,0.9296875,-0.296875,-0.48828125,-8.10546875,0.7890625,1.0
4818225,,,,,,,,-2.05859375,0.8984375,-0.4765625,0.09375,0.87890625,-0.2578125,-0.52734375,-8.44921875,0.8671875,1.0
4818226,,,,,,,,-2.07421875,0.73828125,-0.4296875,0.10546875,0.775390625,-0.20703125,-0.52734375,-8.59765625,0.9453125,1.0
4818227,,,,,,,,-2.03515625,0.73828125,-0.37890625,0.091796875,0.6953125,-0.169921875,-0.48828125,-8.59375,1.01953125,1.0
4818228,,,,,,,,-1.99609375,0.73828125,-0.27734375,0.095703125,0.666015625,-0.154296875,-0.44921875,-8.59375,1.13671875,1.0
4818229,,,,,,,,-2.08203125,0.8828125,-0.33203125,0.12890625,0.6015625,-0.134765625,-0.52734375,-8.4453125,1.09765625,1.0
4818230,36.01340866666667,129.3194995,81.08850576246294,111.92126089339688,1.0,335.0,,-1.99609375,1.02734375,-0.5625,0.208984375,0.52734375,-0.095703125,-0.44921875,-8.29296875,0.90625,1.0
4818231,,,,,,,,-1.921875,1.05859375,-0.703125,0.212890625,0.482421875,-0.076171875,-0.375,-8.25,0.7890625,1.0
4818232,,,,,,,,-1.8828125,1.09765625,-0.79296875,0.208984375,0.462890625,-0.06640625,-0.3359375,-8.21484375,0.71484375,1.0
4818233,,,,,,,,-1.59765625,0.8984375,-0.765625,0.12890625,0.369140625,-0.044921875,-0.06640625,-8.41015625,0.7890625,1.0
4818234,,,,,,,,-1.328125,0.74609375,-0.88671875,0.115234375,0.35546875,-0.05078125,0.203125,-8.55859375,0.67578125,1.0
4818235,,,,,,,,-1.09375,0.62109375,-1.0234375,0.087890625,0.28515625,-0.0625,0.4296875,-8.67578125,0.5625,1.0
4818236,,,,,,,,-1.015625,0.390625,-1.0234375,0.03515625,0.265625,-0.068359375,0.5078125,-8.91015625,0.5625,1.0
4818237,,,,,,,,-1.12109375,0.125,-0.91796875,0.013671875,0.263671875,-0.0625,0.39453125,-9.17578125,0.67578125,1.0
4818238,,,,,,,,-1.24609375,-0.21875,-0.765625,-0.046875,0.26953125,-0.05859375,0.27734375,-9.51953125,0.828125,1.0
4818239,,,,,,,,-1.24609375,-0.3359375,-0.6875,-0.06640625,0.275390625,-0.056640625,0.27734375,-9.6328125,0.90625,1.0
4818240,36.013409833333334,129.3194993333333,81.07347982833844,112.05071321132414,1.1,342.0,,-1.3046875,-0.765625,-0.53515625,0.208984375,0.52734375,-0.095703125,0.203125,-10.05859375,1.05859375,1.0
4818241,,,,,,,,-1.34375,-0.94921875,-0.48046875,-0.146484375,0.240234375,-0.03515625,0.1640625,-10.2421875,1.09765625,1.0
4818242,,,,,,,,-1.4140625,-1.0234375,-0.43359375,-0.1796875,0.236328125,-0.021484375,0.0859375,-10.32421875,1.13671875,1.0
4818243,,,,,,,,-1.4140625,-0.98828125,-0.46484375,-0.19140625,0.240234375,-0.015625,0.0859375,-10.28125,1.09765625,1.0
4818244,,,,,,,,-1.25390625,-0.94921875,-0.48046875,-0.23046875,0.234375,-0.001953125,0.23828125,-10.24609375,1.05859375,1.0
4818245,,,,,,,,-1.0546875,-0.7890625,-0.5859375,-0.2734375,0.2265625,0.005859375,0.4296875,-10.09375,0.9453125,1.0
4818246,,,,,,,,-0.81640625,-0.7109375,-0.5859375,-0.33203125,0.20703125,-0.001953125,0.66015625,-10.01953125,0.90625,1.0
4818247,,,,,,,,-0.76953125,-0.58984375,-0.625,-0.439453125,0.208984375,-0.0078125,0.69921875,-9.8984375,0.828125,1.0
4818248,,,,,,,,-0.80078125,-0.51171875,-0.5546875,-0.470703125,0.22265625,-0.009765625,0.66015625,-9.8203125,0.8671875,1.0
4818249,,,,,,,,-1.453125,-0.2734375,-0.20703125,-0.537109375,0.234375,-0.0234375,0.0078125,-9.59375,1.17578125,1.0
4818250,36.01341083333333,129.3194993333333,81.07347880462316,112.16167246072287,1.0,350.0,,-1.671875,-0.7265625,-0.125,0.208984375,0.52734375,-0.095703125,-0.21875,-10.05859375,1.2109375,1.0
4818251,,,,,,,,-1.55078125,-1.9453125,-0.09765625,-0.701171875,0.177734375,-0.015625,-0.10546875,-11.28125,1.17578125,1.0
4818252,,,,,,,,-1.0078125,-2.39453125,0.421875,-0.822265625,0.078125,0.005859375,0.4296875,-11.73828125,1.6328125,1.0
4818253,,,,,,,,-0.66015625,-2.50390625,0.8125,-0.869140625,0.01171875,0.009765625,0.77734375,-11.85546875,1.9765625,1.0
4818254,,,,,,,,0.07421875,-2.79296875,1.51171875,-0.880859375,-0.0546875,0.001953125,1.50390625,-12.15625,2.58984375,1.0
4818255,,,,,,,,1.03125,-4.1640625,1.66796875,-0.857421875,-0.03515625,0.0,2.4609375,-13.54296875,2.66796875,1.0
4818256,,,,,,,,1.68359375,-4.69140625,1.83203125,-0.876953125,0.037109375,-0.0078125,3.11328125,-14.07421875,2.74609375,1.0
4818257,,,,,,,,2.6875,-1.8125,2.62890625,-0.7421875,0.13671875,-0.060546875,4.109375,-11.20703125,3.47265625,1.0
4818258,,,,,,,,2.44921875,-1.23046875,2.64453125,-0.380859375,0.333984375,-0.12890625,3.87890625,-10.62890625,3.43359375,1.0
4818259,,,,,,,,1.29296875,-0.6171875,2.1640625,-0.142578125,0.474609375,-0.19140625,2.73046875,-10.01953125,2.9375,1.0
4818260,36.01341183333333,129.3194993333333,81.07347778048245,112.2726317095504,1.1,357.0,,-0.37890625,-1.27734375,2.390625,0.208984375,0.52734375,-0.095703125,-0.21875,-10.05859375,1.2109375,1.0
4818261,,,,,,,,-0.73828125,-1.8515625,2.546875,0.0078125,0.30859375,-0.2265625,0.73828125,-11.24609375,3.3203125,1.0
4818262,,,,,,,,-0.36328125,-2.2265625,2.578125,0.06640625,0.1953125,-0.169921875,1.12109375,-11.625,3.359375,1.0
4818263,,,,,,,,0.08984375,-2.08203125,2.4140625,0.109375,0.181640625,-0.13671875,1.58203125,-11.46875,3.203125,1.0
4818264,,,,,,,,0.2734375,-1.50390625,2.0546875,0.1953125,0.244140625,-0.087890625,1.7734375,-10.890625,2.859375,1.0
4818265,,,,,,,,-0.06640625,-0.6640625,1.9375,0.21875,0.4453125,0.001953125,1.42578125,-10.05859375,2.78125,1.0
4818266,,,,,,,,-0.32421875,-0.1640625,1.5234375,0.17578125,0.478515625,0.0625,1.16015625,-9.5546875,2.3984375,1.0
4818267,,,,,,,,0.07421875,-0.2421875,1.30859375,0.10546875,0.396484375,0.099609375,1.54296875,-9.6328125,2.20703125,1.0
4818268,,,,,,,,0.1484375,-0.234375,1.33984375,0.064453125,0.345703125,0.10546875,1.6171875,-9.63671875,2.24609375,1.0
4818269,,,,,,,,0.08984375,-0.15625,1.29296875,-0.00390625,0.29296875,0.10546875,1.54296875,-9.55859375,2.20703125,1.0
4818270,36.013413,129.3194993333333,81.07347658585515,112.40208416843463,1.1,359.0,,-0.26953125,0.15625,1.01953125,0.01953125,0.337890625,0.099609375,1.16015625,-9.25390625,1.94140625,1.0
4818271,,,,,,,,-0.484375,0.69140625,0.6640625,0.072265625,0.353515625,0.08984375,0.9296875,-8.71484375,1.59375,1.0
4818272,,,,,,,,-0.61328125,1.0390625,0.34375,0.09765625,0.3515625,0.09765625,0.77734375,-8.3671875,1.2890625,1.0
4818273,,,,,,,,-0.61328125,1.34375,0.21484375,0.109375,0.345703125,0.10546875,0.77734375,-8.06640625,1.17578125,1.0
4818274,,,,,,,,-0.62890625,1.6953125,0.04296875,0.103515625,0.34375,0.109375,0.73828125,-7.71875,1.01953125,1.0
4818275,,,,,,,,-0.5390625,2.1640625,-0.2109375,0.083984375,0.349609375,0.1171875,0.8125,-7.2578125,0.7890625,1.0
4818276,,,,,,,,-0.4765625,2.43359375,-0.33984375,0.083984375,0.36328125,0.111328125,0.8515625,-6.98828125,0.67578125,1.0
4818277,,,,,,,,-0.30859375,2.546875,-0.27734375,0.080078125,0.388671875,0.1015625,1.00390625,-6.87890625,0.75390625,1.0
4818278,,,,,,,,-0.22265625,2.625,-0.32421875,0.076171875,0.404296875,0.08984375,1.08203125,-6.796875,0.71484375,1.0
4818279,,,,,,,,0.13671875,2.47265625,-0.2265625,0.076171875,0.42578125,0.0703125,1.42578125,-6.94921875,0.828125,1.0
4818280,36.013414,129.3194995,81.08850029973637,112.51304355565338,1.1,2.0,,0.3828125,2.35546875,-0.35546875,0.091796875,0.462890625,0.04296875,1.65625,-7.0625,0.71484375,1.0
4818281,,,,,,,,0.515625,2.1640625,-0.41796875,0.09375,0.48046875,0.021484375,1.7734375,-7.26171875,0.67578125,1.0
4818282,,,,,,,,0.515625,1.97265625,-0.5390625,0.08984375,0.490234375,0.00390625,1.7734375,-7.4453125,0.5625,1.0
4818283,,,,,,,,0.484375,1.54296875,-0.48828125,0.072265625,0.552734375,-0.041015625,1.734375,-7.87109375,0.63671875,1.0
4818284,,,,,,,,0.4921875,1.4296875,-0.359375,0.0703125,0.599609375,-0.068359375,1.734375,-7.984375,0.7890625,1.0
4818285,,,,,,,,0.33984375,1.23828125,-0.18359375,0.1015625,0.626953125,-0.103515625,1.58203125,-8.171875,0.98046875,1.0
4818286,,,,,,,,0.22265625,0.921875,-0.3984375,0.15625,0.646484375,-0.111328125,1.46484375,-8.484375,0.7890625,1.0
4818287,,,,,,,,0.23046875,0.80078125,-0.48828125,0.177734375,0.642578125,-0.109375,1.46484375,-8.59765625,0.71484375,1.0
4818288,,,,,,,,0.26171875,0.5703125,-0.58984375,0.18359375,0.630859375,-0.107421875,1.50390625,-8.83203125,0.63671875,1.0
4818289,,,,,,,,0.30078125,0.37890625,-0.64453125,0.173828125,0.630859375,-0.107421875,1.54296875,-9.015625,0.59765625,1.0
4818290,36.013415,129.31949983333334,81.11854874678818,112.62400308278825,1.1,6.0,,0.375,0.140625,-0.703125,0.091796875,0.462890625,0.04296875,1.6171875,-9.25,0.5625,1.0
4818291,,,,,,,,0.33984375,0.02734375,-0.7578125,0.125,0.638671875,-0.1015625,1.58203125,-9.36328125,0.5234375,1.0
4818292,,,,,,,,0.23046875,0.02734375,-0.66015625,0.134765625,0.654296875,-0.10546875,1.46484375,-9.359375,0.63671875,1.0
4818293,,,,,,,,-0.0078125,0.05859375,-0.73046875,0.1796875,0.6875,-0.1171875,1.234375,-9.3203125,0.59765625,1.0
4818294,,,,,,,,-0.16015625,0.05859375,-0.78125,0.197265625,0.6953125,-0.11328125,1.08203125,-9.32421875,0.5625,1.0
4818295,,,,,,,,-0.62109375,0.30859375,-0.69921875,0.197265625,0.669921875,-0.107421875,0.62109375,-9.05859375,0.67578125,1.0
4818296,,,,,,,,-0.8046875,0.453125,-0.6171875,0.177734375,0.626953125,-0.08203125,0.4296875,-8.91015625,0.7890625,1.0
4818297,,,,,,,,-0.91796875,0.609375,-0.5859375,0.173828125,0.60546875,-0.068359375,0.31640625,-8.75390625,0.828125,1.0
4818298,,,,,,,,-0.7578125,0.2265625,-0.43359375,0.123046875,0.525390625,-0.01953125,0.46875,-9.1328125,1.01953125,1.0
4818299,,,,,,,,-0.60546875,-0.01171875,-0.35546875,0.087890625,0.5,-0.005859375,0.62109375,-9.359375,1.09765625,1.0
4818300,36.013416,129.3195,81.13357245736195,112.7349624712003,1.1,7.0,0.0,-0.08984375,-0.51171875,-0.1796875,0.091796875,0.462890625,0.04296875,1.12109375,-9.86328125,1.2890625,1.0
4818301,,,,,,,,0.15625,-0.77734375,0.00390625,-0.03515625,0.333984375,0.0234375,1.3515625,-10.125,1.48046875,1.0
4818302,,,,,,,,0.31640625,-0.76953125,0.00390625,-0.05859375,0.291015625,0.01953125,1.50390625,-10.125,1.48046875,1.0
4818303,,,,,,,,0.31640625,-0.6953125,-0.03515625,-0.072265625,0.263671875,0.0234375,1.50390625,-10.0546875,1.44140625,1.0
4818304,,,,,,,,0.171875,-0.35546875,-0.21875,-0.109375,0.20703125,0.015625,1.3515625,-9.70703125,1.25,1.0
4818305,,,,,,,,0.1796875,-0.2421875,-0.27734375,-0.162109375,0.1796875,0.025390625,1.3515625,-9.59375,1.17578125,1.0
4818306,,,,,,,,0.53125,-0.39453125,-0.109375,-0.26171875,0.16796875,0.041015625,1.6953125,-9.74609375,1.328125,1.0
4818307,,,,,,,,0.8828125,-0.76953125,0.06640625,-0.3828125,0.173828125,0.0625,2.0390625,-10.12890625,1.48046875,1.0
4818308,,,,,,,,1.0078125,-1.109375,0.08984375,-0.44921875,0.1875,0.0703125,2.15625,-10.4765625,1.48046875,1.0
4818309,,,,,,,,1.13671875,-2.171875,-0.03125,-0.619140625,0.208984375,0.083984375,2.26953125,-11.55078125,1.2890625,1.0
4818310,36.013417,129.31950033333334,81.16362090300704,112.84592199814543,1.1,9.0,,0.953125,-1.8984375,0.328125,0.091796875,0.462890625,0.04296875,1.12109375,-9.86328125,1.2890625,1.0
4818311,,,,,,,,0.15625,-0.2421875,0.7734375,-0.626953125,0.384765625,0.029296875,1.2734375,-9.63671875,1.9765625,1.0
4818312,,,,,,,,0.05078125,-0.234375,0.8359375,-0.57421875,0.474609375,0.02734375,1.16015625,-9.63671875,2.015625,1.0
4818313,,,,,,,,-0.2109375,-0.9921875,1.0,-0.548828125,0.560546875,0.0625,0.890625,-10.3984375,2.1328125,1.0
4818314,,,,,,,,-0.34765625,-2.29296875,0.9453125,-0.5859375,0.56640625,0.0859375,0.73828125,-11.6953125,2.0546875,1.0
4818315,,,,,,,,-0.70703125,-3.19921875,1.75,-0.724609375,0.4296875,0.095703125,0.35546875,-12.6171875,2.78125,1.0
4818316,,,,,,,,-0.9296875,-2.76953125,2.58203125,-0.599609375,0.5078125,0.06640625,0.125,-12.1953125,3.55078125,1.0
4818317,,,,,,,,-0.9609375,-2.5390625,2.796875,-0.47265625,0.57421875,0.064453125,0.0859375,-11.96875,3.7421875,1.0
4818318,,,,,,,,-0.828125,-1.71875,2.75,-0.099609375,0.6796875,0.06640625,0.203125,-11.1640625,3.6640625,1.0
4818319,,,,,,,,0.44921875,-1.98828125,2.55859375,-0.0390625,0.650390625,0.072265625,1.46484375,-11.4296875,3.47265625,1.0
4818320,36.01341816666666,129.31950049999998,81.17864443945741,112.97537459282934,1.1,10.0,,1.0078125,-2.1015625,2.58203125,-0.013671875,0.681640625,0.01171875,2.0,-11.55078125,3.51171875,1.0
4818321,,,,,,,,1.1328125,-2.02734375,2.57421875,0.068359375,0.77734375,-0.03125,2.1171875,-11.46875,3.51171875,1.0
4818322,,,,,,,,0.7109375,-1.64453125,2.203125,0.166015625,0.853515625,-0.095703125,1.6953125,-11.0859375,3.1640625,1.0
4818323,,,,,,,,0.3203125,-1.22265625,1.98046875,0.234375,0.892578125,-0.166015625,1.3125,-10.66796875,2.97265625,1.0
4818324,,,,,,,,-0.37890625,-0.6171875,1.94140625,0.25,0.92578125,-0.20703125,0.62109375,-10.05859375,2.97265625,1.0
4818325,,,,,,,,-0.9609375,0.1484375,1.484375,0.22265625,0.943359375,-0.234375,0.046875,-9.2890625,2.5546875,1.0
4818326,,,,,,,,-0.9375,0.2265625,1.05859375,0.19140625,0.8828125,-0.234375,0.0859375,-9.2109375,2.16796875,1.0
4818327,,,,,,,,-0.8359375,0.33984375,0.80859375,0.134765625,0.826171875,-0.234375,0.203125,-9.09765625,1.94140625,1.0
4818328,,,,,,,,-0.80859375,0.5234375,0.66796875,0.083984375,0.798828125,-0.2421875,0.23828125,-8.91015625,1.82421875,1.0
4818329,,,,,,,,-0.73828125,0.9453125,0.60546875,0.06640625,0.779296875,-0.24609375,0.31640625,-8.48828125,1.78515625,1.0
4818330,36.01341933333333,129.31950083333334,81.20869271697642,113.1048273292657,1.2000000000000002,10.0,,-0.67578125,1.29296875,0.3984375,-0.013671875,0.681640625,0.01171875,2.0,-11.55078125,3.51171875,1.0
4818331,,,,,,,,-0.69921875,1.78125,0.1015625,0.099609375,0.71484375,-0.28515625,0.39453125,-7.64453125,1.328125,1.0
4818332,,,,,,,,-0.72265625,2.2421875,-0.10546875,0.08203125,0.67578125,-0.3125,0.39453125,-7.1796875,1.13671875,1.0
4818333,,,,,,,,-0.76171875,2.30859375,-0.19140625,0.07421875,0.6640625,-0.3203125,0.35546875,-7.10546875,1.05859375,1.0
4818334,,,,,,,,-0.82421875,2.30859375,-0.28515625,0.07421875,0.64453125,-0.3359375,0.31640625,-7.1015625,0.98046875,1.0
4818335,,,,,,,,-0.88671875,2.2265625,-0.34375,0.05859375,0.63671875,-0.333984375,0.27734375,-7.1796875,0.9453125,1.0
4818336,,,,,,,,-1.0703125,2.1875,-0.5078125,0.076171875,0.63671875,-0.326171875,0.125,-7.21875,0.7890625,1.0
4818337,,,,,,,,-1.23046875,2.140625,-0.55859375,0.1015625,0.634765625,-0.30859375,-0.02734375,-7.26171875,0.75390625,1.0
4818338,,,,,,,,-1.27734375,2.06640625,-0.61328125,0.10546875,0.63671875,-0.30078125,-0.06640625,-7.33203125,0.71484375,1.0
4818339,,,,,,,,-1.42578125,1.98046875,-0.59765625,0.138671875,0.638671875,-0.2578125,-0.18359375,-7.40625,0.75390625,1.0
4818340,36.01342016666667,129.31950116666667,81.23874133108033,113.19729364880902,1.1,13.0,,-1.66796875,1.85546875,-0.5625,0.162109375,0.6328125,-0.201171875,-0.41015625,-7.52734375,0.828125,1.0
4818341,,,,,,,,-1.67578125,1.7265625,-0.5390625,0.18359375,0.576171875,-0.142578125,-0.41015625,-7.64453125,0.90625,1.0
4818342,,,,,,,,-1.72265625,1.6875,-0.6015625,0.162109375,0.517578125,-0.12890625,-0.44921875,-7.6796875,0.8671875,1.0
4818343,,,,,,,,-1.640625,1.6796875,-0.51171875,0.150390625,0.45703125,-0.115234375,-0.375,-7.6796875,0.98046875,1.0
4818344,,,,,,,,-1.609375,1.6796875,-0.48046875,0.146484375,0.431640625,-0.109375,-0.3359375,-7.68359375,1.01953125,1.0
4818345,,,,,,,,-1.5703125,1.56640625,-0.53515625,0.15625,0.38671875,-0.1015625,-0.296875,-7.79296875,0.98046875,1.0
4818346,,,,,,,,-1.5625,1.3671875,-0.671875,0.166015625,0.341796875,-0.087890625,-0.296875,-7.984375,0.8671875,1.0
4818347,,,,,,,,-1.53125,1.12890625,-0.83203125,0.16015625,0.314453125,-0.08203125,-0.2578125,-8.21484375,0.71484375,1.0
4818348,,,,,,,,-1.53125,0.82421875,-0.93359375,0.150390625,0.267578125,-0.06640625,-0.2578125,-8.515625,0.63671875,1.0
4818349,,,,,,,,-1.53125,0.62109375,-0.90234375,0.125,0.244140625,-0.05859375,-0.2578125,-8.7109375,0.67578125,1.0
4818350,36.01342133333333,129.31950166666667,81.28381433679161,113.32674652343832,1.1,16.0,,-1.484375,0.01171875,-0.61328125,0.162109375,0.6328125,-0.201171875,-0.21875,-9.32421875,0.98046875,1.0
4818351,,,,,,,,-1.41796875,-0.21875,-0.46484375,0.08203125,0.177734375,-0.04296875,-0.14453125,-9.5546875,1.13671875,1.0
4818352,,,,,,,,-1.32421875,-0.41796875,-0.2890625,0.078125,0.134765625,-0.04296875,-0.06640625,-9.7421875,1.328125,1.0
4818353,,,,,,,,-1.21875,-0.53515625,-0.296875,0.076171875,0.125,-0.03515625,0.046875,-9.859375,1.328125,1.0
4818354,,,,,,,,-1.1328125,-0.49609375,-0.23046875,0.0859375,0.115234375,-0.04296875,0.125,-9.8203125,1.40234375,1.0
4818355,,,,,,,,-0.94140625,-0.42578125,-0.16015625,0.0859375,0.11328125,-0.0390625,0.31640625,-9.74609375,1.48046875,1.0
4818356,,,,,,,,-0.7109375,-0.359375,-0.12890625,0.06640625,0.111328125,-0.046875,0.546875,-9.671875,1.51953125,1.0
4818357,,,,,,,,-0.51953125,-0.39453125,-0.26171875,0.01171875,0.126953125,-0.068359375,0.73828125,-9.70703125,1.40234375,1.0
4818358,,,,,,,,-0.4453125,-0.43359375,-0.375,-0.0234375,0.12890625,-0.07421875,0.8125,-9.74609375,1.2890625,1.0
4818359,,,,,,,,-0.4453125,-0.39453125,-0.4453125,-0.107421875,0.138671875,-0.087890625,0.8125,-9.70703125,1.2109375,1.0
4818360,36.01342233333333,129.31950216666667,81.32888751521953,113.43770618972265,1.2000000000000002,21.0,,-0.375,-0.203125,-0.54296875,0.162109375,0.6328125,-0.201171875,0.890625,-9.51953125,1.09765625,1.0
4818361,,,,,,,,-0.2890625,-0.16796875,-0.60546875,-0.365234375,0.20703125,-0.09375,0.890625,-9.4375,0.98046875,1.0
4818362,,,,,,,,-0.453125,0.140625,-0.53515625,-0.46484375,0.240234375,-0.087890625,0.69921875,-9.09765625,1.05859375,1.0
4818363,,,,,,,,-0.64453125,0.30859375,-0.35546875,-0.552734375,0.271484375,-0.064453125,0.31640625,-9.13671875,1.328125,1.0
4818364,,,,,,,,-1.02734375,-0.11328125,-0.1171875,-0.630859375,0.263671875,-0.033203125,0.1640625,-9.90234375,1.40234375,1.0
4818365,,,,,,,,-1.2109375,-1.70703125,0.05078125,-0.75,0.171875,0.0,0.0859375,-11.62890625,1.59375,1.0
4818366,,,,,,,,-1.171875,-2.28125,0.1953125,-0.818359375,0.099609375,0.01953125,0.23828125,-12.16015625,1.82421875,1.0
4818367,,,,,,,,-0.75,-3.109375,1.04296875,-0.8828125,-0.04296875,0.03125,1.12109375,-12.85546875,3.47265625,1.0
4818368,,,,,,,,0.33203125,-3.75,2.5,-0.80078125,-0.134765625,0.03125,2.1171875,-13.421875,3.81640625,1.0
4818369,,,,,,,,1.79296875,-4.80859375,2.5390625,-0.734375,-0.14453125,0.037109375,3.6484375,-14.38671875,3.77734375,1.0
4818370,36.01342316666667,129.3195031666667,81.4190350670219,113.53017306612807,1.2000000000000002,29.0,,2.90625,-4.72265625,2.875,-0.634765625,-0.0390625,0.0234375,4.56640625,-13.50390625,4.31640625,1.0
4818371,,,,,,,,3.21875,-2.2265625,3.62890625,-0.27734375,0.19921875,-0.017578125,4.453125,-11.625,4.66015625,1.0
4818372,,,,,,,,1.953125,-1.765625,3.61328125,0.03515625,0.388671875,-0.076171875,3.1875,-11.16796875,4.62109375,1.0
4818373,,,,,,,,-0.07421875,-1.99609375,3.94921875,0.171875,0.376953125,-0.087890625,1.16015625,-11.39453125,4.96484375,1.0
4818374,,,,,,,,-0.95703125,-2.1875,4.03515625,0.291015625,0.234375,-0.080078125,0.27734375,-11.5859375,5.08203125,1.0
4818375,,,,,,,,-1.2265625,-2.04296875,3.16015625,0.365234375,0.0859375,-0.033203125,0.0078125,-11.43359375,4.23828125,1.0
4818376,,,,,,,,-1.1484375,-1.890625,2.83984375,0.353515625,0.052734375,0.0078125,0.0859375,-11.28125,3.93359375,1.0
4818377,,,,,,,,-0.796875,-1.046875,2.171875,0.291015625,0.07421875,0.103515625,0.4296875,-10.44140625,3.3203125,1.0
4818378,,,,,,,,-0.6640625,-0.01171875,1.95703125,0.224609375,0.125,0.1953125,0.546875,-9.3984375,3.12890625,1.0
4818379,,,,,,,,-0.625,0.41796875,1.42578125,0.06640625,0.107421875,0.3125,0.546875,-8.98046875,2.62890625,1.0
4818380,36.01342416666667,129.31950383333333,81.47913297154577,113.64113287314426,1.2000000000000002,31.0,,-0.47265625,0.30859375,0.921875,-0.078125,0.04296875,0.35546875,0.66015625,-9.09375,2.1328125,1.0
4818381,,,,,,,,-0.31640625,0.125,0.8203125,-0.251953125,-0.017578125,0.37890625,0.73828125,-9.36328125,1.9765625,1.0
4818382,,,,,,,,-0.33984375,0.05078125,0.7890625,-0.279296875,-0.017578125,0.37890625,0.69921875,-9.29296875,1.86328125,1.0
4818383,,,,,,,,-0.37890625,0.21875,0.65234375,-0.279296875,0.00390625,0.373046875,0.5859375,-9.1328125,1.75,1.0
4818384,,,,,,,,-0.4921875,0.49609375,0.64453125,-0.220703125,0.044921875,0.3515625,0.5078125,-8.828125,1.7109375,1.0
4818385,,,,,,,,-0.55859375,0.9609375,0.39453125,-0.138671875,0.099609375,0.318359375,0.31640625,-8.33203125,1.40234375,1.0
4818386,,,,,,,,-0.65234375,1.26953125,0.2578125,-0.1171875,0.115234375,0.30859375,0.27734375,-8.06640625,1.3671875,1.0
4818387,,,,,,,,-0.58203125,1.5078125,0.2265625,-0.08203125,0.125,0.28515625,0.31640625,-7.71875,1.13671875,1.0
4818388,,,,,,,,-0.51171875,1.859375,-0.08203125,-0.048828125,0.138671875,0.267578125,0.46875,-7.5234375,0.98046875,1.0
4818389,,,,,,,,-0.3515625,2.05078125,-0.12109375,-0.041015625,0.14453125,0.25390625,0.5078125,-7.40625,0.98046875,1.0
4818390,36.01342483333334,129.31950450000002,81.53923122461148,113.71510626443852,1.0,32.0,,-0.47265625,0.30859375,0.921875,-0.03515625,0.162109375,0.220703125,0.66015625,-9.09375,2.1328125,1.0
4818391,,,,,,,,0.21484375,2.328125,-0.12109375,-0.02734375,0.15625,0.1953125,1.00390625,-7.140625,0.98046875,1.0
4818392,,,,,,,,0.4609375,2.35546875,-0.2421875,-0.001953125,0.16015625,0.16015625,1.234375,-7.10546875,0.8671875,1.0
4818393,,,,,,,,0.5546875,2.36328125,-0.28125,-0.00390625,0.177734375,0.140625,1.3125,-7.1015625,0.828125,1.0
4818394,,,,,,,,0.76171875,2.171875,-0.25,0.0234375,0.212890625,0.107421875,1.50390625,-7.30078125,0.8671875,1.0
4818395,,,,,,,,0.890625,2.2109375,-0.2578125,0.0390625,0.228515625,0.052734375,1.6171875,-7.26171875,0.8671875,1.0
4818396,,,,,,,,0.96875,2.2109375,-0.2578125,0.068359375,0.234375,-0.0078125,1.6953125,-7.2578125,0.8671875,1.0
4818397,,,,,,,,0.9375,2.05859375,-0.43359375,0.103515625,0.248046875,-0.076171875,1.65625,-7.41015625,0.71484375,1.0
4818398,,,,,,,,0.890625,1.97265625,-0.48046875,0.1171875,0.267578125,-0.09765625,1.6171875,-7.484375,0.67578125,1.0
4818399,,,,,,,,0.69921875,1.78125,-0.6875,0.12109375,0.296875,-0.134765625,1.42578125,-7.6796875,0.484375,1.0
