time,latitude,longitude,enu_x,enu_y,speed,course,ecg,accX,accY,accZ,gyrX,gyrY,gyrZ,eulR,eulP,eulY,validity
4751480,36.0134165,129.3195035,81.44909139146863,112.79044501475869,1.1,217.0,,-0.06640625,-0.13671875,1.62109375,-0.451171875,-0.177734375,0.10546875,-0.375,-11.3515625,3.7421875,1.0
4751481,,,,,,,,-0.5625,-0.06640625,1.58984375,-0.0625,0.05078125,-0.3984375,0.1640625,-9.3984375,3.39453125,1.0
4751482,,,,,,,,-0.79296875,0.0546875,1.28515625,-0.017578125,0.001953125,-0.404296875,-0.02734375,-9.2890625,3.08984375,1.0
4751483,,,,,,,,-0.796875,0.0859375,0.9765625,0.005859375,-0.05859375,-0.392578125,0.0078125,-9.25390625,2.78125,1.0
4751484,,,,,,,,-0.671875,0.39453125,0.671875,0.03125,-0.076171875,-0.36328125,0.1640625,-8.9375,2.4765625,1.0
4751485,,,,,,,,-0.55859375,0.69921875,0.39453125,0.052734375,-0.06640625,-0.32421875,0.31640625,-8.63671875,2.20703125,1.0
4751486,,,,,,,,-0.55078125,1.12109375,0.00390625,0.078125,-0.0546875,-0.28515625,0.35546875,-8.2109375,1.82421875,1.0
4751487,,,,,,,,-0.65234375,1.15234375,-0.1171875,0.08203125,-0.0625,-0.267578125,0.27734375,-8.17578125,1.7109375,1.0
4751488,,,,,,,,-0.61328125,1.3359375,-0.30859375,0.080078125,-0.1171875,-0.25,0.35546875,-7.984375,1.51953125,1.0
4751489,,,,,,,,-0.5625,1.48046875,-0.4765625,0.076171875,-0.181640625,-0.24609375,0.4296875,-7.828125,1.3671875,1.0
4751490,36.01341583333333,129.31950283333333,81.3889931340833,112.71647162491749,1.0,216.0,,-0.40234375,1.671875,-0.6484375,0.1015625,-0.208984375,-0.2421875,0.62109375,-7.64453125,1.2109375,1.0
4751491,,,,,,,,-0.5390625,1.78515625,-0.84765625,0.115234375,-0.220703125,-0.23046875,0.5078125,-7.52734375,1.01953125,1.0
4751492,,,,,,,,-0.640625,1.77734375,-0.96875,0.142578125,-0.236328125,-0.20703125,0.39453125,-7.52734375,0.90625,1.0
4751493,,,,,,,,-0.73828125,1.7421875,-1.0546875,0.154296875,-0.240234375,-0.189453125,0.27734375,-7.6015625,0.7890625,1.0
4751494,,,,,,,,-0.953125,1.54296875,-1.109375,0.15625,-0.25,-0.1640625,0.1640625,-7.83203125,0.7890625,1.0
4751495,,,,,,,,-0.9765625,1.38671875,-1.078125,0.14453125,-0.26953125,-0.140625,0.1640625,-7.91015625,0.828125,1.0
4751496,,,,,,,,-0.984375,1.2265625,-1.0078125,0.162109375,-0.26953125,-0.125,0.1640625,-8.06640625,0.90625,1.0
4751497,,,,,,,,-0.93359375,1.06640625,-0.9921875,0.189453125,-0.271484375,-0.08984375,0.23828125,-8.21484375,0.9453125,1.0
4751498,,,,,,,,-0.94140625,0.9453125,-1.078125,0.21484375,-0.26953125,-0.056640625,0.23828125,-8.328125,0.8671875,1.0
4751499,,,,,,,,-0.87890625,0.8984375,-1.1015625,0.232421875,-0.265625,-0.037109375,0.31640625,-8.37109375,0.8671875,1.0
4751500,36.01341516666666,129.31950216666667,81.32889487722287,112.64249823550855,1.0,217.0,0.0,-0.84765625,0.9375,-1.00390625,0.23828125,-0.26171875,-0.0234375,0.35546875,-8.328125,0.98046875,1.0
4751501,,,,,,,,-0.734375,1.08203125,-1.0625,0.26171875,-0.263671875,-0.001953125,0.46875,-8.171875,0.9453125,1.0
4751502,,,,,,,,-0.7421875,1.12109375,-1.109375,0.279296875,-0.265625,0.00390625,0.46875,-8.1328125,0.90625,1.0
4751503,,,,,,,,-0.6640625,1.1484375,-1.25,0.29296875,-0.25390625,0.0078125,0.546875,-8.1015625,0.7890625,1.0
4751504,,,,,,,,-0.6328125,1.06640625,-1.32421875,0.267578125,-0.24609375,0.01171875,0.5859375,-8.171875,0.75390625,1.0
4751505,,,,,,,,-0.51953125,0.7890625,-1.41796875,0.21875,-0.267578125,0.005859375,0.69921875,-8.4453125,0.67578125,1.0
4751506,,,,,,,,-0.296875,0.62890625,-1.38671875,0.208984375,-0.28515625,0.001953125,0.9296875,-8.59375,0.71484375,1.0
4751507,,,,,,,,-0.265625,0.66015625,-1.40234375,0.154296875,-0.306640625,0.0,0.96875,-8.5546875,0.71484375,1.0
4751508,,,,,,,,-0.3125,0.69921875,-1.3359375,0.126953125,-0.302734375,-0.017578125,0.9296875,-8.515625,0.7890625,1.0
4751509,,,,,,,,-0.4296875,0.65234375,-1.3359375,0.125,-0.29296875,-0.01953125,0.8125,-8.55859375,0.7890625,1.0
4751510,36.013414499999996,129.3195015,81.26879661715108,112.56852484589932,1.0,217.0,,-0.63671875,0.48828125,-1.2265625,0.076171875,-0.322265625,-0.041015625,0.62109375,-8.7109375,0.90625,1.0
4751511,,,,,,,,-0.65234375,-0.16015625,-0.8046875,0.01953125,-0.37109375,-0.05078125,0.62109375,-9.36328125,1.328125,1.0
4751512,,,,,,,,-0.58984375,-0.27734375,-0.765625,0.005859375,-0.396484375,-0.04296875,0.69921875,-9.48046875,1.3671875,1.0
4751513,,,,,,,,-0.55859375,-0.51171875,-0.60546875,0.001953125,-0.412109375,-0.03125,0.73828125,-9.70703125,1.51953125,1.0
4751514,,,,,,,,-0.453125,-0.70703125,-0.55859375,0.0,-0.419921875,-0.025390625,0.8515625,-9.90234375,1.55859375,1.0
4751515,,,,,,,,-0.421875,-0.58984375,-0.484375,-0.00390625,-0.419921875,-0.01171875,0.890625,-9.78125,1.6328125,1.0
4751516,,,,,,,,-0.4375,-0.4375,-0.515625,0.025390625,-0.39453125,-0.0078125,0.890625,-9.63671875,1.59375,1.0
4751517,,,,,,,,-0.484375,-0.4765625,-0.70703125,0.013671875,-0.3671875,0.0,0.8515625,-9.67578125,1.40234375,1.0
4751518,,,,,,,,-0.484375,-0.51953125,-0.8046875,-0.064453125,-0.365234375,0.017578125,0.8515625,-9.70703125,1.2890625,1.0
4751519,,,,,,,,-0.4140625,-0.484375,-0.796875,-0.10546875,-0.365234375,0.033203125,0.9296875,-9.671875,1.2890625,1.0
4751520,36.01341383333333,129.31950066666667,81.19367362279702,112.494551318656,1.2000000000000002,220.0,,-0.26171875,-0.16796875,-0.78125,0.076171875,-0.322265625,-0.041015625,0.62109375,-8.7109375,0.90625,1.0
4751521,,,,,,,,-0.375,0.2890625,-0.95703125,-0.166015625,-0.310546875,0.05078125,0.96875,-8.91015625,1.09765625,1.0
4751522,,,,,,,,-0.64453125,0.3359375,-0.89453125,-0.212890625,-0.28515625,0.0625,0.69921875,-8.8671875,1.13671875,1.0
4751523,,,,,,,,-1.140625,-0.95703125,-0.609375,-0.359375,-0.369140625,0.083984375,0.203125,-10.16796875,1.3671875,1.0
4751524,,,,,,,,-0.94921875,-2.24609375,-0.21875,-0.54296875,-0.5625,0.103515625,0.39453125,-11.47265625,1.7109375,1.0
4751525,,,,,,,,0.0078125,-4.91796875,1.19140625,-0.7265625,-0.7734375,0.109375,1.3515625,-14.1484375,3.05078125,1.0
4751526,,,,,,,,0.50390625,-6.01953125,1.73046875,-0.796875,-0.873046875,0.11328125,1.84765625,-15.2578125,3.55078125,1.0
4751527,,,,,,,,2.71875,-8.11328125,2.58984375,-0.890625,-1.09765625,0.123046875,4.0703125,-17.37109375,4.31640625,1.0
4751528,,,,,,,,4.97265625,-4.91796875,2.109375,-0.748046875,-1.12109375,0.09765625,6.33203125,-14.19140625,3.7421875,1.0
4751529,,,,,,,,4.609375,-1.69140625,1.12890625,-0.1640625,-0.69140625,0.03515625,5.984375,-10.96875,2.70703125,1.0
4751530,36.013413,129.3194995,81.08850132403838,112.40208430693032,1.2000000000000002,222.0,,2.234375,0.421875,1.01171875,0.076171875,-0.322265625,-0.041015625,3.609375,-8.8671875,2.58984375,1.0
4751531,,,,,,,,0.80859375,0.375,1.6171875,0.41015625,-0.138671875,-0.052734375,1.46484375,-9.29296875,3.5859375,1.0
4751532,,,,,,,,-1.15234375,-1.23828125,2.23828125,0.337890625,-0.525390625,-0.009765625,0.23828125,-10.5078125,3.89453125,1.0
4751533,,,,,,,,-1.42578125,-2.47265625,2.09765625,0.302734375,-0.89453125,0.0703125,0.0078125,-12.0859375,3.703125,1.0
4751534,,,,,,,,-0.8203125,-2.89453125,1.81640625,0.3671875,-1.05859375,0.16015625,1.04296875,-11.89453125,3.39453125,1.0
4751535,,,,,,,,0.51171875,-1.29296875,1.5078125,0.52734375,-0.9140625,0.267578125,1.92578125,-10.546875,3.2421875,1.0
4751536,,,,,,,,0.6796875,-0.48828125,1.28515625,0.54296875,-0.7578125,0.349609375,2.0390625,-9.4765625,2.8984375,1.0
4751537,,,,,,,,0.46484375,-0.06640625,1.015625,0.484375,-0.716796875,0.44921875,1.65625,-9.171875,2.70703125,1.0
4751538,,,,,,,,0.06640625,0.15234375,0.79296875,0.375,-0.787109375,0.51171875,1.42578125,-9.09765625,2.62890625,1.0
4751539,,,,,,,,0.3359375,-0.22265625,0.6484375,0.2734375,-0.91796875,0.529296875,1.65625,-9.4765625,2.515625,1.0
4751540,36.013412333333335,129.319499,81.04342779642008,112.32811105808548,1.1,220.0,,0.64453125,-0.7578125,0.671875,0.076171875,-0.322265625,-0.041015625,3.609375,-8.8671875,2.58984375,1.0
4751541,,,,,,,,0.40625,-0.25,0.6640625,0.19921875,-0.994140625,0.517578125,1.65625,-9.51953125,2.5546875,1.0
4751542,,,,,,,,0.29296875,0.25390625,0.37109375,0.34375,-0.912109375,0.482421875,1.50390625,-9.01953125,2.28515625,1.0
4751543,,,,,,,,0.453125,1.59375,-0.28125,0.400390625,-0.88671875,0.45703125,1.6171875,-7.68359375,1.671875,1.0
4751544,,,,,,,,0.66015625,1.94140625,-0.44140625,0.3984375,-0.880859375,0.44921875,1.80859375,-7.328125,1.51953125,1.0
4751545,,,,,,,,0.8671875,2.33203125,-0.625,0.3671875,-0.875,0.4375,2.0,-6.94921875,1.3671875,1.0
4751546,,,,,,,,1.09765625,2.7421875,-0.65625,0.291015625,-0.88671875,0.400390625,2.19140625,-6.53125,1.3671875,1.0
4751547,,,,,,,,1.22265625,2.78125,-0.703125,0.287109375,-0.908203125,0.388671875,2.30859375,-6.49609375,1.328125,1.0
4751548,,,,,,,,1.3515625,2.515625,-0.87109375,0.279296875,-0.947265625,0.373046875,2.421875,-6.7578125,1.17578125,1.0
4751549,,,,,,,,1.4296875,2.515625,-0.87890625,0.2734375,-0.966796875,0.36328125,2.5,-6.76171875,1.17578125,1.0
4751550,36.01341166666667,129.31949833333334,80.98332953478028,112.25413767119537,1.0,218.0,,1.78125,2.46875,-0.96484375,0.25390625,-0.990234375,0.345703125,2.84375,-6.80078125,1.09765625,1.0
4751551,,,,,,,,1.828125,2.3828125,-0.98828125,0.24609375,-0.951171875,0.310546875,2.8828125,-6.875,1.09765625,1.0
4751552,,,,,,,,1.875,2.31640625,-0.95703125,0.25390625,-0.916015625,0.294921875,2.921875,-6.94921875,1.13671875,1.0
4751553,,,,,,,,1.84375,2.16015625,-0.90625,0.27734375,-0.791015625,0.255859375,2.8828125,-7.10546875,1.2109375,1.0
4751554,,,,,,,,1.66015625,2.1171875,-0.921875,0.279296875,-0.73828125,0.228515625,2.69140625,-7.14453125,1.2109375,1.0
4751555,,,,,,,,1.46875,2.15234375,-0.8671875,0.267578125,-0.69140625,0.1953125,2.5,-7.10546875,1.2890625,1.0
4751556,,,,,,,,1.4375,2.19140625,-0.9140625,0.267578125,-0.658203125,0.177734375,2.4609375,-7.06640625,1.25,1.0
4751557,,,,,,,,1.390625,2.18359375,-1.00390625,0.30859375,-0.57421875,0.171875,2.421875,-7.0625,1.17578125,1.0
4751558,,,,,,,,1.36328125,2.13671875,-1.02734375,0.3359375,-0.525390625,0.17578125,2.38671875,-7.1015625,1.17578125,1.0
4751559,,,,,,,,1.35546875,2.0546875,-1.04296875,0.3359375,-0.4921875,0.171875,2.38671875,-7.18359375,1.17578125,1.0
4751560,36.01341083333333,129.31949783333332,80.93825617362059,112.16167121383407,1.0,214.0,,1.40625,1.625,-1.09765625,0.25390625,-0.990234375,0.345703125,2.421875,-7.6015625,1.17578125,1.0
4751561,,,,,,,,1.5703125,1.1875,-1.12890625,0.294921875,-0.341796875,0.169921875,2.578125,-8.02734375,1.17578125,1.0
4751562,,,,,,,,1.5,1.06640625,-1.23046875,0.296875,-0.28125,0.169921875,2.5,-8.1328125,1.09765625,1.0
4751563,,,,,,,,1.34765625,0.90234375,-1.29296875,0.2890625,-0.212890625,0.1640625,2.34765625,-8.2890625,1.05859375,1.0
4751564,,,,,,,,1.35546875,0.8203125,-1.19140625,0.25,-0.154296875,0.146484375,2.34765625,-8.3671875,1.17578125,1.0
4751565,,,,,,,,1.33203125,0.54296875,-0.96484375,0.205078125,-0.119140625,0.1328125,2.30859375,-8.6328125,1.44140625,1.0
4751566,,,,,,,,1.37109375,0.23828125,-0.92578125,0.185546875,-0.107421875,0.12890625,2.34765625,-8.94140625,1.48046875,1.0
4751567,,,,,,,,1.41796875,-0.1171875,-0.828125,0.154296875,-0.08203125,0.125,2.38671875,-9.2890625,1.59375,1.0
4751568,,,,,,,,1.4609375,-0.57421875,-0.765625,0.125,-0.064453125,0.125,2.421875,-9.7421875,1.671875,1.0
4751569,,,,,,,,1.5390625,-0.65234375,-0.65234375,0.111328125,-0.046875,0.123046875,2.5,-9.82421875,1.78515625,1.0
4751570,36.01341,129.3194975,80.90820755467547,112.06920489618949,1.0,211.0,,1.625,-0.73828125,-0.66015625,0.25390625,-0.990234375,0.345703125,2.578125,-9.8984375,1.78515625,1.0
4751571,,,,,,,,1.5546875,-0.54296875,-0.7734375,0.10546875,0.001953125,0.111328125,2.5,-9.70703125,1.671875,1.0
4751572,,,,,,,,1.40234375,-0.4296875,-0.90234375,0.099609375,0.01953125,0.099609375,2.34765625,-9.59375,1.55859375,1.0
4751573,,,,,,,,0.91796875,-0.3984375,-1.140625,0.0703125,0.04296875,0.09765625,1.84765625,-9.55859375,1.328125,1.0
4751574,,,,,,,,0.6875,-0.4765625,-1.1015625,-0.052734375,0.046875,0.107421875,1.50390625,-9.70703125,1.40234375,1.0
4751575,,,,,,,,0.51171875,-0.58984375,-0.91015625,-0.12109375,0.0390625,0.111328125,1.3515625,-9.8203125,1.6328125,1.0
4751576,,,,,,,,0.4375,-0.66015625,-0.703125,-0.1640625,0.02734375,0.103515625,1.3515625,-9.8203125,1.75,1.0
4751577,,,,,,,,0.4921875,-0.32421875,-0.57421875,-0.201171875,-0.001953125,0.1171875,1.390625,-9.48046875,1.86328125,1.0
4751578,,,,,,,,0.60546875,0.06640625,-0.46484375,-0.21875,-0.03125,0.111328125,1.50390625,-9.09765625,1.94140625,1.0
4751579,,,,,,,,1.109375,-0.0390625,-0.40625,-0.25,-0.068359375,0.119140625,2.0,-9.21484375,1.9765625,1.0
4751580,36.013409,129.31949699999998,80.86313436459585,111.95824523270971,1.1,203.0,,1.42578125,-0.98828125,-0.6015625,-0.384765625,-0.158203125,0.1328125,2.30859375,-10.1640625,1.75,1.0
4751581,,,,,,,,1.31640625,-2.390625,-0.5546875,-0.603515625,-0.2578125,0.134765625,2.19140625,-11.58984375,1.75,1.0
4751582,,,,,,,,0.66796875,-1.67578125,0.81640625,-0.74609375,-0.125,0.068359375,1.54296875,-10.890625,3.01171875,1.0
4751583,,,,,,,,0.515625,-1.6328125,1.1875,-0.701171875,0.04296875,0.04296875,1.390625,-10.86328125,3.359375,1.0
4751584,,,,,,,,0.24609375,-2.640625,1.515625,-0.671875,0.251953125,0.06640625,1.12109375,-11.89453125,3.625,1.0
4751585,,,,,,,,-0.6953125,-4.20703125,1.921875,-0.81640625,0.078125,0.08984375,-0.10546875,-13.38671875,4.390625,1.0
4751586,,,,,,,,-1.42578125,-3.0390625,3.3046875,-0.583984375,0.1171875,0.046875,-0.640625,-10.97265625,5.38671875,1.0
4751587,,,,,,,,-1.4609375,-1.34765625,3.43359375,-0.193359375,0.1171875,0.02734375,-0.52734375,-10.4375,5.2734375,1.0
4751588,,,,,,,,-1.37890625,-1.1484375,3.3671875,-0.078125,0.06640625,0.025390625,-0.14453125,-10.32421875,4.96484375,1.0
4751589,,,,,,,,-0.6953125,-1.109375,3.0390625,-0.029296875,-0.099609375,0.02734375,0.46875,-10.55078125,4.96484375,1.0
4751590,36.01340783333333,129.31949683333332,80.8481108195371,111.82879263653362,1.2000000000000002,196.0,,-0.08203125,-1.484375,3.0390625,-0.09765625,-0.23046875,0.005859375,1.3125,-11.16796875,4.69921875,1.0
4751591,,,,,,,,0.64453125,-1.90625,2.5859375,-0.12890625,-0.3125,-0.021484375,1.6953125,-11.1640625,4.27734375,1.0
4751592,,,,,,,,1.1640625,-1.484375,2.1484375,-0.052734375,-0.294921875,-0.0703125,2.15625,-10.55078125,3.85546875,1.0
4751593,,,,,,,,1.2734375,-1.25390625,1.99609375,-0.021484375,-0.26171875,-0.08984375,2.15625,-10.36328125,3.625,1.0
4751594,,,,,,,,1.25,-0.86328125,1.62109375,-0.033203125,-0.197265625,-0.140625,2.0390625,-10.05859375,3.359375,1.0
4751595,,,,,,,,0.8125,-0.51953125,1.3984375,-0.064453125,-0.08203125,-0.177734375,1.42578125,-9.74609375,3.28125,1.0
4751596,,,,,,,,-0.015625,-0.28125,1.7421875,-0.111328125,0.013671875,-0.20703125,0.9296875,-9.59375,3.5859375,1.0
4751597,,,,,,,,-0.26171875,-0.2109375,1.64453125,-0.125,-0.00390625,-0.203125,0.69921875,-9.515625,3.47265625,1.0
4751598,,,,,,,,-0.30859375,-0.12890625,1.5390625,-0.12109375,-0.0390625,-0.19921875,0.66015625,-9.44140625,3.359375,1.0
4751599,,,,,,,,-0.1953125,0.0625,0.89453125,-0.14453125,-0.126953125,-0.185546875,0.8125,-9.25,2.70703125,1.0
4751600,36.013407,129.31949666666665,80.83308693320674,111.73632645712121,1.1,194.0,0.0,-0.1875,0.40625,0.609375,-0.169921875,-0.18359375,-0.17578125,0.8515625,-8.91015625,2.3984375,1.0
4751601,,,,,,,,-0.25,0.68359375,0.359375,-0.1640625,-0.1953125,-0.16796875,0.8125,-8.6328125,2.1328125,1.0
4751602,,,,,,,,-0.2265625,0.8359375,0.25,-0.154296875,-0.21484375,-0.158203125,0.8515625,-8.48828125,2.015625,1.0
4751603,,,,,,,,-0.203125,0.9921875,0.15234375,-0.1328125,-0.267578125,-0.162109375,0.890625,-8.33203125,1.90234375,1.0
4751604,,,,,,,,-0.15625,1.15234375,0.015625,-0.078125,-0.3515625,-0.177734375,0.96875,-8.17578125,1.75,1.0
4751605,,,,,,,,-0.15234375,1.41796875,-0.16015625,-0.033203125,-0.41015625,-0.189453125,1.00390625,-7.91015625,1.55859375,1.0
4751606,,,,,,,,-0.16015625,1.52734375,-0.23828125,-0.00390625,-0.43359375,-0.181640625,1.00390625,-7.7890625,1.48046875,1.0
4751607,,,,,,,,-0.3203125,1.83203125,-0.515625,0.0703125,-0.484375,-0.173828125,0.890625,-7.484375,1.2109375,1.0
4751608,,,,,,,,-0.421875,1.86328125,-0.66796875,0.09375,-0.49609375,-0.15625,0.8125,-7.4453125,1.05859375,1.0
4751609,,,,,,,,-0.54296875,1.86328125,-0.74609375,0.107421875,-0.5078125,-0.13671875,0.69921875,-7.4453125,0.98046875,1.0
4751610,36.013406333333336,129.31949633333335,80.80303813971281,111.66235334856728,0.9,195.0,,-0.765625,1.78515625,-0.78125,0.13671875,-0.49609375,-0.08203125,0.5078125,-7.5234375,0.9453125,1.0
4751611,,,,,,,,-0.94140625,1.703125,-0.7890625,0.158203125,-0.486328125,-0.04296875,0.35546875,-7.6015625,0.9453125,1.0
4751612,,,,,,,,-0.94921875,1.65625,-0.84375,0.185546875,-0.486328125,-0.005859375,0.35546875,-7.640625,0.90625,1.0
4751613,,,,,,,,-0.99609375,1.50390625,-0.859375,0.21875,-0.49609375,0.037109375,0.31640625,-7.7890625,0.90625,1.0
4751614,,,,,,,,-1.00390625,1.38671875,-0.9140625,0.25,-0.5,0.08203125,0.31640625,-7.90625,0.8671875,1.0
4751615,,,,,,,,-1.00390625,1.15234375,-1.0078125,0.267578125,-0.517578125,0.11328125,0.31640625,-8.13671875,0.7890625,1.0
4751616,,,,,,,,-1.00390625,1.07421875,-1.015625,0.26953125,-0.525390625,0.1328125,0.31640625,-8.21484375,0.7890625,1.0
4751617,,,,,,,,-1.00390625,0.8828125,-0.9140625,0.271484375,-0.52734375,0.1640625,0.31640625,-8.41015625,0.90625,1.0
4751618,,,,,,,,-0.84375,0.796875,-0.9375,0.271484375,-0.544921875,0.193359375,0.46875,-8.484375,0.90625,1.0
4751619,,,,,,,,-0.60546875,0.8671875,-0.88671875,0.28125,-0.576171875,0.22265625,0.69921875,-8.40625,0.98046875,1.0
4751620,36.0134055,129.31949633333335,80.80303899005948,111.5698873060931,0.9,191.0,,-0.55078125,0.9453125,-0.86328125,0.302734375,-0.587890625,0.2421875,0.73828125,-8.328125,1.01953125,1.0
4751621,,,,,,,,-0.57421875,0.9375,-0.93359375,0.3359375,-0.583984375,0.259765625,0.69921875,-8.328125,0.98046875,1.0
4751622,,,,,,,,-0.56640625,0.97265625,-1.0546875,0.34375,-0.5859375,0.263671875,0.69921875,-8.29296875,0.8671875,1.0
4751623,,,,,,,,-0.48046875,0.96484375,-1.15625,0.3359375,-0.61328125,0.267578125,0.77734375,-8.2890625,0.7890625,1.0
4751624,,,,,,,,-0.47265625,1.04296875,-1.20703125,0.330078125,-0.630859375,0.263671875,0.77734375,-8.21484375,0.75390625,1.0
4751625,,,,,,,,-0.34375,1.03515625,-1.203125,0.296875,-0.673828125,0.23828125,0.890625,-8.21484375,0.7890625,1.0
4751626,,,,,,,,-0.23046875,0.99609375,-1.171875,0.279296875,-0.677734375,0.232421875,1.00390625,-8.25,0.828125,1.0
4751627,,,,,,,,-0.10546875,0.8359375,-1.03515625,0.236328125,-0.67578125,0.205078125,1.12109375,-8.41015625,0.98046875,1.0
4751628,,,,,,,,-0.10546875,0.68359375,-1.078125,0.220703125,-0.673828125,0.197265625,1.12109375,-8.5546875,0.9453125,1.0
4751629,,,,,,,,0.5546875,0.1015625,-0.7421875,0.107421875,-0.69140625,0.1484375,1.7734375,-9.13671875,1.2890625,1.0
4751630,36.013404333333334,129.31949616666668,80.78801544362828,111.44043471185691,1.1,189.0,,0.5546875,-0.015625,-0.703125,0.08203125,-0.646484375,0.126953125,1.7734375,-9.25390625,1.328125,1.0
4751631,,,,,,,,0.32421875,-0.66796875,-0.703125,0.04296875,-0.57421875,0.12109375,1.54296875,-9.90234375,1.328125,1.0
4751632,,,,,,,,0.23828125,-0.89453125,-0.6484375,-0.013671875,-0.521484375,0.12890625,1.46484375,-10.12890625,1.3671875,1.0
4751633,,,,,,,,0.125,-1.05078125,-0.53515625,-0.0390625,-0.498046875,0.1328125,1.3515625,-10.28125,1.48046875,1.0
4751634,,,,,,,,0.09375,-1.04296875,-0.40625,-0.08203125,-0.44140625,0.138671875,1.3125,-10.28515625,1.59375,1.0
4751635,,,,,,,,-0.05078125,-0.8515625,-0.390625,-0.09765625,-0.37890625,0.146484375,1.16015625,-10.09375,1.59375,1.0
4751636,,,,,,,,-0.3125,-0.390625,-0.52734375,-0.123046875,-0.326171875,0.14453125,0.890625,-9.6328125,1.44140625,1.0
4751637,,,,,,,,-0.6953125,-0.0078125,-0.85546875,-0.1640625,-0.341796875,0.140625,0.5078125,-9.25390625,1.09765625,1.0
4751638,,,,,,,,-0.765625,0.078125,-1.0,-0.189453125,-0.36328125,0.12890625,0.4296875,-9.17578125,0.9453125,1.0
4751639,,,,,,,,-1.15625,0.26953125,-1.26953125,-0.28515625,-0.423828125,0.11328125,0.046875,-8.9765625,0.63671875,1.0
4751640,36.013403499999995,129.31949600000002,80.77299155576083,111.34796853189533,1.0,188.0,,-1.37890625,0.390625,-1.390625,0.08203125,-0.646484375,0.126953125,1.7734375,-9.25390625,1.328125,1.0
4751641,,,,,,,,-1.4921875,0.28515625,-1.265625,-0.453125,-0.576171875,0.12109375,-0.296875,-8.9765625,0.5625,1.0
4751642,,,,,,,,-1.5234375,-0.08984375,-1.16796875,-0.537109375,-0.646484375,0.134765625,-0.3359375,-9.359375,0.59765625,1.0
4751643,,,,,,,,-1.29296875,-1.37109375,-0.94921875,-0.71484375,-0.78125,0.1640625,-0.10546875,-10.66796875,0.71484375,1.0
4751644,,,,,,,,-0.51953125,-2.3515625,-0.14453125,-0.83984375,-0.90234375,0.1953125,0.66015625,-11.6640625,1.44140625,1.0
4751645,,,,,,,,0.8203125,-4.328125,0.984375,-0.900390625,-0.98046875,0.228515625,2.0,-13.66015625,2.4765625,1.0
4751646,,,,,,,,1.6640625,-5.8515625,1.3515625,-0.931640625,-1.017578125,0.236328125,2.84375,-15.1875,2.78125,1.0
4751647,,,,,,,,2.71484375,-5.828125,2.03125,-0.892578125,-1.154296875,0.205078125,3.87890625,-15.19140625,3.3203125,1.0
4751648,,,,,,,,3.55859375,-3.0234375,2.0703125,-0.501953125,-1.099609375,0.142578125,4.72265625,-12.390625,3.28125,1.0
4751649,,,,,,,,2.90625,-1.1015625,1.02734375,0.048828125,-0.908203125,0.060546875,4.0703125,-10.48046875,2.20703125,1.0
4751650,36.01340266666667,129.31949566666665,80.74294292820395,111.25550221564728,1.1,188.0,,1.55859375,-1.90625,0.9453125,0.08203125,-0.646484375,0.126953125,2.73046875,-11.28515625,2.1328125,1.0
4751651,,,,,,,,-0.15234375,-3.67578125,2.796875,0.251953125,-0.962890625,-0.021484375,1.04296875,-13.04296875,4.0078125,1.0
4751652,,,,,,,,-0.390625,-3.55859375,2.8671875,0.330078125,-1.015625,-0.005859375,0.8125,-12.921875,4.0859375,1.0
4751653,,,,,,,,-0.10546875,-2.3046875,1.59375,0.8203125,-1.076171875,0.146484375,1.12109375,-11.6640625,2.8984375,1.0
4751654,,,,,,,,0.0078125,-1.4296875,1.1796875,0.86328125,-1.0234375,0.205078125,1.234375,-10.78515625,2.515625,1.0
4751655,,,,,,,,-0.12890625,-0.3203125,0.88671875,0.794921875,-0.873046875,0.375,1.08203125,-9.671875,2.32421875,1.0
4751656,,,,,,,,-0.11328125,0.0546875,0.77734375,0.73046875,-0.87890625,0.416015625,1.08203125,-9.2890625,2.24609375,1.0
4751657,,,,,,,,0.03515625,0.171875,0.69140625,0.587890625,-0.962890625,0.46875,1.19921875,-9.171875,2.20703125,1.0
4751658,,,,,,,,0.27734375,0.01953125,0.515625,0.515625,-1.025390625,0.486328125,1.42578125,-9.3203125,2.0546875,1.0
4751659,,,,,,,,0.578125,0.02734375,0.37109375,0.421875,-1.123046875,0.509765625,1.6953125,-9.32421875,1.94140625,1.0
4751660,36.01340166666667,129.31949533333332,80.71289447221777,111.14454268932336,1.1,185.0,,0.625,0.140625,0.4296875,0.08203125,-0.646484375,0.126953125,1.734375,-9.2109375,2.015625,1.0
4751661,,,,,,,,0.50390625,0.6015625,0.32421875,0.384765625,-1.185546875,0.501953125,1.58203125,-8.75390625,1.94140625,1.0
4751662,,,,,,,,0.44140625,0.8671875,0.27734375,0.396484375,-1.185546875,0.48828125,1.50390625,-8.484375,1.90234375,1.0
4751663,,,,,,,,0.42578125,1.28125,0.1015625,0.439453125,-1.189453125,0.486328125,1.390625,-7.7890625,1.55859375,1.0
4751664,,,,,,,,0.375,2.0546875,-0.359375,0.46875,-1.228515625,0.470703125,1.390625,-7.296875,1.328125,1.0
4751665,,,,,,,,0.43359375,2.46875,-0.66015625,0.458984375,-1.263671875,0.4765625,1.50390625,-6.71875,1.01953125,1.0
4751666,,,,,,,,0.57421875,2.73828125,-0.796875,0.416015625,-1.28515625,0.466796875,1.54296875,-6.60546875,0.9453125,1.0
4751667,,,,,,,,1.02734375,2.96875,-1.14453125,0.345703125,-1.328125,0.455078125,1.96484375,-6.37890625,0.63671875,1.0
4751668,,,,,,,,1.47265625,2.5859375,-1.2421875,0.22265625,-1.26171875,0.443359375,2.38671875,-6.76171875,0.5625,1.0
4751669,,,,,,,,1.5234375,2.5078125,-1.16796875,0.197265625,-1.2265625,0.443359375,2.421875,-6.83984375,0.63671875,1.0
4751670,36.01340066666667,129.31949516666666,80.6978707508123,111.0335833024766,1.0,182.0,,1.5859375,2.4296875,-1.18359375,0.08203125,-0.646484375,0.126953125,1.734375,-9.2109375,2.015625,1.0
4751671,,,,,,,,1.6484375,2.125,-1.3046875,0.185546875,-1.029296875,0.38671875,2.5,-7.22265625,0.5234375,1.0
4751672,,,,,,,,1.734375,1.92578125,-1.08203125,0.16796875,-0.943359375,0.359375,2.578125,-7.41015625,0.75390625,1.0
4751673,,,,,,,,1.78515625,1.78125,-0.9765625,0.15234375,-0.7890625,0.30859375,2.61328125,-7.640625,0.8671875,1.0
4751674,,,,,,,,1.6484375,1.50390625,-0.67578125,0.15234375,-0.7109375,0.283203125,2.4609375,-7.828125,1.17578125,1.0
4751675,,,,,,,,1.58984375,1.50390625,-0.5703125,0.185546875,-0.626953125,0.259765625,2.38671875,-7.83203125,1.2890625,1.0
4751676,,,,,,,,1.50390625,1.50390625,-0.609375,0.212890625,-0.583984375,0.251953125,2.30859375,-7.828125,1.25,1.0
4751677,,,,,,,,1.44140625,1.42578125,-0.77734375,0.259765625,-0.515625,0.251953125,2.23046875,-7.90625,1.09765625,1.0
4751678,,,,,,,,1.49609375,1.19140625,-0.80078125,0.2578125,-0.466796875,0.25390625,2.26953125,-8.1328125,1.09765625,1.0
4751679,,,,,,,,1.6640625,0.72265625,-0.83203125,0.234375,-0.439453125,0.255859375,2.421875,-8.59765625,1.09765625,1.0
4751680,36.01339983333333,129.31949533333332,80.7128963413115,110.94111739949105,1.0,181.0,,1.8359375,0.37890625,-0.88671875,0.224609375,-0.408203125,0.259765625,2.578125,-8.94140625,1.05859375,1.0
4751681,,,,,,,,1.92578125,0.22265625,-1.0078125,0.240234375,-0.359375,0.248046875,2.65234375,-9.09375,0.9453125,1.0
4751682,,,,,,,,1.93359375,0.1796875,-1.140625,0.25390625,-0.32421875,0.244140625,2.65234375,-9.13671875,0.828125,1.0
4751683,,,,,,,,1.75,0.1328125,-1.0859375,0.2734375,-0.251953125,0.23046875,2.4609375,-9.171875,0.90625,1.0
4751684,,,,,,,,1.53515625,0.09375,-0.7265625,0.26953125,-0.15234375,0.21875,2.23046875,-9.2109375,1.2890625,1.0
4751685,,,,,,,,1.3125,0.046875,-0.3984375,0.2421875,-0.0625,0.208984375,2.0,-9.25390625,1.6328125,1.0
4751686,,,,,,,,1.3359375,-0.07421875,-0.19140625,0.24609375,-0.03515625,0.228515625,2.0,-9.359375,1.86328125,1.0
4751687,,,,,,,,1.5078125,-0.2265625,-0.0625,0.236328125,-0.08203125,0.259765625,2.15625,-9.51953125,2.015625,1.0
4751688,,,,,,,,1.71484375,-0.19921875,-0.23046875,0.197265625,-0.162109375,0.294921875,2.421875,-9.40234375,1.59375,1.0
4751689,,,,,,,,1.8046875,-0.12109375,-0.5078125,0.162109375,-0.17578125,0.294921875,2.4609375,-9.4375,1.44140625,1.0
4751690,36.013399,129.31949583333332,80.75797140680136,110.84865177229884,1.1,172.0,,1.8359375,0.37890625,-0.88671875,0.03125,-0.1796875,0.296875,2.5390625,-9.48046875,1.05859375,1.0
4751691,,,,,,,,1.8515625,-0.2734375,-1.14453125,-0.064453125,-0.140625,0.279296875,2.38671875,-9.59765625,0.98046875,1.0
4751692,,,,,,,,1.53125,-0.46484375,-1.08984375,-0.15234375,-0.095703125,0.259765625,1.92578125,-9.859375,1.05859375,1.0
4751693,,,,,,,,1.203125,-0.62109375,-0.99609375,-0.224609375,-0.0625,0.248046875,1.50390625,-9.98046875,1.13671875,1.0
4751694,,,,,,,,0.69921875,-0.57421875,-0.7734375,-0.271484375,-0.029296875,0.240234375,0.77734375,-9.6328125,1.328125,1.0
4751695,,,,,,,,0.17578125,-0.2578125,-0.62109375,-0.30859375,-0.001953125,0.232421875,0.5859375,-9.40234375,1.40234375,1.0
4751696,,,,,,,,0.109375,-0.10546875,-0.61328125,-0.357421875,-0.01953125,0.23046875,0.546875,-9.21484375,1.51953125,1.0
4751697,,,,,,,,0.20703125,0.1015625,-0.34375,-0.43359375,-0.099609375,0.23046875,0.77734375,-9.2890625,1.7109375,1.0
4751698,,,,,,,,0.75390625,-1.26953125,-0.49609375,-0.560546875,-0.23046875,0.248046875,1.19921875,-10.58984375,1.44140625,1.0
4751699,,,,,,,,0.77734375,-2.09765625,-0.6328125,-0.763671875,-0.412109375,0.251953125,1.19921875,-11.43359375,1.2109375,1.0
4751700,36.013398333333335,129.31949649999999,80.81807104080445,110.77467949342517,1.0,163.0,0.0,0.31640625,-2.38671875,0.05859375,-0.865234375,-0.427734375,0.1953125,0.73828125,-11.73828125,1.82421875,1.0
4751701,,,,,,,,-0.81640625,-2.9453125,1.29296875,-0.77734375,-0.232421875,0.14453125,-0.41015625,-12.31640625,2.97265625,1.0
4751702,,,,,,,,-1.1171875,-3.28515625,1.515625,-0.734375,-0.154296875,0.134765625,-0.71875,-12.66015625,3.1640625,1.0
4751703,,,,,,,,-2.41796875,-3.60546875,2.39453125,-0.693359375,-0.185546875,0.12890625,-2.01953125,-13.0,3.93359375,1.0
4751704,,,,,,,,-2.94921875,-2.41015625,3.48046875,-0.5234375,-0.287109375,0.109375,-2.55859375,-11.81640625,4.96484375,1.0
4751705,,,,,,,,-2.40234375,-1.0703125,3.55859375,-0.16796875,-0.40625,0.09765625,-2.01953125,-10.4765625,5.00390625,1.0
4751706,,,,,,,,-2.09765625,-0.87109375,3.3671875,-0.0078125,-0.4921875,0.1015625,-1.71484375,-10.28125,4.8125,1.0
4751707,,,,,,,,-1.30078125,-0.984375,2.984375,0.12109375,-0.662109375,0.126953125,-0.91015625,-10.40234375,4.4296875,1.0
4751708,,,,,,,,-0.2578125,-1.55859375,2.74609375,0.01171875,-0.787109375,0.1328125,0.125,-10.97265625,4.19921875,1.0
4751709,,,,,,,,0.203125,-1.59765625,2.6328125,0.001953125,-0.791015625,0.12109375,0.5859375,-11.0078125,4.0859375,1.0
4751710,36.013397499999996,129.31949716666668,80.8781708519158,110.68221400537072,1.0,155.0,,0.5390625,-0.9375,2.2109375,-0.865234375,-0.427734375,0.1953125,0.9296875,-10.36328125,3.6640625,1.0
4751711,,,,,,,,0.67578125,-0.44921875,1.90625,0.09375,-0.80859375,0.0,1.08203125,-9.859375,3.359375,1.0
4751712,,,,,,,,0.421875,0.05078125,1.46875,0.068359375,-0.822265625,-0.099609375,0.8515625,-9.36328125,2.9375,1.0
4751713,,,,,,,,0.29296875,-0.140625,1.4296875,0.015625,-0.818359375,-0.130859375,0.73828125,-9.5546875,2.8984375,1.0
4751714,,,,,,,,-0.0078125,-0.6328125,1.58984375,-0.09765625,-0.8203125,-0.16796875,0.46875,-10.0546875,3.05078125,1.0
4751715,,,,,,,,0.0078125,-0.78515625,1.52734375,-0.150390625,-0.87109375,-0.19921875,0.5078125,-10.20703125,2.97265625,1.0
4751716,,,,,,,,0.12109375,-0.671875,1.32421875,-0.12109375,-0.91796875,-0.212890625,0.66015625,-10.09375,2.74609375,1.0
4751717,,,,,,,,0.25,0.296875,0.49609375,-0.015625,-0.82421875,-0.2109375,0.8515625,-9.1328125,1.90234375,1.0
4751718,,,,,,,,0.1875,0.5234375,0.38671875,-0.01171875,-0.79296875,-0.205078125,0.8125,-8.90625,1.78515625,1.0
4751719,,,,,,,,0.12109375,0.79296875,0.2734375,-0.015625,-0.7578125,-0.19921875,0.77734375,-8.63671875,1.671875,1.0
4751720,36.01339633333334,129.31949733333335,80.89319678280815,110.55276168749526,1.1,159.0,,0.203125,1.12890625,0.08203125,0.005859375,-0.78515625,-0.1953125,0.890625,-8.2890625,1.48046875,1.0
4751721,,,,,,,,0.36328125,1.4765625,-0.26171875,0.046875,-0.82421875,-0.20703125,1.08203125,-7.94921875,1.13671875,1.0
4751722,,,,,,,,0.34765625,1.58984375,-0.37109375,0.064453125,-0.837890625,-0.20703125,1.08203125,-7.83203125,1.01953125,1.0
4751723,,,,,,,,0.29296875,1.93359375,-0.5703125,0.095703125,-0.84765625,-0.19921875,1.08203125,-7.48828125,0.828125,1.0
4751724,,,,,,,,0.125,2.08984375,-0.68359375,0.11328125,-0.841796875,-0.1953125,0.9296875,-7.33203125,0.71484375,1.0
4751725,,,,,,,,-0.20703125,2.125,-0.73046875,0.142578125,-0.8203125,-0.177734375,0.62109375,-7.30078125,0.67578125,1.0
4751726,,,,,,,,-0.58203125,2.01171875,-0.73828125,0.17578125,-0.798828125,-0.15234375,0.27734375,-7.41015625,0.67578125,1.0
4751727,,,,,,,,-0.7109375,2.00390625,-0.74609375,0.189453125,-0.78125,-0.140625,0.1640625,-7.41015625,0.67578125,1.0
4751728,,,,,,,,-1.04296875,1.95703125,-0.75390625,0.216796875,-0.77734375,-0.10546875,-0.14453125,-7.4453125,0.67578125,1.0
4751729,,,,,,,,-1.06640625,1.91796875,-0.69140625,0.232421875,-0.791015625,-0.05859375,-0.14453125,-7.484375,0.75390625,1.0
4751730,36.01339599999999,129.31949799999998,80.95329607963284,110.51577582270637,0.9,154.0,,-1.203125,1.64453125,-0.6875,0.2578125,-0.875,0.04296875,-0.2578125,-7.75390625,0.7890625,1.0
4751731,,,,,,,,-1.13671875,1.453125,-0.6640625,0.29296875,-0.927734375,0.080078125,-0.18359375,-7.9453125,0.828125,1.0
4751732,,,,,,,,-1.14453125,1.375,-0.79296875,0.310546875,-0.953125,0.10546875,-0.18359375,-8.02734375,0.71484375,1.0
4751733,,,,,,,,-1.11328125,1.25390625,-0.734375,0.328125,-1.001953125,0.140625,-0.14453125,-8.1328125,0.7890625,1.0
4751734,,,,,,,,-0.9609375,1.16796875,-0.83984375,0.353515625,-1.05859375,0.18359375,0.0078125,-8.21484375,0.71484375,1.0
4751735,,,,,,,,-0.64453125,1.16015625,-0.82421875,0.35546875,-1.0859375,0.20703125,0.31640625,-8.2109375,0.75390625,1.0
4751736,,,,,,,,-0.60546875,1.19140625,-0.99609375,0.353515625,-1.1015625,0.21875,0.35546875,-8.17578125,0.59765625,1.0
4751737,,,,,,,,-0.30078125,1.11328125,-1.01171875,0.34375,-1.111328125,0.228515625,0.66015625,-8.25390625,0.59765625,1.0
4751738,,,,,,,,-0.1015625,1.0,-1.125,0.328125,-1.10546875,0.22265625,0.8515625,-8.3671875,0.5234375,1.0
4751739,,,,,,,,0.08984375,0.875,-1.1328125,0.318359375,-1.10546875,0.224609375,1.04296875,-8.484375,0.5234375,1.0
4751740,36.013394999999996,129.31949866666668,81.01339606202319,110.40481712825553,1.0,151.0,,0.28125,0.63671875,-1.109375,0.294921875,-1.09375,0.208984375,1.234375,-8.7109375,0.5625,1.0
4751741,,,,,,,,0.3984375,0.5234375,-1.125,0.294921875,-1.083984375,0.181640625,1.3515625,-8.83203125,0.5625,1.0
4751742,,,,,,,,0.4296875,0.484375,-1.1796875,0.26953125,-1.05078125,0.158203125,1.390625,-8.87109375,0.5234375,1.0
4751743,,,,,,,,0.390625,0.4375,-1.1484375,0.259765625,-1.029296875,0.142578125,1.3515625,-8.91015625,0.5625,1.0
4751744,,,,,,,,0.50390625,0.35546875,-1.05078125,0.19140625,-0.96484375,0.099609375,1.46484375,-8.9765625,0.67578125,1.0
4751745,,,,,,,,0.6328125,0.0390625,-1.01953125,0.125,-0.96875,0.076171875,1.6171875,-9.2890625,0.71484375,1.0
4751746,,,,,,,,0.93359375,-0.07421875,-0.71484375,0.087890625,-0.9453125,0.0390625,1.92578125,-9.3984375,1.01953125,1.0
4751747,,,,,,,,1.18359375,-0.45703125,-0.63671875,0.080078125,-0.91015625,0.03125,2.19140625,-9.78125,1.09765625,1.0
4751748,,,,,,,,1.18359375,-0.57421875,-0.62890625,0.07421875,-0.8828125,0.03125,2.19140625,-9.8984375,1.09765625,1.0
4751749,,,,,,,,1.1328125,-0.83984375,-0.66015625,0.033203125,-0.802734375,0.033203125,2.15625,-10.1640625,1.05859375,1.0
4751750,36.01339433333333,129.3194993333333,81.07349570133734,110.33084484980448,1.0,149.0,,0.46484375,-0.7734375,-0.53515625,0.00390625,-0.603515625,0.046875,1.50390625,-10.09375,1.17578125,1.0
4751751,,,,,,,,0.11328125,-0.3125,-0.4140625,0.017578125,-0.474609375,0.0625,1.16015625,-9.6328125,1.2890625,1.0
4751752,,,,,,,,-0.15625,0.34765625,-0.60546875,0.0234375,-0.416015625,0.08203125,0.890625,-8.9765625,1.09765625,1.0
4751753,,,,,,,,-0.2265625,0.4921875,-0.68359375,0.01953125,-0.404296875,0.095703125,0.8125,-8.828125,1.01953125,1.0
4751754,,,,,,,,-0.53125,0.69140625,-0.8671875,-0.05078125,-0.40625,0.119140625,0.5078125,-8.6328125,0.828125,1.0
4751755,,,,,,,,-1.18359375,1.03515625,-0.796875,-0.208984375,-0.4453125,0.13671875,-0.14453125,-8.2890625,0.8671875,1.0
4751756,,,,,,,,-1.48046875,1.12109375,-0.61328125,-0.294921875,-0.5078125,0.150390625,-0.44921875,-8.21484375,1.01953125,1.0
4751757,,,,,,,,-1.98046875,0.74609375,-0.46484375,-0.365234375,-0.609375,0.16015625,-0.94921875,-8.59375,1.13671875,1.0
4751758,,,,,,,,-2.125,-0.48828125,-0.3671875,-0.408203125,-0.6640625,0.16796875,-1.1015625,-9.8203125,1.2109375,1.0
4751759,,,,,,,,-1.6171875,-2.92578125,0.484375,-0.69140625,-0.9921875,0.21875,-0.6015625,-12.2734375,1.9765625,1.0
4751760,36.0133935,129.31950016666667,81.14862025532192,110.23837950313636,1.1,145.0,,-0.61328125,-4.9375,1.53125,-0.890625,-1.310546875,0.240234375,1.50390625,-10.09375,1.17578125,1.0
4751761,,,,,,,,1.875,-7.3046875,2.64453125,-1.0234375,-1.615234375,0.259765625,2.8828125,-16.6796875,3.93359375,1.0
4751762,,,,,,,,3.90625,-5.6796875,3.25,-0.861328125,-1.734375,0.240234375,4.9140625,-15.0703125,4.4296875,1.0
4751763,,,,,,,,4.82421875,-1.4609375,1.93359375,-0.16015625,-1.37890625,0.14453125,5.83203125,-10.859375,3.05078125,1.0
4751764,,,,,,,,3.4375,-1.03125,0.9765625,0.333984375,-0.98828125,0.0546875,4.453125,-10.4375,2.09375,1.0
4751765,,,,,,,,0.75,-3.90234375,2.68359375,0.15625,-1.0234375,-0.001953125,1.7734375,-13.3046875,3.81640625,1.0
4751766,,,,,,,,-0.03515625,-4.8671875,3.6796875,0.13671875,-1.220703125,0.017578125,1.00390625,-14.265625,4.8125,1.0
4751767,,,,,,,,0.14453125,-4.5625,3.16796875,0.42578125,-1.3671875,0.048828125,1.19921875,-13.96484375,4.31640625,1.0
4751768,,,,,,,,0.86328125,-2.80078125,1.6328125,0.712890625,-1.318359375,0.125,1.92578125,-12.1953125,2.8203125,1.0
4751769,,,,,,,,0.44140625,-0.81640625,1.06640625,0.78125,-1.12890625,0.2109375,1.50390625,-10.203125,2.32421875,1.0
4751770,36.01339266666666,129.319501,81.22374481006129,110.14591415561426,1.2000000000000002,142.0,,0.11328125,-0.43359375,1.0625,0.62109375,-1.0,0.375,1.16015625,-9.82421875,2.3984375,1.0
4751771,,,,,,,,0.48046875,-0.96875,0.76171875,0.353515625,-1.2421875,0.517578125,1.46484375,-10.36328125,2.16796875,1.0
4751772,,,,,,,,0.765625,-0.88671875,0.71875,0.3359375,-1.291015625,0.53515625,1.734375,-10.28125,2.1328125,1.0
4751773,,,,,,,,0.8359375,-0.50390625,0.6953125,0.35546875,-1.296875,0.5234375,1.7734375,-9.8984375,2.1328125,1.0
4751774,,,,,,,,0.7421875,0.21875,0.59375,0.439453125,-1.232421875,0.486328125,1.65625,-9.17578125,2.0546875,1.0
4751775,,,,,,,,0.5,1.4140625,0.171875,0.515625,-1.220703125,0.453125,1.390625,-7.98828125,1.671875,1.0
4751776,,,,,,,,0.46875,1.71875,0.1171875,0.533203125,-1.236328125,0.43359375,1.3515625,-7.68359375,1.6328125,1.0
4751777,,,,,,,,0.60546875,2.44140625,-0.265625,0.521484375,-1.294921875,0.419921875,1.46484375,-6.9453125,1.2890625,1.0
4751778,,,,,,,,0.8125,2.81640625,-0.45703125,0.455078125,-1.365234375,0.41015625,1.65625,-6.5625,1.13671875,1.0
4751779,,,,,,,,0.9453125,3.015625,-0.51953125,0.388671875,-1.419921875,0.3984375,1.7734375,-6.375,1.09765625,1.0
4751780,36.01339216666667,129.31950166666667,81.28384428249137,110.09043508849847,0.9,139.0,,1.296875,3.20703125,-0.66015625,0.33984375,-1.443359375,0.39453125,2.1171875,-6.18359375,0.98046875,1.0
4751781,,,,,,,,1.41796875,3.16796875,-0.66796875,0.3203125,-1.44921875,0.390625,2.23046875,-6.22265625,0.98046875,1.0
4751782,,,,,,,,1.625,3.08203125,-1.08203125,0.3046875,-1.4375,0.3828125,2.421875,-6.296875,0.59765625,1.0
4751783,,,,,,,,1.6640625,3.08203125,-1.1640625,0.28125,-1.416015625,0.37890625,2.4609375,-6.296875,0.5234375,1.0
4751784,,,,,,,,1.98046875,2.921875,-1.2109375,0.234375,-1.345703125,0.365234375,2.76953125,-6.45703125,0.484375,1.0
4751785,,,,,,,,2.0546875,2.80859375,-1.171875,0.220703125,-1.28515625,0.349609375,2.84375,-6.56640625,0.5234375,1.0
4751786,,,,,,,,2.1484375,2.69921875,-1.140625,0.203125,-1.173828125,0.328125,2.921875,-6.6796875,0.5625,1.0
4751787,,,,,,,,2.171875,2.31640625,-0.8203125,0.216796875,-0.912109375,0.271484375,2.921875,-7.0625,0.90625,1.0
4751788,,,,,,,,1.97265625,2.1171875,-0.828125,0.236328125,-0.849609375,0.25390625,2.73046875,-7.2578125,0.90625,1.0
4751789,,,,,,,,1.86328125,2.00390625,-0.77734375,0.263671875,-0.751953125,0.2265625,2.61328125,-7.37109375,0.98046875,1.0
4751790,36.01339133333333,129.3195025,81.35896884024652,109.9979697419559,1.1,137.0,,1.7890625,2.03515625,-0.78515625,0.33984375,-1.443359375,0.39453125,2.1171875,-6.18359375,0.98046875,1.0
4751791,,,,,,,,1.796875,1.94921875,-0.81640625,0.279296875,-0.625,0.201171875,2.5390625,-7.41015625,0.98046875,1.0
4751792,,,,,,,,1.84375,1.71875,-0.83203125,0.2734375,-0.5625,0.208984375,2.578125,-7.64453125,0.98046875,1.0
4751793,,,,,,,,1.84375,1.44921875,-0.875,0.2734375,-0.53125,0.216796875,2.578125,-7.91015625,0.9453125,1.0
4751794,,,,,,,,1.8515625,1.05859375,-0.9375,0.26953125,-0.458984375,0.21875,2.578125,-8.29296875,0.90625,1.0
4751795,,,,,,,,1.98828125,0.4765625,-1.015625,0.263671875,-0.35546875,0.21484375,2.69140625,-8.8671875,0.8671875,1.0
4751796,,,,,,,,2.02734375,0.23828125,-0.91796875,0.26171875,-0.275390625,0.19140625,2.73046875,-9.09765625,0.98046875,1.0
4751797,,,,,,,,1.8125,0.39453125,-0.671875,0.283203125,-0.17578125,0.169921875,2.5,-8.94140625,1.25,1.0
4751798,,,,,,,,1.69921875,0.421875,-0.6015625,0.29296875,-0.1328125,0.158203125,2.38671875,-8.90625,1.328125,1.0
4751799,,,,,,,,1.51171875,0.30078125,-0.6328125,0.32421875,-0.0546875,0.158203125,2.19140625,-9.01953125,1.328125,1.0
4751800,36.01339083333333,129.31950366666666,81.46414253741955,109.94249109348993,1.0,129.0,0.0,1.55859375,0.21484375,-0.6640625,0.33984375,-1.443359375,0.39453125,2.1171875,-6.18359375,0.98046875,1.0
4751801,,,,,,,,1.765625,-0.17578125,-0.62109375,0.232421875,-0.099609375,0.181640625,2.421875,-9.4765625,1.40234375,1.0
4751802,,,,,,,,1.8203125,-0.3671875,-0.671875,0.169921875,-0.10546875,0.189453125,2.4609375,-9.671875,1.3671875,1.0
4751803,,,,,,,,1.8671875,-0.7109375,-0.8046875,0.1015625,-0.1015625,0.193359375,2.5,-10.015625,1.25,1.0
4751804,,,,,,,,1.8046875,-1.0234375,-0.765625,0.0546875,-0.052734375,0.1796875,2.421875,-10.3203125,1.2890625,1.0
4751805,,,,,,,,1.78515625,-1.21484375,-0.7734375,0.001953125,-0.01171875,0.162109375,2.38671875,-10.51171875,1.2890625,1.0
4751806,,,,,,,,1.5625,-1.4453125,-0.57421875,-0.037109375,0.01953125,0.16015625,2.15625,-10.74609375,1.48046875,1.0
4751807,,,,,,,,1.26171875,-1.4453125,-0.4609375,-0.068359375,0.0703125,0.15625,1.84765625,-10.74609375,1.59375,1.0
4751808,,,,,,,,0.96484375,-1.20703125,-0.453125,-0.06640625,0.1015625,0.1484375,1.54296875,-10.51171875,1.59375,1.0
4751809,,,,,,,,0.90234375,-0.7109375,-0.51953125,-0.080078125,0.095703125,0.1484375,1.46484375,-10.01953125,1.51953125,1.0
4751810,36.013390666666666,129.31950483333333,81.56931589197272,109.92399886021008,1.0,117.0,,0.99609375,-0.328125,-0.3515625,0.33984375,-1.443359375,0.39453125,2.1171875,-6.18359375,0.98046875,1.0
4751811,,,,,,,,1.30859375,-0.75,-0.05859375,-0.244140625,0.037109375,0.142578125,1.84765625,-10.0546875,1.94140625,1.0
4751812,,,,,,,,1.66015625,-2.6171875,-0.34375,-0.421875,-0.05859375,0.162109375,2.19140625,-11.9296875,1.6328125,1.0
4751813,,,,,,,,1.5546875,-3.21484375,-0.43359375,-0.55859375,-0.17578125,0.177734375,2.078125,-12.54296875,1.51953125,1.0
4751814,,,,,,,,0.90234375,-3.8984375,0.1328125,-0.79296875,-0.337890625,0.154296875,1.42578125,-13.234375,2.015625,1.0
4751815,,,,,,,,-0.0078125,-2.92578125,1.23828125,-0.626953125,-0.09765625,0.068359375,0.5078125,-12.2734375,3.01171875,1.0
4751816,,,,,,,,-0.8515625,-2.44140625,1.53125,-0.357421875,0.1484375,0.10546875,-0.3359375,-11.8125,3.2421875,1.0
4751817,,,,,,,,-1.609375,-1.51953125,2.2890625,-0.25,0.181640625,0.109375,-1.1015625,-10.89453125,3.96875,1.0
4751818,,,,,,,,-1.71484375,-0.59375,2.6796875,-0.140625,0.228515625,0.119140625,-1.21484375,-9.98046875,4.3515625,1.0
4751819,,,,,,,,-1.6640625,0.02734375,2.94921875,0.080078125,0.28515625,0.1484375,-1.1796875,-9.36328125,4.62109375,1.0
4751820,36.013390333333334,129.319506,81.67448941869009,109.8870134215459,1.1,109.0,,-1.5,-0.01953125,3.2109375,0.33984375,-1.443359375,0.39453125,2.1171875,-6.18359375,0.98046875,1.0
4751821,,,,,,,,-1.0625,0.02734375,3.078125,0.06640625,-0.01953125,0.16015625,-0.6015625,-9.36328125,4.7734375,1.0
4751822,,,,,,,,-0.328125,0.37109375,2.46484375,0.0546875,-0.173828125,0.123046875,0.125,-9.015625,4.16015625,1.0
4751823,,,,,,,,-0.08984375,0.484375,2.0,0.037109375,-0.21875,0.08984375,0.35546875,-8.90625,3.703125,1.0
4751824,,,,,,,,-0.21484375,0.1796875,1.69140625,-0.017578125,-0.224609375,0.060546875,0.23828125,-9.21484375,3.39453125,1.0
4751825,,,,,,,,-0.51953125,-0.31640625,1.890625,-0.076171875,-0.23046875,0.03515625,-0.06640625,-9.70703125,3.5859375,1.0
4751826,,,,,,,,-0.63671875,-0.39453125,2.0546875,-0.10546875,-0.2265625,0.013671875,-0.18359375,-9.78125,3.7421875,1.0
4751827,,,,,,,,-0.98828125,-0.73828125,2.63671875,-0.119140625,-0.228515625,-0.04296875,-0.52734375,-10.12890625,4.31640625,1.0
4751828,,,,,,,,-1.04296875,-0.9296875,2.4140625,-0.109375,-0.26171875,-0.083984375,-0.56640625,-10.3203125,4.0859375,1.0
4751829,,,,,,,,-0.98828125,-1.0703125,2.12109375,-0.083984375,-0.384765625,-0.115234375,-0.48828125,-10.48046875,3.77734375,1.0
4751830,36.013390333333334,129.31950733333332,81.79468734290583,109.88701453994679,1.1,102.0,,-0.8203125,-0.87890625,1.81640625,0.33984375,-1.443359375,0.39453125,2.1171875,-6.18359375,0.98046875,1.0
4751831,,,,,,,,-0.64453125,-0.109375,1.2890625,-0.021484375,-0.376953125,-0.125,-0.10546875,-9.515625,2.9375,1.0
4751832,,,,,,,,-0.5546875,0.28125,1.05859375,0.04296875,-0.314453125,-0.11328125,0.0078125,-9.1328125,2.70703125,1.0
4751833,,,,,,,,-0.5625,0.38671875,0.93359375,0.0546875,-0.287109375,-0.11328125,0.0078125,-9.01953125,2.58984375,1.0
4751834,,,,,,,,-0.3828125,0.76953125,0.70703125,0.064453125,-0.271484375,-0.103515625,0.203125,-8.6328125,2.36328125,1.0
4751835,,,,,,,,-0.32421875,0.9609375,0.55078125,0.064453125,-0.294921875,-0.107421875,0.27734375,-8.44921875,2.20703125,1.0
4751836,,,,,,,,-0.1953125,1.3359375,0.3046875,0.083984375,-0.322265625,-0.109375,0.4296875,-8.0625,1.9765625,1.0
4751837,,,,,,,,-0.140625,1.71875,0.0703125,0.107421875,-0.365234375,-0.134765625,0.5078125,-7.68359375,1.75,1.0
4751838,,,,,,,,-0.1953125,1.8046875,-0.0078125,0.11328125,-0.373046875,-0.142578125,0.46875,-7.60546875,1.671875,1.0
4751839,,,,,,,,-0.33203125,2.21875,-0.328125,0.125,-0.3828125,-0.1484375,0.35546875,-7.1796875,1.3671875,1.0
4751840,36.013389999999994,129.31950833333335,81.88483613107972,109.85002896333708,1.0,102.0,,-0.6328125,2.44921875,-0.5,0.33984375,-1.443359375,0.39453125,0.0859375,-6.9453125,1.2109375,1.0
4751841,,,,,,,,-0.76953125,2.4765625,-0.58984375,0.11328125,-0.42578125,-0.126953125,-0.02734375,-6.91796875,1.13671875,1.0
4751842,,,,,,,,-0.94921875,2.40234375,-0.71484375,0.13671875,-0.416015625,-0.1015625,-0.18359375,-6.98828125,1.01953125,1.0
4751843,,,,,,,,-1.1171875,2.31640625,-0.68359375,0.142578125,-0.40625,-0.068359375,-0.3359375,-7.0625,1.05859375,1.0
4751844,,,,,,,,-1.27734375,2.0859375,-0.73046875,0.1484375,-0.41015625,-0.033203125,-0.48828125,-7.30078125,1.01953125,1.0
4751845,,,,,,,,-1.37109375,1.97265625,-0.74609375,0.162109375,-0.421875,0.005859375,-0.56640625,-7.40625,1.01953125,1.0
4751846,,,,,,,,-1.40625,1.96484375,-0.76171875,0.166015625,-0.431640625,0.025390625,-0.6015625,-7.41015625,1.01953125,1.0
4751847,,,,,,,,-1.33203125,1.765625,-0.70703125,0.212890625,-0.486328125,0.083984375,-0.52734375,-7.60546875,1.09765625,1.0
4751848,,,,,,,,-1.1796875,1.640625,-0.76953125,0.24609375,-0.505859375,0.107421875,-0.375,-7.71875,1.05859375,1.0
4751849,,,,,,,,-1.140625,1.640625,-0.85546875,0.2578125,-0.521484375,0.12109375,-0.3359375,-7.72265625,0.98046875,1.0
4751850,36.01338966666666,129.31950933333334,81.97498491958295,109.81304338756217,1.0,102.0,,-0.95703125,1.671875,-0.953125,0.2578125,-0.54296875,0.13671875,-0.14453125,-7.68359375,0.90625,1.0
4751851,,,,,,,,-0.87109375,1.671875,-1.0546875,0.24609375,-0.548828125,0.13671875,-0.06640625,-7.6796875,0.828125,1.0
4751852,,,,,,,,-0.7578125,1.625,-1.109375,0.2421875,-0.556640625,0.14453125,0.046875,-7.72265625,0.7890625,1.0
4751853,,,,,,,,-0.671875,1.55078125,-1.15234375,0.23046875,-0.5546875,0.146484375,0.125,-7.7890625,0.75390625,1.0
4751854,,,,,,,,-0.55859375,1.234375,-1.16796875,0.193359375,-0.578125,0.140625,0.23828125,-8.1015625,0.75390625,1.0
4751855,,,,,,,,-0.44140625,0.77734375,-0.91796875,0.142578125,-0.599609375,0.12890625,0.35546875,-8.5546875,1.01953125,1.0
4751856,,,,,,,,-0.48828125,0.5,-0.80078125,0.10546875,-0.60546875,0.111328125,0.31640625,-8.828125,1.13671875,1.0
4751857,,,,,,,,-0.59375,0.22265625,-0.65625,0.109375,-0.595703125,0.09765625,0.203125,-9.09375,1.2890625,1.0
4751858,,,,,,,,-0.640625,0.03125,-0.6171875,0.1171875,-0.587890625,0.078125,0.1640625,-9.2890625,1.328125,1.0
4751859,,,,,,,,-0.57421875,-0.08984375,-0.5859375,0.1171875,-0.603515625,0.05078125,0.23828125,-9.40234375,1.3671875,1.0
4751860,36.013389999999994,129.3195105,82.08015775903284,109.8500307864451,1.0,96.0,,-0.3515625,-0.08984375,-0.55859375,0.2578125,-0.54296875,0.13671875,-0.14453125,-7.68359375,0.90625,1.0
4751861,,,,,,,,-0.25,-0.40234375,-0.49609375,0.0859375,-0.576171875,-0.01953125,0.5859375,-9.703125,1.48046875,1.0
4751862,,,,,,,,-0.11328125,-0.6328125,-0.45703125,0.029296875,-0.556640625,-0.03125,0.73828125,-9.9375,1.51953125,1.0
4751863,,,,,,,,-0.08203125,-0.7890625,-0.375,-0.009765625,-0.53125,-0.03125,0.77734375,-10.09375,1.59375,1.0
4751864,,,,,,,,-0.09765625,-0.671875,-0.48046875,-0.044921875,-0.484375,-0.033203125,0.77734375,-9.98046875,1.48046875,1.0
4751865,,,,,,,,-0.16015625,-0.640625,-0.6171875,-0.10546875,-0.37109375,-0.037109375,0.73828125,-9.9375,1.328125,1.0
4751866,,,,,,,,-0.27734375,-0.640625,-0.6875,-0.1484375,-0.33984375,-0.044921875,0.62109375,-9.9375,1.25,1.0
4751867,,,,,,,,-0.4375,-0.60546875,-0.6640625,-0.240234375,-0.302734375,-0.041015625,0.46875,-9.90234375,1.25,1.0
4751868,,,,,,,,-0.71875,-0.3671875,-0.70703125,-0.310546875,-0.287109375,-0.0390625,0.203125,-9.67578125,1.17578125,1.0
4751869,,,,,,,,-0.95703125,-0.2421875,-0.71484375,-0.373046875,-0.28125,-0.037109375,-0.02734375,-9.5546875,1.13671875,1.0
4751870,36.0133895,129.31951166666667,82.18533146198003,109.7945521457473,1.1,98.0,,-1.3125,-0.42578125,-0.6015625,-0.44140625,-0.32421875,-0.044921875,-0.375,-9.74609375,1.2109375,1.0
4751871,,,,,,,,-1.546875,-1.8046875,-0.24609375,-0.5390625,-0.427734375,-0.048828125,-0.6015625,-11.12890625,1.51953125,1.0
4751872,,,,,,,,-1.51953125,-3.18359375,-0.17578125,-0.60546875,-0.5078125,-0.044921875,-0.56640625,-12.50390625,1.55859375,1.0
4751873,,,,,,,,-1.08203125,-4.2734375,0.5078125,-0.85546875,-0.869140625,-0.04296875,-0.10546875,-13.62109375,2.1328125,1.0
4751874,,,,,,,,-0.23828125,-5.0703125,1.2890625,-0.884765625,-0.96875,-0.033203125,0.73828125,-14.421875,2.859375,1.0
4751875,,,,,,,,1.61328125,-5.67578125,1.3828125,-0.8515625,-1.119140625,-0.017578125,2.61328125,-15.03515625,2.859375,1.0
4751876,,,,,,,,3.046875,-4.00390625,1.9296875,-0.685546875,-1.0234375,-0.00390625,4.0703125,-13.3828125,3.28125,1.0
4751877,,,,,,,,3.23046875,-2.85546875,2.11328125,-0.48828125,-0.82421875,-0.01171875,4.26171875,-12.234375,3.43359375,1.0
4751878,,,,,,,,1.453125,-0.77734375,2.4140625,0.19921875,-0.19921875,-0.091796875,2.5,-10.16796875,3.703125,1.0
4751879,,,,,,,,0.44921875,-0.81640625,2.78125,0.28515625,-0.1640625,-0.1015625,1.50390625,-10.203125,4.0859375,1.0
4751880,36.013389,129.319513,82.30552990681579,109.73907364556271,1.3,100.0,,-0.79296875,-1.58984375,3.37109375,-0.44140625,-0.32421875,-0.044921875,0.27734375,-10.97265625,4.69921875,1.0
4751881,,,,,,,,-1.18359375,-1.78125,3.140625,0.392578125,-0.642578125,-0.125,-0.10546875,-11.16796875,4.5078125,1.0
4751882,,,,,,,,-1.0546875,-1.13671875,2.15234375,0.494140625,-0.88671875,-0.10546875,0.046875,-10.51171875,3.55078125,1.0
4751883,,,,,,,,-0.90625,-0.87890625,1.859375,0.533203125,-0.947265625,-0.087890625,0.203125,-10.2421875,3.28125,1.0
4751884,,,,,,,,-0.6015625,-0.08203125,1.375,0.494140625,-0.986328125,-0.009765625,0.546875,-9.4375,2.859375,1.0
4751885,,,,,,,,-0.53515625,0.29296875,1.23046875,0.373046875,-0.947265625,0.08984375,0.62109375,-9.05859375,2.74609375,1.0
4751886,,,,,,,,-0.49609375,0.30078125,1.09765625,0.216796875,-0.927734375,0.208984375,0.66015625,-9.05859375,2.62890625,1.0
4751887,,,,,,,,0.43359375,-0.15625,1.08984375,0.08984375,-0.912109375,0.3125,1.58203125,-9.51953125,2.62890625,1.0
4751888,,,,,,,,0.76171875,-0.34765625,1.14453125,-0.017578125,-0.931640625,0.384765625,1.88671875,-9.70703125,2.66796875,1.0
4751889,,,,,,,,1.3984375,-0.91796875,1.3828125,-0.107421875,-0.9453125,0.41796875,2.5,-10.28515625,2.8984375,1.0
4751890,36.0133885,129.319514,82.39567887174441,109.68359486697494,1.1,101.0,,1.3828125,-0.984375,1.4453125,-0.44140625,-0.32421875,-0.044921875,2.4609375,-10.359375,2.9375,1.0
4751891,,,,,,,,1.33203125,-0.671875,1.23046875,-0.017578125,-0.826171875,0.365234375,2.38671875,-10.05859375,2.70703125,1.0
4751892,,,,,,,,0.93359375,0.5625,0.5625,0.20703125,-0.724609375,0.275390625,1.96484375,-8.83203125,2.0546875,1.0
4751893,,,,,,,,0.78515625,0.86328125,0.40234375,0.259765625,-0.708984375,0.25,1.80859375,-8.515625,1.90234375,1.0
4751894,,,,,,,,0.7265625,1.28125,0.078125,0.283203125,-0.69140625,0.203125,1.734375,-8.1015625,1.59375,1.0
4751895,,,,,,,,0.57421875,1.58984375,-0.2109375,0.236328125,-0.69921875,0.18359375,1.58203125,-7.79296875,1.328125,1.0
4751896,,,,,,,,0.3984375,1.828125,-0.37890625,0.1875,-0.69140625,0.181640625,1.390625,-7.56640625,1.17578125,1.0
4751897,,,,,,,,0.3203125,2.01953125,-0.39453125,0.18359375,-0.63671875,0.1953125,1.3125,-7.37109375,1.17578125,1.0
4751898,,,,,,,,0.2890625,2.171875,-0.328125,0.1953125,-0.619140625,0.201171875,1.2734375,-7.22265625,1.25,1.0
4751899,,,,,,,,0.375,2.2109375,-0.34375,0.21875,-0.599609375,0.20703125,1.3515625,-7.18359375,1.25,1.0
4751900,36.013388166666665,129.319515,82.48582766261147,109.64660929716251,1.0,100.0,0.0,0.6484375,2.35546875,-0.2734375,-0.44140625,-0.32421875,-0.044921875,2.4609375,-10.359375,2.9375,1.0
4751901,,,,,,,,1.27734375,2.5390625,-0.54296875,0.263671875,-0.611328125,0.173828125,2.23046875,-6.83984375,1.09765625,1.0
4751902,,,,,,,,1.46875,2.42578125,-0.84375,0.259765625,-0.615234375,0.142578125,2.421875,-6.9453125,0.828125,1.0
4751903,,,,,,,,1.546875,2.38671875,-0.92578125,0.234375,-0.595703125,0.12890625,2.5,-6.98828125,0.75390625,1.0
4751904,,,,,,,,1.5859375,2.453125,-0.94140625,0.197265625,-0.521484375,0.0859375,2.5390625,-6.9140625,0.75390625,1.0
4751905,,,,,,,,1.43359375,2.609375,-0.8046875,0.21484375,-0.32421875,0.021484375,2.26953125,-6.76171875,0.828125,1.0
4751906,,,,,,,,1.1953125,2.5625,-0.8671875,0.24609375,-0.22265625,0.001953125,2.1171875,-6.87890625,0.90625,1.0
4751907,,,,,,,,1.1875,2.24609375,-0.9375,0.251953125,-0.125,-0.001953125,2.15625,-7.18359375,0.75390625,1.0
4751908,,,,,,,,1.1875,2.171875,-1.01953125,0.23828125,-0.107421875,0.0,2.23046875,-7.37109375,0.67578125,1.0
4751909,,,,,,,,1.26171875,1.7734375,-1.20703125,0.185546875,-0.033203125,-0.015625,2.19140625,-7.90625,0.59765625,1.0
4751910,36.01338833333333,129.31951633333335,82.60602542044055,109.66510363373716,1.1,93.0,,1.20703125,1.3125,-1.18359375,0.1640625,0.044921875,-0.03515625,2.078125,-8.1328125,0.63671875,1.0
4751911,,,,,,,,1.09375,1.07421875,-1.08203125,0.171875,0.1328125,-0.04296875,1.92578125,-8.515625,0.90625,1.0
4751912,,,,,,,,0.82421875,0.76953125,-0.83203125,0.169921875,0.1953125,-0.048828125,1.7734375,-8.67578125,1.09765625,1.0
4751913,,,,,,,,0.7890625,0.64453125,-0.76953125,0.16796875,0.21875,-0.046875,1.65625,-8.83203125,1.3671875,1.0
4751914,,,,,,,,0.6640625,0.40625,-0.44140625,0.173828125,0.2578125,-0.048828125,1.6171875,-8.98046875,1.6328125,1.0
4751915,,,,,,,,0.625,0.1796875,-0.1953125,0.15625,0.263671875,-0.044921875,1.65625,-9.1328125,1.94140625,1.0
4751916,,,,,,,,0.703125,0.1640625,0.01171875,0.140625,0.208984375,-0.0234375,1.84765625,-9.13671875,1.94140625,1.0
4751917,,,,,,,,0.97265625,0.15625,-0.12109375,0.126953125,0.1328125,-0.005859375,2.0,-9.13671875,1.7109375,1.0
4751918,,,,,,,,1.0078125,0.15625,-0.2421875,0.115234375,0.107421875,0.0,2.078125,-9.171875,1.6328125,1.0
4751919,,,,,,,,1.046875,0.0,-0.56640625,0.0859375,0.0546875,0.01953125,2.0390625,-9.3984375,1.328125,1.0
4751920,36.01338833333333,129.31951750000002,82.71119860448299,109.66510462344824,1.1,88.0,,1.20703125,1.3125,-1.18359375,-0.013671875,0.06640625,0.03125,1.84765625,-9.6328125,1.17578125,1.0
4751921,,,,,,,,0.58984375,-0.50390625,-0.71875,-0.1015625,0.09375,0.037109375,1.58203125,-9.78515625,1.25,1.0
4751922,,,,,,,,0.359375,-0.734375,-0.6796875,-0.1328125,0.1015625,0.037109375,1.3515625,-10.01953125,1.2890625,1.0
4751923,,,,,,,,0.10546875,-0.96484375,-0.43359375,-0.193359375,0.095703125,0.05078125,1.08203125,-10.24609375,1.51953125,1.0
4751924,,,,,,,,0.05859375,-1.00390625,-0.42578125,-0.224609375,0.078125,0.0546875,1.04296875,-10.28515625,1.51953125,1.0
4751925,,,,,,,,-0.19921875,-0.8046875,-0.09765625,-0.271484375,0.05078125,0.05859375,0.77734375,-10.09765625,1.82421875,1.0
4751926,,,,,,,,-0.23046875,-0.53515625,0.203125,-0.298828125,0.03125,0.083984375,0.77734375,-9.74609375,2.24609375,1.0
4751927,,,,,,,,-0.19140625,-0.44921875,0.37109375,-0.310546875,0.025390625,0.09375,1.04296875,-10.05859375,2.4375,1.0
4751928,,,,,,,,0.3125,-1.20703125,0.47265625,-0.380859375,-0.046875,0.1171875,1.46484375,-11.08984375,2.20703125,1.0
4751929,,,,,,,,0.50390625,-1.78515625,0.37109375,-0.470703125,-0.125,0.130859375,1.7734375,-12.046875,2.015625,1.0
4751930,36.0133885,129.3195185,82.80134687310019,109.68359868110039,1.1,82.0,,0.828125,-3.03125,0.21875,-0.736328125,-0.267578125,0.123046875,1.234375,-11.43359375,2.9375,1.0
4751931,,,,,,,,0.10546875,-1.7890625,1.515625,-0.666015625,-0.04296875,0.068359375,0.77734375,-11.16796875,3.47265625,1.0
4751932,,,,,,,,-0.390625,-2.203125,1.92578125,-0.552734375,0.203125,0.076171875,0.31640625,-12.1171875,3.5859375,1.0
4751933,,,,,,,,-0.9296875,-3.3828125,2.09375,-0.677734375,0.111328125,0.099609375,-0.52734375,-13.3046875,3.93359375,1.0
4751934,,,,,,,,-1.79296875,-3.21484375,2.953125,-0.693359375,-0.02734375,0.076171875,-0.87109375,-12.578125,4.4296875,1.0
4751935,,,,,,,,-1.59375,-1.97265625,3.19921875,-0.404296875,-0.021484375,0.056640625,-0.6796875,-11.35546875,4.62109375,1.0
4751936,,,,,,,,-1.47265625,-1.4765625,3.20703125,-0.232421875,0.001953125,0.048828125,-0.56640625,-10.86328125,4.62109375,1.0
4751937,,,,,,,,-1.125,-1.20703125,3.17578125,-0.03125,0.04296875,0.060546875,-0.21875,-10.5859375,4.58203125,1.0
4751938,,,,,,,,-0.4765625,-1.7734375,3.25390625,-0.02734375,-0.005859375,0.064453125,0.4296875,-11.16796875,4.66015625,1.0
4751939,,,,,,,,0.4140625,-2.08203125,3.0625,-0.0390625,-0.087890625,0.029296875,1.3125,-11.46875,4.46875,1.0
4751940,36.013388666666664,129.31951966666665,82.9065198849166,109.70209288047238,1.1,79.0,,0.796875,-1.95703125,2.76171875,-0.736328125,-0.267578125,0.123046875,1.6953125,-11.3515625,4.16015625,1.0
4751941,,,,,,,,0.93359375,-1.19140625,2.1796875,0.06640625,-0.0859375,-0.119140625,1.84765625,-10.5859375,3.5859375,1.0
4751942,,,,,,,,0.7265625,-0.31640625,1.63671875,0.107421875,-0.029296875,-0.19140625,1.65625,-9.70703125,3.05078125,1.0
4751943,,,,,,,,0.24609375,0.2578125,1.515625,0.06640625,0.03125,-0.24609375,1.19921875,-9.13671875,2.9375,1.0
4751944,,,,,,,,-0.20703125,-0.08984375,1.53515625,-0.0234375,0.080078125,-0.26953125,0.77734375,-9.4765625,2.97265625,1.0
4751945,,,,,,,,-0.33984375,-0.25,1.5,-0.08984375,0.072265625,-0.2734375,0.66015625,-9.6328125,2.9375,1.0
4751946,,,,,,,,-0.34765625,0.09375,1.1328125,-0.09375,-0.00390625,-0.28515625,0.69921875,-9.2890625,2.5546875,1.0
4751947,,,,,,,,-0.37890625,0.4765625,0.86328125,-0.05078125,-0.041015625,-0.2890625,0.69921875,-8.91015625,2.28515625,1.0
4751948,,,,,,,,-0.44140625,1.3984375,0.40234375,-0.015625,-0.080078125,-0.287109375,0.66015625,-7.984375,1.82421875,1.0
4751949,,,,,,,,-0.546875,1.55078125,0.296875,-0.01171875,-0.146484375,-0.275390625,0.546875,-7.72265625,1.6328125,1.0
4751950,36.0133885,129.3195205,82.9816437669801,109.6836003824903,0.9,80.0,,-0.6953125,1.89453125,0.05859375,-0.01953125,-0.197265625,-0.265625,0.46875,-7.41015625,1.40234375,1.0
4751951,,,,,,,,-0.734375,2.1171875,-0.0859375,-0.015625,-0.255859375,-0.25390625,0.46875,-7.2578125,1.328125,1.0
4751952,,,,,,,,-0.8046875,2.34765625,-0.203125,0.00390625,-0.29296875,-0.24609375,0.4296875,-7.0234375,1.2109375,1.0
4751953,,,,,,,,-0.7890625,2.42578125,-0.44140625,0.03515625,-0.328125,-0.234375,0.46875,-6.94921875,0.98046875,1.0
4751954,,,,,,,,-0.859375,2.33984375,-0.5546875,0.068359375,-0.34765625,-0.220703125,0.4296875,-7.0234375,0.8671875,1.0
4751955,,,,,,,,-0.99609375,2.33984375,-0.66796875,0.08203125,-0.337890625,-0.197265625,0.31640625,-7.02734375,0.75390625,1.0
4751956,,,,,,,,-1.00390625,2.29296875,-0.70703125,0.091796875,-0.3359375,-0.1875,0.31640625,-7.0625,0.71484375,1.0
4751957,,,,,,,,-1.1796875,2.0625,-0.83203125,0.099609375,-0.306640625,-0.154296875,0.1640625,-7.296875,0.59765625,1.0
4751958,,,,,,,,-1.359375,1.7890625,-0.85546875,0.1171875,-0.28125,-0.123046875,0.0078125,-7.56640625,0.59765625,1.0
4751959,,,,,,,,-1.40234375,1.44140625,-0.82421875,0.126953125,-0.271484375,-0.08984375,-0.02734375,-7.90625,0.63671875,1.0
4751960,36.0133885,129.3195215,83.07179220972743,109.68360123449645,0.9,80.0,,-1.41796875,1.16796875,-0.671875,-0.01953125,-0.197265625,-0.265625,-0.02734375,-8.17578125,0.7890625,1.0
4751961,,,,,,,,-1.46484375,0.9375,-0.6015625,0.126953125,-0.287109375,-0.02734375,-0.06640625,-8.41015625,0.8671875,1.0
4751962,,,,,,,,-1.50390625,0.8984375,-0.609375,0.1328125,-0.298828125,-0.013671875,-0.10546875,-8.4453125,0.8671875,1.0
4751963,,,,,,,,-1.390625,0.9296875,-0.50390625,0.1640625,-0.318359375,0.013671875,0.0078125,-8.41015625,0.98046875,1.0
4751964,,,,,,,,-1.2421875,0.9609375,-0.6015625,0.232421875,-0.3671875,0.03515625,0.1640625,-8.3671875,0.90625,1.0
4751965,,,,,,,,-0.9375,0.84375,-0.7421875,0.25390625,-0.396484375,0.048828125,0.46875,-8.484375,0.7890625,1.0
4751966,,,,,,,,-0.8203125,0.61328125,-0.78515625,0.25390625,-0.404296875,0.046875,0.5859375,-8.71484375,0.75390625,1.0
4751967,,,,,,,,-0.66796875,0.40625,-0.78125,0.228515625,-0.41796875,0.0546875,0.73828125,-8.90625,0.7890625,1.0
4751968,,,,,,,,-0.66796875,0.37109375,-0.71875,0.23828125,-0.396484375,0.05078125,0.73828125,-8.9375,0.8671875,1.0
4751969,,,,,,,,-0.74609375,0.4453125,-0.7265625,0.244140625,-0.392578125,0.0546875,0.66015625,-8.8671875,0.8671875,1.0
4751970,36.013388666666664,129.31952233333334,83.14691573993156,109.7020951526791,0.9,77.0,,-1.41796875,1.16796875,-0.671875,0.24609375,-0.39453125,0.0390625,0.66015625,-8.75,0.828125,1.0
4751971,,,,,,,,-0.66796875,0.58203125,-0.7265625,0.228515625,-0.404296875,0.02734375,0.8125,-8.71484375,0.9453125,1.0
4751972,,,,,,,,-0.5625,0.62109375,-0.66796875,0.19140625,-0.41015625,0.017578125,0.890625,-8.67578125,1.09765625,1.0
4751973,,,,,,,,-0.41796875,0.57421875,-0.48046875,0.13671875,-0.412109375,0.00390625,1.08203125,-8.7890625,1.17578125,1.0
4751974,,,,,,,,-0.23046875,0.30078125,-0.4609375,0.107421875,-0.416015625,-0.009765625,1.234375,-9.015625,1.2109375,1.0
4751975,,,,,,,,-0.01171875,-0.0078125,-0.54296875,0.064453125,-0.412109375,-0.021484375,1.46484375,-9.44140625,1.09765625,1.0
4751976,,,,,,,,0.02734375,-0.16015625,-0.58203125,0.03515625,-0.400390625,-0.029296875,1.50390625,-9.5546875,1.09765625,1.0
4751977,,,,,,,,0.05078125,-0.43359375,-0.53515625,-0.025390625,-0.36328125,-0.04296875,1.42578125,-9.671875,1.25,1.0
4751978,,,,,,,,-0.1484375,-0.328125,-0.22265625,-0.04296875,-0.298828125,-0.046875,1.3125,-9.59765625,1.44140625,1.0
4751979,,,,,,,,-0.5,-0.63671875,-0.328125,-0.0625,-0.24609375,-0.033203125,0.96875,-9.90234375,1.328125,1.0
4751980,36.013388666666664,129.3195235,83.25208892555213,109.70209614870825,1.1,78.0,,-0.546875,-0.6640625,-0.3515625,0.24609375,-0.39453125,0.0390625,0.66015625,-8.75,0.828125,1.0
4751981,,,,,,,,-0.5078125,-0.28125,-0.44921875,-0.173828125,-0.25390625,0.015625,0.96875,-9.55859375,1.17578125,1.0
4751982,,,,,,,,-0.5859375,-0.0078125,-0.50390625,-0.23828125,-0.244140625,0.044921875,0.890625,-9.2890625,1.09765625,1.0
4751983,,,,,,,,-0.6640625,0.0703125,-0.56640625,-0.2734375,-0.24609375,0.0546875,0.8125,-9.2109375,1.01953125,1.0
4751984,,,,,,,,-0.84765625,0.17578125,-0.53515625,-0.345703125,-0.251953125,0.072265625,0.62109375,-9.09375,1.01953125,1.0
4751985,,,,,,,,-1.10546875,-0.95703125,-0.43359375,-0.466796875,-0.306640625,0.09765625,0.35546875,-10.2421875,1.05859375,1.0
4751986,,,,,,,,-0.76171875,-2.25,-0.30859375,-0.58203125,-0.396484375,0.130859375,0.69921875,-11.546875,1.13671875,1.0
4751987,,,,,,,,0.51953125,-4.6875,0.41015625,-0.73046875,-0.4921875,0.150390625,1.96484375,-14.0,1.78515625,1.0
4751988,,,,,,,,1.4375,-6.5546875,1.0625,-0.798828125,-0.5078125,0.1484375,2.8828125,-15.87890625,2.3984375,1.0
4751989,,,,,,,,2.9765625,-7.69921875,2.91015625,-0.90625,-0.53515625,0.138671875,4.4140625,-17.02734375,4.16015625,1.0
4751990,36.013388666666664,129.31952483333333,83.37228685178493,109.7020972884336,1.1,80.0,,3.3984375,-5.0390625,3.41796875,0.24609375,-0.39453125,0.0390625,0.66015625,-8.75,0.828125,1.0
4751991,,,,,,,,3.09375,-1.8515625,2.5625,-0.265625,-0.37109375,-0.009765625,4.53125,-11.203125,3.6640625,1.0
4751992,,,,,,,,2.203125,0.0625,1.56640625,0.265625,-0.189453125,-0.08984375,3.6484375,-9.2890625,2.66796875,1.0
4751993,,,,,,,,-0.1171875,0.28515625,0.67578125,0.15234375,-0.3203125,-0.0546875,1.3515625,-9.0546875,1.82421875,1.0
4751994,,,,,,,,-1.0,-1.8203125,1.80859375,0.0703125,-0.361328125,-0.017578125,0.46875,-11.16796875,2.97265625,1.0
4751995,,,,,,,,-1.0,-3.16015625,2.8125,0.060546875,-0.55859375,0.076171875,0.46875,-12.50390625,3.96875,1.0
4751996,,,,,,,,-0.84765625,-3.1171875,2.9765625,0.140625,-0.625,0.107421875,0.62109375,-12.46875,4.125,1.0
4751997,,,,,,,,-0.34765625,-2.76953125,2.76953125,0.380859375,-0.693359375,0.173828125,1.12109375,-12.12109375,3.93359375,1.0
4751998,,,,,,,,0.12109375,-1.31640625,2.015625,0.5,-0.693359375,0.212890625,1.58203125,-10.6640625,3.203125,1.0
4751999,,,,,,,,0.13671875,-0.28125,1.47265625,0.67578125,-0.61328125,0.32421875,1.3515625,-9.1328125,2.4765625,1.0
4752000,36.013388666666664,129.31952583333333,83.46243529715687,109.70209814448435,1.0,80.0,0.0,3.3984375,-5.0390625,3.41796875,0.24609375,-0.39453125,0.0390625,1.234375,-8.9765625,2.3984375,1.0
4752001,,,,,,,,-0.24609375,0.36328125,1.125,0.548828125,-0.6484375,0.41015625,1.12109375,-9.015625,2.3984375,1.0
4752002,,,,,,,,-0.1015625,0.0546875,0.99609375,0.412109375,-0.818359375,0.4375,1.390625,-9.44140625,2.28515625,1.0
4752003,,,,,,,,0.03125,-0.09765625,0.91015625,0.375,-0.88671875,0.451171875,1.58203125,-9.48046875,2.32421875,1.0
4752004,,,,,,,,0.359375,-0.171875,0.84765625,0.333984375,-0.962890625,0.474609375,1.7734375,-9.359375,2.20703125,1.0
4752005,,,,,,,,0.4375,0.02734375,0.73828125,0.357421875,-0.93359375,0.486328125,1.734375,-9.21484375,2.1328125,1.0
4752006,,,,,,,,0.4609375,0.41796875,0.6171875,0.408203125,-0.89453125,0.50390625,1.65625,-8.515625,1.9765625,1.0
4752007,,,,,,,,0.5390625,1.52734375,0.2421875,0.4375,-0.8828125,0.51171875,1.734375,-7.828125,1.75,1.0
4752008,,,,,,,,0.5234375,1.71875,0.2109375,0.4453125,-0.869140625,0.5078125,1.6953125,-7.64453125,1.75,1.0
4752009,,,,,,,,0.5234375,2.33203125,-0.09765625,0.447265625,-0.86328125,0.5078125,1.65625,-7.02734375,1.48046875,1.0
4752010,36.013388666666664,129.31952666666666,83.53755899962466,109.7020988586504,1.0,83.0,,0.671875,2.5625,-0.2421875,0.24609375,-0.39453125,0.0390625,1.7734375,-6.796875,1.3671875,1.0
4752011,,,,,,,,0.87109375,2.828125,-0.47265625,0.384765625,-0.916015625,0.494140625,1.92578125,-6.53515625,1.17578125,1.0
4752012,,,,,,,,0.92578125,2.90625,-0.61328125,0.375,-0.927734375,0.478515625,1.96484375,-6.453125,1.05859375,1.0
4752013,,,,,,,,1.33984375,2.75390625,-0.8671875,0.349609375,-0.921875,0.46484375,2.34765625,-6.6015625,0.828125,1.0
4752014,,,,,,,,1.421875,2.63671875,-0.921875,0.328125,-0.90625,0.45703125,2.421875,-6.71875,0.7890625,1.0
4752015,,,,,,,,1.4453125,2.6015625,-1.01953125,0.294921875,-0.86328125,0.4296875,2.421875,-6.76171875,0.71484375,1.0
4752016,,,,,,,,1.4765625,2.28515625,-0.96875,0.234375,-0.728515625,0.3828125,2.421875,-7.0625,0.7890625,1.0
4752017,,,,,,,,1.515625,2.171875,-0.69140625,0.19921875,-0.587890625,0.3359375,2.421875,-7.1796875,1.09765625,1.0
4752018,,,,,,,,1.5703125,1.82421875,-0.66796875,0.20703125,-0.51953125,0.306640625,2.4609375,-7.52734375,1.13671875,1.0
4752019,,,,,,,,1.65625,1.7109375,-0.62890625,0.212890625,-0.494140625,0.298828125,2.5390625,-7.640625,1.17578125,1.0
4752020,36.013389,129.31952783333332,83.64273183325884,109.73908627588287,1.1,76.0,,1.71875,1.59765625,-0.578125,0.24609375,-0.39453125,0.0390625,2.578125,-7.75,1.25,1.0
4752021,,,,,,,,1.6171875,1.50390625,-0.53125,0.255859375,-0.326171875,0.248046875,2.4609375,-7.828125,1.328125,1.0
4752022,,,,,,,,1.48046875,1.3515625,-0.6640625,0.291015625,-0.2421875,0.23828125,2.30859375,-7.984375,1.2109375,1.0
4752023,,,,,,,,1.50390625,1.03515625,-0.73046875,0.306640625,-0.203125,0.232421875,2.30859375,-8.29296875,1.17578125,1.0
4752024,,,,,,,,1.625,0.69140625,-0.75390625,0.28515625,-0.189453125,0.220703125,2.421875,-8.6328125,1.17578125,1.0
4752025,,,,,,,,1.640625,0.5234375,-0.78515625,0.25390625,-0.171875,0.20703125,2.421875,-8.7890625,1.17578125,1.0
4752026,,,,,,,,1.6484375,0.40625,-0.79296875,0.248046875,-0.150390625,0.203125,2.421875,-8.90625,1.17578125,1.0
4752027,,,,,,,,1.58984375,0.37109375,-0.78125,0.23828125,-0.10546875,0.193359375,2.34765625,-8.9375,1.2109375,1.0
4752028,,,,,,,,1.44140625,0.4453125,-0.61328125,0.23828125,-0.0390625,0.18359375,2.19140625,-8.8671875,1.40234375,1.0
4752029,,,,,,,,1.3046875,0.390625,-0.55859375,0.234375,0.01171875,0.185546875,2.0390625,-8.90625,1.48046875,1.0
4752030,36.0133895,129.31952866666668,83.7178550111163,109.79456661657233,1.0,69.0,,1.328125,0.23828125,-0.4296875,0.21875,0.046875,0.19140625,2.0390625,-9.0546875,1.6328125,1.0
4752031,,,,,,,,1.48828125,-0.02734375,-0.4453125,0.173828125,0.048828125,0.19140625,2.19140625,-9.3203125,1.6328125,1.0
4752032,,,,,,,,1.49609375,-0.03515625,-0.453125,0.154296875,0.052734375,0.197265625,2.23046875,-9.40234375,1.7109375,1.0
4752033,,,,,,,,1.72265625,-0.2265625,-0.3515625,0.091796875,0.0859375,0.203125,2.38671875,-9.51953125,1.75,1.0
4752034,,,,,,,,1.7734375,-0.2734375,-0.4375,0.0546875,0.126953125,0.1953125,2.421875,-9.5546875,1.671875,1.0
4752035,,,,,,,,1.7890625,-0.2734375,-0.58984375,0.01171875,0.177734375,0.197265625,2.421875,-9.55859375,1.51953125,1.0
4752036,,,,,,,,1.69140625,-0.2734375,-0.70703125,-0.05078125,0.2421875,0.18359375,2.30859375,-9.5546875,1.40234375,1.0
4752037,,,,,,,,1.33203125,-0.54296875,-0.70703125,-0.126953125,0.302734375,0.177734375,1.92578125,-9.82421875,1.40234375,1.0
4752038,,,,,,,,0.8125,-0.83984375,-0.61328125,-0.19921875,0.36328125,0.169921875,1.390625,-10.12890625,1.48046875,1.0
4752039,,,,,,,,0.51171875,-0.765625,-0.375,-0.232421875,0.38671875,0.1640625,1.08203125,-10.05859375,1.7109375,1.0
4752040,36.013389833333335,129.31952933333332,83.77795361796966,109.83155360613597,1.0,62.0,,0.359375,-0.44921875,-0.15234375,0.21875,0.046875,0.19140625,0.890625,-9.7421875,1.90234375,1.0
4752041,,,,,,,,0.22265625,-0.17578125,0.1015625,-0.30078125,0.458984375,0.125,0.73828125,-9.4765625,2.1328125,1.0
4752042,,,,,,,,0.66015625,-0.3671875,0.29296875,-0.376953125,0.380859375,0.1171875,1.16015625,-9.67578125,2.28515625,1.0
4752043,,,,,,,,0.66796875,-0.359375,0.30859375,-0.484375,0.2734375,0.1015625,1.390625,-10.4765625,1.94140625,1.0
4752044,,,,,,,,1.05859375,-1.8828125,-0.37109375,-0.65625,0.1328125,0.099609375,1.46484375,-11.35546875,1.55859375,1.0
4752045,,,,,,,,0.8828125,-2.01953125,-0.15625,-0.810546875,0.087890625,0.083984375,1.16015625,-11.20703125,1.90234375,1.0
4752046,,,,,,,,0.5,-1.73828125,0.44921875,-0.82421875,0.244140625,0.05078125,0.46875,-11.390625,2.74609375,1.0
4752047,,,,,,,,-0.2578125,-2.49609375,1.09375,-0.796875,0.42578125,0.064453125,-0.06640625,-12.46875,2.8203125,1.0
4752048,,,,,,,,-0.51953125,-3.1015625,1.1328125,-0.81640625,0.421875,0.078125,-0.83203125,-13.50390625,2.78125,1.0
4752049,,,,,,,,-1.59375,-4.30859375,1.35546875,-0.89453125,0.30078125,0.11328125,-1.59765625,-13.50390625,3.39453125,1.0
4752050,36.0133905,129.31953016666665,83.85307661524675,109.90552715546374,1.1,54.0,,0.359375,-0.44921875,-0.15234375,0.21875,0.046875,0.19140625,-2.671875,-11.47265625,4.4296875,1.0
4752051,,,,,,,,-3.33203125,-1.3359375,3.23828125,-0.365234375,0.357421875,0.09375,-2.9765625,-10.2421875,4.69921875,1.0
4752052,,,,,,,,-3.23828125,-0.29296875,2.6171875,0.03125,0.208984375,0.126953125,-2.59375,-9.6328125,3.703125,1.0
4752053,,,,,,,,-3.0,-0.21875,2.2734375,0.103515625,0.0859375,0.12890625,-2.2109375,-9.703125,3.47265625,1.0
4752054,,,,,,,,-2.171875,-0.515625,1.9140625,0.048828125,-0.1484375,0.109375,-0.87109375,-10.703125,3.43359375,1.0
4752055,,,,,,,,-0.52734375,-1.93359375,2.2890625,-0.00390625,-0.18359375,0.05859375,-0.14453125,-11.3515625,3.7421875,1.0
4752056,,,,,,,,0.046875,-2.05078125,2.5546875,0.06640625,-0.1875,-0.009765625,0.4296875,-11.47265625,4.0078125,1.0
4752057,,,,,,,,0.23046875,-1.13671875,2.30859375,0.232421875,-0.158203125,-0.072265625,0.62109375,-10.55078125,3.77734375,1.0
4752058,,,,,,,,0.1953125,-0.6796875,2.06640625,0.328125,-0.130859375,-0.109375,0.5859375,-10.09765625,3.55078125,1.0
4752059,,,,,,,,-0.2109375,0.6171875,1.56640625,0.41796875,-0.078125,-0.177734375,0.203125,-8.7890625,3.08984375,1.0
4752060,36.013391,129.319531,83.92819979110739,109.9610074959165,1.1,51.0,,-0.703125,0.84765625,1.359375,0.21875,0.046875,0.19140625,-2.671875,-11.47265625,4.4296875,1.0
4752061,,,,,,,,-0.7265625,0.30859375,1.41015625,0.1484375,-0.076171875,-0.24609375,-0.2578125,-9.09375,3.01171875,1.0
4752062,,,,,,,,-0.61328125,-0.00390625,1.28125,0.046875,-0.12109375,-0.2578125,-0.10546875,-9.40234375,2.8984375,1.0
4752063,,,,,,,,-0.68359375,0.30859375,0.8125,0.056640625,-0.09765625,-0.26171875,-0.14453125,-9.09375,2.4375,1.0
4752064,,,,,,,,-0.72265625,0.80078125,0.60546875,0.103515625,-0.068359375,-0.263671875,-0.14453125,-8.59375,2.24609375,1.0
4752065,,,,,,,,-0.67578125,1.13671875,0.25390625,0.126953125,-0.076171875,-0.2578125,-0.06640625,-8.25390625,1.90234375,1.0
4752066,,,,,,,,-0.64453125,1.296875,0.20703125,0.14453125,-0.0859375,-0.251953125,-0.02734375,-8.10546875,1.86328125,1.0
4752067,,,,,,,,-0.5546875,1.48046875,0.0390625,0.150390625,-0.103515625,-0.25,0.0859375,-7.91015625,1.7109375,1.0
4752068,,,,,,,,-0.6640625,1.7421875,-0.24609375,0.14453125,-0.1328125,-0.25390625,0.0078125,-7.640625,1.44140625,1.0
4752069,,,,,,,,-0.6875,2.05078125,-0.5,0.134765625,-0.15625,-0.2578125,0.0078125,-7.33203125,1.2109375,1.0
4752070,36.013391166666665,129.31953149999998,83.97327383203444,109.97950113518527,1.0,53.0,,-0.75390625,2.1171875,-0.62890625,0.13671875,-0.193359375,-0.265625,-0.02734375,-7.26171875,1.09765625,1.0
4752071,,,,,,,,-0.75,2.1484375,-0.7890625,0.134765625,-0.208984375,-0.2578125,0.0078125,-7.22265625,0.9453125,1.0
4752072,,,,,,,,-0.7734375,2.109375,-0.875,0.111328125,-0.220703125,-0.23828125,0.0078125,-7.2578125,0.8671875,1.0
4752073,,,,,,,,-0.83203125,2.109375,-0.96875,0.103515625,-0.224609375,-0.224609375,-0.02734375,-7.2578125,0.7890625,1.0
4752074,,,,,,,,-1.1640625,1.94921875,-1.12890625,0.099609375,-0.201171875,-0.212890625,-0.3359375,-7.40625,0.63671875,1.0
4752075,,,,,,,,-1.37890625,1.71875,-0.984375,0.09765625,-0.166015625,-0.19140625,-0.52734375,-7.64453125,0.7890625,1.0
4752076,,,,,,,,-1.42578125,1.6328125,-0.9921875,0.09375,-0.16015625,-0.177734375,-0.56640625,-7.72265625,0.7890625,1.0
4752077,,,,,,,,-1.44921875,1.51171875,-0.9609375,0.078125,-0.173828125,-0.1640625,-0.56640625,-7.828125,0.828125,1.0
4752078,,,,,,,,-1.2734375,1.20703125,-0.8828125,0.064453125,-0.205078125,-0.150390625,-0.375,-8.1328125,0.90625,1.0
4752079,,,,,,,,-1.1796875,1.05078125,-0.8515625,0.052734375,-0.240234375,-0.1328125,-0.2578125,-8.29296875,0.9453125,1.0
4752080,36.01339133333333,129.31953233333334,84.04839735942849,109.99799506139975,1.0,54.0,,-1.04296875,1.16015625,-0.79296875,0.13671875,-0.193359375,-0.265625,-0.10546875,-8.171875,1.01953125,1.0
4752081,,,,,,,,-0.9453125,1.3046875,-0.875,0.119140625,-0.20703125,-0.115234375,0.0078125,-8.02734375,0.9453125,1.0
4752082,,,,,,,,-0.84375,1.265625,-1.07421875,0.146484375,-0.1875,-0.111328125,0.125,-8.0625,0.75390625,1.0
4752083,,,,,,,,-0.78125,1.06640625,-1.16796875,0.123046875,-0.177734375,-0.1171875,0.203125,-8.25,0.67578125,1.0
4752084,,,,,,,,-0.72265625,0.828125,-1.09765625,0.087890625,-0.18359375,-0.130859375,0.27734375,-8.48828125,0.75390625,1.0
4752085,,,,,,,,-0.66796875,0.58984375,-0.9140625,0.072265625,-0.154296875,-0.1484375,0.35546875,-8.7109375,0.9453125,1.0
4752086,,,,,,,,-0.72265625,0.515625,-0.84765625,0.091796875,-0.126953125,-0.166015625,0.31640625,-8.79296875,1.01953125,1.0
4752087,,,,,,,,-0.890625,0.46875,-0.69921875,0.11328125,-0.08984375,-0.18359375,0.1640625,-8.828125,1.17578125,1.0
4752088,,,,,,,,-0.984375,0.3828125,-0.6796875,0.119140625,-0.07421875,-0.19921875,0.0859375,-8.90625,1.2109375,1.0
4752089,,,,,,,,-0.9296875,-0.0078125,-0.72265625,0.11328125,-0.0859375,-0.205078125,0.1640625,-9.2890625,1.17578125,1.0
4752090,36.01339183333334,129.31953316666667,84.12352052808407,110.05347540645214,1.0,53.0,,-0.6875,-0.3515625,-0.76953125,0.087890625,-0.125,-0.216796875,0.4296875,-9.6328125,1.13671875,1.0
4752091,,,,,,,,-0.39453125,-0.62890625,-0.6953125,0.02734375,-0.13671875,-0.21484375,0.73828125,-9.90234375,1.2109375,1.0
4752092,,,,,,,,-0.328125,-0.7109375,-0.625,-0.0078125,-0.14453125,-0.21875,0.8125,-9.9765625,1.2890625,1.0
4752093,,,,,,,,-0.2734375,-1.09375,-0.5390625,-0.05859375,-0.140625,-0.22265625,0.890625,-10.359375,1.3671875,1.0
4752094,,,,,,,,-0.25,-1.2109375,-0.5390625,-0.076171875,-0.130859375,-0.232421875,0.9296875,-10.48046875,1.3671875,1.0
4752095,,,,,,,,-0.3125,-1.40234375,-0.671875,-0.11328125,-0.123046875,-0.234375,0.890625,-10.6640625,1.2109375,1.0
4752096,,,,,,,,-0.296875,-1.41015625,-0.73046875,-0.154296875,-0.119140625,-0.234375,0.9296875,-10.66796875,1.13671875,1.0
4752097,,,,,,,,-0.2734375,-1.24609375,-0.71484375,-0.1875,-0.08984375,-0.224609375,0.96875,-10.5078125,1.13671875,1.0
4752098,,,,,,,,-0.24609375,-1.1328125,-0.74609375,-0.21484375,-0.0703125,-0.216796875,1.00390625,-10.3984375,1.09765625,1.0
4752099,,,,,,,,-0.46875,-0.60546875,-0.75390625,-0.294921875,0.001953125,-0.19140625,0.8125,-9.86328125,1.05859375,1.0
4752100,36.01339216666667,129.31953433333334,84.2286933551719,110.09046283033054,1.2000000000000002,56.0,0.0,-0.58984375,-0.48828125,-0.77734375,0.087890625,-0.125,-0.216796875,0.4296875,-9.6328125,1.13671875,1.0
4752101,,,,,,,,-0.98828125,-0.7890625,-0.58984375,-0.36328125,0.029296875,-0.15234375,0.31640625,-10.0546875,1.17578125,1.0
4752102,,,,,,,,-1.00390625,-2.16015625,-0.64453125,-0.54296875,-0.080078125,-0.119140625,0.31640625,-11.43359375,1.05859375,1.0
4752103,,,,,,,,-0.7421875,-3.03125,-0.3984375,-0.71484375,-0.23046875,-0.08203125,0.5859375,-12.31640625,1.25,1.0
4752104,,,,,,,,0.0546875,-2.90234375,0.79296875,-0.765625,-0.33984375,-0.0703125,1.390625,-12.1953125,2.36328125,1.0
4752105,,,,,,,,0.6796875,-2.93359375,0.96875,-0.587890625,-0.306640625,-0.044921875,2.0390625,-12.23828125,2.4375,1.0
4752106,,,,,,,,1.02734375,-3.57421875,0.83203125,-0.580078125,-0.267578125,-0.025390625,2.38671875,-12.8828125,2.24609375,1.0
4752107,,,,,,,,1.828125,-1.5390625,1.66015625,-0.54296875,-0.248046875,-0.029296875,3.1875,-10.859375,3.01171875,1.0
4752108,,,,,,,,1.515625,-0.71875,1.59375,-0.29296875,-0.162109375,-0.046875,2.8828125,-10.05859375,2.8984375,1.0
4752109,,,,,,,,0.6640625,-0.91015625,1.76171875,-0.033203125,-0.03125,-0.06640625,2.0390625,-10.24609375,3.05078125,1.0
4752110,36.0133925,129.31953533333333,84.31884144187731,110.12745011110982,1.1,57.0,,-0.109375,-1.828125,1.9140625,0.087890625,-0.125,-0.216796875,0.4296875,-9.6328125,1.13671875,1.0
4752111,,,,,,,,-0.5,-2.78515625,2.28125,0.099609375,-0.263671875,-0.044921875,0.890625,-12.1171875,3.5859375,1.0
4752112,,,,,,,,-0.31640625,-2.94140625,2.34375,0.220703125,-0.4140625,-0.009765625,1.08203125,-12.27734375,3.6640625,1.0
4752113,,,,,,,,0.05859375,-2.41015625,1.9765625,0.3671875,-0.44921875,0.0234375,1.46484375,-11.734375,3.3203125,1.0
4752114,,,,,,,,0.17578125,-0.91015625,1.4921875,0.466796875,-0.361328125,0.091796875,1.58203125,-10.2421875,2.859375,1.0
4752115,,,,,,,,-0.0078125,-0.34375,1.22265625,0.509765625,-0.240234375,0.181640625,1.390625,-9.671875,2.62890625,1.0
4752116,,,,,,,,-0.0703125,-0.11328125,1.1171875,0.4921875,-0.203125,0.2265625,1.3125,-9.44140625,2.5546875,1.0
4752117,,,,,,,,-0.046875,-0.03515625,0.9140625,0.42578125,-0.2109375,0.302734375,1.3125,-9.359375,2.3984375,1.0
4752118,,,,,,,,0.13671875,-0.3046875,0.9296875,0.3203125,-0.283203125,0.3515625,1.46484375,-9.6328125,2.4375,1.0
4752119,,,,,,,,0.375,-0.37890625,0.890625,0.205078125,-0.3515625,0.412109375,1.65625,-9.703125,2.4375,1.0
4752120,36.01339299999999,129.31953616666667,84.3939646075205,110.18293045568399,1.1,58.0,,0.17578125,0.0859375,0.68359375,0.212890625,-0.3359375,0.416015625,1.42578125,-9.25390625,2.24609375,1.0
4752121,,,,,,,,0.0546875,0.46875,0.5546875,0.26171875,-0.29296875,0.40625,1.2734375,-8.87109375,2.1328125,1.0
4752122,,,,,,,,-0.04296875,0.74609375,0.46875,0.296875,-0.259765625,0.396484375,1.16015625,-8.59765625,2.0546875,1.0
4752123,,,,,,,,-0.15234375,1.3984375,0.14453125,0.353515625,-0.234375,0.380859375,1.00390625,-7.9453125,1.78515625,1.0
4752124,,,,,,,,-0.15625,2.00390625,-0.078125,0.37109375,-0.25,0.3828125,0.96875,-7.33203125,1.59375,1.0
4752125,,,,,,,,-0.1640625,2.26953125,-0.26171875,0.353515625,-0.259765625,0.384765625,0.9296875,-7.0625,1.44140625,1.0
4752126,,,,,,,,-0.109375,2.421875,-0.34375,0.33203125,-0.2578125,0.39453125,0.96875,-6.9140625,1.3671875,1.0
4752127,,,,,,,,-0.078125,2.8046875,-0.421875,0.296875,-0.251953125,0.3984375,0.96875,-6.53125,1.328125,1.0
4752128,,,,,,,,0.03515625,2.9609375,-0.33203125,0.279296875,-0.255859375,0.390625,1.04296875,-6.37890625,1.44140625,1.0
4752129,,,,,,,,0.05078125,2.9609375,-0.4921875,0.26953125,-0.255859375,0.38671875,1.04296875,-6.375,1.2890625,1.0
4752130,36.013393666666666,129.31953716666666,84.4841123368324,110.2569041556242,1.1,57.0,,0.453125,2.73046875,-0.67578125,0.212890625,-0.3359375,0.416015625,1.390625,-6.6015625,1.13671875,1.0
4752131,,,,,,,,0.97265625,2.5390625,-0.8828125,0.19140625,-0.36328125,0.3671875,1.88671875,-6.796875,0.9453125,1.0
4752132,,,,,,,,1.15625,2.26953125,-0.984375,0.173828125,-0.353515625,0.33984375,2.0390625,-7.06640625,0.8671875,1.0
4752133,,,,,,,,1.296875,2.00390625,-0.9609375,0.12109375,-0.31640625,0.3125,2.15625,-7.328125,0.90625,1.0
4752134,,,,,,,,1.328125,1.734375,-0.77734375,0.109375,-0.203125,0.25390625,2.15625,-7.6015625,1.09765625,1.0
4752135,,,,,,,,1.1875,1.80859375,-0.5234375,0.150390625,-0.119140625,0.2109375,2.0,-7.5234375,1.3671875,1.0
4752136,,,,,,,,1.08203125,1.83984375,-0.49609375,0.1796875,-0.06640625,0.1953125,1.88671875,-7.48828125,1.40234375,1.0
4752137,,,,,,,,0.9140625,1.95703125,-0.43359375,0.259765625,0.037109375,0.173828125,1.6953125,-7.3671875,1.48046875,1.0
4752138,,,,,,,,0.890625,1.6796875,-0.65625,0.294921875,0.0703125,0.16796875,1.65625,-7.640625,1.2890625,1.0
4752139,,,,,,,,1.25,1.296875,-0.83203125,0.283203125,0.05078125,0.166015625,2.0,-8.0234375,1.13671875,1.0
