time,latitude,longitude,enu_x,enu_y,speed,course,ecg,accX,accY,accZ,gyrX,gyrY,gyrZ,eulR,eulP,eulY,validity
4827350,36.013401333333334,129.319539,84.64937627903397,111.10759332243701,1.2000000000000002,232.0,,0.76171875,-1.21484375,1.91015625,-0.09765625,0.43359375,-0.10546875,1.46484375,-10.58984375,3.47265625,1.0
4827351,,,,,,,,1.0625,-1.55859375,2.03125,-0.1171875,0.48828125,-0.11328125,1.7734375,-10.9296875,3.5859375,1.0
4827352,,,,,,,,1.28125,-1.66796875,2.00390625,-0.04296875,0.5859375,-0.140625,2.0,-11.046875,3.55078125,1.0
4827353,,,,,,,,1.24609375,-1.62890625,1.92578125,0.015625,0.646484375,-0.15234375,1.96484375,-11.01171875,3.47265625,1.0
4827354,,,,,,,,0.69140625,-1.20703125,1.94140625,0.15234375,0.7890625,-0.21875,1.42578125,-10.5859375,3.51171875,1.0
4827355,,,,,,,,0.1484375,-0.87109375,1.91796875,0.22265625,0.853515625,-0.291015625,0.890625,-10.2421875,3.51171875,1.0
4827356,,,,,,,,-0.6328125,-0.75390625,1.91796875,0.25,0.814453125,-0.36328125,-0.14453125,-10.015625,3.43359375,1.0
4827357,,,,,,,,-1.078125,-0.6484375,1.6953125,0.232421875,0.7265625,-0.384765625,-0.41015625,-9.78515625,3.12890625,1.0
4827358,,,,,,,,-1.20703125,-0.42578125,1.44921875,0.234375,0.681640625,-0.392578125,-0.44921875,-9.671875,3.01171875,1.0
4827359,,,,,,,,-1.23828125,-0.15625,1.15625,0.23046875,0.611328125,-0.37890625,-0.41015625,-9.40234375,2.70703125,1.0
4827360,36.013400499999996,129.31953816666666,84.5742534764146,111.01512655845556,1.1,230.0,,0.76171875,-1.21484375,1.91015625,-0.09765625,0.43359375,-0.10546875,-0.44921875,-8.91015625,2.28515625,1.0
4827361,,,,,,,,-1.2578125,0.859375,0.2421875,0.193359375,0.55859375,-0.29296875,-0.375,-8.48828125,2.015625,1.0
4827362,,,,,,,,-1.15625,1.20703125,-0.00390625,0.138671875,0.5625,-0.25390625,-0.2578125,-8.1328125,1.78515625,1.0
4827363,,,,,,,,-0.97265625,1.51171875,-0.1015625,0.107421875,0.552734375,-0.234375,-0.06640625,-7.828125,1.7109375,1.0
4827364,,,,,,,,-0.34375,1.96484375,-0.42578125,0.0546875,0.513671875,-0.23046875,0.5859375,-7.37109375,1.40234375,1.0
4827365,,,,,,,,-0.19921875,2.1953125,-0.43359375,0.044921875,0.46484375,-0.2421875,0.73828125,-7.14453125,1.40234375,1.0
4827366,,,,,,,,-0.18359375,2.37890625,-0.71484375,0.037109375,0.435546875,-0.265625,0.77734375,-6.94921875,1.13671875,1.0
4827367,,,,,,,,-0.28515625,2.33984375,-0.73046875,0.041015625,0.44140625,-0.28125,0.69921875,-6.98828125,1.13671875,1.0
4827368,,,,,,,,-0.37109375,2.33984375,-0.76953125,0.04296875,0.451171875,-0.29296875,0.62109375,-6.984375,1.09765625,1.0
4827369,,,,,,,,-0.76953125,2.29296875,-0.81640625,0.068359375,0.46875,-0.294921875,0.23828125,-7.02734375,1.05859375,1.0
4827370,36.013400000000004,129.31953716666666,84.48410557818079,110.95964606610501,1.1,230.0,,-0.9453125,2.33203125,-0.9453125,-0.09765625,0.43359375,-0.10546875,0.0859375,-6.984375,0.9453125,1.0
4827371,,,,,,,,-1.28125,2.171875,-1.0390625,0.119140625,0.4765625,-0.26171875,-0.21875,-7.14453125,0.8671875,1.0
4827372,,,,,,,,-1.48046875,1.85546875,-1.0625,0.115234375,0.470703125,-0.240234375,-0.41015625,-7.4453125,0.8671875,1.0
4827373,,,,,,,,-1.52734375,1.85546875,-1.0703125,0.12109375,0.458984375,-0.228515625,-0.44921875,-7.44921875,0.8671875,1.0
4827374,,,,,,,,-1.53515625,1.54296875,-1.0859375,0.125,0.435546875,-0.19921875,-0.44921875,-7.75,0.8671875,1.0
4827375,,,,,,,,-1.62890625,1.2265625,-1.0234375,0.146484375,0.412109375,-0.177734375,-0.52734375,-8.0625,0.9453125,1.0
4827376,,,,,,,,-1.63671875,1.21875,-0.98046875,0.18359375,0.34375,-0.154296875,-0.52734375,-8.06640625,1.01953125,1.0
4827377,,,,,,,,-1.68359375,1.2890625,-0.95703125,0.197265625,0.296875,-0.13671875,-0.56640625,-7.984375,1.05859375,1.0
4827378,,,,,,,,-1.64453125,1.2421875,-1.01171875,0.212890625,0.267578125,-0.13671875,-0.52734375,-8.0234375,1.01953125,1.0
4827379,,,,,,,,-1.61328125,0.9296875,-1.07421875,0.19921875,0.2109375,-0.125,-0.48828125,-8.33203125,0.98046875,1.0
4827380,36.013399166666666,129.319536,84.37893329587739,110.86717901389824,1.2000000000000002,232.0,,-0.9453125,2.33203125,-0.9453125,0.185546875,0.150390625,-0.103515625,-0.48828125,-8.59765625,1.09765625,1.0
4827381,,,,,,,,-1.62890625,0.421875,-0.91796875,0.16796875,0.103515625,-0.087890625,-0.48828125,-8.90625,1.25,1.0
4827382,,,,,,,,-1.55078125,0.26171875,-0.8203125,0.171875,0.060546875,-0.064453125,-0.375,-9.01953125,1.2890625,1.0
4827383,,,,,,,,-1.5234375,0.26171875,-0.8828125,0.1875,0.021484375,-0.056640625,-0.2578125,-8.9375,1.2890625,1.0
4827384,,,,,,,,-1.4140625,0.3203125,-0.8984375,0.162109375,0.00390625,-0.064453125,-0.2578125,-8.9375,1.25,1.0
4827385,,,,,,,,-1.4453125,0.27734375,-0.875,0.12109375,-0.0390625,-0.068359375,-0.296875,-9.015625,1.328125,1.0
4827386,,,,,,,,-1.4453125,0.19921875,-0.84375,0.09375,-0.0703125,-0.072265625,-0.296875,-9.171875,1.3671875,1.0
4827387,,,,,,,,-1.421875,-0.0390625,-0.77734375,0.044921875,-0.12109375,-0.076171875,-0.21875,-9.2890625,1.40234375,1.0
4827388,,,,,,,,-1.19921875,-0.3046875,-0.8125,-0.005859375,-0.1640625,-0.091796875,-0.02734375,-9.51953125,1.3671875,1.0
4827389,,,,,,,,-1.0625,-0.49609375,-0.8125,-0.060546875,-0.177734375,-0.095703125,0.125,-9.70703125,1.3671875,1.0
4827390,36.01339866666667,129.319535,84.2887853966314,110.8116985248208,1.1,237.0,,-0.7265625,-0.7734375,-0.8359375,-0.140625,-0.193359375,-0.103515625,0.46875,-9.9765625,1.328125,1.0
4827391,,,,,,,,-0.54296875,-0.84375,-0.8984375,-0.21484375,-0.201171875,-0.09765625,0.66015625,-10.05859375,1.25,1.0
4827392,,,,,,,,-0.16796875,-0.91796875,-0.8828125,-0.279296875,-0.181640625,-0.1015625,1.04296875,-10.12890625,1.25,1.0
4827393,,,,,,,,0.0078125,-1.02734375,-0.890625,-0.3359375,-0.125,-0.103515625,1.234375,-10.2421875,1.2109375,1.0
4827394,,,,,,,,0.23046875,-1.06640625,-0.89453125,-0.412109375,-0.0546875,-0.099609375,1.46484375,-10.28515625,1.17578125,1.0
4827395,,,,,,,,0.22265625,-0.7421875,-0.765625,-0.44140625,0.02734375,-0.10546875,1.46484375,-9.9765625,1.25,1.0
4827396,,,,,,,,0.0234375,-0.25390625,-0.6953125,-0.443359375,0.060546875,-0.111328125,1.2734375,-9.48046875,1.2890625,1.0
4827397,,,,,,,,-0.59765625,0.40625,-0.578125,-0.421875,0.115234375,-0.119140625,0.66015625,-8.828125,1.3671875,1.0
4827398,,,,,,,,-1.37890625,0.3828125,-0.5234375,-0.474609375,0.12109375,-0.099609375,-0.10546875,-8.87109375,1.3671875,1.0
4827399,,,,,,,,-1.72265625,-0.71875,-0.5859375,-0.56640625,0.078125,-0.078125,-0.44921875,-9.98046875,1.25,1.0
4827400,36.013398333333335,129.31953383333334,84.1836125790096,110.77471110005959,1.1,241.0,0.0,-1.37890625,-1.01171875,-0.30078125,-0.705078125,-0.04296875,-0.052734375,-0.10546875,-10.28515625,1.48046875,1.0
4827401,,,,,,,,-0.50390625,-1.30859375,0.61328125,-0.771484375,-0.193359375,-0.001953125,0.77734375,-10.5859375,2.32421875,1.0
4827402,,,,,,,,0.26171875,-2.2578125,0.7734375,-0.806640625,-0.251953125,0.0390625,1.54296875,-11.55078125,2.3984375,1.0
4827403,,,,,,,,1.76171875,-4.65625,1.12890625,-0.94140625,-0.234375,0.0703125,3.03515625,-13.96484375,2.66796875,1.0
4827404,,,,,,,,3.5234375,-4.41015625,2.44921875,-1.041015625,-0.169921875,0.04296875,4.796875,-13.7265625,3.89453125,1.0
4827405,,,,,,,,3.6015625,-1.90625,2.56640625,-0.48046875,0.1328125,-0.048828125,4.875,-11.2421875,3.89453125,1.0
4827406,,,,,,,,2.30078125,-1.7734375,2.3515625,-0.064453125,0.404296875,-0.130859375,3.57421875,-11.125,3.6640625,1.0
4827407,,,,,,,,-0.16796875,-3.125,2.796875,0.1484375,0.28515625,-0.236328125,1.12109375,-12.46875,4.125,1.0
4827408,,,,,,,,-0.61328125,-3.55078125,2.7421875,0.255859375,0.0859375,-0.236328125,0.69921875,-12.8828125,4.0859375,1.0
4827409,,,,,,,,-0.20703125,-2.94921875,2.328125,0.365234375,-0.01953125,-0.1875,1.12109375,-12.27734375,3.703125,1.0
4827410,36.013397833333336,129.3195325,84.063415197623,110.71923032509261,1.1,245.0,,0.0078125,-2.3359375,1.97265625,0.470703125,0.056640625,-0.1015625,-0.10546875,-10.28515625,1.48046875,1.0
4827411,,,,,,,,0.0078125,-1.3828125,1.8125,0.537109375,0.232421875,0.00390625,1.3515625,-10.703125,3.28125,1.0
4827412,,,,,,,,-0.29296875,-0.55078125,1.60546875,0.5234375,0.35546875,0.091796875,1.04296875,-9.86328125,3.12890625,1.0
4827413,,,,,,,,-0.4296875,-0.28125,1.203125,0.447265625,0.34375,0.1640625,0.890625,-9.59375,2.78125,1.0
4827414,,,,,,,,-0.3671875,-0.05078125,0.859375,0.294921875,0.21875,0.197265625,0.9296875,-9.359375,2.4765625,1.0
4827415,,,,,,,,0.0390625,0.0234375,0.72265625,0.115234375,0.060546875,0.205078125,1.3125,-9.2890625,2.36328125,1.0
4827416,,,,,,,,0.046875,0.1796875,0.67578125,0.0546875,0.013671875,0.203125,1.3125,-9.13671875,2.32421875,1.0
4827417,,,,,,,,0.1015625,0.5703125,0.55859375,-0.009765625,0.0078125,0.1953125,1.2734375,-8.59765625,2.1328125,1.0
4827418,,,,,,,,-0.10546875,1.10546875,0.25390625,-0.009765625,0.064453125,0.189453125,1.12109375,-8.2109375,1.90234375,1.0
4827419,,,,,,,,-0.19921875,1.50390625,-0.015625,0.0,0.1484375,0.1796875,0.9296875,-7.640625,1.51953125,1.0
4827420,36.01339733333334,129.31953133333334,83.95824255396666,110.66374969407967,1.2000000000000002,247.0,,-0.328125,1.96484375,-0.28125,-0.021484375,0.177734375,0.177734375,0.8515625,-7.37109375,1.3671875,1.0
4827421,,,,,,,,-0.234375,2.30859375,-0.51171875,-0.080078125,0.19140625,0.16796875,0.96875,-6.87890625,1.09765625,1.0
4827422,,,,,,,,-0.01953125,2.61328125,-0.62890625,-0.146484375,0.189453125,0.169921875,1.16015625,-6.71875,1.01953125,1.0
4827423,,,,,,,,0.1875,2.66015625,-0.58984375,-0.1875,0.19921875,0.154296875,1.3515625,-6.6015625,1.01953125,1.0
4827424,,,,,,,,0.44140625,2.8203125,-0.60546875,-0.193359375,0.22265625,0.138671875,1.65625,-6.56640625,1.01953125,1.0
4827425,,,,,,,,0.72265625,2.78515625,-0.671875,-0.1640625,0.263671875,0.123046875,1.80859375,-6.5625,0.9453125,1.0
4827426,,,,,,,,0.73046875,2.79296875,-0.6640625,-0.142578125,0.291015625,0.11328125,1.96484375,-6.71875,0.90625,1.0
4827427,,,,,,,,0.9765625,2.5625,-0.734375,-0.087890625,0.322265625,0.087890625,2.078125,-6.91796875,0.7890625,1.0
4827428,,,,,,,,1.0625,2.25390625,-0.95703125,-0.046875,0.37109375,0.041015625,2.1171875,-7.1015625,0.63671875,1.0
4827429,,,,,,,,1.0,2.1875,-0.99609375,-0.009765625,0.43359375,0.01171875,1.96484375,-7.37109375,0.5234375,1.0
4827430,36.013397000000005,129.31953049999998,83.88311920862827,110.62676256028595,1.0,247.0,,-0.328125,1.96484375,-0.28125,0.0078125,0.478515625,-0.025390625,1.92578125,-7.5625,0.5625,1.0
4827431,,,,,,,,0.89453125,1.7265625,-1.00390625,0.015625,0.505859375,-0.060546875,1.84765625,-7.72265625,0.59765625,1.0
4827432,,,,,,,,0.78515625,1.60546875,-1.01171875,0.046875,0.537109375,-0.09375,1.734375,-7.83203125,0.71484375,1.0
4827433,,,,,,,,0.7109375,1.52734375,-0.90234375,0.0625,0.552734375,-0.10546875,1.6171875,-7.7890625,0.7890625,1.0
4827434,,,,,,,,0.40234375,1.55859375,-0.84375,0.11328125,0.587890625,-0.1171875,1.3515625,-7.828125,0.75390625,1.0
4827435,,,,,,,,0.2421875,1.48046875,-0.97265625,0.15625,0.59765625,-0.119140625,1.2734375,-7.91015625,0.71484375,1.0
4827436,,,,,,,,0.203125,1.359375,-0.94921875,0.173828125,0.576171875,-0.1171875,1.19921875,-8.0625,0.67578125,1.0
4827437,,,,,,,,0.203125,1.12109375,-1.01171875,0.171875,0.552734375,-0.10546875,1.2734375,-8.328125,0.63671875,1.0
4827438,,,,,,,,0.2421875,1.0078125,-1.05859375,0.171875,0.541015625,-0.1015625,1.3125,-8.59765625,0.63671875,1.0
4827439,,,,,,,,0.28125,0.578125,-1.15625,0.15625,0.525390625,-0.083984375,1.390625,-9.01953125,0.59765625,1.0
4827440,36.0133965,129.31952916666665,83.76292182419837,110.57128178848569,1.1,247.0,,0.359375,0.1484375,-0.8984375,0.130859375,0.533203125,-0.07421875,1.390625,-9.171875,0.8671875,1.0
4827441,,,,,,,,0.39453125,-0.05078125,-0.60546875,0.130859375,0.537109375,-0.05859375,1.42578125,-9.359375,1.17578125,1.0
4827442,,,,,,,,0.44140625,-0.359375,-0.5859375,0.12890625,0.52734375,-0.03515625,1.46484375,-9.67578125,1.2109375,1.0
4827443,,,,,,,,0.48828125,-0.40234375,-0.5703125,0.11328125,0.494140625,-0.009765625,1.50390625,-9.70703125,1.25,1.0
4827444,,,,,,,,0.50390625,-0.3671875,-0.546875,0.095703125,0.48828125,0.009765625,1.50390625,-9.67578125,1.2890625,1.0
4827445,,,,,,,,0.47265625,-0.2890625,-0.5546875,0.08203125,0.515625,0.03125,1.46484375,-9.59375,1.2890625,1.0
4827446,,,,,,,,0.56640625,-0.2578125,-0.5234375,0.048828125,0.544921875,0.048828125,1.54296875,-9.55859375,1.328125,1.0
4827447,,,,,,,,0.58984375,-0.2578125,-0.609375,-0.0234375,0.541015625,0.072265625,1.54296875,-9.55859375,1.25,1.0
4827448,,,,,,,,0.63671875,-0.41015625,-0.76171875,-0.064453125,0.52734375,0.072265625,1.58203125,-9.703125,1.09765625,1.0
4827449,,,,,,,,0.61328125,-0.48828125,-0.83984375,-0.140625,0.486328125,0.07421875,1.54296875,-9.78515625,1.01953125,1.0
4827450,36.013395833333334,129.319528,83.65774935300128,110.49730795380694,1.1,245.0,,0.390625,-0.48046875,-0.86328125,-0.21875,0.4765625,0.05859375,1.3125,-9.78125,0.98046875,1.0
4827451,,,,,,,,0.09765625,-0.13671875,-0.67578125,-0.3203125,0.521484375,0.052734375,1.00390625,-9.44140625,1.13671875,1.0
4827452,,,,,,,,0.15234375,0.0625,-0.453125,-0.396484375,0.529296875,0.0546875,1.04296875,-9.25,1.328125,1.0
4827453,,,,,,,,0.4296875,-0.16015625,-0.3984375,-0.443359375,0.533203125,0.05859375,1.3125,-9.4765625,1.3671875,1.0
4827454,,,,,,,,0.75,-1.0703125,-0.62109375,-0.5703125,0.51953125,0.08203125,1.6171875,-10.40234375,1.09765625,1.0
4827455,,,,,,,,0.84375,-2.86328125,-0.91015625,-0.7421875,0.4453125,0.091796875,1.6953125,-12.1953125,0.75390625,1.0
4827456,,,,,,,,0.58984375,-3.30859375,-0.07421875,-0.841796875,0.443359375,0.080078125,1.42578125,-12.66015625,1.51953125,1.0
4827457,,,,,,,,0.140625,-3.0703125,1.0390625,-0.818359375,0.59375,0.060546875,0.96875,-12.43359375,2.5546875,1.0
4827458,,,,,,,,-0.19140625,-3.13671875,1.53515625,-0.7734375,0.705078125,0.05078125,0.62109375,-12.5,3.01171875,1.0
4827459,,,,,,,,-1.32421875,-4.77734375,1.8203125,-0.693359375,0.78515625,0.091796875,-0.52734375,-14.1484375,3.2421875,1.0
4827460,36.01339533333333,129.31952683333333,83.55257670502527,110.44182732726041,1.2000000000000002,243.0,,-2.07421875,-4.41796875,2.6484375,-0.21875,0.4765625,0.05859375,-1.29296875,-13.8046875,4.0078125,1.0
4827461,,,,,,,,-2.08984375,-2.06640625,2.28125,-0.45703125,0.458984375,0.140625,-1.33203125,-11.46875,3.5859375,1.0
4827462,,,,,,,,-1.921875,-1.2890625,1.609375,-0.041015625,0.490234375,0.126953125,-1.1796875,-10.70703125,2.8984375,1.0
4827463,,,,,,,,-1.3203125,-1.3671875,1.5234375,0.111328125,0.560546875,0.123046875,-0.6015625,-10.78515625,2.8203125,1.0
4827464,,,,,,,,-0.5390625,-2.05859375,1.77734375,0.029296875,0.58984375,0.099609375,0.1640625,-11.47265625,3.08984375,1.0
4827465,,,,,,,,0.73828125,-2.82421875,2.3125,-0.037109375,0.5703125,0.037109375,1.42578125,-12.234375,3.625,1.0
4827466,,,,,,,,1.0078125,-2.9765625,2.4296875,-0.029296875,0.5703125,-0.00390625,1.6953125,-12.39453125,3.7421875,1.0
4827467,,,,,,,,1.20703125,-2.82421875,2.45703125,0.052734375,0.6328125,-0.064453125,1.88671875,-12.23828125,3.77734375,1.0
4827468,,,,,,,,0.5859375,-1.8671875,2.19921875,0.328125,0.75390625,-0.189453125,1.2734375,-11.28515625,3.55078125,1.0
4827469,,,,,,,,-0.38671875,0.08203125,1.65234375,0.486328125,0.806640625,-0.27734375,0.31640625,-9.3203125,3.05078125,1.0
4827470,36.01339483333334,129.31952566666666,83.44740405475738,110.38634670440871,1.2000000000000002,245.0,,-0.74609375,0.1953125,1.17578125,-0.21875,0.4765625,0.05859375,-0.02734375,-9.2109375,2.62890625,1.0
4827471,,,,,,,,-0.80078125,0.07421875,1.015625,0.330078125,0.701171875,-0.369140625,-0.06640625,-9.4375,2.515625,1.0
4827472,,,,,,,,-0.81640625,-0.04296875,0.9921875,0.2734375,0.671875,-0.380859375,-0.14453125,-9.515625,2.515625,1.0
4827473,,,,,,,,-0.87109375,-0.1328125,0.77734375,0.26171875,0.65234375,-0.396484375,-0.06640625,-9.515625,2.36328125,1.0
4827474,,,,,,,,-0.86328125,0.73828125,0.30078125,0.361328125,0.68359375,-0.390625,-0.02734375,-8.63671875,1.94140625,1.0
4827475,,,,,,,,-0.8515625,1.4296875,-0.0546875,0.390625,0.689453125,-0.3828125,0.0078125,-7.9453125,1.6328125,1.0
4827476,,,,,,,,-0.8671875,1.8046875,-0.26171875,0.3984375,0.689453125,-0.380859375,0.0078125,-7.56640625,1.44140625,1.0
4827477,,,,,,,,-0.92578125,2.33203125,-0.3828125,0.3671875,0.66796875,-0.37890625,-0.02734375,-7.02734375,1.3671875,1.0
4827478,,,,,,,,-0.9140625,2.59375,-0.5,0.3359375,0.630859375,-0.369140625,0.0078125,-6.7578125,1.2890625,1.0
4827479,,,,,,,,-0.96484375,2.66015625,-0.5234375,0.314453125,0.607421875,-0.375,-0.02734375,-6.68359375,1.2890625,1.0
4827480,36.01339433333333,129.3195245,83.34223140543986,110.33086608030048,1.2000000000000002,246.0,,-0.9453125,2.73046875,-0.59375,0.291015625,0.576171875,-0.376953125,0.0078125,-6.6015625,1.25,1.0
4827481,,,,,,,,-1.05078125,2.60546875,-0.81640625,0.2734375,0.5390625,-0.376953125,-0.06640625,-6.72265625,1.05859375,1.0
4827482,,,,,,,,-1.2265625,2.4765625,-0.86328125,0.232421875,0.521484375,-0.369140625,-0.21875,-6.8359375,1.05859375,1.0
4827483,,,,,,,,-1.28125,2.390625,-0.83984375,0.216796875,0.515625,-0.36328125,-0.2578125,-6.91796875,1.09765625,1.0
4827484,,,,,,,,-1.45703125,2.23828125,-0.90234375,0.203125,0.494140625,-0.33984375,-0.41015625,-7.0625,1.05859375,1.0
4827485,,,,,,,,-1.40625,2.0,-0.89453125,0.19921875,0.466796875,-0.3125,-0.3359375,-7.296875,1.09765625,1.0
4827486,,,,,,,,-1.34375,1.83984375,-0.83203125,0.185546875,0.44140625,-0.2890625,-0.2578125,-7.4453125,1.17578125,1.0
4827487,,,,,,,,-1.4375,1.71875,-0.87109375,0.150390625,0.400390625,-0.2578125,-0.3359375,-7.5625,1.17578125,1.0
4827488,,,,,,,,-1.484375,1.7109375,-0.84375,0.142578125,0.38671875,-0.244140625,-0.375,-7.5625,1.2109375,1.0
4827489,,,,,,,,-1.5,1.5859375,-0.859375,0.13671875,0.36328125,-0.21875,-0.375,-7.68359375,1.2109375,1.0
4827490,36.01339433333333,129.31952366666667,83.26710770598784,110.33086536786728,1.0,248.0,,-1.55078125,1.625,-0.8359375,0.14453125,0.345703125,-0.201171875,-0.41015625,-7.64453125,1.25,1.0
4827491,,,,,,,,-1.55859375,1.50390625,-0.97265625,0.15625,0.33203125,-0.1953125,-0.41015625,-7.75,1.13671875,1.0
4827492,,,,,,,,-1.375,0.95703125,-1.03515625,0.123046875,0.296875,-0.17578125,-0.21875,-8.29296875,1.09765625,1.0
4827493,,,,,,,,-1.3828125,0.7578125,-0.99609375,0.10546875,0.279296875,-0.16796875,-0.21875,-8.48828125,1.13671875,1.0
4827494,,,,,,,,-1.35546875,0.29296875,-0.890625,0.072265625,0.236328125,-0.1640625,-0.18359375,-8.9375,1.25,1.0
4827495,,,,,,,,-1.36328125,0.09375,-0.75390625,0.068359375,0.181640625,-0.162109375,-0.18359375,-9.1328125,1.40234375,1.0
4827496,,,,,,,,-1.33984375,0.0546875,-0.72265625,0.09375,0.154296875,-0.158203125,-0.14453125,-9.171875,1.44140625,1.0
4827497,,,,,,,,-1.421875,0.23828125,-0.69921875,0.130859375,0.154296875,-0.15234375,-0.21875,-8.98046875,1.48046875,1.0
4827498,,,,,,,,-1.46875,0.3125,-0.74609375,0.13671875,0.158203125,-0.15625,-0.2578125,-8.91015625,1.44140625,1.0
4827499,,,,,,,,-1.4296875,0.34375,-0.8359375,0.134765625,0.158203125,-0.158203125,-0.21875,-8.8671875,1.3671875,1.0
4827500,36.013394,129.3195225,83.16193487802497,110.29387795615732,1.1,252.0,0.0,-1.32421875,0.26953125,-0.8828125,0.08203125,0.12890625,-0.158203125,-0.10546875,-8.94140625,1.328125,1.0
4827501,,,,,,,,-1.03125,0.14453125,-0.77734375,0.025390625,0.095703125,-0.16015625,0.203125,-9.0546875,1.44140625,1.0
4827502,,,,,,,,-0.8125,-0.0546875,-0.73828125,-0.044921875,0.0546875,-0.158203125,0.4296875,-9.25,1.48046875,1.0
4827503,,,,,,,,-0.47265625,-0.359375,-0.66015625,-0.09765625,0.046875,-0.171875,0.77734375,-9.55859375,1.55859375,1.0
4827504,,,,,,,,-0.26171875,-0.4765625,-0.63671875,-0.15625,0.0546875,-0.173828125,1.00390625,-9.67578125,1.55859375,1.0
4827505,,,,,,,,-0.11328125,-0.3203125,-0.73828125,-0.212890625,0.087890625,-0.166015625,1.16015625,-9.515625,1.44140625,1.0
4827506,,,,,,,,-0.12109375,-0.28515625,-0.8046875,-0.228515625,0.123046875,-0.162109375,1.16015625,-9.4765625,1.3671875,1.0
4827507,,,,,,,,-0.16796875,-0.3984375,-0.8203125,-0.2890625,0.193359375,-0.16015625,1.12109375,-9.59375,1.328125,1.0
4827508,,,,,,,,-0.21484375,-0.46875,-0.90625,-0.373046875,0.2421875,-0.1484375,1.08203125,-9.67578125,1.2109375,1.0
4827509,,,,,,,,-0.21484375,-0.3828125,-0.71875,-0.46484375,0.26953125,-0.13671875,1.08203125,-9.59375,1.3671875,1.0
4827510,36.013394,129.31952116666668,83.04173695962494,110.29387681903025,1.1,258.0,,-0.64453125,0.0078125,-0.390625,-0.474609375,0.3203125,-0.12890625,0.66015625,-9.2109375,1.6328125,1.0
4827511,,,,,,,,-1.2265625,-0.328125,-0.04296875,-0.474609375,0.33203125,-0.123046875,0.0859375,-9.5546875,1.94140625,1.0
4827512,,,,,,,,-1.44921875,-0.703125,-0.05859375,-0.4921875,0.30859375,-0.11328125,-0.14453125,-9.9375,1.90234375,1.0
4827513,,,,,,,,-1.6015625,-2.23046875,0.21875,-0.59765625,0.18359375,-0.095703125,-0.296875,-11.46875,2.1328125,1.0
4827514,,,,,,,,-1.37890625,-2.796875,0.73046875,-0.693359375,0.00390625,-0.072265625,-0.06640625,-12.05078125,2.58984375,1.0
4827515,,,,,,,,0.87109375,-3.8046875,1.01953125,-0.650390625,-0.16015625,-0.013671875,2.19140625,-13.078125,2.74609375,1.0
4827516,,,,,,,,3.28515625,-4.203125,1.7421875,-0.8125,0.00390625,0.005859375,4.60546875,-13.5,3.359375,1.0
4827517,,,,,,,,3.8984375,-2.51953125,2.34765625,-0.751953125,0.10546875,-0.01953125,5.21875,-11.8125,3.93359375,1.0
4827518,,,,,,,,3.29296875,-1.36328125,2.546875,-0.3203125,0.3984375,-0.095703125,4.60546875,-10.66796875,4.0859375,1.0
4827519,,,,,,,,2.7890625,-1.1640625,2.63671875,-0.119140625,0.52734375,-0.142578125,4.109375,-10.48046875,4.16015625,1.0
4827520,36.013394,129.31951983333332,82.9215390392281,110.29387568392647,1.1,262.0,,0.8359375,-1.66796875,2.78515625,-0.474609375,0.3203125,-0.12890625,2.15625,-10.96875,4.31640625,1.0
4827521,,,,,,,,-0.828125,-2.625,3.19140625,0.0625,0.400390625,-0.24609375,0.5078125,-11.93359375,4.73828125,1.0
4827522,,,,,,,,-0.921875,-2.7421875,2.59765625,0.15625,0.21484375,-0.236328125,0.4296875,-12.046875,4.16015625,1.0
4827523,,,,,,,,-0.8125,-2.47265625,2.28515625,0.2109375,0.171875,-0.201171875,0.546875,-11.77734375,3.85546875,1.0
4827524,,,,,,,,-0.0625,-1.5234375,1.7578125,0.259765625,0.19140625,-0.123046875,1.3125,-10.82421875,3.359375,1.0
4827525,,,,,,,,0.08984375,-0.71875,1.6171875,0.23828125,0.318359375,-0.03515625,1.46484375,-10.015625,3.2421875,1.0
4827526,,,,,,,,-0.1328125,0.1171875,1.25,0.16796875,0.431640625,0.05859375,1.234375,-9.17578125,2.8984375,1.0
4827527,,,,,,,,-0.0234375,0.171875,0.84375,0.001953125,0.5078125,0.1640625,1.3125,-9.13671875,2.515625,1.0
4827528,,,,,,,,-0.0859375,0.171875,0.7265625,-0.072265625,0.484375,0.181640625,1.234375,-9.1328125,2.3984375,1.0
4827529,,,,,,,,0.0703125,-0.01171875,0.66015625,-0.240234375,0.439453125,0.208984375,1.3515625,-9.32421875,2.32421875,1.0
4827530,36.01339383333333,129.3195185,82.80134129531844,110.27538134173327,1.2000000000000002,265.0,,-0.08984375,0.1875,0.55859375,-0.263671875,0.431640625,0.197265625,1.16015625,-9.1328125,2.20703125,1.0
4827531,,,,,,,,-0.43359375,0.69140625,0.4296875,-0.177734375,0.490234375,0.15625,0.77734375,-8.63671875,2.0546875,1.0
4827532,,,,,,,,-0.71875,1.28125,0.16015625,-0.103515625,0.515625,0.140625,0.46875,-8.06640625,1.78515625,1.0
4827533,,,,,,,,-0.7421875,1.703125,-0.14453125,-0.05859375,0.529296875,0.1328125,0.4296875,-7.64453125,1.48046875,1.0
4827534,,,,,,,,-0.71875,1.94140625,-0.2578125,-0.052734375,0.544921875,0.134765625,0.4296875,-7.40625,1.3671875,1.0
4827535,,,,,,,,-0.5234375,2.1328125,-0.45703125,-0.04296875,0.564453125,0.1328125,0.5859375,-7.21875,1.17578125,1.0
4827536,,,,,,,,-0.39453125,2.32421875,-0.45703125,-0.048828125,0.5703125,0.1328125,0.69921875,-7.0234375,1.17578125,1.0
4827537,,,,,,,,0.04296875,2.33203125,-0.53515625,-0.05078125,0.587890625,0.12890625,1.12109375,-7.0234375,1.09765625,1.0
4827538,,,,,,,,0.296875,2.25390625,-0.53515625,-0.0546875,0.60546875,0.10546875,1.3515625,-7.10546875,1.09765625,1.0
4827539,,,,,,,,0.55078125,2.0625,-0.45703125,-0.0859375,0.607421875,0.087890625,1.58203125,-7.30078125,1.17578125,1.0
4827540,36.013394,129.31951733333332,82.69616794235746,110.29387355935977,1.1,267.0,,0.6875,1.91015625,-0.34375,-0.0859375,0.62890625,0.037109375,1.6953125,-7.4453125,1.2890625,1.0
4827541,,,,,,,,0.7421875,1.7578125,-0.3046875,-0.0703125,0.63671875,-0.0078125,1.734375,-7.60546875,1.328125,1.0
4827542,,,,,,,,0.75,1.7265625,-0.2734375,-0.0390625,0.64453125,-0.041015625,1.734375,-7.640625,1.3671875,1.0
4827543,,,,,,,,0.640625,1.6875,-0.3125,-0.015625,0.640625,-0.091796875,1.6171875,-7.6796875,1.328125,1.0
4827544,,,,,,,,0.52734375,1.7265625,-0.4375,0.02734375,0.640625,-0.123046875,1.50390625,-7.64453125,1.2109375,1.0
4827545,,,,,,,,0.2890625,1.6484375,-0.68359375,0.06640625,0.630859375,-0.150390625,1.2734375,-7.71875,0.98046875,1.0
4827546,,,,,,,,0.09765625,1.48828125,-0.8125,0.078125,0.642578125,-0.1640625,1.08203125,-7.87109375,0.8671875,1.0
4827547,,,,,,,,-0.0546875,1.17578125,-0.859375,0.060546875,0.642578125,-0.16796875,0.9296875,-8.171875,0.828125,1.0
4827548,,,,,,,,-0.0234375,0.9375,-0.90625,0.04296875,0.63671875,-0.166015625,0.96875,-8.40625,0.7890625,1.0
4827549,,,,,,,,0.05078125,0.78515625,-0.95703125,0.037109375,0.623046875,-0.15234375,1.04296875,-8.5546875,0.75390625,1.0
4827550,36.01339383333333,129.31951650000002,82.6210444209365,110.2753796444022,0.9,266.0,,0.08203125,0.70703125,-0.9296875,0.037109375,0.609375,-0.146484375,1.08203125,-8.6328125,0.7890625,1.0
4827551,,,,,,,,0.08984375,0.66015625,-0.859375,0.044921875,0.595703125,-0.134765625,1.08203125,-8.67578125,0.8671875,1.0
4827552,,,,,,,,0.12109375,0.5859375,-0.8671875,0.04296875,0.595703125,-0.13671875,1.12109375,-8.75,0.8671875,1.0
4827553,,,,,,,,0.08203125,0.5859375,-0.73046875,0.048828125,0.576171875,-0.11328125,1.08203125,-8.75,1.01953125,1.0
4827554,,,,,,,,-0.0703125,0.5390625,-0.61328125,0.060546875,0.57421875,-0.107421875,0.9296875,-8.7890625,1.13671875,1.0
4827555,,,,,,,,-0.4140625,0.03125,-0.5234375,0.076171875,0.552734375,-0.080078125,0.5859375,-9.2890625,1.25,1.0
4827556,,,,,,,,-0.5546875,-0.16796875,-0.35546875,0.056640625,0.486328125,-0.060546875,0.4296875,-9.4765625,1.44140625,1.0
4827557,,,,,,,,-0.5546875,-0.43359375,-0.2109375,0.078125,0.435546875,-0.044921875,0.4296875,-9.7421875,1.59375,1.0
4827558,,,,,,,,-0.515625,-0.51171875,-0.1796875,0.072265625,0.40234375,-0.03515625,0.46875,-9.8203125,1.6328125,1.0
4827559,,,,,,,,-0.35546875,-0.671875,-0.26171875,0.046875,0.357421875,-0.01953125,0.62109375,-9.9765625,1.55859375,1.0
4827560,36.01339383333333,129.3195151666667,82.50084650260843,110.27537851467241,1.0,266.0,,-0.31640625,-0.6328125,-0.26953125,0.021484375,0.34375,-0.005859375,0.66015625,-9.9375,1.55859375,1.0
4827561,,,,,,,,-0.3828125,-0.43359375,-0.38671875,-0.0390625,0.298828125,0.009765625,0.5859375,-9.7421875,1.44140625,1.0
4827562,,,,,,,,-0.33984375,-0.28125,-0.38671875,-0.0859375,0.26953125,0.025390625,0.62109375,-9.59765625,1.44140625,1.0
4827563,,,,,,,,-0.29296875,-0.2109375,-0.37890625,-0.115234375,0.248046875,0.025390625,0.66015625,-9.515625,1.44140625,1.0
4827564,,,,,,,,0.0234375,0.09375,-0.46875,-0.23046875,0.1796875,0.029296875,0.96875,-9.2109375,1.328125,1.0
4827565,,,,,,,,0.3359375,0.29296875,-0.71484375,-0.345703125,0.19140625,0.03515625,1.2734375,-9.015625,1.05859375,1.0
4827566,,,,,,,,0.8046875,0.0703125,-0.7890625,-0.49609375,0.240234375,0.048828125,1.734375,-9.25,0.9453125,1.0
4827567,,,,,,,,1.078125,-0.37890625,-0.62109375,-0.6640625,0.30859375,0.068359375,2.0,-9.703125,1.05859375,1.0
4827568,,,,,,,,1.203125,-0.7578125,-0.55078125,-0.748046875,0.34765625,0.076171875,2.1171875,-10.09375,1.09765625,1.0
4827569,,,,,,,,1.37890625,-1.8828125,-0.1953125,-1.005859375,0.392578125,0.078125,2.26953125,-11.2421875,1.328125,1.0
4827570,36.01339383333333,129.319514,82.39567332109112,110.27537752763823,1.0,269.0,,1.43359375,-2.09765625,0.1953125,-1.029296875,0.330078125,0.041015625,2.30859375,-11.46875,1.6328125,1.0
4827571,,,,,,,,1.01171875,-2.578125,0.703125,-0.87890625,0.37890625,-0.0234375,1.88671875,-11.96875,2.0546875,1.0
4827572,,,,,,,,0.4765625,-3.94921875,0.7421875,-0.8046875,0.453125,-0.04296875,1.3515625,-13.34765625,2.0546875,1.0
4827573,,,,,,,,-0.0546875,-5.015625,1.08203125,-0.84765625,0.513671875,-0.0546875,0.8125,-14.42578125,2.28515625,1.0
4827574,,,,,,,,-0.8203125,-3.50390625,1.8046875,-0.70703125,0.54296875,-0.0703125,0.046875,-12.921875,2.9375,1.0
4827575,,,,,,,,-0.78125,-1.16796875,1.3046875,-0.2265625,0.6640625,-0.064453125,0.0859375,-10.5859375,2.3984375,1.0
4827576,,,,,,,,-0.6640625,-0.70703125,1.15234375,-0.02734375,0.75390625,-0.060546875,0.203125,-10.12890625,2.24609375,1.0
4827577,,,,,,,,-0.46484375,-1.24609375,1.3671875,0.001953125,1.01171875,0.013671875,0.39453125,-10.66796875,2.4765625,1.0
4827578,,,,,,,,0.4296875,-2.77734375,2.25,-0.1796875,1.068359375,0.025390625,1.2734375,-12.19921875,3.359375,1.0
4827579,,,,,,,,0.859375,-3.16015625,2.44140625,-0.1875,1.076171875,0.015625,1.6953125,-12.58203125,3.55078125,1.0
4827580,36.01339383333333,129.319513,82.30552488182268,110.27537668245043,1.0,270.0,,1.6796875,-3.265625,2.59375,-1.029296875,0.330078125,0.041015625,2.30859375,-11.46875,1.6328125,1.0
4827581,,,,,,,,1.45703125,-1.50390625,1.765625,0.283203125,1.36328125,-0.11328125,2.26953125,-10.9296875,2.8984375,1.0
4827582,,,,,,,,1.1875,-0.96875,1.625,0.39453125,1.41796875,-0.171875,2.0,-10.40234375,2.78125,1.0
4827583,,,,,,,,0.4609375,-0.25,1.49609375,0.53515625,1.490234375,-0.296875,1.2734375,-9.671875,2.70703125,1.0
4827584,,,,,,,,0.03125,-0.1328125,1.42578125,0.564453125,1.5078125,-0.3515625,0.8515625,-9.55859375,2.66796875,1.0
4827585,,,,,,,,-1.30859375,-0.1484375,1.5,0.345703125,1.33203125,-0.4296875,-0.44921875,-9.55859375,2.859375,1.0
4827586,,,,,,,,-1.39453125,-0.2734375,0.6640625,0.173828125,1.119140625,-0.40234375,-0.48828125,-9.67578125,2.09375,1.0
4827587,,,,,,,,-1.41015625,-0.08203125,0.53125,0.150390625,1.119140625,-0.388671875,-0.48828125,-9.4765625,1.9765625,1.0
4827588,,,,,,,,-1.38671875,0.6015625,0.09765625,0.119140625,1.138671875,-0.330078125,-0.44921875,-8.79296875,1.55859375,1.0
4827589,,,,,,,,-1.35546875,0.83203125,0.07421875,0.107421875,1.15234375,-0.314453125,-0.41015625,-8.55859375,1.55859375,1.0
4827590,36.01339383333333,129.3195115,82.17030222390464,110.27537541667189,1.1,270.0,,-1.2109375,1.21484375,-0.02734375,-1.029296875,0.330078125,0.041015625,-0.2578125,-8.171875,1.48046875,1.0
4827591,,,,,,,,-1.02734375,1.47265625,-0.15625,0.0703125,1.154296875,-0.271484375,-0.06640625,-7.90625,1.3671875,1.0
4827592,,,,,,,,-0.8828125,1.7421875,-0.3359375,0.048828125,1.103515625,-0.267578125,0.0859375,-7.64453125,1.2109375,1.0
4827593,,,,,,,,-0.8515625,1.85546875,-0.41796875,0.041015625,1.05078125,-0.279296875,0.125,-7.5234375,1.13671875,1.0
4827594,,,,,,,,-0.9296875,1.93359375,-0.43359375,0.025390625,1.009765625,-0.283203125,0.046875,-7.4453125,1.13671875,1.0
4827595,,,,,,,,-1.2109375,2.04296875,-0.41015625,0.033203125,0.97265625,-0.28125,-0.21875,-7.33203125,1.17578125,1.0
4827596,,,,,,,,-1.328125,2.1171875,-0.41796875,0.046875,0.955078125,-0.283203125,-0.3359375,-7.2578125,1.17578125,1.0
4827597,,,,,,,,-1.57421875,2.03515625,-0.43359375,0.087890625,0.947265625,-0.2734375,-0.56640625,-7.328125,1.17578125,1.0
4827598,,,,,,,,-1.92578125,2.0703125,-0.6796875,0.10546875,0.92578125,-0.25,-0.91015625,-7.296875,0.9453125,1.0
4827599,,,,,,,,-2.0859375,1.91015625,-0.7109375,0.09375,0.873046875,-0.20703125,-1.0625,-7.44921875,0.9453125,1.0
4827600,36.01339383333333,129.31951083333334,82.1102032638914,110.2753748548702,0.9,271.0,0.0,-2.171875,1.7578125,-0.734375,0.107421875,0.837890625,-0.169921875,-1.140625,-7.6015625,0.9453125,1.0
4827601,,,,,,,,-2.1171875,1.671875,-0.796875,0.1171875,0.791015625,-0.140625,-1.1015625,-7.68359375,0.90625,1.0
4827602,,,,,,,,-2.0,1.59765625,-0.7734375,0.126953125,0.751953125,-0.109375,-0.984375,-7.75390625,0.9453125,1.0
4827603,,,,,,,,-1.83984375,1.6953125,-0.8125,0.12890625,0.611328125,-0.080078125,-0.83203125,-7.640625,0.9453125,1.0
4827604,,,,,,,,-1.640625,1.6953125,-0.9453125,0.130859375,0.541015625,-0.07421875,-0.640625,-7.640625,0.828125,1.0
4827605,,,,,,,,-1.6015625,1.54296875,-0.9609375,0.125,0.48828125,-0.068359375,-0.6015625,-7.79296875,0.828125,1.0
4827606,,,,,,,,-1.55859375,1.3828125,-0.9375,0.115234375,0.46875,-0.07421875,-0.56640625,-7.94921875,0.8671875,1.0
4827607,,,,,,,,-1.44140625,1.15234375,-0.984375,0.080078125,0.447265625,-0.080078125,-0.44921875,-8.171875,0.828125,1.0
4827608,,,,,,,,-1.2421875,0.76953125,-0.80859375,0.05859375,0.427734375,-0.083984375,-0.2578125,-8.55859375,1.01953125,1.0
4827609,,,,,,,,-1.203125,0.68359375,-0.84765625,0.052734375,0.40625,-0.09375,-0.21875,-8.63671875,0.98046875,1.0
4827610,36.013394166666664,129.31950966666668,82.00502973956205,110.31236028882262,1.0,277.0,,-1.05078125,0.5703125,-0.73828125,0.064453125,0.375,-0.11328125,-0.06640625,-8.75,1.09765625,1.0
4827611,,,,,,,,-1.08984375,0.4140625,-0.75390625,0.060546875,0.353515625,-0.123046875,-0.10546875,-8.90625,1.09765625,1.0
4827612,,,,,,,,-1.16796875,0.29296875,-0.72265625,0.060546875,0.34765625,-0.130859375,-0.18359375,-9.015625,1.13671875,1.0
4827613,,,,,,,,-1.25,0.1015625,-0.68359375,0.046875,0.349609375,-0.140625,-0.2578125,-9.2109375,1.17578125,1.0
4827614,,,,,,,,-1.328125,-0.2109375,-0.69921875,0.0234375,0.33984375,-0.142578125,-0.3359375,-9.51953125,1.17578125,1.0
4827615,,,,,,,,-1.296875,-0.25,-0.73828125,0.0,0.3203125,-0.150390625,-0.296875,-9.55859375,1.13671875,1.0
4827616,,,,,,,,-1.18359375,-0.44921875,-0.82421875,-0.015625,0.2890625,-0.138671875,-0.18359375,-9.74609375,1.05859375,1.0
4827617,,,,,,,,-1.03515625,-0.59765625,-0.88671875,-0.056640625,0.25390625,-0.13671875,-0.02734375,-9.8984375,0.98046875,1.0
4827618,,,,,,,,-0.890625,-0.82421875,-0.88671875,-0.091796875,0.23828125,-0.134765625,0.125,-10.125,0.98046875,1.0
4827619,,,,,,,,-0.69921875,-0.91015625,-0.87109375,-0.1875,0.224609375,-0.130859375,0.31640625,-10.20703125,0.98046875,1.0
4827620,36.01339466666666,129.31950883333332,81.92990552216239,110.36783921257101,0.9,284.0,,-0.5078125,-0.796875,-0.96875,-0.216796875,0.263671875,-0.13671875,0.5078125,-10.09375,0.8671875,1.0
4827621,,,,,,,,-0.28515625,-0.7890625,-0.984375,-0.248046875,0.326171875,-0.146484375,0.73828125,-10.09375,0.828125,1.0
4827622,,,,,,,,-0.1015625,-0.7890625,-0.84375,-0.306640625,0.37109375,-0.15234375,0.9296875,-10.09375,0.9453125,1.0
4827623,,,,,,,,-0.1015625,-0.7109375,-0.72265625,-0.333984375,0.388671875,-0.16796875,0.9296875,-10.015625,1.05859375,1.0
4827624,,,,,,,,-0.41796875,-0.625,-0.3828125,-0.349609375,0.427734375,-0.201171875,0.62109375,-9.9375,1.3671875,1.0
4827625,,,,,,,,-0.73828125,-0.43359375,-0.3984375,-0.326171875,0.462890625,-0.224609375,0.31640625,-9.7421875,1.328125,1.0
4827626,,,,,,,,-1.359375,-0.6640625,-0.3984375,-0.3359375,0.484375,-0.25,-0.296875,-9.98046875,1.2890625,1.0
4827627,,,,,,,,-1.60546875,-1.0390625,-0.56640625,-0.390625,0.45703125,-0.25390625,-0.52734375,-10.359375,1.09765625,1.0
4827628,,,,,,,,-1.60546875,-1.0390625,-0.4296875,-0.44921875,0.431640625,-0.259765625,-0.52734375,-10.36328125,1.2109375,1.0
4827629,,,,,,,,-1.12890625,-0.984375,0.0546875,-0.642578125,0.25390625,-0.2109375,-0.02734375,-10.3203125,1.6328125,1.0
4827630,36.01339516666667,129.31950783333332,81.83975656713537,110.423317996871,0.9,292.0,,-0.6796875,-1.9453125,0.26953125,-0.216796875,0.263671875,-0.13671875,0.4296875,-11.28125,1.78515625,1.0
4827631,,,,,,,,0.38671875,-4.1953125,0.5625,-0.72265625,0.01953125,-0.123046875,1.50390625,-13.54296875,2.015625,1.0
4827632,,,,,,,,1.55859375,-4.90625,1.4140625,-0.9765625,-0.052734375,-0.095703125,2.69140625,-14.265625,2.78125,1.0
4827633,,,,,,,,3.51171875,-2.9453125,2.55078125,-1.10546875,-0.06640625,-0.078125,4.64453125,-12.31640625,3.81640625,1.0
4827634,,,,,,,,3.3984375,-1.46875,2.5625,-0.73046875,0.13671875,-0.11328125,4.53125,-10.859375,3.7421875,1.0
4827635,,,,,,,,2.26953125,-1.12109375,2.5234375,-0.17578125,0.595703125,-0.177734375,3.41796875,-10.51171875,3.6640625,1.0
4827636,,,,,,,,0.30859375,-1.3515625,2.59375,0.068359375,0.83203125,-0.25,1.46484375,-10.7421875,3.7421875,1.0
4827637,,,,,,,,-0.38671875,-1.93359375,2.61328125,0.111328125,0.6953125,-0.314453125,0.77734375,-11.3125,3.77734375,1.0
4827638,,,,,,,,-0.48828125,-2.47265625,2.24609375,0.14453125,0.427734375,-0.35546875,0.69921875,-11.85546875,3.43359375,1.0
4827639,,,,,,,,-0.18359375,-2.09765625,1.79296875,0.25390625,0.3828125,-0.287109375,1.04296875,-11.47265625,3.01171875,1.0
4827640,36.013395833333334,129.31950683333335,81.74960744322405,110.49728998950826,1.1,300.0,,-0.20703125,-0.953125,1.515625,-0.216796875,0.263671875,-0.13671875,0.4296875,-11.28125,1.78515625,1.0
4827641,,,,,,,,-0.421875,-0.2265625,1.2109375,0.2265625,0.865234375,0.029296875,0.8125,-9.59765625,2.5546875,1.0
4827642,,,,,,,,-0.28125,-0.265625,1.1015625,0.12890625,0.818359375,0.056640625,0.9296875,-9.63671875,2.4765625,1.0
4827643,,,,,,,,-0.11328125,-0.33984375,1.0859375,0.013671875,0.7265625,0.060546875,1.08203125,-9.70703125,2.4765625,1.0
4827644,,,,,,,,-0.06640625,-0.296875,1.0390625,-0.0234375,0.689453125,0.052734375,1.12109375,-9.67578125,2.4375,1.0
4827645,,,,,,,,-0.2421875,0.1640625,0.88671875,-0.0234375,0.6484375,0.033203125,0.9296875,-9.21484375,2.28515625,1.0
4827646,,,,,,,,-0.7265625,0.8828125,0.41015625,0.048828125,0.64453125,0.0,0.4296875,-8.484375,1.82421875,1.0
4827647,,,,,,,,-0.79296875,1.046875,0.3203125,0.052734375,0.642578125,-0.005859375,0.35546875,-8.33203125,1.75,1.0
4827648,,,,,,,,-0.90234375,1.46484375,0.04296875,0.04296875,0.642578125,-0.013671875,0.23828125,-7.90625,1.48046875,1.0
4827649,,,,,,,,-0.89453125,1.54296875,-0.00390625,0.03125,0.646484375,-0.005859375,0.23828125,-7.828125,1.44140625,1.0
4827650,36.01339633333334,129.31950616666666,81.68950796823792,110.55276905608542,1.0,301.0,,-0.76171875,1.734375,-0.0859375,-0.216796875,0.263671875,-0.13671875,0.4296875,-11.28125,1.78515625,1.0
4827651,,,,,,,,-0.640625,1.97265625,-0.140625,0.013671875,0.66796875,0.001953125,0.46875,-7.41015625,1.328125,1.0
4827652,,,,,,,,-0.5078125,2.125,-0.21875,0.017578125,0.6875,-0.001953125,0.5859375,-7.2578125,1.25,1.0
4827653,,,,,,,,-0.1953125,2.31640625,-0.30859375,0.021484375,0.70703125,-0.017578125,0.890625,-7.06640625,1.17578125,1.0
4827654,,,,,,,,0.12109375,2.31640625,-0.31640625,0.021484375,0.728515625,-0.03125,1.19921875,-7.06640625,1.17578125,1.0
4827655,,,,,,,,0.28125,2.203125,-0.33203125,0.01953125,0.740234375,-0.052734375,1.3515625,-7.18359375,1.17578125,1.0
4827656,,,,,,,,0.37109375,2.125,-0.41796875,0.015625,0.748046875,-0.064453125,1.42578125,-7.2578125,1.09765625,1.0
4827657,,,,,,,,0.52734375,1.93359375,-0.39453125,0.02734375,0.78515625,-0.09375,1.58203125,-7.44921875,1.13671875,1.0
4827658,,,,,,,,0.45703125,1.65625,-0.48046875,0.060546875,0.806640625,-0.125,1.50390625,-7.71875,1.05859375,1.0
4827659,,,,,,,,0.41796875,1.65625,-0.48828125,0.0703125,0.8046875,-0.138671875,1.46484375,-7.71875,1.05859375,1.0
4827660,36.013397000000005,129.31950533333332,81.61438358346358,110.62674118985313,1.0,302.0,,0.1796875,1.6953125,-0.6171875,0.099609375,0.806640625,-0.166015625,1.234375,-7.68359375,0.9453125,1.0
4827661,,,,,,,,0.11328125,1.61328125,-0.6328125,0.130859375,0.814453125,-0.185546875,1.16015625,-7.75,0.9453125,1.0
4827662,,,,,,,,-0.05078125,1.3359375,-0.7421875,0.142578125,0.8203125,-0.1953125,1.00390625,-8.0234375,0.8671875,1.0
4827663,,,,,,,,-0.125,1.2578125,-0.75,0.130859375,0.80859375,-0.19140625,0.9296875,-8.1015625,0.8671875,1.0
4827664,,,,,,,,-0.2421875,0.8671875,-0.6953125,0.123046875,0.794921875,-0.1796875,0.8125,-8.48828125,0.9453125,1.0
4827665,,,,,,,,-0.27734375,0.5234375,-0.8046875,0.123046875,0.75390625,-0.154296875,0.77734375,-8.828125,0.8671875,1.0
4827666,,,,,,,,-0.25,0.32421875,-0.8359375,0.11328125,0.68359375,-0.130859375,0.8125,-9.01953125,0.8671875,1.0
4827667,,,,,,,,-0.27734375,0.0859375,-0.70703125,0.10546875,0.68359375,-0.125,0.77734375,-9.25,1.01953125,1.0
4827668,,,,,,,,-0.31640625,0.046875,-0.75390625,0.095703125,0.669921875,-0.111328125,0.73828125,-9.29296875,0.98046875,1.0
4827669,,,,,,,,-0.26953125,0.078125,-0.53125,0.078125,0.630859375,-0.095703125,0.77734375,-9.25,1.2109375,1.0
4827670,36.013397499999996,129.31950450000002,81.53925937632239,110.68222011675567,1.0,307.0,,-0.30859375,0.078125,-0.46875,0.099609375,0.806640625,-0.166015625,1.234375,-7.68359375,0.9453125,1.0
4827671,,,,,,,,-0.4609375,0.1484375,-0.40625,0.115234375,0.599609375,-0.06640625,0.5859375,-9.17578125,1.3671875,1.0
4827672,,,,,,,,-0.453125,0.1484375,-0.38671875,0.12890625,0.58984375,-0.0546875,0.5859375,-9.17578125,1.40234375,1.0
4827673,,,,,,,,-0.5625,0.1484375,-0.35546875,0.126953125,0.59765625,-0.041015625,0.46875,-9.171875,1.44140625,1.0
4827674,,,,,,,,-0.39453125,0.1015625,-0.2265625,0.107421875,0.583984375,-0.01953125,0.62109375,-9.2109375,1.59375,1.0
4827675,,,,,,,,0.03515625,-0.05078125,-0.234375,0.064453125,0.537109375,-0.00390625,1.04296875,-9.36328125,1.59375,1.0
4827676,,,,,,,,0.19921875,-0.12890625,-0.203125,-0.01171875,0.48828125,0.0,1.19921875,-9.44140625,1.6328125,1.0
4827677,,,,,,,,0.55078125,-0.16796875,-0.2421875,-0.09375,0.4765625,-0.01171875,1.54296875,-9.4765625,1.59375,1.0
4827678,,,,,,,,0.60546875,-0.203125,-0.26953125,-0.169921875,0.48046875,-0.01953125,1.58203125,-9.51953125,1.55859375,1.0
4827679,,,,,,,,0.52734375,-0.16796875,-0.26171875,-0.20703125,0.4921875,-0.0234375,1.50390625,-9.4765625,1.55859375,1.0
4827680,36.01339816666667,129.31950366666666,81.46413499151714,110.75619225303832,1.0,310.0,,0.34375,-0.1953125,-0.421875,-0.318359375,0.482421875,-0.052734375,1.3125,-9.51953125,1.3671875,1.0
4827681,,,,,,,,0.3125,-0.3046875,-0.4375,-0.4140625,0.470703125,-0.060546875,1.2734375,-9.63671875,1.328125,1.0
4827682,,,,,,,,0.47265625,-1.0625,-0.27734375,-0.517578125,0.501953125,-0.05859375,1.42578125,-10.40234375,1.44140625,1.0
4827683,,,,,,,,0.51953125,-2.12890625,-0.3203125,-0.681640625,0.552734375,-0.025390625,1.46484375,-11.47265625,1.328125,1.0
4827684,,,,,,,,0.48828125,-3.375,-0.375,-0.751953125,0.541015625,0.005859375,1.42578125,-12.73828125,1.2109375,1.0
4827685,,,,,,,,0.19140625,-2.140625,1.11328125,-0.744140625,0.580078125,0.025390625,1.12109375,-11.51171875,2.62890625,1.0
4827686,,,,,,,,-0.29296875,-1.70703125,1.4453125,-0.615234375,0.712890625,0.01953125,0.62109375,-11.0859375,2.8984375,1.0
4827687,,,,,,,,-0.55078125,-2.5390625,0.83203125,-0.48828125,0.84765625,0.044921875,0.35546875,-11.93359375,2.24609375,1.0
4827688,,,,,,,,-0.6796875,-3.56640625,0.375,-0.548828125,0.763671875,0.11328125,0.203125,-12.9609375,1.75,1.0
4827689,,,,,,,,-0.62109375,-2.6796875,1.30859375,-0.60546875,0.6484375,0.107421875,0.23828125,-12.08984375,2.62890625,1.0
4827690,36.013399,129.31950283333333,81.38901043907305,110.84865759623685,1.0,312.0,,-0.8359375,-0.79296875,1.73046875,-0.318359375,0.482421875,-0.052734375,0.0078125,-10.20703125,3.01171875,1.0
4827691,,,,,,,,-0.96484375,0.2890625,0.98046875,-0.130859375,0.8515625,0.06640625,-0.14453125,-9.1328125,2.24609375,1.0
4827692,,,,,,,,-0.91796875,0.36328125,0.796875,-0.0859375,0.88671875,0.05078125,-0.10546875,-9.05859375,2.0546875,1.0
4827693,,,,,,,,-0.55859375,0.171875,0.59765625,-0.087890625,0.89453125,0.041015625,0.23828125,-9.25,1.86328125,1.0
4827694,,,,,,,,0.76171875,-1.734375,1.41796875,-0.2265625,0.904296875,-0.017578125,1.54296875,-11.16796875,2.66796875,1.0
4827695,,,,,,,,1.16796875,-2.41796875,2.0625,-0.177734375,1.07421875,-0.091796875,1.92578125,-11.85546875,3.28125,1.0
4827696,,,,,,,,1.08984375,-2.37890625,2.140625,-0.091796875,1.150390625,-0.111328125,1.84765625,-11.8125,3.359375,1.0
4827697,,,,,,,,0.6328125,-2.109375,2.1328125,0.119140625,1.29296875,-0.166015625,1.390625,-11.546875,3.359375,1.0
4827698,,,,,,,,-0.59375,-0.8828125,1.83203125,0.275390625,1.37890625,-0.224609375,0.1640625,-10.3203125,3.08984375,1.0
4827699,,,,,,,,-0.86328125,-0.546875,1.77734375,0.322265625,1.3828125,-0.248046875,-0.10546875,-9.9765625,3.05078125,1.0
4827700,36.01339983333333,129.31950216666667,81.3289106288435,110.94112308065877,1.1,313.0,0.0,-1.3671875,0.02734375,1.42578125,-0.318359375,0.482421875,-0.052734375,-0.6015625,-9.40234375,2.74609375,1.0
4827701,,,,,,,,-1.5234375,0.1328125,1.1484375,0.375,1.3125,-0.294921875,-0.7578125,-9.29296875,2.515625,1.0
4827702,,,,,,,,-1.61328125,0.125,0.79296875,0.30859375,1.251953125,-0.306640625,-0.83203125,-9.2890625,2.20703125,1.0
4827703,,,,,,,,-1.58203125,0.1640625,0.546875,0.263671875,1.20703125,-0.30859375,-0.79296875,-9.25,1.9765625,1.0
4827704,,,,,,,,-1.4765625,0.43359375,0.35546875,0.19921875,1.1484375,-0.291015625,-0.6796875,-8.9765625,1.82421875,1.0
4827705,,,,,,,,-1.37890625,1.0,0.125,0.177734375,1.119140625,-0.283203125,-0.56640625,-8.41015625,1.6328125,1.0
4827706,,,,,,,,-1.1953125,1.61328125,-0.21875,0.173828125,1.0859375,-0.294921875,-0.375,-7.79296875,1.328125,1.0
4827707,,,,,,,,-1.046875,2.1015625,-0.39453125,0.12890625,1.03125,-0.326171875,-0.21875,-7.30078125,1.17578125,1.0
4827708,,,,,,,,-0.98046875,2.29296875,-0.44140625,0.11328125,1.0078125,-0.33984375,-0.14453125,-7.10546875,1.13671875,1.0
4827709,,,,,,,,-0.92578125,2.5234375,-0.65625,0.0859375,0.94921875,-0.359375,-0.06640625,-6.875,0.9453125,1.0
4827710,36.01340066666667,129.3195015,81.26881081720724,111.03358856602095,1.1,316.0,,-1.01953125,2.4765625,-0.703125,-0.318359375,0.482421875,-0.052734375,-0.6015625,-9.40234375,2.74609375,1.0
4827711,,,,,,,,-1.31640625,2.125,-0.7734375,0.033203125,0.9296875,-0.388671875,-0.41015625,-7.2578125,0.8671875,1.0
4827712,,,,,,,,-1.41015625,2.05078125,-0.78125,0.03515625,0.92578125,-0.388671875,-0.48828125,-7.33203125,0.8671875,1.0
4827713,,,,,,,,-1.51953125,1.6640625,-0.796875,0.0546875,0.9140625,-0.365234375,-0.56640625,-7.72265625,0.8671875,1.0
4827714,,,,,,,,-1.48046875,1.54296875,-0.84375,0.068359375,0.8984375,-0.361328125,-0.52734375,-7.83203125,0.828125,1.0
4827715,,,,,,,,-1.53515625,1.34375,-0.828125,0.083984375,0.873046875,-0.322265625,-0.56640625,-8.02734375,0.8671875,1.0
4827716,,,,,,,,-1.6640625,1.15234375,-0.84375,0.083984375,0.859375,-0.302734375,-0.6796875,-8.21484375,0.8671875,1.0
4827717,,,,,,,,-1.7109375,1.06640625,-0.73828125,0.083984375,0.849609375,-0.291015625,-0.71875,-8.29296875,0.98046875,1.0
4827718,,,,,,,,-1.91015625,0.83984375,-0.59765625,0.076171875,0.8203125,-0.27734375,-0.91015625,-8.515625,1.13671875,1.0
4827719,,,,,,,,-1.94921875,0.79296875,-0.55859375,0.08203125,0.796875,-0.271484375,-0.94921875,-8.5546875,1.17578125,1.0
4827720,36.0134015,129.31950116666667,81.23876048537865,111.12605432841856,0.9,321.0,,-2.15625,0.83203125,-0.58984375,-0.318359375,0.482421875,-0.052734375,-1.140625,-8.515625,1.17578125,1.0
4827721,,,,,,,,-2.203125,0.8515625,-0.73046875,0.197265625,0.650390625,-0.228515625,-1.1796875,-8.48828125,1.05859375,1.0
4827722,,,,,,,,-2.2109375,0.73046875,-0.9921875,0.2265625,0.57421875,-0.19140625,-1.1796875,-8.59765625,0.828125,1.0
4827723,,,,,,,,-2.27734375,0.5,-0.9375,0.21484375,0.54296875,-0.185546875,-1.25390625,-8.828125,0.90625,1.0
4827724,,,,,,,,-2.33203125,0.33984375,-0.80859375,0.18359375,0.50390625,-0.1640625,-1.29296875,-8.9765625,1.05859375,1.0
4827725,,,,,,,,-2.1796875,0.25390625,-0.78515625,0.18359375,0.455078125,-0.134765625,-1.140625,-9.05859375,1.09765625,1.0
4827726,,,,,,,,-1.94921875,0.171875,-0.80859375,0.166015625,0.388671875,-0.126953125,-0.91015625,-9.13671875,1.09765625,1.0
4827727,,,,,,,,-1.55859375,-0.05859375,-0.74609375,0.14453125,0.328125,-0.115234375,-0.52734375,-9.36328125,1.17578125,1.0
4827728,,,,,,,,-1.51953125,-0.10546875,-0.640625,0.12109375,0.29296875,-0.11328125,-0.48828125,-9.40234375,1.2890625,1.0
4827729,,,,,,,,-1.48828125,-0.3828125,-0.3125,0.068359375,0.244140625,-0.111328125,-0.44921875,-9.671875,1.6328125,1.0
4827730,36.01340266666667,129.31950066666667,81.19368507507652,111.25550637020936,1.1,328.0,,-1.60546875,-0.53515625,-0.05078125,0.072265625,0.228515625,-0.119140625,-1.140625,-8.515625,1.17578125,1.0
4827731,,,,,,,,-1.796875,-0.3125,-0.09765625,0.083984375,0.234375,-0.12890625,-0.7578125,-9.59375,1.86328125,1.0
4827732,,,,,,,,-1.83984375,-0.11328125,-0.2578125,0.04296875,0.205078125,-0.142578125,-0.79296875,-9.40234375,1.7109375,1.0
4827733,,,,,,,,-1.8046875,-0.16015625,-0.34375,-0.0078125,0.18359375,-0.150390625,-0.7578125,-9.4375,1.6328125,1.0
4827734,,,,,,,,-1.65625,-0.234375,-0.34375,-0.12109375,0.146484375,-0.15625,-0.6015625,-9.51953125,1.6328125,1.0
4827735,,,,,,,,-1.47265625,-0.3515625,-0.5859375,-0.265625,0.123046875,-0.158203125,-0.41015625,-9.6328125,1.3671875,1.0
4827736,,,,,,,,-1.21484375,-0.2265625,-0.74609375,-0.375,0.126953125,-0.171875,-0.14453125,-9.51953125,1.17578125,1.0
4827737,,,,,,,,-1.14453125,-0.11328125,-0.82421875,-0.4765625,0.123046875,-0.1796875,-0.06640625,-9.3984375,1.05859375,1.0
4827738,,,,,,,,-1.19140625,0.046875,-0.76171875,-0.525390625,0.12890625,-0.185546875,-0.10546875,-9.25,1.09765625,1.0
4827739,,,,,,,,-1.359375,0.20703125,-0.66796875,-0.62109375,0.134765625,-0.1875,-0.2578125,-9.09765625,1.13671875,1.0
4827740,36.013403499999995,129.31950049999998,81.17865947812369,111.34797227116596,1.0,337.0,,-1.7109375,0.484375,-0.23828125,-0.693359375,0.126953125,-0.17578125,-0.6015625,-8.83203125,1.48046875,1.0
4827741,,,,,,,,-1.91015625,-0.53515625,-0.16796875,-0.7265625,0.09375,-0.1640625,-0.79296875,-9.859375,1.48046875,1.0
4827742,,,,,,,,-1.8046875,-1.0234375,-0.21484375,-0.748046875,0.08203125,-0.166015625,-0.6796875,-10.359375,1.40234375,1.0
4827743,,,,,,,,-1.26953125,-1.859375,0.09375,-0.99609375,-0.056640625,-0.142578125,0.203125,-11.43359375,1.94140625,1.0
4827744,,,,,,,,0.09375,-2.49609375,1.22265625,-1.060546875,-0.142578125,-0.138671875,1.234375,-11.8515625,2.66796875,1.0
4827745,,,,,,,,1.3046875,-3.17578125,1.75390625,-1.0546875,-0.154296875,-0.13671875,3.03515625,-13.1171875,3.1640625,1.0
4827746,,,,,,,,1.87109375,-3.7421875,1.875,-1.091796875,-0.091796875,-0.14453125,3.6875,-13.76953125,3.359375,1.0
4827747,,,,,,,,3.625,-5.48828125,2.4296875,-1.13671875,0.12109375,-0.154296875,5.2578125,-14.953125,3.89453125,1.0
4827748,,,,,,,,4.34765625,-5.0625,3.16015625,-0.900390625,0.369140625,-0.212890625,5.5625,-12.6171875,4.69921875,1.0
4827749,,,,,,,,3.37109375,-1.52734375,3.24609375,-0.28125,0.595703125,-0.3203125,4.56640625,-10.9296875,4.23828125,1.0
4827750,36.01340483333333,129.31950049999998,81.17865811103378,111.49591793735809,1.1,349.0,,0.64453125,-0.87890625,2.88671875,0.2265625,0.66015625,-0.4453125,1.88671875,-10.28125,3.89453125,1.0
4827751,,,,,,,,-1.234375,-2.5703125,3.24609375,0.201171875,0.462890625,-0.43359375,0.046875,-11.97265625,4.27734375,1.0
4827752,,,,,,,,-1.2578125,-2.73046875,3.09765625,0.142578125,0.1953125,-0.33984375,0.46875,-11.89453125,3.7421875,1.0
4827753,,,,,,,,-0.8515625,-2.4921875,2.671875,0.173828125,0.197265625,-0.28515625,0.8125,-11.55078125,3.55078125,1.0
4827754,,,,,,,,-0.14453125,-1.7734375,2.2734375,0.265625,0.400390625,-0.11328125,1.58203125,-10.359375,3.2421875,1.0
4827755,,,,,,,,0.07421875,-0.1328125,1.95703125,0.23828125,0.55859375,-0.021484375,1.234375,-9.21484375,2.97265625,1.0
4827756,,,,,,,,-0.33984375,0.515625,1.42578125,0.140625,0.57421875,0.06640625,1.00390625,-8.8671875,2.58984375,1.0
4827757,,,,,,,,-0.3984375,0.515625,0.75390625,-0.001953125,0.46484375,0.119140625,0.9296875,-8.8671875,1.94140625,1.0
4827758,,,,,,,,-0.27734375,0.36328125,0.66796875,-0.07421875,0.396484375,0.12890625,1.04296875,-9.01953125,1.86328125,1.0
4827759,,,,,,,,0.0859375,0.265625,0.71484375,-0.224609375,0.267578125,0.123046875,1.390625,-9.13671875,1.90234375,1.0
4827760,36.01340566666667,129.31950033333334,81.1636325216839,111.5883838395625,1.1,351.0,,0.14453125,0.41796875,0.796875,-0.26953125,0.2578125,0.111328125,1.42578125,-8.98046875,1.9765625,1.0
4827761,,,,,,,,-0.11328125,0.80859375,0.59375,-0.2109375,0.291015625,0.08984375,1.16015625,-8.59375,1.75,1.0
4827762,,,,,,,,-0.22265625,1.0390625,0.484375,-0.169921875,0.30078125,0.095703125,1.04296875,-8.3671875,1.6328125,1.0
4827763,,,,,,,,-0.4296875,1.50390625,0.1875,-0.115234375,0.3046875,0.09375,0.8125,-7.91015625,1.328125,1.0
4827764,,,,,,,,-0.44921875,1.66796875,0.04296875,-0.08984375,0.33203125,0.095703125,0.77734375,-7.75390625,1.17578125,1.0
4827765,,,,,,,,-0.42578125,1.89453125,-0.1875,-0.083984375,0.349609375,0.095703125,0.77734375,-7.5234375,0.9453125,1.0
4827766,,,,,,,,-0.34375,2.1640625,-0.1796875,-0.078125,0.361328125,0.091796875,0.8515625,-7.26171875,0.9453125,1.0
4827767,,,,,,,,-0.17578125,2.5078125,-0.296875,-0.05078125,0.3984375,0.076171875,1.00390625,-6.9140625,0.828125,1.0
4827768,,,,,,,,0.109375,2.640625,-0.41796875,-0.041015625,0.412109375,0.064453125,1.2734375,-6.80078125,0.71484375,1.0
4827769,,,,,,,,0.26953125,2.59375,-0.37890625,-0.0390625,0.41796875,0.056640625,1.42578125,-6.8359375,0.75390625,1.0
4827770,36.01340666666667,129.31950033333334,81.16363149635957,111.6993430893015,1.0,352.0,,0.4765625,2.48828125,-0.5703125,-0.26953125,0.2578125,0.111328125,1.42578125,-8.98046875,1.9765625,1.0
4827771,,,,,,,,0.71484375,2.2578125,-0.6171875,-0.0625,0.474609375,0.00390625,1.84765625,-7.18359375,0.5234375,1.0
4827772,,,,,,,,0.9140625,2.02734375,-0.53515625,-0.076171875,0.517578125,-0.037109375,2.0390625,-7.41015625,0.59765625,1.0
4827773,,,,,,,,0.9140625,1.91015625,-0.45703125,-0.06640625,0.564453125,-0.08203125,2.0390625,-7.5234375,0.67578125,1.0
4827774,,,,,,,,0.80078125,1.68359375,-0.42578125,-0.033203125,0.61328125,-0.123046875,1.92578125,-7.75390625,0.71484375,1.0
4827775,,,,,,,,0.6015625,1.484375,-0.51171875,-0.009765625,0.6484375,-0.158203125,1.734375,-7.9453125,0.63671875,1.0
4827776,,,,,,,,0.5234375,1.3984375,-0.43359375,-0.001953125,0.671875,-0.169921875,1.65625,-8.0234375,0.71484375,1.0
4827777,,,,,,,,0.2421875,1.28515625,-0.375,0.04296875,0.734375,-0.203125,1.390625,-8.13671875,0.7890625,1.0
4827778,,,,,,,,0.0859375,1.19921875,-0.3125,0.080078125,0.759765625,-0.19921875,1.234375,-8.21484375,0.8671875,1.0
4827779,,,,,,,,0.00390625,0.9296875,-0.2578125,0.126953125,0.771484375,-0.189453125,1.16015625,-8.48828125,0.9453125,1.0
4827780,36.013407666666666,129.31950016666667,81.14860573475276,111.81030219878508,1.1,353.0,,0.109375,0.625,-0.390625,-0.26953125,0.2578125,0.111328125,1.42578125,-8.98046875,1.9765625,1.0
4827781,,,,,,,,0.37109375,0.34765625,-0.453125,0.16796875,0.74609375,-0.166015625,1.54296875,-9.05859375,0.7890625,1.0
4827782,,,,,,,,0.4765625,0.2734375,-0.4296875,0.166015625,0.7421875,-0.16015625,1.65625,-9.13671875,0.828125,1.0
4827783,,,,,,,,0.484375,0.109375,-0.5,0.15625,0.75,-0.158203125,1.65625,-9.29296875,0.7890625,1.0
4827784,,,,,,,,0.4375,0.140625,-0.5078125,0.15625,0.76171875,-0.150390625,1.6171875,-9.25390625,0.7890625,1.0
4827785,,,,,,,,-0.3359375,0.70703125,-0.5234375,0.220703125,0.763671875,-0.125,0.8515625,-8.67578125,0.828125,1.0
4827786,,,,,,,,-0.7578125,0.73828125,-0.609375,0.193359375,0.6640625,-0.09765625,0.4296875,-8.63671875,0.7890625,1.0
4827787,,,,,,,,-0.7109375,0.46875,-0.6328125,0.119140625,0.572265625,-0.072265625,0.46875,-8.90625,0.7890625,1.0
4827788,,,,,,,,-0.55078125,-0.3046875,-0.5234375,0.01171875,0.478515625,-0.041015625,0.62109375,-9.67578125,0.90625,1.0
4827789,,,,,,,,-0.47265625,-0.5703125,-0.44921875,-0.041015625,0.4375,-0.025390625,0.69921875,-9.9375,0.98046875,1.0
4827790,36.01340866666667,129.3195,81.13357997259011,111.92126130959804,1.1,354.0,,-0.12109375,-1.03125,-0.21875,-0.13671875,0.392578125,-0.005859375,1.04296875,-10.40234375,1.2109375,1.0
4827791,,,,,,,,0.04296875,-0.91796875,0.10546875,-0.1953125,0.400390625,0.03515625,1.19921875,-10.28125,1.51953125,1.0
4827792,,,,,,,,0.203125,-0.6484375,0.1953125,-0.193359375,0.369140625,0.060546875,1.3515625,-10.01953125,1.59375,1.0
4827793,,,,,,,,0.33984375,-0.37109375,0.05078125,-0.212890625,0.33203125,0.072265625,1.46484375,-9.7421875,1.44140625,1.0
4827794,,,,,,,,0.46484375,-0.140625,-0.078125,-0.255859375,0.30859375,0.0859375,1.58203125,-9.51953125,1.2890625,1.0
4827795,,,,,,,,0.74609375,0.05859375,-0.20703125,-0.3125,0.345703125,0.09765625,1.84765625,-9.32421875,1.13671875,1.0
4827796,,,,,,,,0.953125,-0.05859375,-0.13671875,-0.427734375,0.39453125,0.119140625,2.0390625,-9.44140625,1.17578125,1.0
4827797,,,,,,,,1.046875,-0.39453125,-0.08984375,-0.5703125,0.427734375,0.142578125,2.1171875,-9.78125,1.17578125,1.0
4827798,,,,,,,,1.14453125,-1.61328125,-0.11328125,-0.703125,0.43359375,0.16015625,2.19140625,-11.0078125,1.09765625,1.0
4827799,,,,,,,,1.27734375,-2.70703125,-0.28125,-0.84765625,0.39453125,0.169921875,2.30859375,-12.12109375,0.8671875,1.0
4827800,36.013409833333334,129.31950016666667,81.14860351345625,112.0507139048253,1.1,358.0,0.0,1.33984375,-2.46875,0.45703125,-0.900390625,0.439453125,0.1328125,2.34765625,-11.890625,1.51953125,1.0
4827801,,,,,,,,0.85546875,-2.73046875,1.33203125,-0.83203125,0.6796875,0.056640625,1.84765625,-12.16015625,2.32421875,1.0
4827802,,,,,,,,0.55859375,-3.296875,1.4765625,-0.76953125,0.93359375,0.05078125,1.54296875,-12.73828125,2.3984375,1.0
4827803,,,,,,,,-0.765625,-4.0859375,2.046875,-0.8359375,0.919921875,0.0703125,0.203125,-13.54296875,2.8984375,1.0
4827804,,,,,,,,-1.39453125,-2.890625,2.8671875,-0.64453125,0.89453125,0.037109375,-0.44921875,-12.35546875,3.6640625,1.0
4827805,,,,,,,,-1.15625,-1.12890625,2.62890625,-0.171875,0.978515625,-0.001953125,-0.21875,-10.5859375,3.39453125,1.0
4827806,,,,,,,,-0.8125,-0.66796875,2.24609375,-0.013671875,1.0078125,-0.009765625,0.125,-10.12890625,3.01171875,1.0
4827807,,,,,,,,-0.26953125,-1.359375,2.26171875,-0.05859375,1.12109375,0.015625,0.66015625,-10.82421875,3.05078125,1.0
4827808,,,,,,,,0.859375,-2.35546875,2.68359375,-0.181640625,1.15625,0.005859375,1.7734375,-11.8125,3.47265625,1.0
4827809,,,,,,,,1.125,-2.34765625,2.65234375,-0.166015625,1.1875,-0.01953125,2.0390625,-11.81640625,3.43359375,1.0
4827810,36.01341083333333,129.31950016666667,81.14860248872543,112.1616731543592,1.1,358.0,,1.44140625,-1.8046875,2.30078125,0.005859375,1.271484375,-0.080078125,2.34765625,-11.28515625,3.08984375,1.0
4827811,,,,,,,,1.25,-1.234375,1.87890625,0.228515625,1.365234375,-0.20703125,2.15625,-10.703125,2.70703125,1.0
4827812,,,,,,,,0.66796875,-0.81640625,1.77734375,0.26953125,1.400390625,-0.265625,1.58203125,-10.28515625,2.62890625,1.0
4827813,,,,,,,,-1.09765625,-0.36328125,2.20703125,0.259765625,1.375,-0.435546875,-0.14453125,-9.8203125,3.12890625,1.0
4827814,,,,,,,,-1.56640625,-0.36328125,1.69140625,0.177734375,1.099609375,-0.458984375,-0.56640625,-9.82421875,2.66796875,1.0
4827815,,,,,,,,-1.75,-0.484375,1.23828125,0.12890625,1.009765625,-0.447265625,-0.71875,-9.9375,2.24609375,1.0
4827816,,,,,,,,-1.71875,-0.45703125,1.1171875,0.109375,0.990234375,-0.4296875,-0.6796875,-9.8984375,2.1328125,1.0
4827817,,,,,,,,-1.6796875,0.00390625,0.96875,0.099609375,1.001953125,-0.37890625,-0.6015625,-9.44140625,2.015625,1.0
4827818,,,,,,,,-1.57421875,0.46484375,0.73046875,0.111328125,0.99609375,-0.353515625,-0.48828125,-8.9765625,1.78515625,1.0
4827819,,,,,,,,-1.3984375,1.109375,0.40234375,0.13671875,0.986328125,-0.2734375,-0.296875,-8.328125,1.48046875,1.0
4827820,36.01341183333333,129.3195,81.13357672741705,112.27263226455588,1.1,357.0,,-1.4140625,1.26171875,0.31640625,0.134765625,0.96875,-0.25,-0.296875,-8.171875,1.40234375,1.0
4827821,,,,,,,,-1.15234375,1.51953125,0.078125,0.111328125,0.880859375,-0.2265625,-0.02734375,-7.91015625,1.2109375,1.0
4827822,,,,,,,,-0.9375,1.75,0.01953125,0.095703125,0.79296875,-0.232421875,0.203125,-7.68359375,1.17578125,1.0
4827823,,,,,,,,-0.75390625,2.06640625,-0.02734375,0.08203125,0.69921875,-0.248046875,0.39453125,-7.3671875,1.13671875,1.0
4827824,,,,,,,,-0.76953125,2.09765625,-0.01953125,0.08984375,0.654296875,-0.25390625,0.39453125,-7.33203125,1.17578125,1.0
4827825,,,,,,,,-0.9765625,2.125,-0.03515625,0.119140625,0.63671875,-0.2578125,0.203125,-7.30078125,1.17578125,1.0
4827826,,,,,,,,-1.0625,2.125,-0.0078125,0.138671875,0.634765625,-0.255859375,0.125,-7.30078125,1.2109375,1.0
4827827,,,,,,,,-1.4140625,2.1640625,-0.26171875,0.177734375,0.623046875,-0.240234375,-0.21875,-7.26171875,0.98046875,1.0
4827828,,,,,,,,-1.62109375,2.08203125,-0.26171875,0.2265625,0.6171875,-0.21484375,-0.41015625,-7.33203125,1.01953125,1.0
4827829,,,,,,,,-1.859375,2.03515625,-0.359375,0.234375,0.58203125,-0.19140625,-0.640625,-7.37109375,0.9453125,1.0
4827830,36.013412833333334,129.31950033333334,81.16362517472965,112.38359179165626,1.1,1.0,,-2.01953125,1.98828125,-0.5546875,0.23828125,0.525390625,-0.154296875,-0.79296875,-7.41015625,0.7890625,1.0
4827831,,,,,,,,-2.02734375,1.7890625,-0.5546875,0.22265625,0.46484375,-0.1015625,-0.79296875,-7.6015625,0.828125,1.0
4827832,,,,,,,,-1.8671875,1.59765625,-0.5,0.23828125,0.423828125,-0.078125,-0.640625,-7.7890625,0.90625,1.0
4827833,,,,,,,,-1.75390625,1.55078125,-0.515625,0.244140625,0.388671875,-0.064453125,-0.52734375,-7.83203125,0.90625,1.0
4827834,,,,,,,,-1.4453125,1.4375,-0.5078125,0.244140625,0.3203125,-0.05078125,-0.21875,-7.94921875,0.9453125,1.0
4827835,,,,,,,,-1.36328125,1.50390625,-0.46484375,0.23828125,0.279296875,-0.044921875,-0.14453125,-7.87109375,1.01953125,1.0
4827836,,,,,,,,-1.515625,1.3828125,-0.37109375,0.25390625,0.279296875,-0.04296875,-0.296875,-7.98828125,1.13671875,1.0
4827837,,,,,,,,-1.8515625,1.22265625,-0.49609375,0.2734375,0.302734375,-0.0234375,-0.640625,-8.13671875,1.05859375,1.0
4827838,,,,,,,,-1.890625,1.22265625,-0.55078125,0.275390625,0.296875,-0.02734375,-0.6796875,-8.13671875,1.01953125,1.0
4827839,,,,,,,,-1.9296875,1.21484375,-0.53515625,0.28125,0.24609375,-0.025390625,-0.71875,-8.1328125,1.05859375,1.0
4827840,36.01341383333333,129.31950066666667,81.19367362279702,112.494551318656,1.2000000000000002,6.0,,-1.84375,1.05078125,-0.64453125,0.259765625,0.181640625,-0.033203125,-0.640625,-8.2890625,0.98046875,1.0
4827841,,,,,,,,-1.65234375,0.9296875,-0.703125,0.203125,0.1015625,-0.046875,-0.44921875,-8.40625,0.9453125,1.0
4827842,,,,,,,,-1.453125,0.5859375,-0.61328125,0.12890625,0.052734375,-0.0546875,-0.2578125,-8.75,1.05859375,1.0
4827843,,,,,,,,-1.30859375,-0.2265625,-0.3125,0.02734375,0.0078125,-0.078125,-0.10546875,-9.5546875,1.3671875,1.0
4827844,,,,,,,,-1.26953125,-0.34375,-0.23828125,0.005859375,0.001953125,-0.08203125,-0.06640625,-9.67578125,1.44140625,1.0
4827845,,,,,,,,-1.046875,-0.7265625,-0.046875,-0.0390625,-0.01953125,-0.09375,0.1640625,-10.05859375,1.6328125,1.0
4827846,,,,,,,,-0.98046875,-1.0390625,0.03125,-0.076171875,-0.033203125,-0.111328125,0.23828125,-10.36328125,1.7109375,1.0
4827847,,,,,,,,-0.91015625,-1.078125,0.0390625,-0.09375,-0.03125,-0.119140625,0.31640625,-10.3984375,1.7109375,1.0
4827848,,,,,,,,-0.7578125,-1.078125,-0.0703125,-0.125,0.0,-0.126953125,0.46875,-10.40234375,1.59375,1.0
4827849,,,,,,,,-0.57421875,-1.0390625,-0.25390625,-0.12890625,0.013671875,-0.130859375,0.66015625,-10.36328125,1.40234375,1.0
4827850,36.01341466666667,129.31950116666667,81.23874697478574,112.58701777786527,1.1,12.0,,-0.4375,-1.0,-0.359375,0.259765625,0.181640625,-0.033203125,0.8125,-10.3203125,1.2890625,1.0
4827851,,,,,,,,-0.25390625,-0.9921875,-0.3671875,-0.275390625,0.138671875,-0.1484375,1.00390625,-10.3203125,1.25,1.0
4827852,,,,,,,,-0.06640625,-0.80078125,-0.265625,-0.349609375,0.1796875,-0.15234375,1.19921875,-10.125,1.328125,1.0
4827853,,,,,,,,-0.3046875,-0.296875,-0.2109375,-0.404296875,0.21484375,-0.18359375,0.96875,-9.6328125,1.328125,1.0
4827854,,,,,,,,-1.04296875,0.1640625,-0.33203125,-0.427734375,0.205078125,-0.1875,0.23828125,-9.17578125,1.17578125,1.0
4827855,,,,,,,,-1.2890625,0.203125,-0.32421875,-0.521484375,0.1640625,-0.17578125,-0.18359375,-9.13671875,1.09765625,1.0
4827856,,,,,,,,-1.48046875,0.203125,-0.34765625,-0.56640625,0.125,-0.166015625,-0.41015625,-9.359375,0.98046875,1.0
4827857,,,,,,,,-1.76171875,-0.171875,-0.53125,-0.71484375,0.0390625,-0.1484375,-0.18359375,-9.5546875,0.98046875,1.0
4827858,,,,,,,,-1.07421875,0.02734375,-0.0078125,-0.859375,-0.119140625,-0.080078125,0.5078125,-9.25,1.55859375,1.0
4827859,,,,,,,,-0.24609375,-0.45703125,0.57421875,-0.869140625,-0.177734375,-0.060546875,1.2734375,-10.4375,1.82421875,1.0
4827860,36.01341566666667,129.3195018333333,81.29884488814788,112.6979775828274,1.2000000000000002,20.0,,0.21484375,-1.8671875,0.80859375,-1.02734375,-0.169921875,-0.04296875,2.5,-13.08203125,2.16796875,1.0
4827861,,,,,,,,2.58203125,-4.72265625,1.921875,-1.271484375,-0.1640625,-0.04296875,4.68359375,-13.92578125,3.47265625,1.0
4827862,,,,,,,,4.11328125,-3.98046875,3.04296875,-1.294921875,-0.125,-0.109375,6.3671875,-12.05078125,4.046875,1.0
4827863,,,,,,,,4.87109375,-2.02734375,3.10546875,-1.115234375,-0.052734375,-0.158203125,6.21484375,-11.43359375,3.89453125,1.0
4827864,,,,,,,,3.69921875,-1.328125,2.83984375,-0.55859375,0.275390625,-0.244140625,5.06640625,-10.74609375,3.55078125,1.0
4827865,,,,,,,,1.4609375,-1.64453125,2.5859375,-0.162109375,0.525390625,-0.302734375,2.84375,-11.046875,3.28125,1.0
4827866,,,,,,,,0.46484375,-2.37109375,2.6640625,0.0703125,0.421875,-0.328125,1.88671875,-11.77734375,3.359375,1.0
4827867,,,,,,,,0.01953125,-3.0625,2.8671875,0.107421875,0.3046875,-0.306640625,1.46484375,-12.46875,3.5859375,1.0
4827868,,,,,,,,0.12890625,-2.9453125,2.82421875,0.1328125,0.28515625,-0.28515625,1.58203125,-12.3515625,3.55078125,1.0
4827869,,,,,,,,0.6015625,-1.99609375,2.4921875,0.2421875,0.349609375,-0.203125,2.078125,-11.390625,3.2421875,1.0
4827870,36.0134165,129.3195025,81.3589429776988,112.7904441792337,1.1,25.0,,0.32421875,-1.0,2.0,-1.02734375,-0.169921875,-0.04296875,2.5,-13.08203125,2.16796875,1.0
4827871,,,,,,,,-0.27734375,-0.2734375,1.5625,0.3828125,0.765625,0.025390625,1.19921875,-9.67578125,2.3984375,1.0
4827872,,,,,,,,-0.38671875,0.140625,1.2109375,0.337890625,0.84375,0.125,1.08203125,-9.25,2.09375,1.0
4827873,,,,,,,,-0.24609375,0.2265625,1.0859375,0.220703125,0.755859375,0.171875,1.19921875,-9.17578125,2.015625,1.0
4827874,,,,,,,,0.00390625,0.265625,0.87109375,0.072265625,0.599609375,0.177734375,1.42578125,-9.1328125,1.82421875,1.0
4827875,,,,,,,,0.04296875,0.65625,0.703125,-0.087890625,0.46484375,0.181640625,1.42578125,-8.75,1.671875,1.0
4827876,,,,,,,,-0.1015625,1.078125,0.6328125,-0.09375,0.478515625,0.173828125,1.2734375,-8.33203125,1.59375,1.0
4827877,,,,,,,,-0.34765625,1.390625,0.48046875,-0.05859375,0.52734375,0.177734375,1.00390625,-8.02734375,1.44140625,1.0
4827878,,,,,,,,-0.58203125,1.703125,0.3984375,-0.009765625,0.56640625,0.181640625,0.73828125,-7.71875,1.3671875,1.0
4827879,,,,,,,,-0.66796875,2.09765625,0.07421875,0.056640625,0.5546875,0.193359375,0.62109375,-7.33203125,1.05859375,1.0
4827880,36.013417499999996,129.31950283333333,81.38899142046189,112.90140370719003,1.1,23.0,,-0.48828125,2.09765625,-0.09375,0.064453125,0.5,0.185546875,2.5,-13.08203125,2.16796875,1.0
4827881,,,,,,,,-0.08203125,2.09765625,-0.15625,0.03515625,0.458984375,0.181640625,1.16015625,-7.33203125,0.8671875,1.0
4827882,,,,,,,,0.015625,2.2109375,-0.2421875,0.01953125,0.455078125,0.16796875,1.234375,-7.22265625,0.7890625,1.0
4827883,,,,,,,,0.109375,2.32421875,-0.32421875,0.01171875,0.451171875,0.162109375,1.3125,-7.10546875,0.71484375,1.0
4827884,,,,,,,,0.71484375,2.1328125,-0.5625,0.0078125,0.51171875,0.14453125,1.88671875,-7.30078125,0.484375,1.0
4827885,,,,,,,,0.921875,1.98828125,-0.609375,0.005859375,0.515625,0.130859375,2.078125,-7.4453125,0.4453125,1.0
4827886,,,,,,,,1.13671875,1.8359375,-0.6171875,-0.009765625,0.521484375,0.10546875,2.26953125,-7.6015625,0.4453125,1.0
4827887,,,,,,,,1.15234375,1.60546875,-0.5078125,-0.015625,0.552734375,0.06640625,2.26953125,-7.83203125,0.5625,1.0
4827888,,,,,,,,1.07421875,1.60546875,-0.43359375,-0.01171875,0.58984375,0.05078125,2.19140625,-7.828125,0.63671875,1.0
4827889,,,,,,,,0.6328125,1.52734375,-0.40234375,0.013671875,0.6328125,0.033203125,1.734375,-7.90625,0.67578125,1.0
4827890,36.01341816666666,129.31950333333333,81.434064941925,112.975376956979,1.0,25.0,,0.37109375,1.55859375,-0.41796875,0.064453125,0.5,0.185546875,1.46484375,-7.87109375,0.67578125,1.0
4827891,,,,,,,,0.03515625,1.64453125,-0.40234375,0.08203125,0.658203125,0.0078125,1.12109375,-7.7890625,0.71484375,1.0
4827892,,,,,,,,-0.140625,1.55859375,-0.34375,0.103515625,0.666015625,0.01953125,0.9296875,-7.8671875,0.7890625,1.0
4827893,,,,,,,,-0.171875,1.484375,-0.38671875,0.107421875,0.658203125,0.0234375,0.890625,-7.9453125,0.75390625,1.0
4827894,,,,,,,,-0.078125,1.24609375,-0.48828125,0.10546875,0.609375,0.056640625,0.96875,-8.17578125,0.67578125,1.0
4827895,,,,,,,,0.16796875,0.86328125,-0.6171875,0.099609375,0.560546875,0.08203125,1.19921875,-8.55859375,0.5625,1.0
4827896,,,,,,,,0.328125,0.515625,-0.51953125,0.08203125,0.529296875,0.08984375,1.3515625,-8.90625,0.67578125,1.0
4827897,,,,,,,,0.2734375,0.32421875,-0.3125,0.08984375,0.5390625,0.09765625,1.2734375,-9.09765625,0.90625,1.0
4827898,,,,,,,,0.12890625,0.31640625,-0.20703125,0.115234375,0.548828125,0.09765625,1.12109375,-9.09375,1.01953125,1.0
4827899,,,,,,,,0.07421875,0.31640625,-0.06640625,0.140625,0.5546875,0.091796875,1.04296875,-9.09375,1.17578125,1.0
4827900,36.01341916666667,129.31950383333333,81.47913811733716,113.08633662642718,1.1,24.0,0.0,-0.015625,0.125,-0.0625,0.15234375,0.521484375,0.099609375,0.9296875,-9.29296875,1.2109375,1.0
4827901,,,,,,,,-0.0703125,-0.1015625,0.10546875,0.123046875,0.4921875,0.1015625,0.8515625,-9.51953125,1.40234375,1.0
4827902,,,,,,,,-0.16796875,-0.2265625,0.28125,0.107421875,0.47265625,0.107421875,0.73828125,-9.6328125,1.59375,1.0
4827903,,,,,,,,-0.3125,-0.2265625,0.265625,0.11328125,0.4765625,0.109375,0.5859375,-9.6328125,1.59375,1.0
4827904,,,,,,,,-0.3359375,-0.1875,0.296875,0.09765625,0.44921875,0.11328125,0.546875,-9.59765625,1.6328125,1.0
4827905,,,,,,,,-0.23828125,-0.109375,0.12890625,0.0234375,0.359375,0.125,0.62109375,-9.515625,1.48046875,1.0
4827906,,,,,,,,0.0859375,-0.1171875,0.08203125,-0.05078125,0.27734375,0.12109375,0.9296875,-9.51953125,1.44140625,1.0
4827907,,,,,,,,0.33203125,-0.109375,0.015625,-0.142578125,0.1953125,0.103515625,1.16015625,-9.51953125,1.3671875,1.0
4827908,,,,,,,,0.453125,-0.2265625,-0.015625,-0.1796875,0.15625,0.09765625,1.2734375,-9.63671875,1.328125,1.0
4827909,,,,,,,,0.76953125,-0.37890625,-0.15234375,-0.263671875,0.123046875,0.068359375,1.58203125,-9.78515625,1.17578125,1.0
4827910,36.01342016666667,129.31950450000002,81.53923603145745,113.19729643291998,1.1,24.0,,0.890625,-0.33203125,-0.12109375,-0.341796875,0.123046875,0.0546875,0.9296875,-9.29296875,1.2109375,1.0
4827911,,,,,,,,1.16796875,-0.36328125,0.0234375,-0.4296875,0.166015625,0.03125,1.96484375,-9.78515625,1.2890625,1.0
4827912,,,,,,,,1.25,-1.3203125,-0.19921875,-0.5390625,0.203125,0.03125,2.0390625,-10.7421875,1.01953125,1.0
4827913,,,,,,,,1.18359375,-2.04296875,-0.3359375,-0.65625,0.2109375,0.05078125,1.96484375,-11.47265625,0.828125,1.0
4827914,,,,,,,,0.8828125,-2.15625,0.03515625,-0.744140625,0.255859375,0.046875,1.65625,-11.58984375,1.13671875,1.0
4827915,,,,,,,,0.35546875,-1.87109375,0.87109375,-0.75390625,0.400390625,0.025390625,1.12109375,-11.31640625,1.90234375,1.0
4827916,,,,,,,,0.203125,-2.140625,1.09375,-0.75,0.5,0.029296875,0.96875,-11.58984375,2.09375,1.0
4827917,,,,,,,,-0.3203125,-3.6171875,1.26953125,-0.76171875,0.634765625,0.072265625,0.4296875,-13.08203125,2.20703125,1.0
4827918,,,,,,,,-0.6953125,-4.1875,1.49609375,-0.830078125,0.603515625,0.107421875,0.046875,-13.66015625,2.36328125,1.0
4827919,,,,,,,,-1.3984375,-2.38671875,2.5625,-0.765625,0.537109375,0.1171875,-0.6796875,-11.85546875,3.359375,1.0
4827920,36.013421,129.31950533333332,81.61435884216029,113.28976317197123,1.2000000000000002,26.0,,-1.58203125,-1.19140625,2.625,-0.341796875,0.123046875,0.0546875,0.9296875,-9.29296875,1.2109375,1.0
4827921,,,,,,,,-1.453125,-0.5703125,1.88671875,-0.298828125,0.458984375,0.130859375,-0.7578125,-10.05859375,2.58984375,1.0
4827922,,,,,,,,-0.9453125,-0.68359375,1.55078125,-0.255859375,0.40234375,0.140625,-0.2578125,-10.16796875,2.24609375,1.0
4827923,,,,,,,,0.38671875,-1.671875,1.62890625,-0.236328125,0.34375,0.111328125,1.04296875,-11.16796875,2.28515625,1.0
4827924,,,,,,,,0.51953125,-1.7890625,1.68359375,-0.181640625,0.396484375,0.08203125,1.16015625,-11.28125,2.32421875,1.0
4827925,,,,,,,,0.41015625,-2.0078125,1.8046875,-0.037109375,0.5859375,0.03515625,1.04296875,-11.51171875,2.4375,1.0
4827926,,,,,,,,0.07421875,-1.93359375,1.875,0.0546875,0.716796875,-0.01171875,0.69921875,-11.4296875,2.515625,1.0
4827927,,,,,,,,-0.1953125,-1.7421875,1.8671875,0.099609375,0.7421875,-0.0234375,0.4296875,-11.24609375,2.515625,1.0
4827928,,,,,,,,-0.5390625,-1.16796875,1.68359375,0.15625,0.755859375,-0.072265625,0.0859375,-10.66796875,2.36328125,1.0
4827929,,,,,,,,-0.76953125,-0.69921875,1.7109375,0.17578125,0.755859375,-0.08984375,-0.14453125,-10.203125,2.3984375,1.0
4827930,36.013422,129.319506,81.67445675022151,113.40072297952125,1.1,26.0,,-0.921875,-0.27734375,1.57421875,0.185546875,0.71875,-0.11328125,0.9296875,-9.29296875,1.2109375,1.0
4827931,,,,,,,,-0.96875,-0.0859375,1.08984375,0.2109375,0.61328125,-0.111328125,-0.3359375,-9.59765625,1.82421875,1.0
4827932,,,,,,,,-1.015625,0.14453125,0.79296875,0.236328125,0.53125,-0.12109375,-0.375,-9.36328125,1.55859375,1.0
4827933,,,,,,,,-1.015625,0.51953125,0.453125,0.2421875,0.4921875,-0.12890625,-0.375,-8.9765625,1.25,1.0
4827934,,,,,,,,-0.9453125,1.015625,0.26953125,0.236328125,0.484375,-0.134765625,-0.296875,-8.484375,1.09765625,1.0
4827935,,,,,,,,-0.80078125,1.66796875,0.12890625,0.224609375,0.462890625,-0.138671875,-0.14453125,-7.828125,0.98046875,1.0
4827936,,,,,,,,-0.69140625,1.859375,0.046875,0.224609375,0.447265625,-0.15234375,-0.02734375,-7.64453125,0.90625,1.0
4827937,,,,,,,,-0.46875,2.3203125,-0.13671875,0.21875,0.40625,-0.166015625,0.203125,-7.1796875,0.75390625,1.0
4827938,,,,,,,,-0.2578125,2.46484375,-0.27734375,0.21875,0.361328125,-0.1953125,0.4296875,-7.02734375,0.63671875,1.0
4827939,,,,,,,,-0.28125,2.54296875,-0.58203125,0.19921875,0.314453125,-0.23828125,0.4296875,-6.9453125,0.37109375,1.0
4827940,36.01342283333334,129.3195065,81.71953009284705,113.49318944035231,1.1,28.0,,-0.48828125,2.50390625,-0.76171875,0.189453125,0.345703125,-0.2578125,0.23828125,-6.984375,0.21484375,1.0
4827941,,,,,,,,-1.0,2.2578125,-0.8984375,0.162109375,0.41015625,-0.2578125,-0.2578125,-7.22265625,0.1015625,1.0
4827942,,,,,,,,-1.359375,2.1796875,-0.875,0.126953125,0.462890625,-0.25390625,-0.6015625,-7.30078125,0.140625,1.0
4827943,,,,,,,,-1.56640625,2.02734375,-0.80859375,0.109375,0.474609375,-0.24609375,-0.79296875,-7.44921875,0.21484375,1.0
4827944,,,,,,,,-1.69921875,1.72265625,-0.67578125,0.0859375,0.48046875,-0.2265625,-0.91015625,-7.75,0.37109375,1.0
4827945,,,,,,,,-1.68359375,1.4921875,-0.5390625,0.080078125,0.447265625,-0.19921875,-0.87109375,-7.98828125,0.5234375,1.0
4827946,,,,,,,,-1.5,1.1015625,-0.47265625,0.107421875,0.416015625,-0.177734375,-0.6796875,-8.3671875,0.59765625,1.0
4827947,,,,,,,,-1.46875,0.90234375,-0.48828125,0.1484375,0.384765625,-0.154296875,-0.640625,-8.55859375,0.59765625,1.0
4827948,,,,,,,,-1.46875,0.82421875,-0.50390625,0.16796875,0.376953125,-0.150390625,-0.640625,-8.6328125,0.59765625,1.0
4827949,,,,,,,,-1.4453125,0.82421875,-0.6015625,0.21875,0.345703125,-0.14453125,-0.6015625,-8.6328125,0.5234375,1.0
