,time,latitude,longitude,enu_x,enu_y,speed,course,Hrage,accX,accY,accZ,gyrX,gyrY,gyrZ,eulR,eulP,eulY
0,794500,36.012847,129.32205633333334,311.58520689551835,49.60430361779668,0.1,65535.0,166.0,-0.34375,-0.3359375,-0.11328125,0.01171875,-2.53515625,0.267578125,-20.333333333333314,6.2555555555555316,175.86666666666667
1,794501,,,,,,,,-0.34375,-0.3359375,-0.11328125,0.01171875,-2.53515625,0.267578125,-20.333333333333314,6.2555555555555316,175.86666666666667
2,794502,,,,,,,,-0.34375,-0.3359375,-0.11328125,0.01171875,-2.53515625,0.267578125,-20.333333333333314,6.2555555555555316,175.86666666666667
3,794503,,,,,,,,-0.34375,-0.3359375,-0.11328125,0.01171875,-2.53515625,0.267578125,-20.333333333333314,6.2555555555555316,175.86666666666667
4,794504,,,,,,,,-0.34375,-0.3359375,-0.11328125,0.01171875,-2.53515625,0.267578125,-20.333333333333314,6.2555555555555316,175.86666666666667
5,794505,,,,,,,,-0.34375,-0.3359375,-0.11328125,0.01171875,-2.53515625,0.267578125,-20.333333333333314,6.2555555555555316,175.86666666666667
6,794506,,,,,,,,-0.34375,-0.3359375,-0.11328125,0.01171875,-2.53515625,0.267578125,-20.333333333333314,6.2555555555555316,175.86666666666667
7,794507,,,,,,,,-0.34375,-0.3359375,-0.11328125,0.01171875,-2.53515625,0.267578125,-20.333333333333314,6.2555555555555316,175.86666666666667
8,794508,,,,,,,,-0.34375,-0.3359375,-0.11328125,0.01171875,-2.53515625,0.267578125,-20.333333333333314,6.2555555555555316,175.86666666666667
9,794509,,,,,,,,-0.34375,-0.3359375,-0.11328125,0.01171875,-2.53515625,0.267578125,-20.333333333333314,6.2555555555555316,175.86666666666667
10,794510,36.01284666666666,129.322056,311.55515851968335,49.56731613865863,0.1,65535.0,,0.046875,-1.0546875,0.54296875,-0.595703125,-2.615234375,0.087890625,-27.155555555555566,11.600000000000023,176.8
11,794511,,,,,,,,0.828125,-1.078125,0.33203125,-1.177734375,-4.625,0.70703125,-24.98888888888888,10.97777777777776,177.0222222222222
12,794512,,,,,,,,0.828125,-1.078125,0.33203125,-1.177734375,-4.625,0.70703125,-24.98888888888888,10.97777777777776,177.0222222222222
13,794513,,,,,,,,0.453125,-0.30078125,-0.1640625,-1.4765625,-6.283203125,1.193359375,-21.833333333333314,10.199999999999989,177.05555555555554
14,794514,,,,,,,,0.25,0.24609375,-0.625,-1.484375,-7.201171875,1.509765625,-17.911111111111097,9.399999999999977,176.94444444444446
15,794515,,,,,,,,0.203125,0.3984375,-0.453125,-1.134765625,-7.330078125,1.357421875,-13.688888888888869,8.688888888888869,176.77777777777777
16,794516,,,,,,,,0.203125,0.3984375,-0.453125,-1.134765625,-7.330078125,1.357421875,-13.688888888888869,8.688888888888869,176.77777777777777
17,794517,,,,,,,,-0.3203125,0.65234375,-0.36328125,-0.48828125,-6.8125,0.91015625,-9.600000000000023,8.233333333333348,176.73333333333332
18,794518,,,,,,,,-0.5078125,0.34765625,-0.05859375,0.216796875,-5.7734375,0.45703125,-6.188888888888869,8.144444444444446,176.85555555555555
19,794519,,,,,,,,-0.5078125,0.34765625,-0.05859375,0.216796875,-5.7734375,0.45703125,-6.188888888888869,8.144444444444446,176.85555555555555
20,794520,36.01284583333334,129.32205683333333,311.63028601685266,49.474852771457364,0.1,65535.0,,-0.50390625,0.17578125,0.453125,0.830078125,-4.296875,0.11328125,-3.2888888888888914,8.433333333333337,177.11111111111111
21,794521,,,,,,,,-0.3125,0.12109375,0.30078125,1.123046875,-2.75,-0.158203125,-1.2222222222222285,9.0,177.45555555555555
22,794522,,,,,,,,-0.31640625,0.36328125,-0.2890625,0.966796875,-1.435546875,-0.3125,-0.04444444444442297,9.600000000000023,177.77777777777777
23,794523,,,,,,,,-0.32421875,0.6015625,-0.0078125,0.591796875,-0.36328125,-0.294921875,0.4333333333333371,10.055555555555543,178.04444444444445
24,794524,,,,,,,,0.03515625,0.6015625,0.0390625,0.224609375,0.568359375,-0.216796875,0.3555555555555543,10.288888888888891,178.17777777777778
25,794525,,,,,,,,0.13671875,0.66796875,-0.12109375,-0.080078125,1.521484375,-0.142578125,-0.2333333333333485,10.322222222222194,178.17777777777778
26,794526,,,,,,,,0.13671875,0.66796875,-0.12109375,-0.080078125,1.521484375,-0.142578125,-0.2333333333333485,10.322222222222194,178.17777777777778
27,794527,,,,,,,,-0.01953125,0.5625,0.18359375,-0.16796875,2.404296875,-0.095703125,-1.3555555555555543,10.266666666666652,178.04444444444445
28,794528,,,,,,,,-0.16796875,0.0703125,-0.3046875,-0.01953125,3.26953125,-0.138671875,-2.933333333333337,10.222222222222229,177.82222222222222
29,794529,,,,,,,,-0.0078125,-0.04296875,-0.55078125,0.1875,4.013671875,-0.265625,-5.01111111111112,10.288888888888891,177.56666666666666
30,794530,36.012845500000005,129.32205683333333,311.63028732896885,49.43786635892068,0.2,65535.0,,-0.22265625,-0.3046875,-0.76953125,0.830078125,-4.296875,0.11328125,-3.2888888888888914,8.433333333333337,177.11111111111111
31,794531,,,,,,,,-0.46484375,-0.3671875,-1.015625,0.33203125,4.46484375,-0.349609375,-9.811111111111131,10.677777777777806,177.05555555555554
32,794532,,,,,,,,-0.2265625,-0.234375,-0.77734375,0.322265625,4.248046875,-0.326171875,-12.377777777777794,10.944444444444457,176.75555555555556
33,794533,,,,,,,,0.19140625,-0.265625,-0.52734375,0.3671875,3.79296875,-0.369140625,-14.677777777777806,11.199999999999989,176.51111111111112
34,794534,,,,,,,,0.359375,-0.17578125,-0.51171875,0.44921875,3.123046875,-0.4453125,-16.644444444444446,11.47777777777776,176.34444444444443
35,794535,,,,,,,,0.13671875,-0.0859375,0.79296875,0.39453125,0.046875,-0.05078125,-18.588888888888903,12.01111111111112,176.3111111111111
36,794536,,,,,,,,0.6640625,0.19140625,0.6640625,0.291015625,-1.236328125,0.298828125,-18.25555555555553,12.199999999999989,176.3111111111111
37,794537,,,,,,,,0.68359375,0.41796875,0.46875,0.265625,-1.927734375,0.544921875,-17.27777777777777,12.377777777777794,176.26666666666668
38,794538,,,,,,,,0.6796875,0.6796875,0.72265625,0.328125,-2.23046875,0.6171875,-16.055555555555543,12.566666666666663,176.2
39,794539,,,,,,,,0.421875,0.5546875,0.98046875,0.4296875,-2.373046875,0.5703125,-14.688888888888869,12.800000000000011,176.15555555555557
40,794540,36.0128445,129.32205766666667,311.7054154865551,49.32690978574958,0.30000000000000004,65535.0,,0.42578125,0.65234375,0.703125,0.48046875,-2.296875,0.5234375,-13.300000000000011,13.066666666666663,176.15555555555557
41,794541,,,,,,,,0.8359375,0.7890625,0.58984375,0.484375,-2.0078125,0.458984375,-12.066666666666663,13.333333333333314,176.15555555555557
42,794542,,,,,,,,0.6875,0.65234375,0.6875,0.482421875,-1.76171875,0.38671875,-10.933333333333337,13.611111111111086,176.17777777777778
43,794543,,,,,,,,0.3984375,0.60546875,0.78125,0.4453125,-1.775390625,0.376953125,-9.899999999999977,13.877777777777794,176.2
44,794544,,,,,,,,0.71875,0.59765625,0.45703125,0.357421875,-1.87890625,0.416015625,-8.844444444444434,14.100000000000023,176.24444444444444
45,794545,,,,,,,,1.19140625,0.52734375,0.13671875,0.228515625,-1.955078125,0.46484375,-7.7444444444444684,14.255555555555532,176.26666666666668
46,794546,,,,,,,,0.671875,0.6171875,0.34375,0.109375,-2.154296875,0.537109375,-6.48888888888888,14.366666666666674,176.27777777777777
47,794547,,,,,,,,0.16796875,0.640625,0.59375,0.064453125,-2.404296875,0.640625,-5.144444444444446,14.411111111111097,176.27777777777777
48,794548,,,,,,,,-0.01953125,0.59375,0.3125,0.025390625,-2.45703125,0.6796875,-3.7666666666666515,14.444444444444457,176.26666666666668
49,794549,,,,,,,,-0.03125,0.51953125,-0.1953125,-0.03125,-2.16796875,0.658203125,-2.3555555555555543,14.444444444444457,176.23333333333332
50,794550,36.012844,129.322058,311.7354671422876,49.27143123297041,0.2,65535.0,,0.08203125,0.3359375,-0.77734375,-0.083984375,-1.599609375,0.59765625,-1.2111111111111086,14.422222222222217,176.14444444444445
51,794551,,,,,,,,-0.20703125,0.140625,-1.3125,-0.037109375,-0.908203125,0.53125,-0.4333333333333371,14.388888888888914,176.01111111111112
52,794552,,,,,,,,-0.7578125,-0.43359375,-1.3515625,0.04296875,-0.033203125,0.4140625,-0.08888888888890278,14.388888888888914,175.82222222222222
53,794553,,,,,,,,-1.1171875,-0.71484375,-0.5390625,0.265625,0.59765625,0.265625,-0.19999999999998863,14.47777777777776,175.5888888888889
54,794554,,,,,,,,-1.2265625,-0.83203125,0.00390625,0.482421875,0.572265625,0.1171875,-0.48888888888888005,14.699999999999989,175.4
55,794555,,,,,,,,-1.46875,-0.83984375,0.39453125,0.5390625,0.03515625,0.11328125,-0.6333333333333258,14.98888888888888,175.3
56,794556,,,,,,,,-0.4296875,-0.3515625,0.52734375,0.453125,-0.630859375,0.1640625,-0.45555555555557703,15.266666666666652,175.26666666666668
57,794557,,,,,,,,-0.3671875,0.1484375,0.76171875,0.341796875,-1.232421875,0.208984375,0.10000000000002274,15.5,175.3111111111111
58,794558,,,,,,,,-0.27734375,0.390625,0.97265625,0.283203125,-1.58984375,0.25390625,0.9222222222222172,15.677777777777806,175.4111111111111
59,794559,,,,,,,,-0.04296875,0.59765625,1.0546875,0.16796875,-1.55078125,0.22265625,1.8222222222221944,15.822222222222194,175.5222222222222
60,794560,36.01284316666667,129.32205816666666,311.7504952677507,49.178965732886454,0.30000000000000004,65535.0,,0.08203125,0.55859375,0.94921875,-0.115234375,-1.4375,0.103515625,2.6666666666666856,15.844444444444434,175.66666666666666
61,794561,,,,,,,,-0.1328125,0.62109375,0.75,-0.48828125,-1.4375,0.041015625,3.47777777777776,15.688888888888869,175.85555555555555
62,794562,,,,,,,,-0.11328125,0.37890625,0.671875,-0.798828125,-1.46875,0.017578125,4.2777777777777715,15.322222222222194,176.06666666666666
63,794563,,,,,,,,0.01171875,0.2265625,-0.0703125,-0.984375,-1.466796875,-0.005859375,5.100000000000023,14.833333333333314,176.2888888888889
64,794564,,,,,,,,0.05078125,0.28125,-0.15625,-1.0234375,-1.3203125,0.0390625,5.844444444444434,14.300000000000011,176.46666666666667
65,794565,,,,,,,,0.19140625,0.328125,0.02734375,-0.900390625,-1.083984375,0.11328125,6.544444444444423,13.744444444444468,176.6
66,794566,,,,,,,,0.2890625,0.375,-0.01953125,-0.744140625,-0.892578125,0.140625,7.111111111111086,13.288888888888891,176.66666666666666
67,794567,,,,,,,,0.44140625,0.171875,-0.29296875,-0.65234375,-0.802734375,0.171875,7.600000000000023,12.911111111111097,176.6888888888889
68,794568,,,,,,,,0.40234375,0.234375,-0.4765625,-0.62109375,-0.79296875,0.25390625,8.088888888888903,12.52222222222224,176.67777777777778
69,794569,,,,,,,,0.39453125,0.05859375,-0.41015625,-0.61328125,-0.876953125,0.3359375,8.588888888888903,12.166666666666686,176.61111111111111
70,794570,36.012842166666665,129.32205866666666,311.7955737402061,49.06800809449605,0.30000000000000004,65535.0,,0.18359375,-0.0703125,-0.24609375,-0.6015625,-1.05859375,0.392578125,9.166666666666686,11.811111111111131,176.53333333333333
71,794571,,,,,,,,0.06640625,0.10546875,-0.0859375,-0.57421875,-1.162109375,0.3984375,9.844444444444434,11.455555555555577,176.44444444444446
72,794572,,,,,,,,0.06640625,0.12109375,-0.00390625,-0.529296875,-1.056640625,0.341796875,10.5,11.133333333333326,176.36666666666667
73,794573,,,,,,,,-0.18359375,0.1015625,0.265625,-0.490234375,-0.951171875,0.3125,11.111111111111086,10.822222222222194,176.2888888888889
74,794574,,,,,,,,-0.0859375,0.0390625,0.08203125,-0.48828125,-0.91796875,0.279296875,11.677777777777806,10.53333333333336,176.22222222222223
75,794575,,,,,,,,-0.25390625,0.05078125,0.01953125,-0.55078125,-0.951171875,0.248046875,12.222222222222229,10.233333333333348,176.16666666666666
76,794576,,,,,,,,-0.39453125,0.11328125,0.3046875,-0.61328125,-1.15234375,0.28125,12.844444444444434,9.888888888888914,176.12222222222223
77,794577,,,,,,,,-0.8046875,-0.125,1.0546875,-0.67578125,-1.798828125,0.369140625,13.711111111111109,9.51111111111112,176.0888888888889
78,794578,,,,,,,,-0.890625,0.17578125,1.28515625,-0.806640625,-2.603515625,0.458984375,14.955555555555577,9.088888888888903,176.06666666666666
79,794579,,,,,,,,-0.70703125,0.19921875,1.234375,-0.953125,-3.0234375,0.41015625,16.611111111111086,8.577777777777783,176.06666666666666
80,794580,36.01284066666666,129.32205966666666,311.8857287169103,48.90157243539455,0.30000000000000004,65535.0,,-0.51171875,0.2578125,0.921875,-1.09375,-3.048828125,0.275390625,18.27777777777777,8.03333333333336,176.13333333333333
81,794581,,,,,,,,-0.5625,0.296875,0.59375,-1.1875,-2.888671875,0.17578125,20.055555555555543,7.388888888888914,176.24444444444444
82,794582,,,,,,,,-0.4765625,0.10546875,-0.546875,-1.1875,-2.611328125,0.126953125,21.677777777777806,6.7333333333333485,176.36666666666667
83,794583,,,,,,,,-0.44921875,-0.03515625,-1.01171875,-1.09765625,-2.1484375,0.091796875,23.0,6.133333333333326,176.46666666666667
84,794584,,,,,,,,-0.53515625,-0.2109375,-0.94921875,-0.875,-1.66796875,0.02734375,24.077777777777783,5.622222222222206,176.55555555555554
85,794585,,,,,,,,-0.546875,-0.2265625,-0.89453125,-0.56640625,-1.126953125,-0.05859375,24.866666666666674,5.2444444444444684,176.65555555555557
86,794586,,,,,,,,-0.00390625,-0.42578125,-1.5546875,-0.3125,-0.447265625,-0.16015625,25.322222222222194,5.03333333333336,176.76666666666668
87,794587,,,,,,,,0.1796875,-0.37890625,-1.74609375,-0.16015625,0.248046875,-0.2734375,25.366666666666674,4.96666666666664,176.92222222222222
88,794588,,,,,,,,0.34765625,-0.41796875,-2.04296875,-0.03125,0.845703125,-0.361328125,25.044444444444423,4.98888888888888,177.0888888888889
89,794589,,,,,,,,0.71875,-0.44140625,-3.00390625,0.115234375,1.50390625,-0.412109375,24.366666666666674,5.088888888888903,177.27777777777777
90,794590,36.01284016666667,129.3220606666667,311.9758797564772,48.846096017900734,0.1,65535.0,,0.890625,-0.5546875,-3.08203125,0.36328125,2.208984375,-0.453125,23.28888888888889,5.288888888888891,177.44444444444446
91,794591,,,,,,,,0.97265625,-0.50390625,-3.09765625,0.7265625,2.982421875,-0.5234375,21.78888888888889,5.666666666666686,177.6
92,794592,,,,,,,,0.90234375,-0.44921875,-3.46875,1.1015625,3.97265625,-0.59375,19.80000000000001,6.2222222222222285,177.72222222222223
93,794593,,,,,,,,0.734375,-0.125,-3.09375,1.501953125,5.228515625,-0.724609375,17.28888888888889,6.96666666666664,177.8
94,794594,,,,,,,,0.66796875,0.0390625,-2.27734375,2.015625,6.435546875,-0.8984375,13.899999999999977,7.98888888888888,177.82222222222222
95,794595,,,,,,,,0.44140625,-0.2109375,-0.65625,2.666015625,6.951171875,-1.060546875,9.933333333333337,9.366666666666674,177.8111111111111
96,794596,,,,,,,,0.04296875,-0.12109375,0.4453125,3.25390625,6.59765625,-1.1640625,5.955555555555577,11.077777777777783,177.74444444444444
97,794597,,,,,,,,-1.05859375,0.390625,1.51171875,3.53125,5.650390625,-1.150390625,2.444444444444457,13.0,177.66666666666666
98,794598,,,,,,,,-0.6953125,0.5703125,1.69921875,3.501953125,4.36328125,-1.083984375,-0.34444444444443434,14.922222222222217,177.61111111111111
99,794599,,,,,,,,-0.62890625,0.6328125,2.06640625,3.2265625,2.935546875,-0.859375,-2.6000000000000227,16.944444444444457,177.56666666666666
100,794600,36.012839,129.32206183333335,312.0810582694512,48.716647308317924,0.2,65535.0,166.0,0.890625,-0.5546875,-3.08203125,2.701171875,0.990234375,-0.275390625,23.28888888888889,5.288888888888891,177.44444444444446
101,794601,,,,,,,,0.890625,-0.5546875,-3.08203125,2.701171875,0.990234375,-0.275390625,23.28888888888889,5.288888888888891,177.44444444444446
102,794602,,,,,,,,0.890625,-0.5546875,-3.08203125,2.701171875,0.990234375,-0.275390625,23.28888888888889,5.288888888888891,177.44444444444446
103,794603,,,,,,,,0.890625,-0.5546875,-3.08203125,2.701171875,0.990234375,-0.275390625,23.28888888888889,5.288888888888891,177.44444444444446
104,794604,,,,,,,,0.890625,-0.5546875,-3.08203125,2.701171875,0.990234375,-0.275390625,23.28888888888889,5.288888888888891,177.44444444444446
105,794605,,,,,,,,0.890625,-0.5546875,-3.08203125,2.701171875,0.990234375,-0.275390625,23.28888888888889,5.288888888888891,177.44444444444446
106,794606,,,,,,,,0.890625,-0.5546875,-3.08203125,2.701171875,0.990234375,-0.275390625,23.28888888888889,5.288888888888891,177.44444444444446
107,794607,,,,,,,,0.890625,-0.5546875,-3.08203125,2.701171875,0.990234375,-0.275390625,23.28888888888889,5.288888888888891,177.44444444444446
108,794608,,,,,,,,0.890625,-0.5546875,-3.08203125,2.701171875,0.990234375,-0.275390625,23.28888888888889,5.288888888888891,177.44444444444446
109,794609,,,,,,,,0.890625,-0.5546875,-3.08203125,2.701171875,0.990234375,-0.275390625,23.28888888888889,5.288888888888891,177.44444444444446
110,794610,36.012839666666665,129.32206233333332,312.12613017545596,48.79062173489969,0.2,65535.0,,-1.26171875,1.2734375,1.3359375,2.6875,5.736328125,-0.8125,13.51111111111112,13.377777777777794,179.0
111,794611,,,,,,,,-1.26171875,1.2734375,1.3359375,2.6875,5.736328125,-0.8125,13.51111111111112,13.377777777777794,179.0
112,794612,,,,,,,,-1.26171875,1.2734375,1.3359375,2.6875,5.736328125,-0.8125,13.51111111111112,13.377777777777794,179.0
113,794613,,,,,,,,-0.97265625,1.1328125,1.3046875,2.708984375,5.140625,-0.75,11.800000000000011,14.188888888888869,178.83333333333334
114,794614,,,,,,,,-0.97265625,1.1328125,1.3046875,2.708984375,5.140625,-0.75,11.800000000000011,14.188888888888869,178.83333333333334
115,794615,,,,,,,,-0.97265625,1.1328125,1.3046875,2.708984375,5.140625,-0.75,11.800000000000011,14.188888888888869,178.83333333333334
116,794616,,,,,,,,-0.97265625,1.1328125,1.3046875,2.708984375,5.140625,-0.75,11.800000000000011,14.188888888888869,178.83333333333334
117,794617,,,,,,,,-0.97265625,1.1328125,1.3046875,2.708984375,5.140625,-0.75,11.800000000000011,14.188888888888869,178.83333333333334
118,794618,,,,,,,,0.90234375,-0.44921875,-3.46875,1.1015625,3.97265625,-0.59375,19.80000000000001,6.2222222222222285,177.72222222222223
119,794619,,,,,,,,0.90234375,-0.44921875,-3.46875,1.1015625,3.97265625,-0.59375,19.80000000000001,6.2222222222222285,177.72222222222223
120,794620,36.012840833333335,129.32206316666668,312.2012498001243,48.92007684967264,0.5,65535.0,,-0.90234375,0.90625,1.82421875,2.45703125,4.10546875,-0.642578125,9.044444444444423,15.677777777777806,178.53333333333333
121,794621,,,,,,,,-1.48828125,0.77734375,2.7109375,1.845703125,2.09765625,-0.275390625,7.2777777777777715,16.877777777777794,178.2888888888889
122,794622,,,,,,,,-2.13671875,0.421875,2.78125,0.822265625,-0.484375,0.375,6.855555555555554,17.633333333333326,178.13333333333333
123,794623,,,,,,,,-2.1875,0.03125,2.3828125,-0.47265625,-2.626953125,0.994140625,7.811111111111131,17.72222222222223,178.03333333333333
124,794624,,,,,,,,-2.33984375,-0.01171875,2.29296875,-1.595703125,-4.291015625,1.376953125,9.899999999999977,17.122222222222206,177.9777777777778
125,794625,,,,,,,,-2.28515625,0.16015625,1.7265625,-2.2578125,-5.478515625,1.44140625,12.822222222222194,16.02222222222224,178.01111111111112
126,794626,,,,,,,,-1.5234375,0.43359375,0.5390625,-2.435546875,-5.8828125,1.265625,16.088888888888903,14.744444444444468,178.13333333333333
127,794627,,,,,,,,-1.37109375,0.4375,-0.15625,-2.267578125,-5.376953125,0.9453125,19.25555555555553,13.48888888888888,178.32222222222222
128,794628,,,,,,,,-1.3359375,0.16015625,-0.83203125,-1.90625,-4.32421875,0.6015625,22.18888888888887,12.322222222222194,178.53333333333333
129,794629,,,,,,,,-1.1640625,-0.25,-1.63671875,-1.490234375,-3.01171875,0.3046875,24.27777777777777,11.433333333333337,178.74444444444444
130,794630,36.0128405,129.32206399999998,312.2763753375132,48.88309310706387,0.5,65535.0,,-0.140625,-0.2890625,-1.8359375,-1.015625,-1.55078125,0.005859375,25.611111111111086,10.777777777777771,178.93333333333334
131,794631,,,,,,,,0.140625,-0.26953125,-1.19921875,-0.412109375,-0.11328125,-0.2890625,26.055555555555543,10.46666666666664,179.12222222222223
132,794632,,,,,,,,0.26171875,-0.046875,-1.44921875,0.171875,1.072265625,-0.4453125,25.74444444444447,10.47777777777776,179.3111111111111
133,794633,,,,,,,,0.59765625,0.2109375,-2.1640625,0.578125,2.20703125,-0.529296875,24.78888888888889,10.733333333333348,179.42222222222222
134,794634,,,,,,,,0.33984375,0.203125,-1.453125,0.861328125,3.0546875,-0.58203125,23.24444444444447,11.166666666666686,179.45555555555555
135,794635,,,,,,,,0.21484375,0.28515625,-0.90234375,1.0625,3.498046875,-0.60546875,21.377777777777794,11.699999999999989,179.43333333333334
136,794636,,,,,,,,0.28515625,0.2734375,-0.61328125,1.25,3.775390625,-0.677734375,19.27777777777777,12.333333333333314,179.35555555555555
137,794637,,,,,,,,-0.515625,0.546875,0.59375,1.466796875,3.771484375,-0.66015625,17.100000000000023,13.077777777777783,179.25555555555556
138,794638,,,,,,,,-0.20703125,0.62109375,0.453125,1.62109375,3.560546875,-0.572265625,14.955555555555577,13.944444444444457,179.11111111111111
139,794639,,,,,,,,-0.32421875,0.6640625,0.4140625,1.56640625,3.01171875,-0.41796875,13.166666666666686,14.766666666666652,178.93333333333334
140,794640,36.01283983333334,129.32206466666668,312.33647734803975,48.80912241807809,0.4,65535.0,,-0.87109375,0.33984375,1.12890625,1.197265625,1.52734375,-0.150390625,11.844444444444434,15.544444444444423,178.74444444444444
141,794641,,,,,,,,-1.72265625,0.078125,3.2890625,0.50390625,-0.80078125,0.349609375,11.655555555555566,15.98888888888888,178.65555555555557
142,794642,,,,,,,,-1.58984375,0.32421875,2.8671875,-0.490234375,-3.126953125,1.099609375,12.911111111111097,15.97777777777776,178.55555555555554
143,794643,,,,,,,,-1.18359375,0.67578125,2.05859375,-1.6015625,-4.8671875,1.55859375,15.333333333333314,15.355555555555554,178.45555555555555
144,794644,,,,,,,,-1.0625,1.04296875,1.39453125,-2.267578125,-5.400390625,1.521484375,18.377777777777794,14.211111111111109,178.34444444444443
145,794645,,,,,,,,-0.60546875,0.75390625,0.23828125,-2.2734375,-4.548828125,1.146484375,21.28888888888889,12.911111111111097,178.27777777777777
146,794646,,,,,,,,-0.91796875,0.31640625,0.30859375,-1.837890625,-3.103515625,0.673828125,23.53333333333336,11.711111111111109,178.24444444444444
147,794647,,,,,,,,-1.3671875,-0.07421875,0.03515625,-1.3515625,-2.0,0.3359375,25.03333333333336,10.788888888888891,178.24444444444444
148,794648,,,,,,,,-0.9765625,-0.84375,-1.375,-1.048828125,-1.419921875,0.14453125,26.01111111111112,10.144444444444446,178.3111111111111
149,794649,,,,,,,,-0.3046875,-0.71875,-2.30078125,-0.91796875,-0.767578125,-0.076171875,26.633333333333326,9.622222222222206,178.4111111111111
150,794650,36.012839,129.3220655,312.4116048616019,48.71665905710561,0.4,65535.0,,0.16796875,-0.54296875,-3.02734375,-0.728515625,0.26953125,-0.2734375,26.76666666666665,9.211111111111109,178.56666666666666
151,794651,,,,,,,,0.5859375,-0.47265625,-3.375,-0.337890625,1.3515625,-0.40625,26.27777777777777,8.96666666666664,178.7
152,794652,,,,,,,,0.44140625,-0.40625,-3.30078125,0.23046875,2.337890625,-0.46484375,25.25555555555553,8.97777777777776,178.8
153,794653,,,,,,,,0.26953125,-0.4375,-2.6796875,0.837890625,3.1171875,-0.521484375,23.611111111111086,9.322222222222194,178.84444444444443
154,794654,,,,,,,,0.078125,-0.2109375,-1.87109375,1.3515625,3.615234375,-0.56640625,21.666666666666686,9.944444444444457,178.83333333333334
155,794655,,,,,,,,0.3671875,0.171875,-1.47265625,1.6796875,4.353515625,-0.662109375,19.366666666666674,10.788888888888891,178.77777777777777
156,794656,,,,,,,,0.0234375,0.98828125,-1.1328125,1.84375,5.580078125,-0.83203125,16.51111111111112,11.755555555555532,178.63333333333333
157,794657,,,,,,,,-0.2578125,1.17578125,-0.93359375,1.9609375,6.912109375,-1.017578125,13.088888888888903,12.733333333333348,178.4111111111111
158,794658,,,,,,,,-0.87890625,1.0625,0.6640625,2.275390625,7.5078125,-1.1015625,8.755555555555532,13.933333333333337,178.03333333333333
159,794659,,,,,,,,-4.3046875,0.20703125,4.85546875,2.69921875,6.34765625,-0.94140625,4.7555555555555316,15.322222222222194,177.6
160,794660,36.01283816666667,129.32206566666667,312.42663299522724,48.62419356007808,0.2,65535.0,,-4.296875,0.11328125,3.9453125,2.68359375,3.306640625,-0.443359375,2.0,16.844444444444434,177.23333333333332
161,794661,,,,,,,,-2.80078125,-0.390625,2.27734375,1.72265625,0.2890625,0.08203125,1.044444444444423,18.03333333333336,177.04444444444445
162,794662,,,,,,,,-2.41015625,-0.29296875,2.0078125,0.298828125,-1.7890625,0.546875,1.52222222222224,18.644444444444446,177.01111111111112
163,794663,,,,,,,,-2.98828125,0.4375,3.5703125,-1.09375,-3.837890625,1.04296875,3.1444444444444457,18.422222222222217,177.1
164,794664,,,,,,,,-2.875,0.8671875,3.74609375,-2.134765625,-6.017578125,1.546875,6.133333333333326,17.48888888888888,177.27777777777777
165,794665,,,,,,,,-2.125,1.41796875,3.578125,-2.71875,-7.37109375,1.720703125,10.088888888888903,16.122222222222206,177.5
166,794666,,,,,,,,-1.546875,1.75390625,2.8203125,-3.021484375,-7.908203125,1.53125,14.53333333333336,14.53333333333336,177.77777777777777
167,794667,,,,,,,,-0.44921875,1.65234375,-0.125,-3.18359375,-7.625,1.33203125,19.100000000000023,12.811111111111131,178.05555555555554
168,794668,,,,,,,,0.03515625,1.265625,-1.66796875,-3.197265625,-6.603515625,1.07421875,23.100000000000023,11.111111111111086,178.25555555555556
169,794669,,,,,,,,0.37890625,0.796875,-2.68359375,-3.03125,-5.021484375,0.748046875,26.355555555555554,9.411111111111097,178.34444444444443
170,794670,36.012839166666666,129.32206749999997,312.5919023412906,48.73515867785576,0.5,65535.0,,0.078125,0.1953125,-3.21875,-2.677734375,-3.4609375,0.49609375,28.877777777777794,7.7333333333333485,178.36666666666667
171,794671,,,,,,,,-0.1171875,-0.7734375,-4.3359375,-2.185546875,-2.076171875,0.310546875,30.46666666666664,6.322222222222194,178.33333333333334
172,794672,,,,,,,,-0.30859375,-0.9921875,-4.671875,-1.552734375,-0.580078125,0.138671875,31.23333333333335,5.2333333333333485,178.2888888888889
173,794673,,,,,,,,-0.515625,-1.1171875,-4.49609375,-0.779296875,1.08203125,0.015625,31.100000000000023,4.53333333333336,178.23333333333332
174,794674,,,,,,,,-0.22265625,-1.44140625,-3.37890625,0.197265625,3.04296875,-0.177734375,29.944444444444457,4.344444444444434,178.2
175,794675,,,,,,,,-0.53125,-1.01953125,-3.14453125,1.296875,4.99609375,-0.3515625,27.611111111111086,4.7666666666666515,178.17777777777778
176,794676,,,,,,,,-0.44140625,-0.42578125,-3.2578125,2.23046875,6.767578125,-0.501953125,24.25555555555553,5.7444444444444684,178.11111111111111
177,794677,,,,,,,,-0.4921875,-0.09375,-2.6875,2.9375,8.142578125,-0.6875,20.18888888888887,7.111111111111086,177.9777777777778
178,794678,,,,,,,,-2.19921875,-0.03125,1.37109375,3.57421875,8.6015625,-0.873046875,15.366666666666674,8.911111111111097,177.75555555555556
179,794679,,,,,,,,-3.34375,-0.0078125,4.74609375,4.30859375,7.06640625,-0.875,10.711111111111109,11.199999999999989,177.45555555555555
180,794680,36.01283866666667,129.32206816666667,312.6520036991025,48.67968119594863,0.5,65535.0,,-2.93359375,0.8203125,4.79296875,4.779296875,4.568359375,-0.6015625,7.355555555555554,13.766666666666652,177.15555555555557
181,794681,,,,,,,,-1.6015625,1.4296875,3.23046875,4.443359375,2.58203125,-0.267578125,5.333333333333314,16.344444444444434,176.87777777777777
182,794682,,,,,,,,-0.90234375,1.5390625,2.59765625,3.177734375,0.6796875,-0.00390625,4.422222222222217,18.544444444444423,176.67777777777778
183,794683,,,,,,,,-0.6953125,1.52734375,2.9296875,1.345703125,-1.06640625,0.326171875,4.544444444444423,19.77777777777777,176.64444444444445
184,794684,,,,,,,,-1.6328125,1.53515625,3.734375,-0.578125,-2.99609375,0.923828125,5.800000000000011,20.01111111111112,176.7111111111111
185,794685,,,,,,,,-1.47265625,1.3671875,4.0390625,-2.20703125,-5.251953125,1.556640625,8.255555555555532,19.23333333333335,176.85555555555555
186,794686,,,,,,,,-1.22265625,1.87890625,3.17578125,-3.27734375,-7.115234375,1.92578125,11.888888888888914,17.71111111111111,177.04444444444445
187,794687,,,,,,,,-0.88671875,1.97265625,1.25390625,-3.83203125,-7.873046875,1.94140625,16.333333333333314,15.699999999999989,177.23333333333332
188,794688,,,,,,,,-0.2578125,1.98828125,-0.63671875,-4.01171875,-7.2265625,1.626953125,20.75555555555553,13.5,177.35555555555555
189,794689,,,,,,,,0.30859375,0.36328125,-2.9765625,-3.828125,-5.546875,1.150390625,24.30000000000001,11.355555555555554,177.37777777777777
190,794690,36.012838,129.32206883333336,312.71210571641546,48.60571050995123,0.4,65535.0,,-0.265625,-0.19921875,-2.9921875,-3.33203125,-3.732421875,0.662109375,27.077777777777783,9.233333333333348,177.34444444444443
191,794691,,,,,,,,-1.03125,-0.73046875,-2.703125,-2.578125,-2.251953125,0.333984375,28.81111111111113,7.52222222222224,177.32222222222222
192,794692,,,,,,,,-1.35546875,-1.30859375,-2.92578125,-1.728515625,-1.0078125,0.134765625,29.74444444444447,6.2777777777777715,177.3111111111111
193,794693,,,,,,,,-1.34765625,-1.61328125,-3.5703125,-0.916015625,0.23828125,-0.01953125,29.96666666666664,5.51111111111112,177.32222222222222
194,794694,,,,,,,,-1.1171875,-1.62109375,-3.1953125,-0.0390625,1.49609375,-0.189453125,29.46666666666664,5.2555555555555316,177.34444444444443
195,794695,,,,,,,,-1.3671875,-1.55078125,-2.20703125,0.888671875,2.599609375,-0.3125,28.30000000000001,5.52222222222224,177.38888888888889
196,794696,,,,,,,,-1.796875,-0.94921875,-0.83984375,1.63671875,3.328125,-0.4375,26.588888888888903,6.2666666666666515,177.45555555555555
197,794697,,,,,,,,-2.14453125,-0.4375,0.15234375,2.140625,3.4765625,-0.546875,24.622222222222206,7.377777777777794,177.5222222222222
198,794698,,,,,,,,-1.6015625,-0.015625,0.62109375,2.484375,3.412109375,-0.541015625,22.633333333333326,8.722222222222229,177.56666666666666
199,794699,,,,,,,,-1.02734375,0.33984375,1.1171875,2.75,3.40234375,-0.505859375,20.677777777777806,10.199999999999989,177.54444444444445
200,794700,36.012836666666665,129.322069,312.7271358256239,48.45776539262969,0.30000000000000004,65535.0,166.0,-0.265625,-0.19921875,-2.9921875,2.951171875,3.306640625,-0.435546875,27.077777777777783,9.233333333333348,177.34444444444443
201,794701,,,,,,,,-0.265625,-0.19921875,-2.9921875,2.951171875,3.306640625,-0.435546875,27.077777777777783,9.233333333333348,177.34444444444443
202,794702,,,,,,,,-0.265625,-0.19921875,-2.9921875,2.951171875,3.306640625,-0.435546875,27.077777777777783,9.233333333333348,177.34444444444443
203,794703,,,,,,,,-0.265625,-0.19921875,-2.9921875,2.951171875,3.306640625,-0.435546875,27.077777777777783,9.233333333333348,177.34444444444443
204,794704,,,,,,,,-0.265625,-0.19921875,-2.9921875,2.951171875,3.306640625,-0.435546875,27.077777777777783,9.233333333333348,177.34444444444443
205,794705,,,,,,,,-0.265625,-0.19921875,-2.9921875,2.951171875,3.306640625,-0.435546875,27.077777777777783,9.233333333333348,177.34444444444443
206,794706,,,,,,,,-0.265625,-0.19921875,-2.9921875,2.951171875,3.306640625,-0.435546875,27.077777777777783,9.233333333333348,177.34444444444443
207,794707,,,,,,,,-0.265625,-0.19921875,-2.9921875,2.951171875,3.306640625,-0.435546875,27.077777777777783,9.233333333333348,177.34444444444443
208,794708,,,,,,,,-0.265625,-0.19921875,-2.9921875,2.951171875,3.306640625,-0.435546875,27.077777777777783,9.233333333333348,177.34444444444443
209,794709,,,,,,,,-0.265625,-0.19921875,-2.9921875,2.951171875,3.306640625,-0.435546875,27.077777777777783,9.233333333333348,177.34444444444443
210,794710,36.012835833333334,129.3220695,312.7722136535955,48.365300965620335,0.2,65535.0,,-1.296875,-0.578125,-0.07421875,1.5,2.369140625,-0.08203125,26.30000000000001,7.866666666666674,177.2888888888889
211,794711,,,,,,,,-1.296875,-0.578125,-0.07421875,1.5,2.369140625,-0.08203125,26.30000000000001,7.866666666666674,177.2888888888889
212,794712,,,,,,,,-1.296875,-0.578125,-0.07421875,1.5,2.369140625,-0.08203125,26.30000000000001,7.866666666666674,177.2888888888889
213,794713,,,,,,,,-1.296875,-0.578125,-0.07421875,1.5,2.369140625,-0.08203125,26.30000000000001,7.866666666666674,177.2888888888889
214,794714,,,,,,,,-1.296875,-0.578125,-0.07421875,1.5,2.369140625,-0.08203125,26.30000000000001,7.866666666666674,177.2888888888889
215,794715,,,,,,,,-1.03125,-0.73046875,-2.703125,-2.578125,-2.251953125,0.333984375,28.81111111111113,7.52222222222224,177.32222222222222
216,794716,,,,,,,,-1.03125,-0.73046875,-2.703125,-2.578125,-2.251953125,0.333984375,28.81111111111113,7.52222222222224,177.32222222222222
217,794717,,,,,,,,-1.03125,-0.73046875,-2.703125,-2.578125,-2.251953125,0.333984375,28.81111111111113,7.52222222222224,177.32222222222222
218,794718,,,,,,,,-1.03125,-0.73046875,-2.703125,-2.578125,-2.251953125,0.333984375,28.81111111111113,7.52222222222224,177.32222222222222
219,794719,,,,,,,,-1.03125,-0.73046875,-2.703125,-2.578125,-2.251953125,0.333984375,28.81111111111113,7.52222222222224,177.32222222222222
220,794720,36.0128355,129.3220695,312.7722149704977,48.32831455269736,0.1,65535.0,,-1.0703125,-0.75,-0.16015625,2.40234375,3.017578125,-0.2890625,24.822222222222194,8.888888888888914,177.16666666666666
221,794721,,,,,,,,-0.4765625,-0.1953125,0.24609375,2.86328125,3.814453125,-0.3984375,22.76666666666665,10.399999999999977,177.01111111111112
222,794722,,,,,,,,-1.11328125,0.6640625,1.546875,3.423828125,4.345703125,-0.51953125,20.46666666666664,12.100000000000023,176.82222222222222
223,794723,,,,,,,,-1.25,0.8515625,1.94921875,3.947265625,4.2734375,-0.630859375,17.96666666666664,14.144444444444446,176.57777777777778
224,794724,,,,,,,,-0.73828125,0.75,1.63671875,4.21484375,3.619140625,-0.767578125,15.800000000000011,16.322222222222194,176.37777777777777
225,794725,,,,,,,,0.07421875,0.4296875,0.984375,3.87890625,2.5,-1.01171875,13.877777777777794,18.74444444444447,176.34444444444443
226,794726,,,,,,,,0.69140625,0.35546875,0.51953125,2.8203125,1.2109375,-1.15234375,12.733333333333348,20.622222222222206,176.5888888888889
227,794727,,,,,,,,0.67578125,0.6796875,1.1875,1.3125,0.12890625,-0.849609375,12.133333333333326,21.955555555555577,177.01111111111112
228,794728,,,,,,,,0.421875,1.12890625,1.71875,-0.384765625,-1.119140625,-0.21484375,12.277777777777771,22.31111111111113,177.43333333333334
229,794729,,,,,,,,-0.0546875,1.453125,2.67578125,-1.853515625,-2.732421875,0.49609375,13.322222222222194,21.74444444444447,177.7888888888889
230,794730,36.012836166666666,129.3220705,312.8623614112372,48.40229058910205,0.2,65535.0,,0.56640625,1.71875,2.4765625,-2.884765625,-4.3828125,1.134765625,15.377777777777794,20.47777777777776,178.1
231,794731,,,,,,,,0.75,2.0,1.05078125,-3.626953125,-5.443359375,1.61328125,18.26666666666665,18.677777777777806,178.32222222222222
232,794732,,,,,,,,0.76171875,2.1328125,-0.3046875,-4.16015625,-5.5234375,1.83203125,21.53333333333336,16.455555555555577,178.33333333333334
233,794733,,,,,,,,1.203125,0.8828125,-2.78515625,-4.548828125,-4.634765625,1.6640625,24.577777777777783,13.877777777777794,178.12222222222223
234,794734,,,,,,,,0.4765625,0.38671875,-3.2109375,-4.755859375,-3.283203125,1.22265625,26.844444444444434,11.199999999999989,177.8
235,794735,,,,,,,,-0.5390625,-0.03515625,-2.8984375,-4.658203125,-1.98828125,0.7734375,28.47777777777776,8.222222222222229,177.44444444444446
236,794736,,,,,,,,-1.20703125,-0.6328125,-2.4140625,-4.173828125,-1.064453125,0.4453125,29.377777777777794,5.577777777777783,177.1888888888889
237,794737,,,,,,,,-1.76171875,-1.421875,-2.0625,-3.361328125,-0.4296875,0.2421875,29.78888888888889,3.433333333333337,177.0222222222222
238,794738,,,,,,,,-1.9609375,-1.5078125,-1.80078125,-2.30859375,0.23046875,0.193359375,29.844444444444434,1.6666666666666856,176.88888888888889
239,794739,,,,,,,,-2.02734375,-1.69921875,-1.14453125,-1.03125,1.01953125,0.287109375,29.48888888888888,0.6333333333333258,176.73333333333332
240,794740,36.012836666666665,129.32207216666666,313.0126078896475,48.457775559715195,0.6000000000000001,65535.0,,-2.0546875,-1.95703125,-0.75390625,0.310546875,1.884765625,0.419921875,28.655555555555566,0.32222222222219443,176.5
241,794741,,,,,,,,-2.00390625,-1.4765625,-1.046875,1.4375,2.791015625,0.53125,27.30000000000001,0.6777777777778056,176.1888888888889
242,794742,,,,,,,,-1.6484375,-1.109375,-1.06640625,2.220703125,3.68359375,0.546875,25.47777777777776,1.544444444444423,175.82222222222222
243,794743,,,,,,,,-1.2890625,-0.77734375,-0.5625,2.75390625,4.36328125,0.45703125,23.19999999999999,2.8000000000000114,175.4111111111111
244,794744,,,,,,,,-0.875,-0.484375,0.41796875,3.2265625,4.64453125,0.322265625,20.76666666666665,4.2777777777777715,175.03333333333333
245,794745,,,,,,,,-0.3671875,-0.23046875,3.1328125,3.65625,4.166015625,0.162109375,18.155555555555566,6.199999999999989,174.63333333333333
246,794746,,,,,,,,-0.36328125,0.0,3.96875,3.888671875,2.744140625,-0.025390625,16.177777777777806,8.300000000000011,174.34444444444443
247,794747,,,,,,,,-0.51953125,0.921875,2.59765625,3.560546875,1.2578125,-0.123046875,15.044444444444423,10.388888888888914,174.2
248,794748,,,,,,,,0.515625,0.80859375,-0.08203125,2.462890625,0.361328125,-0.19921875,14.588888888888903,12.044444444444423,174.2111111111111
249,794749,,,,,,,,0.68359375,0.37890625,0.21484375,0.880859375,-0.185546875,-0.3515625,14.5,13.066666666666663,174.37777777777777
250,794750,36.01283683333334,129.32207316666666,313.10275630472813,48.47627198000853,0.6000000000000001,65535.0,,0.60546875,0.3984375,0.4140625,-0.80078125,-0.8515625,-0.4296875,14.733333333333348,13.177777777777806,174.67777777777778
251,794751,,,,,,,,-0.24609375,0.48828125,1.49609375,-2.1953125,-2.123046875,-0.251953125,15.51111111111112,12.422222222222217,175.0888888888889
252,794752,,,,,,,,-1.109375,1.6484375,1.3671875,-3.076171875,-3.41796875,0.271484375,17.03333333333336,11.01111111111112,175.42222222222222
253,794753,,,,,,,,-0.6328125,1.69140625,0.109375,-3.578125,-3.892578125,0.802734375,19.133333333333326,9.133333333333326,175.5
254,794754,,,,,,,,-0.1015625,1.6015625,-0.85546875,-3.875,-3.51953125,1.087890625,21.31111111111113,6.899999999999977,175.25555555555556
255,794755,,,,,,,,0.09765625,0.7734375,-1.390625,-3.98046875,-2.845703125,1.15625,23.177777777777806,4.455555555555577,174.75555555555556
256,794756,,,,,,,,-0.16796875,0.55078125,-1.578125,-3.94921875,-2.19921875,1.15625,24.644444444444446,1.944444444444457,174.14444444444445
257,794757,,,,,,,,-0.1015625,-0.1015625,-1.28515625,-3.7421875,-1.716796875,1.087890625,25.75555555555553,-0.5555555555555429,173.45555555555555
258,794758,,,,,,,,0.03515625,-0.75390625,-0.90234375,-3.21484375,-1.376953125,0.890625,26.611111111111086,-2.8000000000000114,172.8111111111111
259,794759,,,,,,,,0.41015625,-1.61328125,-0.80078125,-2.310546875,-0.828125,0.625,27.18888888888887,-4.577777777777783,172.3111111111111
260,794760,36.012836666666665,129.32207366666668,313.14783150151646,48.45778037899844,0.5,65535.0,,0.25390625,-1.6328125,-0.81640625,-1.193359375,-0.046875,0.41796875,27.399999999999977,-5.7333333333333485,171.95555555555555
261,794761,,,,,,,,0.140625,-1.6328125,-0.70703125,-0.056640625,0.857421875,0.310546875,27.133333333333326,-6.199999999999989,171.75555555555556
262,794762,,,,,,,,0.04296875,-1.38671875,-0.76953125,0.939453125,1.8359375,0.341796875,26.344444444444434,-6.0,171.64444444444445
263,794763,,,,,,,,-0.4140625,-0.80078125,-0.26953125,1.6796875,2.58203125,0.435546875,25.044444444444423,-5.2777777777777715,171.54444444444445
264,794764,,,,,,,,-0.20703125,-0.609375,0.08203125,2.203125,2.884765625,0.48828125,23.47777777777776,-4.2333333333333485,171.4111111111111
265,794765,,,,,,,,-0.15234375,-0.59765625,0.34765625,2.533203125,2.822265625,0.533203125,21.844444444444434,-2.96666666666664,171.22222222222223
266,794766,,,,,,,,-0.25390625,-0.58984375,0.4453125,2.681640625,2.423828125,0.572265625,20.333333333333314,-1.5777777777777828,170.95555555555555
267,794767,,,,,,,,-0.625,-0.23828125,0.52734375,2.69921875,1.814453125,0.560546875,19.100000000000023,-0.1222222222222058,170.64444444444445
268,794768,,,,,,,,-0.359375,-0.24609375,0.40625,2.66796875,1.375,0.4453125,18.19999999999999,1.3111111111111313,170.34444444444443
269,794769,,,,,,,,-0.3359375,-0.171875,0.87890625,2.63671875,1.001953125,0.279296875,17.52222222222224,2.7444444444444684,170.11111111111111
270,794770,36.012836,129.32207400000001,313.17788383123855,48.38380862509619,0.30000000000000004,65535.0,,-0.41796875,0.375,0.71875,2.478515625,0.564453125,0.1171875,17.100000000000023,4.100000000000023,169.9777777777778
271,794771,,,,,,,,-0.33984375,0.31640625,0.23046875,2.048828125,0.236328125,-0.02734375,16.855555555555554,5.444444444444457,169.94444444444446
272,794772,,,,,,,,-0.28125,0.4296875,0.0546875,1.34375,0.080078125,-0.091796875,16.75555555555553,6.433333333333337,169.96666666666667
273,794773,,,,,,,,-0.171875,0.421875,-0.0546875,0.400390625,-0.314453125,-0.099609375,16.81111111111113,6.955555555555577,170.04444444444445
274,794774,,,,,,,,0.109375,-0.03125,0.078125,-0.728515625,-1.146484375,-0.09765625,17.19999999999999,6.899999999999977,170.16666666666666
275,794775,,,,,,,,0.05078125,-0.25,0.69140625,-1.892578125,-2.42578125,-0.076171875,18.24444444444447,6.166666666666686,170.35555555555555
276,794776,,,,,,,,-0.45703125,0.34375,1.296875,-2.876953125,-3.806640625,0.0703125,19.97777777777776,4.877777777777794,170.54444444444445
277,794777,,,,,,,,-0.328125,1.0234375,0.41796875,-3.56640625,-4.23828125,0.2734375,22.27777777777777,3.066666666666663,170.62222222222223
278,794778,,,,,,,,0.0546875,1.3359375,-0.98046875,-3.90234375,-3.630859375,0.3828125,24.53333333333336,0.8555555555555543,170.51111111111112
279,794779,,,,,,,,-0.4453125,1.37890625,-0.97265625,-3.875,-2.62890625,0.412109375,26.31111111111113,-1.47777777777776,170.25555555555556
280,794780,36.012835333333335,129.32207449999999,313.22296100246416,48.30983740658117,0.30000000000000004,65535.0,,-0.59765625,0.94921875,-0.671875,-3.572265625,-1.79296875,0.390625,27.544444444444423,-3.7333333333333485,169.94444444444446
281,794781,,,,,,,,-0.1171875,-0.62890625,0.07421875,-3.048828125,-1.359375,0.30078125,28.422222222222217,-5.7666666666666515,169.64444444444445
282,794782,,,,,,,,-0.1484375,-0.76171875,-0.0390625,-2.412109375,-1.21875,0.248046875,29.122222222222206,-7.47777777777776,169.37777777777777
283,794783,,,,,,,,-0.14453125,-0.69140625,-0.2734375,-1.6953125,-0.91015625,0.294921875,29.69999999999999,-8.788888888888891,169.12222222222223
284,794784,,,,,,,,-0.07421875,-0.765625,-0.3046875,-0.927734375,-0.263671875,0.396484375,29.98888888888888,-9.666666666666686,168.84444444444443
285,794785,,,,,,,,-0.17578125,-0.84765625,-0.265625,-0.19921875,0.587890625,0.51171875,29.855555555555554,-10.111111111111086,168.5888888888889
286,794786,,,,,,,,-0.2734375,-0.75390625,-0.12109375,0.46484375,1.4140625,0.63671875,29.23333333333335,-10.155555555555566,168.34444444444443
287,794787,,,,,,,,-0.30859375,-0.7109375,-0.015625,1.046875,1.966796875,0.74609375,28.166666666666686,-9.833333333333314,168.0888888888889
288,794788,,,,,,,,-0.15625,-0.75,0.05859375,1.5390625,2.265625,0.802734375,26.899999999999977,-9.211111111111109,167.83333333333334
289,794789,,,,,,,,-0.16015625,-0.75390625,0.62890625,1.986328125,2.41796875,0.837890625,25.48888888888888,-8.322222222222194,167.54444444444445
290,794790,36.01283466666666,129.322075,313.26803817939197,48.23586618730698,0.30000000000000004,65535.0,,-0.1015625,-0.83984375,0.96484375,2.375,2.26953125,0.81640625,24.100000000000023,-7.211111111111109,167.24444444444444
291,794791,,,,,,,,-0.375,-0.52734375,1.140625,2.642578125,1.771484375,0.7421875,22.899999999999977,-5.899999999999977,166.92222222222222
292,794792,,,,,,,,-0.734375,0.1328125,0.6484375,2.75,1.15625,0.662109375,22.02222222222224,-4.5,166.56666666666666
293,794793,,,,,,,,-0.578125,0.14453125,0.06640625,2.69140625,0.72265625,0.548828125,21.46666666666664,-3.077777777777783,166.25555555555556
294,794794,,,,,,,,-0.4765625,0.171875,-0.38671875,2.44921875,0.484375,0.427734375,21.122222222222206,-1.7666666666666515,165.98888888888888
295,794795,,,,,,,,-0.5546875,0.2421875,-0.90234375,1.962890625,0.359375,0.376953125,20.866666666666674,-0.544444444444423,165.75555555555556
296,794796,,,,,,,,-0.17578125,0.28125,-0.9921875,1.20703125,0.181640625,0.32421875,20.71111111111111,0.25555555555553156,165.55555555555554
297,794797,,,,,,,,-0.03125,-0.08984375,-0.91015625,0.134765625,-0.255859375,0.169921875,20.72222222222223,0.6111111111110858,165.4111111111111
298,794798,,,,,,,,-0.421875,-0.08203125,-0.5859375,-1.01171875,-0.798828125,0.107421875,21.02222222222224,0.3333333333333144,165.34444444444443
299,794799,,,,,,,,-0.76953125,0.13671875,-0.2578125,-1.890625,-1.044921875,0.28125,21.544444444444423,-0.544444444444423,165.23333333333332
300,794800,36.01283433333333,129.32207516666668,313.2830643436303,48.198880310124885,0.1,65535.0,166.0,-0.1015625,-0.83984375,0.96484375,-2.3828125,-1.001953125,0.51171875,24.100000000000023,-7.211111111111109,167.24444444444444
301,794801,,,,,,,,-0.1015625,-0.83984375,0.96484375,-2.3828125,-1.001953125,0.51171875,24.100000000000023,-7.211111111111109,167.24444444444444
302,794802,,,,,,,,-0.1015625,-0.83984375,0.96484375,-2.3828125,-1.001953125,0.51171875,24.100000000000023,-7.211111111111109,167.24444444444444
303,794803,,,,,,,,-0.1015625,-0.83984375,0.96484375,-2.3828125,-1.001953125,0.51171875,24.100000000000023,-7.211111111111109,167.24444444444444
304,794804,,,,,,,,-0.1015625,-0.83984375,0.96484375,-2.3828125,-1.001953125,0.51171875,24.100000000000023,-7.211111111111109,167.24444444444444
305,794805,,,,,,,,-0.1015625,-0.83984375,0.96484375,-2.3828125,-1.001953125,0.51171875,24.100000000000023,-7.211111111111109,167.24444444444444
306,794806,,,,,,,,-0.1015625,-0.83984375,0.96484375,-2.3828125,-1.001953125,0.51171875,24.100000000000023,-7.211111111111109,167.24444444444444
307,794807,,,,,,,,-0.1015625,-0.83984375,0.96484375,-2.3828125,-1.001953125,0.51171875,24.100000000000023,-7.211111111111109,167.24444444444444
308,794808,,,,,,,,-0.1015625,-0.83984375,0.96484375,-2.3828125,-1.001953125,0.51171875,24.100000000000023,-7.211111111111109,167.24444444444444
309,794809,,,,,,,,-0.1015625,-0.83984375,0.96484375,-2.3828125,-1.001953125,0.51171875,24.100000000000023,-7.211111111111109,167.24444444444444
310,794810,36.012833500000006,129.32207566666665,313.32814217904354,48.106415887648915,0.1,65535.0,,-0.14453125,-0.49609375,0.21875,2.26171875,1.681640625,0.634765625,20.544444444444423,-8.98888888888888,160.13333333333333
311,794811,,,,,,,,-0.55078125,-0.4140625,0.41015625,2.421875,1.29296875,0.478515625,19.655555555555566,-7.7222222222222285,159.94444444444446
312,794812,,,,,,,,-0.55078125,-0.4140625,0.41015625,2.421875,1.29296875,0.478515625,19.655555555555566,-7.7222222222222285,159.94444444444446
313,794813,,,,,,,,-0.70703125,-0.48046875,0.26953125,2.529296875,0.837890625,0.275390625,19.01111111111112,-6.344444444444434,159.8
314,794814,,,,,,,,-0.875,-0.31640625,-0.421875,2.5078125,0.572265625,0.076171875,18.611111111111086,-4.97777777777776,159.75555555555556
315,794815,,,,,,,,-0.859375,-0.08203125,-0.8359375,2.298828125,0.630859375,-0.1171875,18.25555555555553,-3.53333333333336,159.8
316,794816,,,,,,,,-0.859375,-0.08203125,-0.8359375,2.298828125,0.630859375,-0.1171875,18.25555555555553,-3.53333333333336,159.8
317,794817,,,,,,,,-1.25,0.78515625,-0.484375,1.94921875,0.67578125,-0.23828125,17.888888888888914,-2.2888888888888914,159.94444444444446
318,794818,,,,,,,,-1.00390625,0.8515625,-0.4296875,1.49609375,0.63671875,-0.306640625,17.51111111111112,-1.2444444444444684,160.13333333333333
319,794819,,,,,,,,-1.00390625,0.8515625,-0.4296875,1.49609375,0.63671875,-0.306640625,17.51111111111112,-1.2444444444444684,160.13333333333333
320,794820,36.01283283333333,129.32207583333332,313.34316966290476,48.032443596428166,0.0,65535.0,,-0.90234375,1.23046875,-0.63671875,0.94140625,0.58984375,-0.296875,17.155555555555566,-0.4777777777777601,160.33333333333334
321,794821,,,,,,,,-0.78515625,1.28515625,-0.34765625,0.279296875,0.380859375,-0.154296875,16.866666666666674,-0.08888888888890278,160.4777777777778
322,794822,,,,,,,,0.5234375,0.09765625,0.765625,-0.43359375,-0.17578125,-0.017578125,16.81111111111113,-0.11111111111108585,160.53333333333333
323,794823,,,,,,,,1.28125,-0.0859375,0.16796875,-1.345703125,-0.923828125,-0.064453125,17.133333333333326,-0.6333333333333258,160.56666666666666
324,794824,,,,,,,,1.1328125,0.125,-0.0703125,-2.3828125,-1.478515625,-0.080078125,17.81111111111113,-1.6999999999999886,160.61111111111111
325,794825,,,,,,,,0.671875,0.8046875,0.453125,-3.25390625,-1.9453125,0.169921875,18.77777777777777,-3.3222222222221944,160.55555555555554
326,794826,,,,,,,,0.37109375,1.8359375,-0.3046875,-3.9296875,-2.2734375,0.6328125,19.96666666666664,-5.51111111111112,160.22222222222223
327,794827,,,,,,,,0.48046875,1.890625,-0.80078125,-4.421875,-2.244140625,1.08203125,21.177777777777806,-8.133333333333326,159.54444444444445
328,794828,,,,,,,,0.66015625,1.43359375,-0.78125,-4.673828125,-1.9921875,1.265625,22.19999999999999,-10.944444444444457,158.66666666666666
329,794829,,,,,,,,0.296875,-0.015625,-0.359375,-4.60546875,-1.703125,1.162109375,23.122222222222206,-14.111111111111086,157.65555555555557
330,794830,36.012833,129.32207666666667,313.4182932381527,48.050939482744106,0.1,65535.0,,-0.23828125,-0.09765625,-0.15625,0.94140625,0.58984375,-0.296875,17.155555555555566,-0.4777777777777601,160.33333333333334
331,794831,,,,,,,,-0.73828125,-0.27734375,-0.0078125,-3.529296875,-1.017578125,0.59765625,24.31111111111113,-19.455555555555577,156.13333333333333
332,794832,,,,,,,,-1.17578125,-0.421875,0.04296875,-2.611328125,-0.6953125,0.34765625,24.666666666666686,-21.411111111111097,155.66666666666666
333,794833,,,,,,,,-1.3984375,-1.0625,0.5859375,-1.482421875,-0.390625,0.173828125,24.877777777777794,-22.633333333333326,155.42222222222222
334,794834,,,,,,,,-1.22265625,-1.40625,1.1171875,-0.171875,-0.009765625,0.1328125,24.944444444444457,-23.166666666666686,155.2888888888889
335,794835,,,,,,,,-0.96484375,-1.71484375,1.93359375,1.24609375,0.3125,0.16015625,24.822222222222194,-22.866666666666674,155.25555555555556
336,794836,,,,,,,,-0.80859375,-1.75390625,2.30859375,2.5625,0.666015625,0.220703125,24.51111111111112,-21.75555555555553,155.26666666666668
337,794837,,,,,,,,-1.0,-0.53515625,1.953125,3.515625,0.9765625,0.267578125,24.03333333333336,-20.01111111111112,155.32222222222222
338,794838,,,,,,,,-0.875,-0.34765625,2.07421875,4.123046875,0.953125,0.19921875,23.455555555555577,-17.80000000000001,155.38888888888889
339,794839,,,,,,,,-0.8359375,-0.25,1.89453125,4.427734375,0.681640625,0.05078125,22.98888888888888,-15.333333333333314,155.46666666666667
340,794840,36.012832333333336,129.32207699999998,313.4483455667631,47.97696772924057,0.1,65535.0,,-0.47265625,0.171875,0.25390625,4.361328125,0.4609375,-0.12890625,22.666666666666686,-12.766666666666652,155.5888888888889
341,794841,,,,,,,,-0.25,0.41015625,-0.9140625,3.896484375,0.435546875,-0.328125,22.433333333333337,-10.311111111111131,155.7888888888889
342,794842,,,,,,,,-0.17578125,0.46484375,-1.78125,3.103515625,0.630859375,-0.546875,22.166666666666686,-8.199999999999989,156.12222222222223
343,794843,,,,,,,,-0.5390625,0.484375,-1.7890625,2.14453125,0.701171875,-0.6484375,21.833333333333314,-6.53333333333336,156.55555555555554
344,794844,,,,,,,,-1.0234375,1.125,-1.484375,1.177734375,0.484375,-0.5703125,21.544444444444423,-5.47777777777776,156.95555555555555
345,794845,,,,,,,,-0.53125,0.6953125,-1.46875,0.294921875,0.26953125,-0.439453125,21.333333333333314,-4.922222222222217,157.3111111111111
346,794846,,,,,,,,-0.25390625,0.03515625,-0.73828125,-0.365234375,0.029296875,-0.3359375,21.26666666666665,-4.844444444444434,157.57777777777778
347,794847,,,,,,,,-0.00390625,-0.203125,0.2265625,-0.69140625,-0.400390625,-0.244140625,21.377777777777794,-5.077777777777783,157.75555555555556
348,794848,,,,,,,,0.70703125,0.51171875,-0.125,-0.94140625,-0.98046875,-0.2421875,21.77777777777777,-5.51111111111112,157.87777777777777
349,794849,,,,,,,,0.40625,0.7265625,-0.26171875,-1.373046875,-1.458984375,-0.287109375,22.47777777777776,-6.133333333333326,157.96666666666667
350,794850,36.01283216666666,129.32207733333334,313.4783959210015,47.958475594363335,0.0,65535.0,,0.19140625,0.5859375,0.07421875,4.361328125,0.4609375,-0.12890625,23.344444444444434,-7.01111111111112,158.0222222222222
351,794851,,,,,,,,0.5546875,0.671875,-0.26953125,-1.994140625,-1.390625,0.01171875,24.19999999999999,-8.122222222222206,157.96666666666667
352,794852,,,,,,,,0.453125,1.3203125,-0.58984375,-2.07421875,-0.962890625,0.27734375,24.844444444444434,-9.377777777777794,157.77777777777777
353,794853,,,,,,,,0.16796875,1.515625,-0.296875,-2.115234375,-0.59375,0.607421875,25.23333333333335,-10.722222222222229,157.43333333333334
354,794854,,,,,,,,-0.015625,0.99609375,0.1015625,-2.111328125,-0.48828125,0.916015625,25.444444444444457,-12.144444444444446,156.9111111111111
355,794855,,,,,,,,-0.15234375,-0.1328125,0.39453125,-2.048828125,-0.52734375,1.076171875,25.588888888888903,-13.588888888888903,156.24444444444444
356,794856,,,,,,,,-0.26171875,-0.14453125,0.58203125,-1.896484375,-0.591796875,1.0703125,25.73333333333335,-15.077777777777783,155.48888888888888
357,794857,,,,,,,,-0.3984375,-0.18359375,0.796875,-1.603515625,-0.630859375,0.96484375,25.911111111111097,-16.399999999999977,154.77777777777777
358,794858,,,,,,,,-0.30859375,-0.2734375,0.8125,-1.1796875,-0.583984375,0.83203125,26.088888888888903,-17.47777777777776,154.12222222222223
359,794859,,,,,,,,-0.40625,-0.43359375,0.74609375,-0.66796875,-0.4140625,0.74609375,26.22222222222223,-18.28888888888889,153.53333333333333
360,794860,36.01283183333333,129.32207783333334,313.5234717790954,47.92149079040348,0.1,65535.0,,-0.25390625,-0.79296875,0.76171875,-0.0703125,-0.037109375,0.69921875,26.21111111111111,-18.69999999999999,153.07777777777778
361,794861,,,,,,,,-0.21484375,-1.20703125,0.78515625,0.578125,0.55078125,0.58984375,25.944444444444457,-18.69999999999999,152.75555555555556
362,794862,,,,,,,,-0.359375,-1.26171875,0.73046875,1.185546875,1.0546875,0.384765625,25.411111111111097,-18.24444444444447,152.63333333333333
363,794863,,,,,,,,-0.91015625,-0.41015625,1.03515625,1.662109375,1.189453125,0.099609375,24.76666666666665,-17.399999999999977,152.7111111111111
364,794864,,,,,,,,-1.0546875,-0.18359375,0.9765625,1.98828125,0.822265625,-0.173828125,24.21111111111111,-16.27777777777777,152.93333333333334
365,794865,,,,,,,,-0.8984375,-0.265625,0.48828125,2.1640625,0.31640625,-0.43359375,23.933333333333337,-14.944444444444457,153.22222222222223
366,794866,,,,,,,,-0.43359375,-0.19140625,-0.52734375,2.173828125,0.044921875,-0.66796875,23.911111111111097,-13.588888888888903,153.5888888888889
367,794867,,,,,,,,-0.5625,-0.18359375,-0.48828125,2.046875,-0.013671875,-0.8203125,23.98888888888888,-12.166666666666686,154.06666666666666
368,794868,,,,,,,,-0.5703125,0.07421875,-0.375,1.830078125,-0.005859375,-0.86328125,24.088888888888903,-10.855555555555554,154.5888888888889
369,794869,,,,,,,,-0.5078125,0.35546875,-0.16796875,1.537109375,-0.08984375,-0.82421875,24.18888888888887,-9.677777777777806,155.11111111111111
370,794870,36.01283083333333,129.322078,313.53850058582526,47.81053208898075,0.0,65535.0,,-0.2734375,0.7890625,0.32421875,-0.0703125,-0.037109375,0.69921875,24.366666666666674,-8.733333333333348,155.56666666666666
371,794871,,,,,,,,0.0703125,0.671875,0.29296875,0.8125,-0.517578125,-0.607421875,24.655555555555566,-7.97777777777776,155.96666666666667
372,794872,,,,,,,,0.24609375,0.5234375,0.30078125,0.447265625,-0.630859375,-0.52734375,25.0,-7.51111111111112,156.26666666666668
373,794873,,,,,,,,0.26171875,0.36328125,0.24609375,0.125,-0.65625,-0.451171875,25.411111111111097,-7.2222222222222285,156.53333333333333
374,794874,,,,,,,,0.20703125,0.22265625,-0.265625,-0.140625,-0.509765625,-0.396484375,25.76666666666665,-7.133333333333326,156.77777777777777
375,794875,,,,,,,,0.0234375,0.30859375,-0.48046875,-0.33984375,-0.22265625,-0.369140625,26.0,-7.177777777777806,157.0
376,794876,,,,,,,,-0.18359375,0.44921875,-0.51171875,-0.427734375,0.05078125,-0.337890625,26.066666666666663,-7.288888888888891,157.22222222222223
377,794877,,,,,,,,-0.20703125,0.26953125,0.21484375,-0.310546875,0.265625,-0.287109375,25.98888888888888,-7.411111111111097,157.44444444444446
378,794878,,,,,,,,-0.25390625,0.26953125,0.39453125,0.02734375,0.431640625,-0.193359375,25.81111111111113,-7.411111111111097,157.63333333333333
379,794879,,,,,,,,-0.2890625,0.28515625,0.33203125,0.44140625,0.525390625,-0.068359375,25.53333333333336,-7.2222222222222285,157.76666666666668
380,794880,36.01283033333333,129.3220785,313.58357710718735,47.75505407791818,0.0,65535.0,,-0.16015625,0.19140625,0.1171875,0.79296875,0.60546875,0.0234375,25.21111111111111,-6.833333333333314,157.83333333333334
381,794881,,,,,,,,-0.640625,0.27734375,-0.15234375,1.013671875,0.677734375,0.103515625,24.855555555555554,-6.344444444444434,157.84444444444443
382,794882,,,,,,,,-0.921875,0.60546875,-0.4140625,1.041015625,0.7421875,0.228515625,24.422222222222217,-5.7444444444444684,157.8
383,794883,,,,,,,,-0.76171875,0.6796875,-0.5390625,0.90625,0.83203125,0.32421875,23.955555555555577,-5.2333333333333485,157.67777777777778
384,794884,,,,,,,,-0.65234375,0.35546875,-0.34765625,0.724609375,0.91015625,0.318359375,23.444444444444457,-4.833333333333314,157.53333333333333
385,794885,,,,,,,,-0.3359375,-0.54296875,0.76171875,0.599609375,0.92578125,0.1796875,22.899999999999977,-4.48888888888888,157.44444444444446
386,794886,,,,,,,,0.0859375,-0.703125,1.14453125,0.60546875,0.876953125,-0.111328125,22.377777777777794,-4.133333333333326,157.46666666666667
387,794887,,,,,,,,0.28125,-0.54296875,1.26953125,0.666015625,0.7421875,-0.48828125,21.933333333333337,-3.6888888888888687,157.7
388,794888,,,,,,,,0.328125,0.09765625,1.24609375,0.7109375,0.443359375,-0.837890625,21.600000000000023,-3.1333333333333258,158.14444444444445
389,794889,,,,,,,,0.46484375,0.15625,0.42578125,0.62890625,0.103515625,-1.15234375,21.46666666666664,-2.51111111111112,158.76666666666668
390,794890,36.01283,129.32207866666667,313.5986032746713,47.71806820118267,0.1,65535.0,,0.41796875,0.2265625,-0.48828125,0.263671875,-0.16015625,-1.423828125,21.51111111111112,-1.9666666666666401,159.56666666666666
391,794891,,,,,,,,-0.02734375,0.5625,-1.09375,-0.376953125,-0.416015625,-1.572265625,21.68888888888887,-1.6666666666666856,160.4777777777778
392,794892,,,,,,,,-0.65625,0.078125,-0.73046875,-1.056640625,-0.6484375,-1.515625,22.01111111111112,-1.7222222222222285,161.4111111111111
393,794893,,,,,,,,-0.71875,-0.1640625,-0.43359375,-1.478515625,-0.841796875,-1.314453125,22.46666666666664,-2.1333333333333258,162.3
394,794894,,,,,,,,-0.62109375,-0.1484375,-0.546875,-1.759765625,-1.14453125,-1.150390625,23.055555555555543,-2.7777777777777715,163.05555555555554
395,794895,,,,,,,,-0.8125,-0.0234375,-0.40625,-1.919921875,-1.4765625,-1.009765625,23.833333333333314,-3.577777777777783,163.6888888888889
396,794896,,,,,,,,-0.6484375,0.80078125,-0.26953125,-1.9453125,-1.73046875,-0.87109375,24.73333333333335,-4.422222222222217,164.2
397,794897,,,,,,,,-0.4765625,1.125,-0.0234375,-1.92578125,-1.890625,-0.75390625,25.833333333333314,-5.377777777777794,164.63333333333333
398,794898,,,,,,,,0.05078125,0.99609375,0.37890625,-1.837890625,-1.931640625,-0.658203125,26.96666666666664,-6.322222222222194,164.96666666666667
399,794899,,,,,,,,0.9140625,0.46875,0.89453125,-1.703125,-1.859375,-0.5703125,28.055555555555543,-7.211111111111109,165.22222222222223
400,794900,36.012829499999995,129.32207966666667,313.6887543367345,47.66259180115727,0.1,65535.0,166.0,0.41796875,0.2265625,-0.48828125,-1.591796875,-1.75390625,-0.384765625,21.51111111111112,-1.9666666666666401,159.56666666666666
401,794901,,,,,,,,0.41796875,0.2265625,-0.48828125,-1.591796875,-1.75390625,-0.384765625,21.51111111111112,-1.9666666666666401,159.56666666666666
402,794902,,,,,,,,0.41796875,0.2265625,-0.48828125,-1.591796875,-1.75390625,-0.384765625,21.51111111111112,-1.9666666666666401,159.56666666666666
403,794903,,,,,,,,0.41796875,0.2265625,-0.48828125,-1.591796875,-1.75390625,-0.384765625,21.51111111111112,-1.9666666666666401,159.56666666666666
404,794904,,,,,,,,0.41796875,0.2265625,-0.48828125,-1.591796875,-1.75390625,-0.384765625,21.51111111111112,-1.9666666666666401,159.56666666666666
405,794905,,,,,,,,0.41796875,0.2265625,-0.48828125,-1.591796875,-1.75390625,-0.384765625,21.51111111111112,-1.9666666666666401,159.56666666666666
406,794906,,,,,,,,0.41796875,0.2265625,-0.48828125,-1.591796875,-1.75390625,-0.384765625,21.51111111111112,-1.9666666666666401,159.56666666666666
407,794907,,,,,,,,0.41796875,0.2265625,-0.48828125,-1.591796875,-1.75390625,-0.384765625,21.51111111111112,-1.9666666666666401,159.56666666666666
408,794908,,,,,,,,0.41796875,0.2265625,-0.48828125,-1.591796875,-1.75390625,-0.384765625,21.51111111111112,-1.9666666666666401,159.56666666666666
409,794909,,,,,,,,0.41796875,0.2265625,-0.48828125,-1.591796875,-1.75390625,-0.384765625,21.51111111111112,-1.9666666666666401,159.56666666666666
410,794910,36.012829333333336,129.32207983333333,313.70377984386664,47.64409913151299,0.1,65535.0,,-0.35546875,0.69921875,0.2421875,1.615234375,0.380859375,-0.904296875,29.177777777777806,-6.800000000000011,166.1888888888889
411,794911,,,,,,,,-0.35546875,0.69921875,0.2421875,1.615234375,0.380859375,-0.904296875,29.177777777777806,-6.800000000000011,166.1888888888889
412,794912,,,,,,,,-0.35546875,0.69921875,0.2421875,1.615234375,0.380859375,-0.904296875,29.177777777777806,-6.800000000000011,166.1888888888889
413,794913,,,,,,,,-0.33984375,0.53515625,0.2109375,1.3125,0.125,-0.82421875,29.077777777777783,-5.666666666666686,166.77777777777777
414,794914,,,,,,,,-0.33984375,0.53515625,0.2109375,1.3125,0.125,-0.82421875,29.077777777777783,-5.666666666666686,166.77777777777777
415,794915,,,,,,,,-0.33984375,0.53515625,0.2109375,1.3125,0.125,-0.82421875,29.077777777777783,-5.666666666666686,166.77777777777777
416,794916,,,,,,,,-0.33984375,0.53515625,0.2109375,1.3125,0.125,-0.82421875,29.077777777777783,-5.666666666666686,166.77777777777777
417,794917,,,,,,,,-0.33984375,0.53515625,0.2109375,1.3125,0.125,-0.82421875,29.077777777777783,-5.666666666666686,166.77777777777777
418,794918,,,,,,,,-0.65625,0.078125,-0.73046875,-1.056640625,-0.6484375,-1.515625,22.01111111111112,-1.7222222222222285,161.4111111111111
419,794919,,,,,,,,-0.65625,0.078125,-0.73046875,-1.056640625,-0.6484375,-1.515625,22.01111111111112,-1.7222222222222285,161.4111111111111
420,794920,36.01282833333333,129.32207983333333,313.7037838060462,47.533139892095086,0.1,65535.0,,-0.33984375,0.51953125,0.2109375,0.853515625,-0.001953125,-0.623046875,29.066666666666663,-5.544444444444423,166.85555555555555
421,794921,,,,,,,,-0.5078125,1.13671875,-0.0546875,0.3359375,-0.130859375,-0.322265625,29.122222222222206,-5.055555555555543,167.16666666666666
422,794922,,,,,,,,-0.62890625,1.421875,-0.0859375,-0.166015625,-0.328125,0.033203125,29.25555555555553,-4.96666666666664,167.25555555555556
423,794923,,,,,,,,-0.32421875,1.19921875,-0.29296875,-0.646484375,-0.6171875,0.30859375,29.51111111111112,-5.2666666666666515,167.12222222222223
424,794924,,,,,,,,0.03515625,0.82421875,-0.20703125,-1.09375,-1.0234375,0.37109375,29.944444444444457,-5.899999999999977,166.85555555555555
425,794925,,,,,,,,-0.265625,0.94921875,-0.44140625,-1.53125,-1.517578125,0.279296875,30.644444444444446,-6.811111111111131,166.54444444444445
426,794926,,,,,,,,-1.12890625,1.68359375,-0.53515625,-1.9921875,-1.943359375,0.3125,31.577777777777783,-7.97777777777776,166.22222222222223
427,794927,,,,,,,,-1.359375,1.76953125,-0.41015625,-2.431640625,-2.134765625,0.599609375,32.68888888888887,-9.52222222222224,165.7111111111111
428,794928,,,,,,,,-1.2109375,1.4375,-0.375,-2.810546875,-2.107421875,0.98828125,33.78888888888889,-11.455555555555577,164.92222222222222
429,794929,,,,,,,,-0.4296875,0.4609375,-0.1796875,-3.087890625,-2.03515625,1.28515625,34.75555555555553,-13.677777777777806,163.87777777777777
430,794930,36.01282783333333,129.32208083333336,313.7939348735166,47.477663493358776,0.1,65535.0,,-0.05859375,0.20703125,0.09765625,-3.203125,-1.90625,1.40234375,35.655555555555566,-16.27777777777777,162.5888888888889
431,794931,,,,,,,,0.5,-0.0625,1.52734375,-2.828125,-1.4375,1.302734375,36.333333333333314,-18.77777777777777,161.3111111111111
432,794932,,,,,,,,0.55078125,-0.81640625,1.69140625,-2.0546875,-0.939453125,1.048828125,36.73333333333335,-20.78888888888889,160.25555555555556
433,794933,,,,,,,,0.94140625,-1.48828125,0.703125,-1.22265625,-0.5078125,0.619140625,36.93333333333334,-22.177777777777806,159.51111111111112
434,794934,,,,,,,,0.671875,-1.4921875,0.12109375,-0.404296875,0.09765625,0.248046875,36.94444444444446,-22.844444444444434,159.17777777777778
435,794935,,,,,,,,0.3203125,-1.24609375,-0.09375,0.28125,0.626953125,-0.01953125,36.72222222222223,-22.866666666666674,159.2111111111111
436,794936,,,,,,,,-0.50390625,-0.14453125,0.04296875,0.767578125,0.859375,-0.208984375,36.355555555555554,-22.388888888888914,159.51111111111112
437,794937,,,,,,,,-0.6015625,0.12109375,0.125,1.078125,0.859375,-0.30859375,35.94444444444446,-21.622222222222206,159.9111111111111
438,794938,,,,,,,,-0.546875,0.3203125,0.0390625,1.25,0.798828125,-0.357421875,35.55555555555554,-20.68888888888887,160.35555555555555
439,794939,,,,,,,,-0.53125,0.35546875,-0.11328125,1.302734375,0.71484375,-0.36328125,35.21111111111111,-19.71111111111111,160.7888888888889
440,794940,36.0128275,129.32208116666666,313.8239858862094,47.440678154028014,0.1,65535.0,,-0.609375,0.3984375,-0.0234375,1.24609375,0.5234375,-0.3203125,34.95555555555558,-18.80000000000001,161.14444444444445
441,794941,,,,,,,,-0.69921875,0.40234375,0.16015625,1.154296875,0.322265625,-0.2578125,34.75555555555553,-17.922222222222217,161.44444444444446
442,794942,,,,,,,,-0.9140625,0.53125,0.390625,1.07421875,0.13671875,-0.140625,34.666666666666686,-17.166666666666686,161.64444444444445
443,794943,,,,,,,,-0.875,0.5625,0.51171875,0.96875,-0.009765625,0.015625,34.633333333333326,-16.544444444444423,161.7111111111111
444,794944,,,,,,,,-0.21484375,0.34765625,0.6484375,0.828125,-0.0859375,0.123046875,34.633333333333326,-16.055555555555543,161.66666666666666
445,794945,,,,,,,,0.16796875,0.09765625,0.51953125,0.63671875,-0.0703125,0.130859375,34.655555555555566,-15.699999999999989,161.56666666666666
446,794946,,,,,,,,0.12109375,0.18359375,0.5859375,0.419921875,-0.005859375,0.119140625,34.655555555555566,-15.444444444444457,161.48888888888888
447,794947,,,,,,,,0.08203125,0.359375,0.88671875,0.228515625,0.029296875,0.119140625,34.622222222222206,-15.300000000000011,161.42222222222222
448,794948,,,,,,,,-0.015625,0.54296875,0.6484375,0.04296875,-0.0234375,0.1328125,34.5888888888889,-15.266666666666652,161.34444444444443
449,794949,,,,,,,,-0.33203125,0.671875,0.03515625,-0.21875,-0.16796875,0.18359375,34.611111111111086,-15.388888888888914,161.22222222222223
450,794950,36.01282683333333,129.3220815,313.85403822317755,47.36670640129498,0.1,65535.0,,-0.4609375,0.7421875,-0.44140625,-0.54296875,-0.294921875,0.244140625,34.69999999999999,-15.711111111111109,161.04444444444445
451,794951,,,,,,,,-0.9375,0.390625,-0.25390625,-0.77734375,-0.275390625,0.32421875,34.80000000000001,-16.21111111111111,160.8111111111111
452,794952,,,,,,,,-1.09765625,0.24609375,-0.00390625,-0.853515625,-0.234375,0.458984375,34.877777777777794,-16.866666666666674,160.51111111111112
453,794953,,,,,,,,-0.875,0.1796875,0.07421875,-0.83203125,-0.375,0.541015625,34.94444444444446,-17.577777777777783,160.11111111111111
454,794954,,,,,,,,-0.59375,0.15234375,0.23828125,-0.724609375,-0.560546875,0.513671875,35.10000000000002,-18.26666666666665,159.6888888888889
455,794955,,,,,,,,-0.39453125,0.22265625,0.5078125,-0.52734375,-0.6640625,0.45703125,35.322222222222194,-18.855555555555554,159.24444444444444
456,794956,,,,,,,,0.03515625,0.16796875,0.28515625,-0.291015625,-0.572265625,0.384765625,35.5888888888889,-19.355555555555554,158.8111111111111
457,794957,,,,,,,,0.66015625,-0.19921875,-0.2265625,-0.115234375,-0.216796875,0.203125,35.73333333333335,-19.644444444444446,158.53333333333333
458,794958,,,,,,,,0.9296875,-0.41015625,-0.19140625,0.013671875,0.205078125,-0.091796875,35.72222222222223,-19.68888888888887,158.51111111111112
459,794959,,,,,,,,1.56640625,-0.78125,-0.16796875,0.125,0.5703125,-0.462890625,35.55555555555554,-19.47777777777776,158.7888888888889
460,794960,36.01282633333334,129.322082,313.8991147466736,47.31122839333776,0.2,65535.0,,0.984375,-0.48046875,0.359375,0.2421875,0.712890625,-0.802734375,35.333333333333314,-19.044444444444423,159.36666666666667
461,794961,,,,,,,,0.44921875,-0.0546875,0.66015625,0.37109375,0.634765625,-1.005859375,35.122222222222206,-18.411111111111097,160.13333333333333
462,794962,,,,,,,,0.46484375,0.04296875,-0.1484375,0.431640625,0.486328125,-1.1640625,35.0,-17.69999999999999,160.98888888888888
463,794963,,,,,,,,0.54296875,-0.05859375,-0.140625,0.453125,0.341796875,-1.369140625,34.98888888888888,-16.899999999999977,161.93333333333334
464,794964,,,,,,,,0.44921875,-0.13671875,0.328125,0.61328125,0.169921875,-1.62109375,35.07777777777778,-15.98888888888888,162.98888888888888
465,794965,,,,,,,,-0.109375,-0.1875,0.5703125,0.951171875,0.048828125,-1.80078125,35.27777777777777,-14.866666666666674,164.17777777777778
466,794966,,,,,,,,-1.17578125,-0.09765625,0.5859375,1.37109375,0.060546875,-1.80859375,35.47777777777776,-13.52222222222224,165.37777777777777
467,794967,,,,,,,,-1.34375,-0.28515625,0.40234375,1.68359375,-0.01953125,-1.689453125,35.68888888888887,-11.877777777777794,166.64444444444445
468,794968,,,,,,,,-1.5,-0.16015625,0.234375,1.796875,-0.240234375,-1.580078125,35.93333333333334,-10.222222222222229,167.76666666666668
469,794969,,,,,,,,-1.5859375,-0.08203125,0.1171875,1.75390625,-0.51171875,-1.51953125,36.27777777777777,-8.588888888888903,168.8111111111111
470,794970,36.012825666666664,129.3220821666667,313.9141422418432,47.23725610425233,0.1,65535.0,,-1.109375,0.0078125,1.28515625,1.720703125,-0.767578125,-1.505859375,36.75555555555553,-7.0,169.82222222222222
471,794971,,,,,,,,-0.73046875,-0.2578125,1.93359375,1.83203125,-1.001953125,-1.57421875,37.333333333333314,-5.366666666666674,170.85555555555555
472,794972,,,,,,,,-0.59375,-0.33984375,2.25,2.0078125,-1.255859375,-1.720703125,38.04444444444442,-3.566666666666663,172.0
473,794973,,,,,,,,-0.50390625,-0.48046875,1.859375,2.08203125,-1.470703125,-1.95703125,38.822222222222194,-1.6777777777778056,173.24444444444444
474,794974,,,,,,,,-0.359375,-0.1953125,0.3828125,1.947265625,-1.59375,-2.271484375,39.74444444444447,0.5777777777777828,174.87777777777777
475,794975,,,,,,,,-0.28515625,-0.2109375,-0.01171875,1.634765625,-1.71484375,-2.673828125,40.633333333333326,2.8222222222221944,176.77777777777777
476,794976,,,,,,,,-0.28125,-0.19140625,-0.0859375,1.228515625,-1.89453125,-3.134765625,41.53333333333336,5.155555555555566,179.0888888888889
477,794977,,,,,,,,0.0703125,-0.3125,-0.5,0.75390625,-2.0546875,-3.66015625,42.39999999999998,7.5,181.75555555555556
478,794978,,,,,,,,-0.23046875,-0.4921875,-0.28125,0.306640625,-2.048828125,-4.1796875,43.22222222222223,10.133333333333326,185.16666666666666
479,794979,,,,,,,,-0.875,-0.59765625,-0.109375,-0.05859375,-1.951171875,-4.61328125,43.844444444444434,12.800000000000011,188.93333333333334
480,794980,36.01282533333333,129.3220821666667,313.9141435638266,47.200269691154865,0.2,65535.0,,-1.46484375,-0.8203125,-0.0625,-0.42578125,-2.0703125,-4.94921875,44.27777777777777,15.52222222222224,193.03333333333333
481,794981,,,,,,,,-0.6328125,-0.87890625,-0.00390625,-0.80859375,-2.474609375,-5.359375,44.644444444444446,18.19999999999999,197.33333333333334
482,794982,,,,,,,,-0.5625,-0.74609375,0.7734375,-1.072265625,-2.958984375,-5.904296875,45.02222222222224,21.333333333333314,202.57777777777778
483,794983,,,,,,,,-2.09765625,0.03515625,0.75390625,-1.171875,-3.310546875,-6.26171875,45.30000000000001,24.666666666666686,208.17777777777778
484,794984,,,,,,,,-2.2734375,0.44921875,-0.01171875,-1.251953125,-3.564453125,-6.46875,45.43333333333334,28.177777777777806,214.07777777777778
485,794985,,,,,,,,-2.328125,0.7265625,-0.19140625,-1.494140625,-4.146484375,-6.55078125,45.47777777777776,31.655555555555566,219.98888888888888
486,794986,,,,,,,,-1.73046875,0.68359375,-0.3984375,-1.865234375,-4.8125,-6.4453125,45.55555555555554,35.46666666666664,226.72222222222223
487,794987,,,,,,,,-0.87890625,0.75390625,-0.2890625,-2.283203125,-5.53515625,-6.240234375,45.69999999999999,39.06666666666666,233.38888888888889
488,794988,,,,,,,,-1.671875,3.55078125,0.8515625,-2.431640625,-6.51953125,-5.42578125,46.10000000000002,42.56666666666666,240.0888888888889
489,794989,,,,,,,,-3.14453125,5.68359375,0.22265625,-2.224609375,-6.806640625,-3.46875,47.07777777777778,46.133333333333326,246.8777777777778
490,794990,36.012826000000004,129.32208183333333,313.88409122086114,47.27424144405855,0.1,65535.0,,-2.78125,5.9609375,-1.078125,-1.716796875,-5.701171875,-1.09375,48.51111111111112,48.89999999999998,252.14444444444445
491,794991,,,,,,,,-0.8359375,4.3515625,-3.328125,-1.23828125,-3.318359375,0.359375,49.94444444444446,50.42222222222222,255.22222222222223
492,794992,,,,,,,,0.9140625,0.71484375,-3.87109375,-0.900390625,-0.76171875,0.697265625,50.96666666666664,50.677777777777806,256.4222222222222
493,794993,,,,,,,,0.78515625,-0.01171875,-2.765625,-0.666015625,1.041015625,0.49609375,51.177777777777806,49.888888888888914,255.97777777777776
494,794994,,,,,,,,0.5703125,-0.15625,-1.61328125,-0.517578125,2.1015625,0.1171875,50.72222222222223,48.57777777777778,254.72222222222223
495,794995,,,,,,,,0.34375,-0.37109375,-1.05078125,-0.423828125,2.986328125,-0.26171875,49.71111111111111,47.0,253.04444444444445
496,794996,,,,,,,,0.4765625,-0.1171875,-0.390625,-0.33203125,3.740234375,-0.634765625,48.22222222222223,45.388888888888914,251.2111111111111
497,794997,,,,,,,,0.55078125,0.25390625,-0.5625,-0.263671875,4.232421875,-1.02734375,46.26666666666665,43.822222222222194,249.33333333333331
498,794998,,,,,,,,-0.05078125,0.64453125,-0.484375,-0.291015625,4.328125,-1.275390625,44.01111111111112,42.43333333333334,247.6222222222222
499,794999,,,,,,,,-1.37890625,0.69921875,0.61328125,-0.439453125,3.91796875,-1.314453125,41.80000000000001,41.27777777777777,246.24444444444444
500,795000,36.01282666666667,129.32208183333333,313.884088578205,47.34821426920011,0.0,65535.0,166.0,-2.78125,5.9609375,-1.078125,-0.673828125,2.595703125,-1.12890625,48.51111111111112,48.89999999999998,252.14444444444445
501,795001,,,,,,,,-2.78125,5.9609375,-1.078125,-0.673828125,2.595703125,-1.12890625,48.51111111111112,48.89999999999998,252.14444444444445
502,795002,,,,,,,,-2.78125,5.9609375,-1.078125,-0.673828125,2.595703125,-1.12890625,48.51111111111112,48.89999999999998,252.14444444444445
503,795003,,,,,,,,-2.78125,5.9609375,-1.078125,-0.673828125,2.595703125,-1.12890625,48.51111111111112,48.89999999999998,252.14444444444445
504,795004,,,,,,,,-2.78125,5.9609375,-1.078125,-0.673828125,2.595703125,-1.12890625,48.51111111111112,48.89999999999998,252.14444444444445
505,795005,,,,,,,,-2.78125,5.9609375,-1.078125,-0.673828125,2.595703125,-1.12890625,48.51111111111112,48.89999999999998,252.14444444444445
506,795006,,,,,,,,-2.78125,5.9609375,-1.078125,-0.673828125,2.595703125,-1.12890625,48.51111111111112,48.89999999999998,252.14444444444445
507,795007,,,,,,,,-2.78125,5.9609375,-1.078125,-0.673828125,2.595703125,-1.12890625,48.51111111111112,48.89999999999998,252.14444444444445
508,795008,,,,,,,,-2.78125,5.9609375,-1.078125,-0.673828125,2.595703125,-1.12890625,48.51111111111112,48.89999999999998,252.14444444444445
509,795009,,,,,,,,-2.78125,5.9609375,-1.078125,-0.673828125,2.595703125,-1.12890625,48.51111111111112,48.89999999999998,252.14444444444445
510,795010,36.012827333333334,129.32208166666666,313.86906108827793,47.42218655783884,0.0,65535.0,,-0.86328125,-0.75390625,0.0625,1.119140625,2.267578125,5.2578125,39.93333333333334,40.344444444444434,245.33333333333331
511,795011,,,,,,,,-0.86328125,-0.75390625,0.0625,1.119140625,2.267578125,5.2578125,39.93333333333334,40.344444444444434,245.33333333333331
512,795012,,,,,,,,-0.86328125,-0.75390625,0.0625,1.119140625,2.267578125,5.2578125,39.93333333333334,40.344444444444434,245.33333333333331
513,795013,,,,,,,,-0.83984375,-0.48828125,-0.0546875,0.419921875,2.21875,5.064453125,41.19999999999999,19.53333333333336,196.2
514,795014,,,,,,,,-0.83984375,-0.48828125,-0.0546875,0.419921875,2.21875,5.064453125,41.19999999999999,19.53333333333336,196.2
515,795015,,,,,,,,-0.83984375,-0.48828125,-0.0546875,0.419921875,2.21875,5.064453125,41.19999999999999,19.53333333333336,196.2
516,795016,,,,,,,,-0.83984375,-0.48828125,-0.0546875,0.419921875,2.21875,5.064453125,41.19999999999999,19.53333333333336,196.2
517,795017,,,,,,,,-0.83984375,-0.48828125,-0.0546875,0.419921875,2.21875,5.064453125,41.19999999999999,19.53333333333336,196.2
518,795018,,,,,,,,0.9140625,0.71484375,-3.87109375,-0.900390625,-0.76171875,0.697265625,50.96666666666664,50.677777777777806,256.4222222222222
519,795019,,,,,,,,0.9140625,0.71484375,-3.87109375,-0.900390625,-0.76171875,0.697265625,50.96666666666664,50.677777777777806,256.4222222222222
520,795020,36.01282833333333,129.32208166666666,313.86905712367263,47.53314579557085,0.1,65535.0,,-0.83984375,-0.44140625,-0.078125,-0.28125,1.515625,4.54296875,41.166666666666686,19.100000000000023,195.5222222222222
521,795021,,,,,,,,-1.84375,-1.30859375,1.85546875,-0.7890625,-0.22265625,3.328125,41.48888888888888,16.822222222222194,192.55555555555554
522,795022,,,,,,,,-1.5390625,-1.1328125,0.140625,-1.298828125,-0.455078125,2.513671875,42.122222222222206,14.811111111111131,190.45555555555555
523,795023,,,,,,,,-1.0859375,-2.078125,-0.7265625,-1.724609375,0.25,1.783203125,42.45555555555558,12.877777777777794,188.86666666666667
524,795024,,,,,,,,-1.80078125,-1.09375,0.59765625,-1.78125,0.583984375,1.294921875,42.388888888888914,11.055555555555543,187.65555555555557
525,795025,,,,,,,,-0.81640625,-1.4140625,1.84765625,-1.533203125,0.423828125,1.052734375,42.22222222222223,9.51111111111112,186.72222222222223
526,795026,,,,,,,,0.0703125,-1.2578125,1.65625,-1.1640625,0.25390625,0.94140625,42.10000000000002,8.222222222222229,185.93333333333334
527,795027,,,,,,,,0.4296875,-0.703125,0.97265625,-0.814453125,0.46484375,0.927734375,41.95555555555558,7.111111111111086,185.16666666666666
528,795028,,,,,,,,0.1328125,0.05859375,0.54296875,-0.505859375,0.9296875,1.017578125,41.611111111111086,6.199999999999989,184.36666666666667
529,795029,,,,,,,,-1.28125,0.91796875,0.34765625,-0.27734375,1.365234375,1.296875,41.0,5.333333333333314,183.4
530,795030,36.012828166666665,129.3220825,313.9441820206775,47.51465527396686,0.2,65535.0,,-2.375,1.02734375,0.79296875,-0.28125,1.515625,4.54296875,40.21111111111111,4.411111111111097,182.16666666666666
531,795031,,,,,,,,-3.46875,0.82421875,2.28515625,-0.2109375,0.90234375,2.353515625,39.54444444444442,3.2777777777777715,180.55555555555554
532,795032,,,,,,,,-2.21875,0.4140625,1.48828125,-0.466796875,-0.037109375,2.66015625,39.355555555555554,1.8999999999999773,178.6888888888889
533,795033,,,,,,,,2.30078125,-1.33984375,-1.69921875,-0.71484375,0.259765625,2.53125,39.31111111111113,0.3555555555555543,176.7888888888889
534,795034,,,,,,,,2.61328125,-1.75390625,-1.47265625,-0.83203125,1.041015625,2.16796875,38.92222222222222,-1.1777777777778056,175.05555555555554
535,795035,,,,,,,,1.91015625,-1.76953125,-1.08203125,-0.83203125,1.576171875,1.849609375,38.122222222222206,-2.544444444444423,173.62222222222223
536,795036,,,,,,,,0.7421875,-1.19921875,-0.79296875,-0.7734375,1.798828125,1.62890625,37.144444444444446,-3.6666666666666856,172.5
537,795037,,,,,,,,0.5546875,-1.01171875,-0.5859375,-0.666015625,1.7421875,1.4609375,36.02222222222224,-4.7222222222222285,171.45555555555555
538,795038,,,,,,,,0.46484375,-0.92578125,-0.56640625,-0.54296875,1.658203125,1.337890625,34.97777777777776,-5.566666666666663,170.57777777777778
539,795039,,,,,,,,0.34375,-0.9765625,-0.30859375,-0.412109375,1.8046875,1.26171875,33.89999999999998,-6.2777777777777715,169.8111111111111
540,795040,36.012827333333334,129.322084,314.079408950376,47.42219407549068,0.30000000000000004,65535.0,,-0.48828125,-0.5,0.05859375,-0.30078125,2.162109375,1.29296875,32.73333333333335,-6.844444444444434,169.13333333333333
541,795041,,,,,,,,-1.00390625,-0.13671875,0.2109375,-0.271484375,2.474609375,1.453125,31.27777777777777,-7.399999999999977,168.38888888888889
542,795042,,,,,,,,-1.26953125,0.1953125,0.015625,-0.375,2.7421875,1.712890625,29.655555555555566,-8.0,167.57777777777778
543,795043,,,,,,,,-1.46875,0.34765625,-0.30078125,-0.5859375,3.025390625,2.015625,27.866666666666674,-8.711111111111109,166.65555555555557
544,795044,,,,,,,,-1.9921875,0.23046875,0.1171875,-0.84375,3.150390625,2.326171875,26.02222222222224,-9.555555555555543,165.64444444444445
545,795045,,,,,,,,-1.98046875,0.1796875,0.390625,-1.041015625,3.060546875,2.623046875,23.944444444444457,-10.622222222222206,164.42222222222222
546,795046,,,,,,,,-1.94921875,0.18359375,0.6875,-1.150390625,2.763671875,2.8984375,22.0,-11.766666666666652,163.0888888888889
547,795047,,,,,,,,-2.58984375,0.1171875,1.0078125,-1.1796875,2.326171875,3.2265625,20.22222222222223,-12.955555555555577,161.6
548,795048,,,,,,,,-2.33984375,0.0625,1.35546875,-1.1484375,1.6875,3.6015625,18.611111111111086,-14.222222222222229,159.84444444444443
549,795049,,,,,,,,-1.828125,-0.08203125,1.61328125,-1.021484375,0.86328125,3.94921875,17.355555555555554,-15.444444444444457,157.85555555555555
550,795050,36.012827333333334,129.32208466666668,314.13950834303455,47.42219622429006,0.30000000000000004,65535.0,,-1.234375,-0.46875,1.46875,-0.841796875,0.029296875,4.1953125,16.46666666666664,-16.622222222222206,155.61111111111111
551,795051,,,,,,,,-1.234375,-0.5703125,0.57421875,-0.681640625,-0.697265625,4.41015625,15.944444444444457,-17.69999999999999,153.2111111111111
552,795052,,,,,,,,-1.1171875,-0.36328125,0.12109375,-0.5546875,-1.16796875,4.66796875,15.622222222222206,-18.80000000000001,150.44444444444446
553,795053,,,,,,,,-0.93359375,-0.3515625,-0.22265625,-0.458984375,-1.3828125,4.896484375,15.399999999999977,-19.899999999999977,147.42222222222222
554,795054,,,,,,,,-0.4453125,-0.578125,-0.4453125,-0.373046875,-1.4140625,5.009765625,15.155555555555566,-20.933333333333337,144.37777777777777
555,795055,,,,,,,,0.4375,-0.96484375,-0.43359375,-0.248046875,-1.359375,4.984375,14.844444444444434,-21.899999999999977,141.3
556,795056,,,,,,,,1.765625,-1.23046875,-0.98828125,-0.078125,-0.873046875,4.7109375,14.399999999999977,-22.677777777777806,138.54444444444445
557,795057,,,,,,,,2.6171875,-1.16796875,-1.1328125,0.115234375,-0.02734375,4.28125,13.588888888888903,-23.31111111111113,135.88888888888889
558,795058,,,,,,,,1.79296875,-0.30078125,1.08203125,0.35546875,0.7578125,3.810546875,12.47777777777776,-23.633333333333326,133.77777777777777
559,795059,,,,,,,,3.54296875,-1.04296875,0.16015625,0.658203125,1.4140625,3.251953125,11.111111111111086,-23.666666666666686,132.16666666666666
560,795060,36.01282766666667,129.32208433333332,314.1094573221178,47.459181562580994,0.30000000000000004,65535.0,,3.01171875,-0.953125,-0.0546875,-0.841796875,0.029296875,4.1953125,9.433333333333337,-23.411111111111097,131.04444444444445
561,795061,,,,,,,,1.6484375,-0.65234375,0.7578125,1.087890625,2.98046875,2.14453125,7.5,-22.933333333333337,130.4
562,795062,,,,,,,,0.66796875,-0.43359375,0.80078125,1.2578125,3.203125,1.798828125,5.544444444444423,-22.322222222222194,130.05555555555554
563,795063,,,,,,,,0.09765625,-0.23828125,0.921875,1.384765625,2.998046875,1.544921875,3.455555555555577,-21.544444444444423,129.82222222222222
564,795064,,,,,,,,-0.1328125,-0.24609375,0.67578125,1.4609375,2.5625,1.345703125,1.6555555555555657,-20.72222222222223,129.62222222222223
565,795065,,,,,,,,-0.65625,-0.38671875,0.8125,1.478515625,1.900390625,1.20703125,0.21111111111110858,-19.866666666666674,129.37777777777777
566,795066,,,,,,,,-1.22265625,-0.40625,0.62109375,1.419921875,1.09375,1.072265625,-0.8222222222221944,-19.02222222222224,129.04444444444445
567,795067,,,,,,,,-1.1953125,-0.18359375,0.046875,1.23046875,0.455078125,0.923828125,-1.4222222222222172,-18.25555555555553,128.64444444444445
568,795068,,,,,,,,-0.95703125,-0.01953125,-0.25390625,0.939453125,0.0625,0.75,-1.7111111111111086,-17.622222222222206,128.23333333333332
569,795069,,,,,,,,-0.2890625,0.1015625,-0.23046875,0.6171875,-0.12109375,0.505859375,-1.8000000000000114,-17.155555555555566,127.88888888888889
570,795070,36.012828,129.322084,314.0794063056234,47.496166900157846,0.2,65535.0,,-0.14453125,-0.09765625,0.17578125,-0.841796875,0.029296875,4.1953125,-1.7777777777777715,-16.855555555555554,127.66666666666666
571,795071,,,,,,,,-0.16015625,-0.12109375,0.3984375,0.181640625,-0.185546875,-0.115234375,-1.6888888888888687,-16.68888888888887,127.61111111111111
572,795072,,,,,,,,-0.13671875,-0.0234375,0.46484375,0.12109375,-0.1015625,-0.375,-1.5777777777777828,-16.600000000000023,127.72222222222223
573,795073,,,,,,,,-0.54296875,0.3515625,0.65625,0.12890625,-0.08984375,-0.53515625,-1.455555555555577,-16.53333333333336,127.94444444444446
574,795074,,,,,,,,-0.9140625,0.52734375,0.45703125,0.162109375,-0.171875,-0.55078125,-1.2888888888888914,-16.444444444444457,128.23333333333332
575,795075,,,,,,,,-1.01953125,0.69921875,0.3828125,0.205078125,-0.267578125,-0.435546875,-1.0888888888889028,-16.333333333333314,128.46666666666667
576,795076,,,,,,,,-0.67578125,0.4140625,0.18359375,0.24609375,-0.361328125,-0.302734375,-0.8666666666666742,-16.19999999999999,128.61111111111111
577,795077,,,,,,,,0.1640625,-0.4140625,-0.015625,0.287109375,-0.38671875,-0.265625,-0.6111111111110858,-16.03333333333336,128.7111111111111
578,795078,,,,,,,,0.2421875,-0.71484375,0.04296875,0.3828125,-0.318359375,-0.326171875,-0.3777777777777942,-15.833333333333314,128.8111111111111
579,795079,,,,,,,,0.36328125,-0.8671875,0.2265625,0.541015625,-0.17578125,-0.48828125,-0.17777777777780557,-15.566666666666663,128.98888888888888
580,795080,36.012829333333336,129.32208283333333,313.9742270875448,47.64410879303597,0.30000000000000004,65535.0,,0.21875,-0.546875,0.5546875,0.720703125,-0.15234375,-0.671875,0.0,-15.199999999999989,129.2888888888889
581,795081,,,,,,,,-0.16796875,-0.08984375,0.72265625,0.876953125,-0.275390625,-0.814453125,0.22222222222222854,-14.733333333333348,129.66666666666666
582,795082,,,,,,,,-0.296875,-0.0234375,0.59375,0.970703125,-0.45703125,-0.880859375,0.5333333333333599,-14.188888888888869,130.07777777777778
583,795083,,,,,,,,-0.16796875,-0.0703125,0.37890625,0.98828125,-0.61328125,-0.90625,0.955555555555577,-13.611111111111086,130.5
584,795084,,,,,,,,-0.0546875,-0.00390625,-0.1328125,0.919921875,-0.697265625,-0.8984375,1.4222222222222172,-13.066666666666663,130.9
585,795085,,,,,,,,-0.2109375,-0.01953125,-0.37890625,0.765625,-0.6171875,-0.880859375,1.9111111111110972,-12.566666666666663,131.32222222222222
586,795086,,,,,,,,-0.3125,-0.1953125,-0.234375,0.583984375,-0.45703125,-0.90234375,2.3111111111111313,-12.144444444444446,131.75555555555556
587,795087,,,,,,,,-0.3671875,-0.2890625,0.140625,0.421875,-0.38671875,-1.03125,2.6555555555555657,-11.833333333333314,132.24444444444444
588,795088,,,,,,,,-0.58203125,0.0234375,0.09375,0.265625,-0.400390625,-1.208984375,2.98888888888888,-11.600000000000023,132.8
589,795089,,,,,,,,-0.72265625,0.14453125,-0.10546875,0.103515625,-0.412109375,-1.349609375,3.377777777777794,-11.444444444444457,133.5
590,795090,36.012829499999995,129.32208266666666,313.95920158047795,47.662601462294965,0.30000000000000004,65535.0,,-0.58203125,0.0625,-0.21875,0.720703125,-0.15234375,-0.671875,3.7555555555555316,-11.377777777777794,134.23333333333332
591,795091,,,,,,,,-0.41015625,0.0625,-0.55859375,-0.193359375,-0.189453125,-1.5390625,4.066666666666663,-11.377777777777794,135.04444444444445
592,795092,,,,,,,,-0.41796875,-0.4609375,0.59375,-0.326171875,-0.328125,-1.681640625,4.388888888888914,-11.455555555555577,135.9111111111111
593,795093,,,,,,,,-0.11328125,-0.50390625,0.609375,-0.4453125,-0.701171875,-1.990234375,4.888888888888914,-11.588888888888903,136.88888888888889
594,795094,,,,,,,,0.0078125,-0.390625,-0.37890625,-0.689453125,-0.771484375,-2.365234375,5.544444444444423,-11.811111111111131,138.0222222222222
595,795095,,,,,,,,0.2734375,-0.87890625,0.640625,-0.9296875,-0.7265625,-2.771484375,6.2666666666666515,-12.122222222222206,139.37777777777777
596,795096,,,,,,,,0.2734375,-1.0078125,0.86328125,-1.013671875,-0.72265625,-3.203125,7.03333333333336,-12.48888888888888,140.9777777777778
597,795097,,,,,,,,-0.05078125,-0.72265625,0.73046875,-0.9609375,-0.712890625,-3.5546875,7.855555555555554,-12.822222222222194,142.7888888888889
598,795098,,,,,,,,-0.421875,-0.37890625,0.53515625,-0.86328125,-0.88671875,-3.783203125,8.755555555555532,-13.044444444444423,144.73333333333332
599,795099,,,,,,,,-0.75,0.05859375,0.25,-0.7578125,-1.216796875,-3.87109375,9.788888888888891,-13.166666666666686,146.67777777777778
600,795100,36.01282966666667,129.3220821666667,313.91412638181635,47.6810930579052,0.30000000000000004,65535.0,166.0,-0.58203125,0.0625,-0.21875,-0.62890625,-1.455078125,-3.91015625,3.7555555555555316,-11.377777777777794,134.23333333333332
601,795101,,,,,,,,-0.58203125,0.0625,-0.21875,-0.62890625,-1.455078125,-3.91015625,3.7555555555555316,-11.377777777777794,134.23333333333332
602,795102,,,,,,,,-0.58203125,0.0625,-0.21875,-0.62890625,-1.455078125,-3.91015625,3.7555555555555316,-11.377777777777794,134.23333333333332
603,795103,,,,,,,,-0.58203125,0.0625,-0.21875,-0.62890625,-1.455078125,-3.91015625,3.7555555555555316,-11.377777777777794,134.23333333333332
604,795104,,,,,,,,-0.58203125,0.0625,-0.21875,-0.62890625,-1.455078125,-3.91015625,3.7555555555555316,-11.377777777777794,134.23333333333332
605,795105,,,,,,,,-0.58203125,0.0625,-0.21875,-0.62890625,-1.455078125,-3.91015625,3.7555555555555316,-11.377777777777794,134.23333333333332
606,795106,,,,,,,,-0.58203125,0.0625,-0.21875,-0.62890625,-1.455078125,-3.91015625,3.7555555555555316,-11.377777777777794,134.23333333333332
607,795107,,,,,,,,-0.58203125,0.0625,-0.21875,-0.62890625,-1.455078125,-3.91015625,3.7555555555555316,-11.377777777777794,134.23333333333332
608,795108,,,,,,,,-0.58203125,0.0625,-0.21875,-0.62890625,-1.455078125,-3.91015625,3.7555555555555316,-11.377777777777794,134.23333333333332
609,795109,,,,,,,,-0.58203125,0.0625,-0.21875,-0.62890625,-1.455078125,-3.91015625,3.7555555555555316,-11.377777777777794,134.23333333333332
610,795110,36.01283,129.3220815,313.8540256699945,47.718077323208654,0.30000000000000004,65535.0,,-0.68359375,-0.51171875,0.046875,0.658203125,-0.896484375,-4.75,31.144444444444446,7.611111111111086,197.93333333333334
611,795111,,,,,,,,-0.68359375,-0.51171875,0.046875,0.658203125,-0.896484375,-4.75,31.144444444444446,7.611111111111086,197.93333333333334
612,795112,,,,,,,,-0.68359375,-0.51171875,0.046875,0.658203125,-0.896484375,-4.75,31.144444444444446,7.611111111111086,197.93333333333334
613,795113,,,,,,,,-0.68359375,-0.51171875,0.046875,0.658203125,-0.896484375,-4.75,31.144444444444446,7.611111111111086,197.93333333333334
614,795114,,,,,,,,-0.68359375,-0.51171875,0.046875,0.658203125,-0.896484375,-4.75,31.144444444444446,7.611111111111086,197.93333333333334
615,795115,,,,,,,,-0.41015625,0.0625,-0.55859375,-0.193359375,-0.189453125,-1.5390625,4.066666666666663,-11.377777777777794,135.04444444444445
616,795116,,,,,,,,-0.41015625,0.0625,-0.55859375,-0.193359375,-0.189453125,-1.5390625,4.066666666666663,-11.377777777777794,135.04444444444445
617,795117,,,,,,,,-0.41015625,0.0625,-0.55859375,-0.193359375,-0.189453125,-1.5390625,4.066666666666663,-11.377777777777794,135.04444444444445
618,795118,,,,,,,,-0.41015625,0.0625,-0.55859375,-0.193359375,-0.189453125,-1.5390625,4.066666666666663,-11.377777777777794,135.04444444444445
619,795119,,,,,,,,-0.41015625,0.0625,-0.55859375,-0.193359375,-0.189453125,-1.5390625,4.066666666666663,-11.377777777777794,135.04444444444445
620,795120,36.01283016666666,129.32208033333333,313.74885108113426,47.73656677195171,0.30000000000000004,65535.0,,-0.62109375,0.4375,0.34765625,0.818359375,0.00390625,-4.271484375,31.0,9.588888888888903,200.92222222222222
621,795121,,,,,,,,-0.7578125,0.52734375,0.0703125,0.904296875,0.662109375,-3.693359375,30.366666666666674,11.444444444444457,203.56666666666666
622,795122,,,,,,,,-0.66015625,0.453125,-0.21875,0.849609375,1.095703125,-3.0859375,29.455555555555577,12.97777777777776,205.61111111111111
623,795123,,,,,,,,-0.46875,0.33203125,-0.46484375,0.685546875,1.392578125,-2.48046875,28.377777777777794,14.177777777777806,207.17777777777778
624,795124,,,,,,,,-0.21875,0.078125,-1.09375,0.37890625,1.669921875,-1.841796875,27.177777777777806,15.02222222222224,208.3111111111111
625,795125,,,,,,,,0.14453125,0.11328125,-1.04296875,-0.06640625,1.763671875,-1.162109375,26.03333333333336,15.388888888888914,208.9111111111111
626,795126,,,,,,,,0.421875,0.421875,-1.04296875,-0.5703125,1.625,-0.478515625,24.97777777777776,15.300000000000011,209.12222222222223
627,795127,,,,,,,,0.25,0.5625,-0.73046875,-1.01953125,1.345703125,0.2890625,24.177777777777806,14.777777777777771,208.92222222222222
628,795128,,,,,,,,-0.5,0.34765625,-0.84765625,-1.376953125,1.212890625,1.185546875,23.53333333333336,13.788888888888891,208.23333333333332
629,795129,,,,,,,,-1.2265625,0.4296875,-0.11328125,-1.56640625,1.31640625,2.205078125,23.03333333333336,12.46666666666664,207.0222222222222
630,795130,36.01283083333333,129.32208016666667,313.733823593077,47.810539062475684,0.4,65535.0,,-1.515625,0.625,0.3828125,-1.609375,1.130859375,3.29296875,22.666666666666686,10.844444444444434,205.17777777777778
631,795131,,,,,,,,-1.4609375,1.203125,0.671875,-1.6015625,0.55078125,4.275390625,22.555555555555543,9.01111111111112,202.7888888888889
632,795132,,,,,,,,-0.02734375,1.05078125,0.11328125,-1.505859375,0.017578125,4.94140625,22.74444444444447,6.98888888888888,199.87777777777777
633,795133,,,,,,,,0.56640625,0.88671875,-0.28515625,-1.345703125,-0.138671875,5.15234375,23.066666666666663,5.044444444444423,196.9
634,795134,,,,,,,,0.328125,0.9296875,-0.40234375,-1.158203125,-0.166015625,5.13671875,23.355555555555554,2.98888888888888,193.54444444444445
635,795135,,,,,,,,-0.61328125,0.23828125,0.3671875,-0.919921875,-0.234375,5.130859375,23.555555555555543,1.1999999999999886,190.5
636,795136,,,,,,,,-0.72265625,0.47265625,0.45703125,-0.66015625,-0.33984375,5.25390625,23.73333333333335,-0.6333333333333258,187.11111111111111
637,795137,,,,,,,,-0.40234375,0.59375,0.7421875,-0.404296875,-0.52734375,5.349609375,23.888888888888914,-2.2333333333333485,183.86666666666667
638,795138,,,,,,,,-0.44140625,0.94140625,0.6484375,-0.162109375,-0.69921875,5.322265625,24.066666666666663,-3.8111111111111313,180.37777777777777
639,795139,,,,,,,,-0.35546875,1.14453125,0.453125,0.025390625,-0.86328125,5.19921875,24.26666666666665,-5.199999999999989,177.06666666666666
640,795140,36.012830666666666,129.3220795,313.67372486794767,47.79204370914505,0.4,65535.0,,-0.171875,0.64453125,0.4140625,0.1484375,-1.140625,4.93359375,24.53333333333336,-6.5,173.8111111111111
641,795141,,,,,,,,-0.3515625,0.03515625,0.34765625,0.189453125,-1.443359375,4.5625,24.899999999999977,-7.622222222222206,170.88888888888889
642,795142,,,,,,,,0.078125,-0.94921875,-0.55859375,0.150390625,-1.5390625,4.12890625,25.399999999999977,-8.788888888888891,167.87777777777777
643,795143,,,,,,,,-0.109375,-0.49609375,-0.9609375,0.033203125,-1.24609375,3.609375,25.81111111111113,-9.844444444444434,165.3111111111111
644,795144,,,,,,,,-0.375,0.296875,-0.6171875,-0.142578125,-0.779296875,3.181640625,26.03333333333336,-10.855555555555554,163.05555555555554
645,795145,,,,,,,,-0.4140625,0.51953125,-0.05078125,-0.3671875,-0.3671875,2.85546875,26.0,-11.866666666666674,161.06666666666666
646,795146,,,,,,,,-0.4296875,0.171875,1.109375,-0.61328125,-0.12109375,2.6484375,25.80000000000001,-12.866666666666674,159.38888888888889
647,795147,,,,,,,,-0.11328125,0.296875,1.0078125,-0.857421875,0.048828125,2.498046875,25.47777777777776,-13.955555555555577,157.8111111111111
648,795148,,,,,,,,-0.0078125,0.484375,0.56640625,-1.05078125,0.322265625,2.328125,25.0,-15.166666666666686,156.2888888888889
649,795149,,,,,,,,-0.01953125,0.51171875,0.1875,-1.138671875,0.73046875,2.171875,24.355555555555554,-16.333333333333314,155.0
650,795150,36.012830666666666,129.32207933333333,313.6587000197264,47.79204317276874,0.4,65535.0,,-0.8046875,0.375,0.13671875,-1.091796875,1.07421875,2.072265625,23.5,-17.411111111111097,153.87777777777777
651,795151,,,,,,,,-1.15625,0.5390625,0.28125,-0.91796875,1.177734375,2.08203125,22.52222222222224,-18.377777777777794,152.85555555555555
652,795152,,,,,,,,-1.23046875,0.52734375,0.48828125,-0.623046875,1.08203125,2.166015625,21.52222222222224,-19.18888888888887,151.84444444444443
653,795153,,,,,,,,-1.5390625,-0.17578125,0.81640625,-0.26171875,0.791015625,2.32421875,20.577777777777783,-19.833333333333314,150.72222222222223
654,795154,,,,,,,,-1.34765625,-0.43359375,0.6484375,0.11328125,0.443359375,2.486328125,19.77777777777777,-20.30000000000001,149.4777777777778
655,795155,,,,,,,,-0.9296875,-0.69140625,0.27734375,0.458984375,0.22265625,2.58984375,19.122222222222206,-20.577777777777783,148.16666666666666
656,795156,,,,,,,,-0.29296875,-0.77734375,0.140625,0.779296875,0.2265625,2.591796875,18.455555555555577,-20.677777777777806,146.67777777777778
657,795157,,,,,,,,0.19921875,-0.32421875,0.5234375,1.115234375,0.40625,2.517578125,17.77777777777777,-20.555555555555543,145.33333333333334
658,795158,,,,,,,,0.046875,-0.02734375,0.46875,1.41015625,0.4921875,2.44140625,17.02222222222224,-20.21111111111111,143.98888888888888
659,795159,,,,,,,,0.01171875,0.1015625,0.18359375,1.5703125,0.408203125,2.392578125,16.30000000000001,-19.72222222222223,142.72222222222223
660,795160,36.01282966666667,129.32208016666667,313.7338282164593,47.68108661710906,0.30000000000000004,65535.0,,0.07421875,0.015625,0.0078125,1.58203125,0.345703125,2.3359375,15.644444444444446,-19.144444444444446,141.45555555555555
661,795161,,,,,,,,0.4453125,0.16796875,-1.00390625,1.3828125,0.42578125,2.23046875,15.0,-18.611111111111086,140.22222222222223
662,795162,,,,,,,,0.6328125,0.19921875,-1.05078125,0.9375,0.703125,2.068359375,14.311111111111131,-18.22222222222223,139.13333333333333
663,795163,,,,,,,,0.44921875,0.10546875,-0.671875,0.37890625,0.984375,1.888671875,13.544444444444423,-18.077777777777783,138.22222222222223
664,795164,,,,,,,,0.13671875,0.05078125,-0.00390625,-0.126953125,1.0390625,1.724609375,12.622222222222206,-18.18888888888887,137.35555555555555
665,795165,,,,,,,,-0.609375,-0.26171875,0.6015625,-0.552734375,0.853515625,1.53125,11.800000000000011,-18.53333333333336,136.61111111111111
666,795166,,,,,,,,-0.15625,-0.6328125,0.03515625,-0.982421875,0.646484375,1.056640625,11.155555555555566,-19.077777777777783,136.03333333333333
667,795167,,,,,,,,0.95703125,-0.09765625,-0.82421875,-1.404296875,0.677734375,0.4140625,10.666666666666686,-19.80000000000001,135.75555555555556
668,795168,,,,,,,,0.40625,-0.26171875,-0.28515625,-1.78125,0.62109375,-0.208984375,10.300000000000011,-20.677777777777806,135.82222222222222
669,795169,,,,,,,,0.55078125,-0.28125,-0.578125,-2.15234375,0.44921875,-0.80859375,10.111111111111086,-21.75555555555553,136.22222222222223
670,795170,36.012829333333336,129.3220805,313.76387923036333,47.64410127761727,0.2,65535.0,,0.1015625,-0.20703125,-0.62109375,-2.478515625,0.486328125,-1.294921875,10.088888888888903,-22.955555555555577,136.88888888888889
671,795171,,,,,,,,-0.60546875,-0.234375,-0.06640625,-2.681640625,0.4296875,-1.6328125,10.177777777777806,-24.26666666666665,137.76666666666668
672,795172,,,,,,,,-0.828125,-0.5390625,0.78515625,-2.6796875,0.29296875,-1.8828125,10.388888888888914,-25.544444444444423,138.72222222222223
673,795173,,,,,,,,-0.99609375,-0.54296875,0.734375,-2.484375,0.3671875,-2.06640625,10.722222222222229,-26.81111111111113,139.84444444444443
674,795174,,,,,,,,-0.9375,-0.53125,0.55859375,-2.146484375,0.66796875,-2.25,11.03333333333336,-27.933333333333337,141.13333333333333
675,795175,,,,,,,,-0.8828125,-0.56640625,0.7421875,-1.701171875,0.9296875,-2.455078125,11.266666666666652,-28.75555555555553,142.56666666666666
676,795176,,,,,,,,-0.8828125,-0.56640625,0.7421875,-1.701171875,0.9296875,-2.455078125,11.266666666666652,-28.75555555555553,142.56666666666666
677,795177,,,,,,,,-0.9609375,-0.83203125,1.13671875,-1.201171875,0.951171875,-2.64453125,11.5,-29.26666666666665,144.13333333333333
678,795178,,,,,,,,-0.85546875,-1.078125,1.39453125,-0.70703125,0.716796875,-2.828125,11.844444444444434,-29.47777777777776,145.75555555555556
679,795179,,,,,,,,-0.71875,-1.2109375,1.40234375,-0.216796875,0.419921875,-2.990234375,12.366666666666674,-29.388888888888914,147.4
680,795180,36.01282883333333,129.32208133333333,313.83900544764646,47.5886243416363,0.2,65535.0,,-0.25390625,-1.2734375,1.01171875,-2.478515625,0.486328125,-1.294921875,10.088888888888903,-22.955555555555577,136.88888888888889
681,795181,,,,,,,,0.3359375,-1.50390625,1.3359375,0.7890625,-0.005859375,-3.60546875,13.933333333333337,-28.27777777777777,150.82222222222222
682,795182,,,,,,,,0.33203125,-1.5546875,1.28125,1.341796875,-0.15625,-4.189453125,14.955555555555577,-27.21111111111111,152.75555555555556
683,795183,,,,,,,,0.16796875,-1.58203125,0.98828125,1.888671875,-0.2109375,-4.783203125,16.22222222222223,-25.588888888888903,155.17777777777778
684,795184,,,,,,,,-0.15234375,-1.12109375,0.7265625,2.388671875,-0.302734375,-5.294921875,17.51111111111112,-23.644444444444446,157.76666666666668
685,795185,,,,,,,,-0.5390625,-0.94140625,0.609375,2.79296875,-0.5078125,-5.685546875,18.96666666666664,-21.111111111111086,160.86666666666667
686,795186,,,,,,,,-0.71875,-0.66796875,0.23046875,3.029296875,-0.693359375,-5.8984375,20.333333333333314,-18.48888888888888,163.9
687,795187,,,,,,,,-0.984375,-0.5234375,-0.20703125,3.052734375,-0.794921875,-5.943359375,21.77777777777777,-15.433333333333337,167.36666666666667
688,795188,,,,,,,,-1.06640625,-0.2578125,-0.28125,2.853515625,-1.00390625,-5.896484375,23.077777777777783,-12.433333333333337,170.77777777777777
689,795189,,,,,,,,-0.953125,-0.25,-0.08984375,2.4765625,-1.3515625,-5.833984375,24.366666666666674,-9.51111111111112,174.23333333333332
690,795190,36.012828,129.32208083333336,313.79393421300006,47.49615669871423,0.2,65535.0,,-1.02734375,0.00390625,-0.13671875,-2.478515625,0.486328125,-1.294921875,10.088888888888903,-22.955555555555577,136.88888888888889
691,795191,,,,,,,,-0.72265625,0.859375,-0.3125,1.55859375,-1.611328125,-5.4765625,26.844444444444434,-4.2222222222222285,181.11111111111111
692,795192,,,,,,,,-0.765625,0.9375,-0.640625,1.146484375,-1.478515625,-5.115234375,27.877777777777794,-1.8888888888889142,184.48888888888888
693,795193,,,,,,,,-1.1953125,1.21484375,-0.73046875,0.765625,-1.3828125,-4.595703125,28.73333333333335,0.15555555555556566,187.63333333333333
694,795194,,,,,,,,-1.4609375,1.43359375,-1.203125,0.326171875,-1.236328125,-3.857421875,29.433333333333337,1.8444444444444343,190.43333333333334
695,795195,,,,,,,,-0.296875,0.9609375,-0.8671875,-0.43359375,-0.279296875,-1.900390625,30.144444444444446,3.611111111111086,194.16666666666666
696,795196,,,,,,,,-0.2109375,0.59375,-0.51953125,-0.66015625,0.220703125,-0.931640625,30.100000000000023,3.7777777777777715,195.13333333333333
697,795197,,,,,,,,-0.45703125,0.6015625,-0.3984375,-0.908203125,0.435546875,0.08203125,29.888888888888914,3.455555555555577,195.4
698,795198,,,,,,,,-0.78515625,0.3359375,-1.578125,-1.23828125,0.849609375,1.16796875,29.53333333333336,2.611111111111086,194.95555555555555
699,795199,,,,,,,,-0.69140625,0.41796875,-1.3359375,-1.58203125,1.533203125,2.220703125,28.877777777777794,1.2666666666666515,193.82222222222222
700,795200,36.01282766666667,129.32208083333336,313.7939355339679,47.45917028688194,0.2,65535.0,166.0,-1.02734375,0.00390625,-0.13671875,-2.478515625,0.486328125,-1.294921875,10.088888888888903,-22.955555555555577,136.88888888888889
701,795201,,,,,,,,-1.02734375,0.00390625,-0.13671875,-2.478515625,0.486328125,-1.294921875,10.088888888888903,-22.955555555555577,136.88888888888889
702,795202,,,,,,,,-1.02734375,0.00390625,-0.13671875,-2.478515625,0.486328125,-1.294921875,10.088888888888903,-22.955555555555577,136.88888888888889
703,795203,,,,,,,,-1.02734375,0.00390625,-0.13671875,-2.478515625,0.486328125,-1.294921875,10.088888888888903,-22.955555555555577,136.88888888888889
704,795204,,,,,,,,-1.02734375,0.00390625,-0.13671875,-2.478515625,0.486328125,-1.294921875,10.088888888888903,-22.955555555555577,136.88888888888889
705,795205,,,,,,,,-1.02734375,0.00390625,-0.13671875,-2.478515625,0.486328125,-1.294921875,10.088888888888903,-22.955555555555577,136.88888888888889
706,795206,,,,,,,,-1.02734375,0.00390625,-0.13671875,-2.478515625,0.486328125,-1.294921875,10.088888888888903,-22.955555555555577,136.88888888888889
707,795207,,,,,,,,-1.02734375,0.00390625,-0.13671875,-2.478515625,0.486328125,-1.294921875,10.088888888888903,-22.955555555555577,136.88888888888889
708,795208,,,,,,,,-1.02734375,0.00390625,-0.13671875,-2.478515625,0.486328125,-1.294921875,10.088888888888903,-22.955555555555577,136.88888888888889
709,795209,,,,,,,,-1.02734375,0.00390625,-0.13671875,-2.478515625,0.486328125,-1.294921875,10.088888888888903,-22.955555555555577,136.88888888888889
710,795210,36.01282616666666,129.32208116666666,313.8239911714875,47.292732502368565,0.2,65535.0,,-0.796875,0.0859375,1.4921875,1.52734375,1.642578125,4.60546875,13.611111111111086,-21.388888888888914,150.0222222222222
711,795211,,,,,,,,-1.23046875,0.4921875,2.13671875,1.669921875,1.267578125,4.28125,11.822222222222194,-20.899999999999977,147.77777777777777
712,795212,,,,,,,,-1.23046875,0.4921875,2.13671875,1.669921875,1.267578125,4.28125,11.822222222222194,-20.899999999999977,147.77777777777777
713,795213,,,,,,,,-1.01953125,0.53515625,1.5,1.62890625,0.611328125,3.921875,10.555555555555543,-20.377777777777794,145.82222222222222
714,795214,,,,,,,,0.171875,-0.27734375,-0.6328125,1.375,0.220703125,3.3984375,9.577777777777783,-19.833333333333314,143.84444444444443
715,795215,,,,,,,,-0.09375,-0.33984375,-0.90234375,1.017578125,0.201171875,2.80078125,8.855555555555554,-19.399999999999977,142.15555555555557
716,795216,,,,,,,,-0.09375,-0.33984375,-0.90234375,1.017578125,0.201171875,2.80078125,8.855555555555554,-19.399999999999977,142.15555555555557
717,795217,,,,,,,,-0.7265625,-0.2265625,-0.55078125,0.6875,0.20703125,2.30859375,8.255555555555532,-19.100000000000023,140.8
718,795218,,,,,,,,-0.99609375,-0.06640625,-0.10546875,0.46875,0.09375,1.921875,7.7777777777777715,-18.933333333333337,139.66666666666666
719,795219,,,,,,,,-0.99609375,-0.06640625,-0.10546875,0.46875,0.09375,1.921875,7.7777777777777715,-18.933333333333337,139.66666666666666
720,795220,36.01282616666666,129.32208116666666,313.8239911714875,47.292732502368565,0.1,65535.0,,-0.52734375,0.03125,0.921875,0.38671875,-0.080078125,1.5234375,7.455555555555577,-18.80000000000001,138.75555555555556
721,795221,,,,,,,,-0.49609375,-0.03515625,1.2421875,0.44921875,-0.279296875,1.11328125,7.300000000000011,-18.644444444444446,137.96666666666667
722,795222,,,,,,,,-0.609375,-0.26171875,1.2265625,0.580078125,-0.365234375,0.76953125,7.300000000000011,-18.411111111111097,137.38888888888889
723,795223,,,,,,,,-0.6640625,-0.4296875,0.8359375,0.685546875,-0.302734375,0.49609375,7.355555555555554,-18.100000000000023,136.9777777777778
724,795224,,,,,,,,-0.34375,-0.4140625,0.16796875,0.71484375,-0.2265625,0.19140625,7.433333333333337,-17.72222222222223,136.74444444444444
725,795225,,,,,,,,-0.12890625,-0.515625,-0.046875,0.673828125,-0.25,-0.16015625,7.555555555555543,-17.322222222222194,136.6888888888889
726,795226,,,,,,,,0.0234375,-0.65625,-0.12890625,0.59765625,-0.3203125,-0.494140625,7.7666666666666515,-16.933333333333337,136.8111111111111
727,795227,,,,,,,,0.4453125,-0.6484375,0.0078125,0.525390625,-0.37890625,-0.787109375,8.044444444444423,-16.555555555555543,137.1
728,795228,,,,,,,,0.4296875,-0.43359375,-0.078125,0.505859375,-0.365234375,-1.029296875,8.399999999999977,-16.19999999999999,137.53333333333333
729,795229,,,,,,,,0.3671875,-0.19140625,-0.0859375,0.552734375,-0.267578125,-1.21484375,8.733333333333348,-15.800000000000011,138.1
730,795230,36.01282583333333,129.32208166666666,313.86906703489245,47.25574770033801,0.1,65535.0,,0.3203125,-0.0390625,0.015625,0.673828125,-0.208984375,-1.34765625,9.055555555555543,-15.333333333333314,138.77777777777777
731,795231,,,,,,,,-1.0390625,0.37109375,0.6484375,0.8203125,-0.3046875,-1.419921875,9.388888888888914,-14.811111111111131,139.4777777777778
732,795232,,,,,,,,-0.08203125,0.00390625,0.05859375,0.921875,-0.55078125,-1.515625,9.844444444444434,-14.155555555555566,140.25555555555556
733,795233,,,,,,,,0.21484375,-0.10546875,-0.1796875,0.951171875,-0.58984375,-1.73046875,10.355555555555554,-13.48888888888888,141.06666666666666
734,795234,,,,,,,,0.05078125,-0.34765625,0.34375,0.888671875,-0.60546875,-2.03515625,10.944444444444457,-12.755555555555532,142.07777777777778
735,795235,,,,,,,,0.80078125,-0.3125,-0.8828125,0.662109375,-0.4375,-2.4375,11.5,-12.066666666666663,143.2888888888889
736,795236,,,,,,,,0.73046875,-0.3984375,-1.19921875,0.25390625,-0.017578125,-2.875,11.933333333333337,-11.48888888888888,144.77777777777777
737,795237,,,,,,,,0.5390625,-0.4609375,-0.8515625,-0.208984375,0.3984375,-3.330078125,12.166666666666686,-11.088888888888903,146.57777777777778
738,795238,,,,,,,,0.53125,-0.52734375,-0.36328125,-0.607421875,0.6953125,-3.767578125,12.233333333333348,-10.877777777777794,148.67777777777778
739,795239,,,,,,,,0.078125,-0.4609375,-0.32421875,-0.892578125,0.939453125,-4.10546875,12.199999999999989,-10.800000000000011,151.04444444444445
740,795240,36.0128255,129.32208183333333,313.8840932033611,47.218761824098976,0.1,65535.0,,-0.234375,-0.17578125,-0.2109375,-1.052734375,1.099609375,-4.271484375,12.066666666666663,-10.811111111111131,153.55555555555554
741,795241,,,,,,,,-0.59375,-0.0390625,0.01171875,-1.123046875,1.083984375,-4.28515625,11.911111111111097,-10.899999999999977,156.1
742,795242,,,,,,,,-0.9140625,-0.3984375,0.08984375,-1.16015625,0.9296875,-4.251953125,11.811111111111131,-11.01111111111112,158.5888888888889
743,795243,,,,,,,,-0.953125,-0.44140625,0.05859375,-1.21875,0.705078125,-4.23828125,11.811111111111131,-11.166666666666686,161.07777777777778
744,795244,,,,,,,,-0.90234375,-0.43359375,0.11328125,-1.275390625,0.451171875,-4.248046875,11.955555555555577,-11.377777777777794,163.66666666666666
745,795245,,,,,,,,-0.984375,-0.3203125,0.16796875,-1.279296875,0.197265625,-4.248046875,12.255555555555532,-11.577777777777783,166.16666666666666
746,795246,,,,,,,,-0.6640625,-0.01953125,0.6875,-1.197265625,-0.044921875,-4.25390625,12.699999999999989,-11.766666666666652,168.64444444444445
747,795247,,,,,,,,-0.68359375,0.03515625,0.90234375,-1.021484375,-0.228515625,-4.263671875,13.233333333333348,-11.844444444444434,170.9111111111111
748,795248,,,,,,,,-0.70703125,0.06640625,0.91015625,-0.79296875,-0.244140625,-4.2265625,13.877777777777794,-11.788888888888891,173.42222222222222
749,795249,,,,,,,,-0.6875,0.109375,0.7734375,-0.5234375,-0.060546875,-4.146484375,14.433333333333337,-11.566666666666663,175.8111111111111
750,795250,36.012825666666664,129.3220821666667,313.9141422418432,47.23725610425233,0.0,65535.0,,-0.296875,0.171875,0.78125,-0.234375,0.1953125,-4.068359375,14.855555555555554,-11.177777777777806,178.2111111111111
751,795251,,,,,,,,-0.265625,0.19140625,0.7734375,0.0546875,0.380859375,-4.02734375,15.122222222222206,-10.611111111111086,180.57777777777778
752,795252,,,,,,,,-0.2890625,0.08203125,0.53515625,0.26171875,0.478515625,-4.00390625,15.288888888888891,-9.888888888888914,182.9777777777778
753,795253,,,,,,,,-0.18359375,0.46484375,0.0234375,0.34765625,0.462890625,-3.9765625,15.388888888888914,-9.100000000000023,185.2888888888889
754,795254,,,,,,,,-0.0546875,0.5234375,-0.0703125,0.318359375,0.275390625,-3.896484375,15.51111111111112,-8.266666666666652,187.67777777777778
755,795255,,,,,,,,-0.015625,0.64453125,-0.19140625,0.232421875,-0.017578125,-3.73046875,15.722222222222229,-7.53333333333336,189.82222222222222
756,795256,,,,,,,,0.0078125,0.76171875,-0.23046875,0.1484375,-0.271484375,-3.439453125,16.055555555555543,-6.833333333333314,191.98888888888888
757,795257,,,,,,,,0.09765625,0.78515625,0.0078125,0.126953125,-0.40625,-3.017578125,16.433333333333337,-6.2444444444444684,193.8
758,795258,,,,,,,,-0.05859375,0.5,0.47265625,0.232421875,-0.529296875,-2.48828125,16.877777777777794,-5.655555555555566,195.45555555555555
759,795259,,,,,,,,-0.2421875,0.3671875,0.60546875,0.486328125,-0.701171875,-1.828125,17.333333333333314,-5.088888888888903,196.7
760,795260,36.01282533333333,129.32208233333333,313.929168408641,47.20027022811009,0.0,65535.0,,-0.63671875,0.41796875,0.421875,0.833984375,-0.822265625,-1.056640625,17.833333333333314,-4.455555555555577,197.5222222222222
761,795261,,,,,,,,-0.828125,0.578125,0.3203125,1.220703125,-0.84765625,-0.26953125,18.333333333333314,-3.7555555555555316,197.87777777777777
762,795262,,,,,,,,-0.66796875,0.26171875,0.3359375,1.634765625,-0.765625,0.396484375,18.77777777777777,-2.955555555555577,197.8
763,795263,,,,,,,,-0.1953125,-0.01171875,0.27734375,1.98828125,-0.779296875,0.8515625,19.19999999999999,-2.055555555555543,197.38888888888889
764,795264,,,,,,,,0.1015625,0.32421875,0.453125,2.224609375,-1.09375,1.169921875,19.71111111111111,-1.055555555555543,196.75555555555556
765,795265,,,,,,,,0.18359375,0.28125,0.4140625,2.359375,-1.56640625,1.388671875,20.411111111111097,-0.06666666666666288,195.98888888888888
766,795266,,,,,,,,0.203125,0.1796875,0.01953125,2.375,-1.9453125,1.4765625,21.46666666666664,1.02222222222224,195.06666666666666
767,795267,,,,,,,,0.17578125,0.13671875,-0.48828125,2.275390625,-2.0234375,1.455078125,22.600000000000023,2.01111111111112,194.1888888888889
768,795268,,,,,,,,0.00390625,0.65625,-1.13671875,2.08203125,-1.76953125,1.392578125,23.655555555555566,2.888888888888914,193.37777777777777
769,795269,,,,,,,,-0.296875,0.75390625,-1.01953125,1.830078125,-1.419921875,1.357421875,24.655555555555566,3.7222222222222285,192.5222222222222
770,795270,36.0128245,129.32208266666666,313.9592214085203,47.10780527045578,0.1,65535.0,,-0.84375,0.8203125,-0.7265625,1.5390625,-1.1796875,1.427734375,25.444444444444457,4.333333333333314,191.7
771,795271,,,,,,,,-1.14453125,0.8671875,-0.14453125,1.279296875,-1.1796875,1.580078125,26.177777777777806,4.7555555555555316,190.7888888888889
772,795272,,,,,,,,-0.91796875,0.57421875,0.4453125,1.068359375,-1.359375,1.7265625,26.955555555555577,4.97777777777776,189.8111111111111
773,795273,,,,,,,,-0.89453125,0.48828125,-0.09765625,0.81640625,-1.453125,1.8203125,27.80000000000001,5.02222222222224,188.7888888888889
774,795274,,,,,,,,-0.9609375,0.48046875,-0.25390625,0.5234375,-1.45703125,1.8671875,28.75555555555553,4.877777777777794,187.61111111111111
775,795275,,,,,,,,-1.33203125,0.484375,-0.0234375,0.259765625,-1.5625,1.90234375,29.69999999999999,4.53333333333336,186.44444444444446
776,795276,,,,,,,,-1.5625,0.33984375,0.0546875,0.056640625,-1.826171875,2.078125,30.73333333333335,4.01111111111112,185.2111111111111
777,795277,,,,,,,,-1.3125,0.21875,-0.00390625,-0.0703125,-2.08984375,2.330078125,31.922222222222217,3.2666666666666515,183.8
778,795278,,,,,,,,-1.1875,0.03515625,-0.28515625,-0.125,-1.9453125,2.57421875,33.122222222222206,2.3555555555555543,182.2
779,795279,,,,,,,,-0.32421875,-0.04296875,0.02734375,-0.119140625,-1.47265625,2.755859375,34.10000000000002,1.3333333333333144,180.4777777777778
780,795280,36.012823166666664,129.32208283333333,313.97425154290823,46.95986015630934,0.1,65535.0,,0.109375,0.12109375,0.359375,-0.076171875,-0.998046875,2.734375,34.844444444444434,0.15555555555556566,178.48888888888888
781,795281,,,,,,,,0.23828125,0.26171875,0.21484375,-0.0859375,-0.59375,2.5078125,35.25555555555553,-0.8888888888889142,176.73333333333332
782,795282,,,,,,,,0.4453125,0.31640625,-0.10546875,-0.173828125,-0.15625,2.16015625,35.44444444444446,-1.9666666666666401,174.98888888888888
783,795283,,,,,,,,0.953125,0.21875,-0.61328125,-0.3203125,0.3125,1.736328125,35.344444444444434,-2.911111111111097,173.61111111111111
784,795284,,,,,,,,1.0,0.21484375,-0.7109375,-0.458984375,0.708984375,1.279296875,35.0,-3.7333333333333485,172.57777777777778
785,795285,,,,,,,,0.7265625,0.19921875,-0.68359375,-0.51171875,0.939453125,0.904296875,34.47777777777776,-4.411111111111097,171.84444444444443
786,795286,,,,,,,,-0.0390625,0.0859375,0.04296875,-0.431640625,0.91015625,0.69921875,33.9111111111111,-4.96666666666664,171.33333333333334
787,795287,,,,,,,,0.11328125,-0.00390625,0.03515625,-0.240234375,0.744140625,0.59375,33.4111111111111,-5.377777777777794,170.93333333333334
788,795288,,,,,,,,0.0625,-0.15625,-0.078125,0.01171875,0.685546875,0.54296875,32.95555555555558,-5.622222222222206,170.5888888888889
789,795289,,,,,,,,-0.14453125,-0.37890625,0.07421875,0.328125,0.796875,0.6015625,32.51111111111112,-5.711111111111109,170.24444444444444
790,795290,36.012823000000004,129.32208316666666,314.0043018994761,46.9413680241349,0.1,65535.0,,-0.40234375,-0.4609375,0.33203125,0.701171875,1.060546875,0.76953125,31.944444444444457,-5.622222222222206,169.84444444444443
791,795291,,,,,,,,-0.22265625,-0.37890625,0.4921875,1.06640625,1.208984375,0.919921875,31.23333333333335,-5.366666666666674,169.33333333333334
792,795292,,,,,,,,-0.12109375,-0.28125,0.58203125,1.35546875,1.115234375,0.943359375,30.52222222222224,-4.944444444444457,168.77777777777777
793,795293,,,,,,,,0.01171875,-0.28125,0.375,1.546875,0.97265625,0.828125,29.888888888888914,-4.388888888888914,168.24444444444444
794,795294,,,,,,,,0.6796875,-0.12109375,0.16015625,1.685546875,1.068359375,0.642578125,29.25555555555553,-3.6555555555555657,167.7888888888889
795,795295,,,,,,,,0.54296875,-0.00390625,0.33203125,1.783203125,1.234375,0.44921875,28.611111111111086,-2.8666666666666742,167.48888888888888
796,795296,,,,,,,,0.23046875,0.046875,0.39453125,1.798828125,1.228515625,0.3046875,27.888888888888914,-1.9222222222222172,167.26666666666668
797,795297,,,,,,,,0.0625,0.0625,0.109375,1.673828125,1.095703125,0.181640625,27.21111111111111,-0.9777777777777601,167.12222222222223
798,795298,,,,,,,,-0.08203125,0.00390625,-0.328125,1.40625,0.962890625,0.044921875,26.611111111111086,-0.1222222222222058,167.04444444444445
799,795299,,,,,,,,-0.0703125,-0.10546875,-0.48046875,1.052734375,0.88671875,-0.10546875,26.077777777777783,0.5888888888889028,167.05555555555554
800,795300,36.01282383333333,129.32208383333332,314.06439798751774,47.03383620324728,0.1,65535.0,166.0,-0.40234375,-0.4609375,0.33203125,0.701171875,1.060546875,0.76953125,31.944444444444457,-5.622222222222206,169.84444444444443
801,795301,,,,,,,,-0.40234375,-0.4609375,0.33203125,0.701171875,1.060546875,0.76953125,31.944444444444457,-5.622222222222206,169.84444444444443
802,795302,,,,,,,,-0.40234375,-0.4609375,0.33203125,0.701171875,1.060546875,0.76953125,31.944444444444457,-5.622222222222206,169.84444444444443
803,795303,,,,,,,,-0.40234375,-0.4609375,0.33203125,0.701171875,1.060546875,0.76953125,31.944444444444457,-5.622222222222206,169.84444444444443
804,795304,,,,,,,,-0.40234375,-0.4609375,0.33203125,0.701171875,1.060546875,0.76953125,31.944444444444457,-5.622222222222206,169.84444444444443
805,795305,,,,,,,,-0.40234375,-0.4609375,0.33203125,0.701171875,1.060546875,0.76953125,31.944444444444457,-5.622222222222206,169.84444444444443
806,795306,,,,,,,,-0.40234375,-0.4609375,0.33203125,0.701171875,1.060546875,0.76953125,31.944444444444457,-5.622222222222206,169.84444444444443
807,795307,,,,,,,,-0.40234375,-0.4609375,0.33203125,0.701171875,1.060546875,0.76953125,31.944444444444457,-5.622222222222206,169.84444444444443
808,795308,,,,,,,,-0.40234375,-0.4609375,0.33203125,0.701171875,1.060546875,0.76953125,31.944444444444457,-5.622222222222206,169.84444444444443
809,795309,,,,,,,,-0.40234375,-0.4609375,0.33203125,0.701171875,1.060546875,0.76953125,31.944444444444457,-5.622222222222206,169.84444444444443
810,795310,36.012821833333334,129.32208466666668,314.1395301661031,46.811920413584765,0.0,65535.0,,-0.00390625,0.33203125,0.27734375,0.78515625,0.43359375,-0.4921875,21.69999999999999,2.8444444444444343,169.14444444444445
811,795311,,,,,,,,-0.1015625,0.36328125,0.078125,0.78515625,0.619140625,-0.5,21.377777777777794,3.3999999999999773,169.42222222222222
812,795312,,,,,,,,-0.23828125,0.359375,-0.2421875,0.626953125,0.603515625,-0.443359375,21.0,3.911111111111097,169.67777777777778
