time,latitude,longitude,enu_x,enu_y,speed,course,ecg,accX,accY,accZ,gyrX,gyrY,gyrZ,eulR,eulP,eulY,validity
4805730,36.013449666666666,129.319539,84.64932460005421,116.47062371772031,1.1,56.0,,-0.75,0.078125,-0.99609375,0.001953125,-0.12890625,-0.09765625,0.73828125,-11.89453125,4.62109375,1.0
4805731,,,,,,,,-0.50390625,-2.5859375,3.1171875,0.2890625,0.017578125,-0.29296875,0.69921875,-11.6640625,4.046875,1.0
4805732,,,,,,,,-0.34375,-2.05859375,2.2421875,0.345703125,0.01953125,-0.234375,0.890625,-11.0859375,3.47265625,1.0
4805733,,,,,,,,-0.16796875,-1.17578125,1.62890625,0.291015625,0.1484375,-0.142578125,1.00390625,-10.32421875,3.05078125,1.0
4805734,,,,,,,,-0.3359375,-0.57421875,1.328125,0.203125,0.283203125,-0.033203125,0.8125,-9.82421875,2.859375,1.0
4805735,,,,,,,,-0.328125,-0.3515625,1.10546875,0.115234375,0.36328125,0.078125,1.00390625,-9.70703125,2.66796875,1.0
4805736,,,,,,,,-0.16796875,-0.38671875,1.10546875,0.068359375,0.37890625,0.12890625,1.12109375,-9.82421875,2.515625,1.0
4805737,,,,,,,,0.2421875,-0.71875,0.74609375,-0.02734375,0.369140625,0.1796875,1.390625,-10.05859375,2.32421875,1.0
4805738,,,,,,,,0.46484375,-0.83203125,0.71484375,-0.123046875,0.33203125,0.181640625,1.58203125,-10.16796875,2.28515625,1.0
4805739,,,,,,,,0.515625,-0.7109375,0.68359375,-0.15625,0.3203125,0.154296875,1.6171875,-10.0546875,2.24609375,1.0
4805740,36.013450166666665,129.31954016666666,84.75449716710396,116.52610435616299,1.2000000000000002,57.0,,0.3125,0.02734375,0.30078125,-0.001953125,0.33984375,0.056640625,1.390625,-9.32421875,1.86328125,1.0
4805741,,,,,,,,0.01171875,0.8671875,-0.16796875,0.09765625,0.349609375,0.0078125,1.08203125,-8.484375,1.40234375,1.0
4805742,,,,,,,,-0.25,1.3984375,-0.3359375,0.119140625,0.365234375,-0.013671875,0.8125,-7.9453125,1.25,1.0
4805743,,,,,,,,-0.35546875,1.671875,-0.390625,0.123046875,0.38671875,-0.021484375,0.69921875,-7.6796875,1.2109375,1.0
4805744,,,,,,,,-0.35546875,1.86328125,-0.48046875,0.123046875,0.416015625,-0.0234375,0.69921875,-7.48828125,1.13671875,1.0
4805745,,,,,,,,-0.1953125,2.1328125,-0.65234375,0.13671875,0.44140625,-0.0234375,0.8515625,-7.22265625,0.98046875,1.0
4805746,,,,,,,,-0.00390625,2.32421875,-0.8515625,0.15234375,0.447265625,-0.0234375,1.04296875,-7.02734375,0.7890625,1.0
4805747,,,,,,,,0.16015625,2.4296875,-0.91015625,0.16015625,0.458984375,-0.021484375,1.19921875,-6.9140625,0.75390625,1.0
4805748,,,,,,,,0.39453125,2.39453125,-0.8203125,0.13671875,0.4765625,-0.029296875,1.42578125,-6.94921875,0.8671875,1.0
4805749,,,,,,,,0.625,2.4296875,-0.796875,0.138671875,0.490234375,-0.0390625,1.65625,-6.91796875,0.90625,1.0
4805750,36.01345066666667,129.31954083333332,84.81459554950156,116.58158456195825,1.1,55.0,,0.75,2.4296875,-0.78125,0.142578125,0.501953125,-0.052734375,1.7734375,-6.9140625,0.9453125,1.0
4805751,,,,,,,,0.86328125,2.38671875,-0.8125,0.1796875,0.51171875,-0.095703125,1.88671875,-6.94921875,0.9453125,1.0
4805752,,,,,,,,0.75,2.30078125,-0.80078125,0.208984375,0.521484375,-0.12109375,1.7734375,-7.02734375,0.98046875,1.0
4805753,,,,,,,,0.7109375,2.26171875,-0.80859375,0.2109375,0.5234375,-0.1328125,1.734375,-7.0625,0.98046875,1.0
4805754,,,,,,,,0.51171875,2.015625,-0.921875,0.220703125,0.55078125,-0.1796875,1.54296875,-7.30078125,0.90625,1.0
4805755,,,,,,,,0.3203125,1.81640625,-0.87890625,0.22265625,0.564453125,-0.189453125,1.3515625,-7.484375,0.98046875,1.0
4805756,,,,,,,,0.1953125,1.734375,-0.9453125,0.23046875,0.603515625,-0.197265625,1.234375,-7.5625,0.9453125,1.0
4805757,,,,,,,,0.03515625,1.6171875,-0.85546875,0.23828125,0.640625,-0.1953125,1.08203125,-7.68359375,1.05859375,1.0
4805758,,,,,,,,-0.04296875,1.5703125,-0.87109375,0.244140625,0.646484375,-0.1875,1.00390625,-7.71875,1.05859375,1.0
4805759,,,,,,,,-0.05078125,1.34375,-0.93359375,0.2265625,0.638671875,-0.16796875,1.00390625,-7.9453125,1.01953125,1.0
4805760,36.013451333333336,129.319542,84.91976794017371,116.65555841149188,1.2000000000000002,56.0,,-0.01171875,1.1796875,-0.92578125,0.142578125,0.501953125,-0.052734375,1.7734375,-6.9140625,0.9453125,1.0
4805761,,,,,,,,0.06640625,0.8203125,-1.1015625,0.18359375,0.5703125,-0.146484375,1.12109375,-8.44921875,0.90625,1.0
4805762,,,,,,,,0.10546875,0.4296875,-1.0859375,0.13671875,0.533203125,-0.125,1.16015625,-8.83203125,0.9453125,1.0
4805763,,,,,,,,0.01953125,0.23828125,-1.05859375,0.111328125,0.51953125,-0.11328125,1.08203125,-9.015625,0.98046875,1.0
4805764,,,,,,,,-0.05859375,0.078125,-0.87109375,0.07421875,0.525390625,-0.10546875,1.00390625,-9.17578125,1.17578125,1.0
4805765,,,,,,,,-0.40234375,-0.15234375,-0.54296875,0.04296875,0.537109375,-0.1015625,0.66015625,-9.40234375,1.51953125,1.0
4805766,,,,,,,,-0.6328125,-0.34375,-0.24609375,0.033203125,0.529296875,-0.08203125,0.4296875,-9.59375,1.82421875,1.0
4805767,,,,,,,,-0.8515625,-0.58203125,0.015625,0.046875,0.466796875,-0.0546875,0.203125,-9.8203125,2.09375,1.0
4805768,,,,,,,,-0.80859375,-0.6953125,0.046875,0.060546875,0.35546875,-0.0390625,0.23828125,-9.9375,2.1328125,1.0
4805769,,,,,,,,-0.578125,-0.8125,-0.19140625,0.056640625,0.240234375,-0.015625,0.46875,-10.05859375,1.90234375,1.0
4805770,36.013451833333335,129.319543,85.0099157768354,116.71103890839284,1.1,57.0,,-0.03515625,-0.78125,-0.16015625,-0.005859375,0.119140625,0.015625,1.00390625,-10.015625,1.94140625,1.0
4805771,,,,,,,,0.12109375,-0.58984375,-0.15234375,-0.041015625,0.083984375,0.02734375,1.16015625,-9.82421875,1.94140625,1.0
4805772,,,,,,,,0.12890625,-0.4375,-0.26953125,-0.083984375,0.0546875,0.025390625,1.16015625,-9.671875,1.82421875,1.0
4805773,,,,,,,,0.359375,-0.08203125,-0.56640625,-0.15625,0.033203125,0.015625,1.390625,-9.32421875,1.51953125,1.0
4805774,,,,,,,,0.48046875,0.0234375,-0.55859375,-0.203125,0.033203125,0.017578125,1.50390625,-9.2109375,1.51953125,1.0
4805775,,,,,,,,1.015625,0.18359375,-0.359375,-0.419921875,0.130859375,0.03125,2.0390625,-9.05859375,1.671875,1.0
4805776,,,,,,,,1.18359375,-0.421875,-0.3984375,-0.58203125,0.2265625,0.0546875,2.19140625,-9.67578125,1.59375,1.0
4805777,,,,,,,,1.30859375,-1.484375,-0.51953125,-0.662109375,0.240234375,0.060546875,2.30859375,-10.74609375,1.44140625,1.0
4805778,,,,,,,,1.31640625,-2.50390625,-0.33203125,-0.830078125,0.1953125,0.064453125,2.30859375,-11.77734375,1.55859375,1.0
4805779,,,,,,,,1.28515625,-2.03515625,0.05078125,-0.876953125,0.16796875,0.048828125,2.26953125,-11.3125,1.90234375,1.0
4805780,36.0134525,129.319544,85.10006343177751,116.78501261358038,1.1,58.0,,1.0546875,-1.33203125,0.625,-0.005859375,0.119140625,0.015625,2.0390625,-10.62890625,2.3984375,1.0
4805781,,,,,,,,0.3671875,-2.54296875,1.1484375,-0.69140625,0.416015625,-0.05859375,1.3515625,-11.8515625,2.859375,1.0
4805782,,,,,,,,-0.46875,-4.13671875,1.328125,-0.74609375,0.576171875,-0.033203125,0.5078125,-13.4609375,2.9375,1.0
4805783,,,,,,,,-1.16015625,-4.05078125,2.69921875,-0.79296875,0.470703125,-0.056640625,-0.18359375,-13.38671875,4.23828125,1.0
4805784,,,,,,,,-0.73828125,-1.27734375,2.2578125,-0.416015625,0.46484375,-0.08203125,0.23828125,-10.625,3.7421875,1.0
4805785,,,,,,,,-0.73046875,-0.92578125,1.7578125,-0.013671875,0.5625,-0.091796875,0.23828125,-10.28125,3.2421875,1.0
4805786,,,,,,,,-0.73046875,-1.0,1.71875,0.05859375,0.63671875,-0.078125,0.23828125,-10.359375,3.203125,1.0
4805787,,,,,,,,-0.46875,-1.5,2.125,-0.033203125,0.76171875,-0.052734375,0.5078125,-10.859375,3.625,1.0
4805788,,,,,,,,0.421875,-2.3046875,2.5859375,-0.115234375,0.802734375,-0.06640625,1.390625,-11.66796875,4.0859375,1.0
4805789,,,,,,,,0.88671875,-2.265625,2.46875,-0.0390625,0.837890625,-0.099609375,1.84765625,-11.625,3.96875,1.0
4805790,36.013453,129.31954499999998,85.19021126392059,116.84049311296567,1.1,57.0,,1.00390625,-1.921875,2.15625,-0.005859375,0.119140625,0.015625,1.96484375,-11.28125,3.6640625,1.0
4805791,,,,,,,,0.46484375,-1.0859375,1.98828125,0.146484375,0.951171875,-0.18359375,1.42578125,-10.44140625,3.51171875,1.0
4805792,,,,,,,,0.03515625,-0.6171875,1.87890625,0.1640625,0.927734375,-0.265625,1.00390625,-9.98046875,3.43359375,1.0
4805793,,,,,,,,-0.46875,-0.35546875,1.625,0.166015625,0.900390625,-0.30859375,0.5078125,-9.703125,3.203125,1.0
4805794,,,,,,,,-0.71484375,-0.39453125,1.37109375,0.12109375,0.873046875,-0.3125,0.27734375,-9.74609375,2.97265625,1.0
4805795,,,,,,,,-0.73828125,-0.2109375,0.7578125,0.029296875,0.833984375,-0.306640625,0.27734375,-9.5546875,2.3984375,1.0
4805796,,,,,,,,-0.6015625,-0.09765625,0.55859375,0.0,0.810546875,-0.291015625,0.4296875,-9.44140625,2.20703125,1.0
4805797,,,,,,,,-0.5859375,0.2109375,0.28515625,0.0,0.791015625,-0.28125,0.46875,-9.13671875,1.94140625,1.0
4805798,,,,,,,,-0.71484375,1.015625,-0.12109375,0.0625,0.796875,-0.265625,0.35546875,-8.33203125,1.55859375,1.0
4805799,,,,,,,,-0.80859375,1.19921875,-0.21484375,0.076171875,0.798828125,-0.26171875,0.27734375,-8.13671875,1.48046875,1.0
4805800,36.0134535,129.319546,85.28035909957009,116.89597361238638,1.1,56.0,0.0,-0.890625,1.7734375,-0.3984375,0.046875,0.71484375,-0.2734375,0.203125,-7.5625,1.328125,1.0
4805801,,,,,,,,-1.0390625,1.99609375,-0.4609375,0.04296875,0.607421875,-0.259765625,0.0859375,-7.33203125,1.2890625,1.0
4805802,,,,,,,,-1.1328125,1.99609375,-0.58203125,0.05859375,0.58984375,-0.251953125,0.0078125,-7.33203125,1.17578125,1.0
4805803,,,,,,,,-1.29296875,1.98828125,-0.66796875,0.080078125,0.572265625,-0.224609375,-0.14453125,-7.328125,1.09765625,1.0
4805804,,,,,,,,-1.40625,1.98828125,-0.76171875,0.09765625,0.564453125,-0.208984375,-0.2578125,-7.33203125,1.01953125,1.0
4805805,,,,,,,,-1.64453125,1.98828125,-0.81640625,0.10546875,0.556640625,-0.18359375,-0.48828125,-7.328125,0.98046875,1.0
4805806,,,,,,,,-1.73046875,1.94140625,-0.78515625,0.1171875,0.546875,-0.162109375,-0.56640625,-7.3671875,1.01953125,1.0
4805807,,,,,,,,-1.8046875,1.86328125,-0.80078125,0.12890625,0.51171875,-0.125,-0.640625,-7.44921875,1.01953125,1.0
4805808,,,,,,,,-1.765625,1.86328125,-0.85546875,0.13671875,0.498046875,-0.11328125,-0.6015625,-7.44921875,0.98046875,1.0
4805809,,,,,,,,-1.73046875,1.6953125,-0.984375,0.13671875,0.455078125,-0.083984375,-0.56640625,-7.60546875,0.8671875,1.0
4805810,36.01345416666666,129.31954683333333,85.35548202192832,116.96994717532013,1.1,55.0,,-1.65234375,1.65625,-0.9296875,0.126953125,0.404296875,-0.05859375,-0.48828125,-7.640625,0.9453125,1.0
4805811,,,,,,,,-1.4921875,1.734375,-0.9453125,0.12890625,0.35546875,-0.0390625,-0.3359375,-7.56640625,0.9453125,1.0
4805812,,,,,,,,-1.484375,1.80859375,-0.9609375,0.138671875,0.314453125,-0.01953125,-0.3359375,-7.484375,0.9453125,1.0
4805813,,,,,,,,-1.4765625,1.76953125,-0.96875,0.15625,0.298828125,-0.009765625,-0.3359375,-7.5234375,0.9453125,1.0
4805814,,,,,,,,-1.515625,1.7265625,-1.0234375,0.177734375,0.296875,0.0,-0.375,-7.5625,0.90625,1.0
4805815,,,,,,,,-1.5078125,1.6796875,-1.0859375,0.18359375,0.271484375,0.0078125,-0.375,-7.6015625,0.8671875,1.0
4805816,,,,,,,,-1.375,1.51953125,-1.078125,0.14453125,0.224609375,0.017578125,-0.2578125,-7.75390625,0.90625,1.0
4805817,,,,,,,,-1.26171875,1.328125,-0.97265625,0.138671875,0.197265625,0.0078125,-0.14453125,-7.9453125,1.01953125,1.0
4805818,,,,,,,,-1.17578125,1.12890625,-0.98046875,0.12890625,0.189453125,0.001953125,-0.06640625,-8.13671875,1.01953125,1.0
4805819,,,,,,,,-1.16796875,0.9375,-0.98828125,0.11328125,0.158203125,-0.009765625,-0.06640625,-8.33203125,1.01953125,1.0
4805820,36.013454499999995,129.31954816666666,85.47567948881301,117.0069347602005,1.1,62.0,,-1.015625,0.58203125,-0.97265625,0.08984375,0.13671875,-0.029296875,0.0859375,-8.67578125,1.05859375,1.0
4805821,,,,,,,,-0.890625,0.078125,-0.8359375,0.06640625,0.126953125,-0.0546875,0.203125,-9.17578125,1.2109375,1.0
4805822,,,,,,,,-0.81640625,-0.34375,-0.6875,0.01953125,0.107421875,-0.076171875,0.27734375,-9.59375,1.3671875,1.0
4805823,,,,,,,,-0.82421875,-0.45703125,-0.65234375,0.017578125,0.1015625,-0.083984375,0.27734375,-9.70703125,1.40234375,1.0
4805824,,,,,,,,-0.82421875,-0.91796875,-0.48828125,-0.00390625,0.087890625,-0.107421875,0.27734375,-10.16796875,1.55859375,1.0
4805825,,,,,,,,-0.75390625,-1.30859375,-0.34375,-0.021484375,0.095703125,-0.123046875,0.35546875,-10.55078125,1.7109375,1.0
4805826,,,,,,,,-0.6875,-1.4609375,-0.453125,-0.037109375,0.0859375,-0.13671875,0.4296875,-10.703125,1.59375,1.0
4805827,,,,,,,,-0.46484375,-1.34765625,-0.671875,-0.052734375,0.107421875,-0.150390625,0.66015625,-10.58984375,1.3671875,1.0
4805828,,,,,,,,-0.46484375,-1.27734375,-0.7109375,-0.0625,0.12109375,-0.15234375,0.66015625,-10.51171875,1.328125,1.0
4805829,,,,,,,,-0.36328125,-1.203125,-0.8203125,-0.107421875,0.16015625,-0.1640625,0.77734375,-10.4375,1.2109375,1.0
4805830,36.01345466666667,129.31954916666666,85.56582767935508,117.02542884669595,1.0,70.0,,-0.3359375,-1.203125,-0.92578125,-0.15234375,0.197265625,-0.166015625,0.8125,-10.44140625,1.09765625,1.0
4805831,,,,,,,,-0.37890625,-1.1171875,-0.90234375,-0.2265625,0.2109375,-0.171875,0.77734375,-10.359375,1.09765625,1.0
4805832,,,,,,,,-0.51171875,-1.00390625,-0.96484375,-0.28515625,0.21484375,-0.18359375,0.66015625,-10.24609375,1.01953125,1.0
4805833,,,,,,,,-0.78515625,-0.99609375,-0.81640625,-0.333984375,0.21484375,-0.19921875,0.39453125,-10.2421875,1.13671875,1.0
4805834,,,,,,,,-1.25390625,-2.19140625,-0.78515625,-0.392578125,0.205078125,-0.19921875,-0.06640625,-11.4296875,1.13671875,1.0
4805835,,,,,,,,-0.80078125,-2.94140625,-0.5625,-0.486328125,0.138671875,-0.189453125,0.39453125,-12.19921875,1.328125,1.0
4805836,,,,,,,,-0.55078125,-2.93359375,-0.2421875,-0.56640625,0.025390625,-0.173828125,0.66015625,-12.19921875,1.59375,1.0
4805837,,,,,,,,0.36328125,-2.65625,0.6171875,-0.572265625,-0.0546875,-0.166015625,1.58203125,-11.93359375,2.3984375,1.0
4805838,,,,,,,,0.98046875,-3.1875,0.84375,-0.51953125,0.001953125,-0.154296875,2.23046875,-12.46875,2.5546875,1.0
4805839,,,,,,,,1.25,-3.40625,0.796875,-0.521484375,0.060546875,-0.1484375,2.5,-12.6953125,2.4765625,1.0
4805840,36.013455,129.31955033333332,85.67100041647272,117.06241628869661,1.0,74.0,,1.77734375,-2.25,1.07421875,-0.4921875,0.169921875,-0.162109375,3.03515625,-11.55078125,2.70703125,1.0
4805841,,,,,,,,2.14453125,0.0546875,1.5703125,-0.291015625,0.28125,-0.201171875,3.41796875,-9.25,3.1640625,1.0
4805842,,,,,,,,1.5546875,0.8203125,1.734375,-0.1015625,0.42578125,-0.265625,2.84375,-8.48828125,3.3203125,1.0
4805843,,,,,,,,0.20703125,0.5546875,1.80859375,0.00390625,0.5,-0.279296875,1.50390625,-8.75390625,3.39453125,1.0
4805844,,,,,,,,-0.91796875,-0.7578125,2.0234375,0.09765625,0.4765625,-0.26171875,0.39453125,-10.0546875,3.625,1.0
4805845,,,,,,,,-0.7890625,-1.4140625,2.23046875,0.1796875,0.26953125,-0.21875,0.546875,-10.703125,3.85546875,1.0
4805846,,,,,,,,-0.15234375,-1.60546875,2.28515625,0.2109375,0.189453125,-0.177734375,1.19921875,-10.890625,3.93359375,1.0
4805847,,,,,,,,-0.015625,-1.453125,2.22265625,0.197265625,0.193359375,-0.125,1.3515625,-10.7421875,3.89453125,1.0
4805848,,,,,,,,-0.0546875,-1.15625,1.9765625,0.173828125,0.244140625,-0.046875,1.3125,-10.44140625,3.6640625,1.0
4805849,,,,,,,,-0.0078125,-0.8125,1.65625,0.126953125,0.267578125,0.013671875,1.3515625,-10.09765625,3.359375,1.0
4805850,36.013455,129.31955150000002,85.77617351650794,117.06241731532307,1.1,79.0,,0.15234375,-0.765625,1.37109375,0.044921875,0.224609375,0.064453125,1.50390625,-10.05859375,3.08984375,1.0
4805851,,,,,,,,0.28125,-1.03125,1.1796875,-0.048828125,0.16796875,0.0859375,1.6171875,-10.3203125,2.8984375,1.0
4805852,,,,,,,,0.25390625,-1.109375,1.1015625,-0.06640625,0.16015625,0.09765625,1.58203125,-10.40234375,2.8203125,1.0
4805853,,,,,,,,0.0703125,-1.1015625,0.87109375,-0.07421875,0.162109375,0.09765625,1.390625,-10.3984375,2.58984375,1.0
4805854,,,,,,,,-0.0703125,-0.94921875,0.7578125,-0.05859375,0.171875,0.095703125,1.234375,-10.2421875,2.4765625,1.0
4805855,,,,,,,,-0.16796875,-0.52734375,0.56640625,0.005859375,0.189453125,0.09765625,1.12109375,-9.8203125,2.28515625,1.0
4805856,,,,,,,,-0.19140625,-0.09765625,0.48046875,0.056640625,0.21875,0.099609375,1.08203125,-9.40234375,2.20703125,1.0
4805857,,,,,,,,-0.34375,0.36328125,0.20703125,0.07421875,0.240234375,0.09375,0.9296875,-8.9375,1.94140625,1.0
4805858,,,,,,,,-0.4375,0.8984375,0.0,0.11328125,0.3046875,0.10546875,0.8125,-8.40625,1.75,1.0
4805859,,,,,,,,-0.421875,1.08984375,-0.09375,0.1171875,0.328125,0.107421875,0.8125,-8.21484375,1.671875,1.0
4805860,36.01345533333333,129.31955266666668,85.8813462525791,117.09940475922053,1.1,79.0,,-0.28125,1.81640625,-0.38671875,0.044921875,0.224609375,0.064453125,0.9296875,-7.484375,1.40234375,1.0
4805861,,,,,,,,0.046875,2.24609375,-0.484375,0.076171875,0.37109375,0.076171875,1.234375,-7.06640625,1.328125,1.0
4805862,,,,,,,,0.25390625,2.390625,-0.5703125,0.0546875,0.375,0.060546875,1.42578125,-6.91796875,1.25,1.0
4805863,,,,,,,,0.42578125,2.390625,-0.5859375,0.033203125,0.396484375,0.029296875,1.58203125,-6.9140625,1.25,1.0
4805864,,,,,,,,0.5390625,2.390625,-0.5859375,0.0234375,0.408203125,0.01171875,1.6953125,-6.9140625,1.25,1.0
4805865,,,,,,,,0.70703125,2.46875,-0.5546875,0.025390625,0.423828125,-0.013671875,1.84765625,-6.8359375,1.2890625,1.0
4805866,,,,,,,,0.74609375,2.58203125,-0.67578125,0.046875,0.435546875,-0.044921875,1.88671875,-6.71875,1.17578125,1.0
4805867,,,,,,,,0.71484375,2.62109375,-0.76171875,0.064453125,0.44140625,-0.064453125,1.84765625,-6.6796875,1.09765625,1.0
4805868,,,,,,,,0.609375,2.58203125,-0.9609375,0.08203125,0.455078125,-0.083984375,1.734375,-6.72265625,0.90625,1.0
4805869,,,,,,,,0.5703125,2.546875,-1.0859375,0.09375,0.470703125,-0.099609375,1.6953125,-6.7578125,0.7890625,1.0
4805870,36.0134555,129.31955383333334,85.98651916860287,117.11789899632174,1.1,79.0,,0.484375,2.5078125,-1.3359375,0.044921875,0.224609375,0.064453125,1.6171875,-6.80078125,0.5625,1.0
4805871,,,,,,,,0.44921875,2.23046875,-1.421875,0.060546875,0.486328125,-0.150390625,1.58203125,-7.0625,0.484375,1.0
4805872,,,,,,,,0.29296875,1.91796875,-1.3515625,0.033203125,0.51953125,-0.1640625,1.42578125,-7.37109375,0.5625,1.0
4805873,,,,,,,,0.21875,1.80078125,-1.359375,0.0234375,0.53515625,-0.1640625,1.3515625,-7.484375,0.5625,1.0
4805874,,,,,,,,0.09375,1.296875,-1.33203125,0.029296875,0.5625,-0.173828125,1.234375,-7.98828125,0.59765625,1.0
4805875,,,,,,,,0.05078125,0.953125,-1.30078125,0.0234375,0.572265625,-0.1640625,1.19921875,-8.328125,0.63671875,1.0
4805876,,,,,,,,0.01171875,0.60546875,-1.30859375,0.0,0.5625,-0.15625,1.16015625,-8.671875,0.63671875,1.0
4805877,,,,,,,,0.04296875,0.015625,-1.046875,-0.025390625,0.59375,-0.138671875,1.19921875,-9.25390625,0.90625,1.0
4805878,,,,,,,,0.00390625,-0.25,-0.77734375,-0.037109375,0.595703125,-0.126953125,1.16015625,-9.51953125,1.17578125,1.0
4805879,,,,,,,,-0.03515625,-0.40625,-0.359375,-0.017578125,0.595703125,-0.10546875,1.12109375,-9.67578125,1.59375,1.0
4805880,36.0134555,129.31955483333334,86.07666753828093,117.11789987926824,1.0,81.0,,-0.41015625,-0.51953125,0.078125,0.044921875,0.224609375,0.064453125,0.73828125,-9.78125,2.0546875,1.0
4805881,,,,,,,,-0.59375,-0.56640625,-0.05078125,0.177734375,0.494140625,-0.044921875,0.546875,-9.8203125,1.94140625,1.0
4805882,,,,,,,,-0.6640625,-0.61328125,-0.05859375,0.212890625,0.443359375,-0.029296875,0.46875,-9.859375,1.94140625,1.0
4805883,,,,,,,,-0.625,-0.53515625,-0.16796875,0.232421875,0.337890625,-0.001953125,0.5078125,-9.78515625,1.86328125,1.0
4805884,,,,,,,,-0.609375,-0.62109375,-0.20703125,0.208984375,0.244140625,0.033203125,0.5078125,-9.86328125,1.86328125,1.0
4805885,,,,,,,,-0.44140625,-0.734375,-0.17578125,0.150390625,0.19140625,0.060546875,0.66015625,-9.9765625,1.90234375,1.0
4805886,,,,,,,,-0.44140625,-0.7734375,-0.14453125,0.1015625,0.15625,0.072265625,0.66015625,-10.015625,1.94140625,1.0
4805887,,,,,,,,-0.203125,-0.7421875,-0.19140625,0.01171875,0.076171875,0.09765625,0.890625,-9.98046875,1.90234375,1.0
4805888,,,,,,,,0.05078125,-0.66796875,-0.52734375,-0.123046875,-0.021484375,0.119140625,1.12109375,-9.90234375,1.55859375,1.0
4805889,,,,,,,,0.2421875,-0.3984375,-0.7109375,-0.162109375,-0.03515625,0.123046875,1.3125,-9.6328125,1.3671875,1.0
4805890,36.013455666666665,129.319556,86.18184045171773,117.13639411872248,1.0,84.0,,0.48828125,-0.12109375,-0.92578125,0.044921875,0.224609375,0.064453125,0.73828125,-9.78125,2.0546875,1.0
4805891,,,,,,,,0.83984375,-0.421875,-0.93359375,-0.373046875,-0.001953125,0.14453125,1.88671875,-9.671875,1.09765625,1.0
4805892,,,,,,,,1.046875,-1.1015625,-0.81640625,-0.501953125,0.046875,0.158203125,2.078125,-10.359375,1.17578125,1.0
4805893,,,,,,,,1.140625,-2.19921875,-0.83984375,-0.64453125,0.09765625,0.169921875,2.15625,-11.47265625,1.09765625,1.0
4805894,,,,,,,,1.09375,-3.0625,-0.76953125,-0.7734375,0.091796875,0.1796875,2.078125,-12.35546875,1.09765625,1.0
4805895,,,,,,,,1.21484375,-2.43359375,-0.1171875,-0.771484375,0.087890625,0.154296875,2.19140625,-11.73828125,1.671875,1.0
4805896,,,,,,,,0.8125,-0.96484375,0.59765625,-0.591796875,0.2421875,0.115234375,1.7734375,-10.28515625,2.32421875,1.0
4805897,,,,,,,,0.40625,-2.02734375,0.68359375,-0.4453125,0.47265625,0.107421875,1.3515625,-11.35546875,2.36328125,1.0
4805898,,,,,,,,-0.18359375,-3.70703125,0.8671875,-0.515625,0.552734375,0.138671875,0.73828125,-13.04296875,2.515625,1.0
4805899,,,,,,,,-0.16015625,-2.80859375,2.171875,-0.576171875,0.45703125,0.087890625,0.73828125,-12.16015625,3.7421875,1.0
4805900,36.013455666666665,129.31955716666667,86.28701354808862,117.13639515136038,1.1,87.0,0.0,-0.3359375,-1.46875,2.046875,-0.2265625,0.52734375,0.041015625,0.546875,-10.8203125,3.5859375,1.0
4805901,,,,,,,,-0.8671875,-0.11328125,1.58984375,0.05859375,0.654296875,0.001953125,0.0078125,-9.4765625,3.12890625,1.0
4805902,,,,,,,,-0.8515625,-0.1484375,1.609375,0.1015625,0.75390625,-0.001953125,0.0078125,-9.515625,3.1640625,1.0
4805903,,,,,,,,-0.6484375,-0.37890625,1.83203125,0.0625,0.775390625,-0.013671875,0.203125,-9.7421875,3.39453125,1.0
4805904,,,,,,,,-0.06640625,-0.76171875,2.015625,0.046875,0.77734375,-0.0234375,0.77734375,-10.125,3.5859375,1.0
4805905,,,,,,,,0.4765625,-1.18359375,2.078125,0.04296875,0.806640625,-0.056640625,1.3125,-10.55078125,3.6640625,1.0
4805906,,,,,,,,1.05859375,-1.60546875,2.15625,0.052734375,0.822265625,-0.078125,1.88671875,-10.96875,3.7421875,1.0
4805907,,,,,,,,0.29296875,-1.23046875,2.30859375,0.1796875,0.908203125,-0.19140625,1.12109375,-10.5859375,3.93359375,1.0
4805908,,,,,,,,-0.0234375,-0.9609375,2.20703125,0.263671875,0.9296875,-0.26171875,0.8125,-10.3203125,3.85546875,1.0
4805909,,,,,,,,-0.6796875,-0.234375,1.9375,0.328125,0.8984375,-0.310546875,0.1640625,-9.59765625,3.625,1.0
4805910,36.01345583333333,129.3195585,86.4072111907091,117.15488954105328,1.1,86.0,,-0.91796875,0.0625,1.5703125,-0.2265625,0.52734375,0.041015625,-0.06640625,-9.2890625,3.28125,1.0
4805911,,,,,,,,-1.1640625,0.1328125,1.078125,0.296875,0.775390625,-0.330078125,-0.296875,-9.21484375,2.8203125,1.0
4805912,,,,,,,,-1.2265625,0.046875,0.81640625,0.1953125,0.71484375,-0.326171875,-0.3359375,-9.2890625,2.58984375,1.0
4805913,,,,,,,,-1.08984375,0.1171875,0.6796875,0.10546875,0.666015625,-0.3046875,-0.18359375,-9.2109375,2.4765625,1.0
4805914,,,,,,,,-0.875,0.5,0.3125,0.07421875,0.59765625,-0.2734375,0.046875,-8.83203125,2.1328125,1.0
4805915,,,,,,,,-0.62109375,0.9609375,-0.01953125,0.08984375,0.56640625,-0.2578125,0.31640625,-8.3671875,1.82421875,1.0
4805916,,,,,,,,-0.58984375,1.2578125,-0.2578125,0.09765625,0.55859375,-0.251953125,0.35546875,-8.0625,1.59375,1.0
4805917,,,,,,,,-0.56640625,1.52734375,-0.37890625,0.099609375,0.529296875,-0.259765625,0.39453125,-7.7890625,1.48046875,1.0
4805918,,,,,,,,-0.58203125,1.79296875,-0.5078125,0.09375,0.4921875,-0.27734375,0.39453125,-7.52734375,1.3671875,1.0
4805919,,,,,,,,-0.59765625,1.83203125,-0.5234375,0.091796875,0.455078125,-0.2890625,0.39453125,-7.48828125,1.3671875,1.0
4805920,36.013456,129.31955950000003,86.49735938011196,117.17338363623705,1.0,83.0,,-0.73046875,1.90234375,-0.65625,-0.2265625,0.52734375,0.041015625,0.27734375,-7.41015625,1.25,1.0
4805921,,,,,,,,-0.9921875,1.93359375,-0.78515625,0.107421875,0.41015625,-0.30078125,0.046875,-7.37109375,1.13671875,1.0
4805922,,,,,,,,-1.11328125,1.93359375,-0.79296875,0.1171875,0.41796875,-0.28515625,-0.06640625,-7.37109375,1.13671875,1.0
4805923,,,,,,,,-1.3125,1.96484375,-0.93359375,0.125,0.4140625,-0.267578125,-0.2578125,-7.33203125,1.01953125,1.0
4805924,,,,,,,,-1.3359375,1.95703125,-1.0703125,0.140625,0.41015625,-0.23046875,-0.2578125,-7.33203125,0.90625,1.0
4805925,,,,,,,,-1.3125,1.75390625,-1.0859375,0.1171875,0.388671875,-0.193359375,-0.21875,-7.52734375,0.90625,1.0
4805926,,,,,,,,-1.3125,1.71875,-1.09375,0.091796875,0.373046875,-0.181640625,-0.21875,-7.5625,0.90625,1.0
4805927,,,,,,,,-1.20703125,1.37109375,-0.91796875,0.056640625,0.3515625,-0.154296875,-0.10546875,-7.91015625,1.09765625,1.0
4805928,,,,,,,,-1.22265625,1.2109375,-0.88671875,0.025390625,0.3203125,-0.134765625,-0.10546875,-8.06640625,1.13671875,1.0
4805929,,,,,,,,-1.22265625,1.09765625,-0.8125,0.0234375,0.3046875,-0.134765625,-0.10546875,-8.171875,1.2109375,1.0
4805930,36.01345583333333,129.3195606666667,86.60253265873072,117.15489146453524,1.1,88.0,,-1.21484375,1.08984375,-0.78125,-0.2265625,0.52734375,0.041015625,-0.10546875,-8.171875,1.25,1.0
4805931,,,,,,,,-1.30078125,1.1640625,-0.94921875,0.08984375,0.275390625,-0.125,-0.18359375,-8.1015625,1.09765625,1.0
4805932,,,,,,,,-1.34375,1.2421875,-1.07421875,0.1328125,0.265625,-0.126953125,-0.21875,-8.02734375,0.98046875,1.0
4805933,,,,,,,,-1.3828125,1.234375,-1.08203125,0.130859375,0.263671875,-0.12890625,-0.2578125,-8.02734375,0.98046875,1.0
4805934,,,,,,,,-1.30859375,1.11328125,-1.1328125,0.119140625,0.2421875,-0.126953125,-0.18359375,-8.13671875,0.9453125,1.0
4805935,,,,,,,,-1.16796875,0.84375,-1.07421875,0.08203125,0.20703125,-0.125,-0.02734375,-8.40625,1.01953125,1.0
4805936,,,,,,,,-1.09375,0.72265625,-0.96484375,0.05859375,0.177734375,-0.126953125,0.046875,-8.51953125,1.13671875,1.0
4805937,,,,,,,,-0.984375,0.51953125,-0.93359375,0.033203125,0.14453125,-0.134765625,0.1640625,-8.7109375,1.17578125,1.0
4805938,,,,,,,,-1.0234375,0.484375,-0.890625,0.01953125,0.138671875,-0.140625,0.125,-8.75,1.2109375,1.0
4805939,,,,,,,,-1.15625,0.29296875,-0.62890625,0.025390625,0.138671875,-0.16015625,0.0078125,-8.94140625,1.48046875,1.0
4805940,36.0134555,129.31956166666666,86.69268139024899,117.11790593651926,1.0,94.0,,-1.24609375,-0.17578125,-0.4453125,-0.2265625,0.52734375,0.041015625,-0.10546875,-8.171875,1.25,1.0
4805941,,,,,,,,-1.1640625,-0.296875,-0.484375,-0.015625,0.060546875,-0.212890625,0.046875,-9.515625,1.6328125,1.0
4805942,,,,,,,,-0.98828125,-0.52734375,-0.55078125,-0.09375,0.03125,-0.22265625,0.23828125,-9.74609375,1.55859375,1.0
4805943,,,,,,,,-0.83984375,-0.7265625,-0.54296875,-0.140625,0.025390625,-0.224609375,0.39453125,-9.9375,1.55859375,1.0
4805944,,,,,,,,-0.63671875,-0.8359375,-0.68359375,-0.21484375,0.033203125,-0.20703125,0.62109375,-10.05859375,1.40234375,1.0
4805945,,,,,,,,-0.22265625,-1.109375,-0.8125,-0.296875,0.0703125,-0.19921875,1.04296875,-10.3203125,1.25,1.0
4805946,,,,,,,,0.22265625,-1.484375,-0.7109375,-0.404296875,0.134765625,-0.185546875,1.50390625,-10.70703125,1.328125,1.0
4805947,,,,,,,,0.4765625,-1.27734375,-0.52734375,-0.501953125,0.2265625,-0.140625,1.7734375,-10.51171875,1.44140625,1.0
4805948,,,,,,,,0.51171875,-1.125,-0.578125,-0.490234375,0.2734375,-0.138671875,1.80859375,-10.359375,1.3671875,1.0
4805949,,,,,,,,-0.03125,-0.78125,-0.5390625,-0.44921875,0.3515625,-0.140625,1.2734375,-10.015625,1.3671875,1.0
4805950,36.01345516666667,129.31956283333332,86.79785485252233,117.08092055803078,1.1,102.0,,-0.7578125,-1.38671875,-0.47265625,-0.2265625,0.52734375,0.041015625,0.546875,-10.625,1.40234375,1.0
4805951,,,,,,,,-0.8828125,-2.09765625,-0.0703125,-0.595703125,0.33203125,-0.125,0.4296875,-11.3515625,1.75,1.0
4805952,,,,,,,,-0.5,-3.078125,0.59765625,-0.740234375,0.201171875,-0.12109375,0.8125,-12.35546875,2.36328125,1.0
4805953,,,,,,,,-0.15234375,-3.38671875,0.85546875,-0.794921875,0.1328125,-0.11328125,1.16015625,-12.65625,2.58984375,1.0
4805954,,,,,,,,1.71484375,-4.2890625,1.203125,-0.849609375,0.048828125,-0.0859375,3.03515625,-13.578125,2.859375,1.0
4805955,,,,,,,,2.58984375,-3.96875,1.25,-0.8671875,0.1171875,-0.0703125,3.91796875,-13.27734375,2.8203125,1.0
4805956,,,,,,,,3.01171875,-1.96875,1.56640625,-0.806640625,0.30078125,-0.03515625,4.33984375,-11.28515625,3.05078125,1.0
4805957,,,,,,,,2.328125,-1.109375,1.9375,-0.326171875,0.607421875,-0.080078125,3.6484375,-10.44140625,3.359375,1.0
4805958,,,,,,,,1.33203125,-1.140625,2.2109375,-0.16796875,0.65625,-0.10546875,2.65234375,-10.4765625,3.625,1.0
4805959,,,,,,,,-0.0078125,-1.56640625,2.82421875,-0.005859375,0.61328125,-0.1484375,1.3125,-10.89453125,4.23828125,1.0
4805960,36.01345466666667,129.31956399999999,86.90302849605891,117.02544197319943,1.2000000000000002,109.0,,-0.66796875,-1.796875,2.9609375,-0.2265625,0.52734375,0.041015625,0.66015625,-11.12890625,4.390625,1.0
4805961,,,,,,,,-0.828125,-1.68359375,2.71484375,0.224609375,0.291015625,-0.1875,0.5078125,-11.0078125,4.16015625,1.0
4805962,,,,,,,,-0.65234375,-0.92578125,2.109375,0.310546875,0.220703125,-0.154296875,0.69921875,-10.24609375,3.5859375,1.0
4805963,,,,,,,,-0.46875,-0.28125,1.8515625,0.30859375,0.23046875,-0.076171875,0.890625,-9.59375,3.359375,1.0
4805964,,,,,,,,-0.3828125,0.21484375,1.703125,0.248046875,0.30859375,0.005859375,0.96875,-9.09765625,3.2421875,1.0
4805965,,,,,,,,-0.453125,0.37109375,1.2578125,0.1328125,0.35546875,0.087890625,0.890625,-8.94140625,2.8203125,1.0
4805966,,,,,,,,-0.046875,0.0625,0.8671875,-0.037109375,0.33203125,0.16015625,1.2734375,-9.25390625,2.4375,1.0
4805967,,,,,,,,0.28515625,-0.234375,0.90625,-0.203125,0.267578125,0.21484375,1.58203125,-9.55859375,2.4765625,1.0
4805968,,,,,,,,0.4609375,-0.37890625,1.08203125,-0.3046875,0.265625,0.240234375,1.734375,-9.703125,2.62890625,1.0
4805969,,,,,,,,0.33203125,-0.328125,1.03125,-0.30859375,0.328125,0.240234375,1.58203125,-9.671875,2.5546875,1.0
4805970,36.013454333333335,129.31956483333335,86.97815250714575,116.9884562999315,0.9,110.0,,-0.00390625,-0.00390625,0.70703125,-0.169921875,0.392578125,0.185546875,1.19921875,-9.359375,2.20703125,1.0
4805971,,,,,,,,-0.2578125,0.53125,0.44921875,-0.0859375,0.39453125,0.14453125,0.9296875,-8.828125,1.94140625,1.0
4805972,,,,,,,,-0.39453125,1.10546875,0.09375,-0.017578125,0.37109375,0.111328125,0.77734375,-8.25,1.59375,1.0
4805973,,,,,,,,-0.44921875,1.3828125,-0.05859375,0.01171875,0.376953125,0.083984375,0.69921875,-7.98828125,1.44140625,1.0
4805974,,,,,,,,-0.546875,1.8046875,-0.2578125,0.03125,0.400390625,0.0703125,0.5859375,-7.5625,1.25,1.0
4805975,,,,,,,,-0.5390625,2.0703125,-0.37890625,0.048828125,0.427734375,0.064453125,0.5859375,-7.296875,1.13671875,1.0
4805976,,,,,,,,-0.49609375,2.1484375,-0.38671875,0.05078125,0.435546875,0.052734375,0.62109375,-7.22265625,1.13671875,1.0
4805977,,,,,,,,-0.32421875,2.41796875,-0.47265625,0.060546875,0.447265625,0.041015625,0.77734375,-6.9453125,1.05859375,1.0
4805978,,,,,,,,0.07421875,2.42578125,-0.48828125,0.056640625,0.44140625,0.02734375,1.16015625,-6.9453125,1.05859375,1.0
4805979,,,,,,,,0.3125,2.30859375,-0.53515625,0.03125,0.423828125,0.009765625,1.390625,-7.06640625,1.01953125,1.0
4805980,36.01345416666666,129.31956566666668,87.05327633287625,116.96996383568538,0.9,111.0,,0.51171875,2.1875,-0.50390625,-0.169921875,0.392578125,0.185546875,1.19921875,-9.359375,2.20703125,1.0
4805981,,,,,,,,0.78515625,1.99609375,-0.46484375,-0.017578125,0.38671875,-0.05859375,1.84765625,-7.3671875,1.09765625,1.0
4805982,,,,,,,,0.82421875,1.91796875,-0.51953125,-0.00390625,0.37890625,-0.095703125,1.88671875,-7.4453125,1.05859375,1.0
4805983,,,,,,,,0.6171875,1.7578125,-0.6484375,0.0703125,0.408203125,-0.185546875,1.6953125,-7.60546875,0.9453125,1.0
4805984,,,,,,,,0.5703125,1.71875,-0.6875,0.087890625,0.421875,-0.208984375,1.65625,-7.640625,0.90625,1.0
4805985,,,,,,,,0.40234375,1.671875,-0.7421875,0.109375,0.458984375,-0.236328125,1.50390625,-7.68359375,0.8671875,1.0
4805986,,,,,,,,0.1484375,1.359375,-0.734375,0.1328125,0.521484375,-0.259765625,1.2734375,-7.984375,0.90625,1.0
4805987,,,,,,,,0.109375,1.2734375,-0.7421875,0.142578125,0.541015625,-0.265625,1.234375,-8.0625,0.90625,1.0
4805988,,,,,,,,0.01171875,1.0,-0.7578125,0.14453125,0.5546875,-0.2734375,1.16015625,-8.328125,0.90625,1.0
4805989,,,,,,,,0.01171875,0.9609375,-0.8515625,0.150390625,0.560546875,-0.2734375,1.16015625,-8.3671875,0.828125,1.0
4805990,36.01345383333333,129.31956683333334,87.15844979888922,116.93297846209737,1.1,111.0,,-0.05078125,0.953125,-0.90625,0.166015625,0.53515625,-0.27734375,1.12109375,-8.3671875,0.7890625,1.0
4805991,,,,,,,,-0.06640625,0.953125,-1.00390625,0.17578125,0.515625,-0.267578125,1.16015625,-8.40625,0.67578125,1.0
4805992,,,,,,,,-0.03515625,0.90625,-1.05078125,0.177734375,0.515625,-0.26171875,1.16015625,-8.51953125,0.67578125,1.0
4805993,,,,,,,,-0.04296875,0.66796875,-1.12109375,0.103515625,0.494140625,-0.234375,1.12109375,-8.87109375,0.63671875,1.0
4805994,,,,,,,,-0.02734375,0.35546875,-0.9921875,0.0703125,0.474609375,-0.20703125,1.2734375,-9.015625,0.90625,1.0
4805995,,,,,,,,0.0390625,0.19140625,-0.8828125,0.05859375,0.458984375,-0.1875,1.2734375,-9.25390625,1.01953125,1.0
4805996,,,,,,,,0.0390625,0.0390625,-0.77734375,0.048828125,0.453125,-0.181640625,1.234375,-9.2890625,1.13671875,1.0
4805997,,,,,,,,-0.05078125,-0.11328125,-0.66796875,0.03515625,0.435546875,-0.158203125,1.16015625,-9.4765625,1.17578125,1.0
4805998,,,,,,,,-0.28125,-0.3984375,-0.4453125,0.03125,0.419921875,-0.150390625,0.96875,-9.67578125,1.3671875,1.0
4805999,,,,,,,,-0.328125,-0.51171875,-0.42578125,0.029296875,0.408203125,-0.134765625,0.9296875,-9.78125,1.40234375,1.0
4806000,36.0134535,129.319568,87.26362326601726,116.89599308936526,1.0,112.0,0.0,-0.21484375,-0.55078125,-0.1953125,0.166015625,0.53515625,-0.27734375,1.12109375,-8.3671875,0.7890625,1.0
4806001,,,,,,,,-0.10546875,-0.359375,-0.31640625,-0.0234375,0.28125,-0.103515625,1.16015625,-9.6328125,1.51953125,1.0
4806002,,,,,,,,0.0,-0.20703125,-0.5078125,-0.05078125,0.228515625,-0.08203125,1.2734375,-9.48046875,1.328125,1.0
4806003,,,,,,,,0.0859375,0.09375,-0.76953125,-0.12890625,0.18359375,-0.05859375,1.3515625,-9.17578125,1.05859375,1.0
4806004,,,,,,,,0.27734375,0.0546875,-0.9375,-0.23828125,0.169921875,-0.033203125,1.54296875,-9.2109375,0.8671875,1.0
4806005,,,,,,,,0.54296875,-0.05078125,-0.9140625,-0.38671875,0.146484375,-0.0078125,1.80859375,-9.32421875,0.8671875,1.0
4806006,,,,,,,,0.8046875,-0.20703125,-0.90625,-0.548828125,0.1484375,0.013671875,2.078125,-9.48046875,0.828125,1.0
4806007,,,,,,,,0.96484375,-0.3046875,-0.734375,-0.673828125,0.189453125,0.0390625,2.23046875,-9.59765625,0.9453125,1.0
4806008,,,,,,,,1.12890625,-1.0625,-0.55859375,-0.78515625,0.279296875,0.06640625,2.38671875,-10.36328125,1.05859375,1.0
4806009,,,,,,,,1.10546875,-2.42578125,-0.44921875,-0.912109375,0.337890625,0.0859375,2.34765625,-11.73828125,1.09765625,1.0
4806010,36.01345283333333,129.31956916666667,87.36879709874933,116.82202130178037,1.2000000000000002,115.0,,1.00390625,-3.21484375,-0.0859375,0.166015625,0.53515625,-0.27734375,2.23046875,-12.5390625,1.3671875,1.0
4806011,,,,,,,,0.74609375,-3.125,0.57421875,-0.994140625,0.30078125,0.013671875,1.96484375,-12.46875,1.94140625,1.0
4806012,,,,,,,,0.63671875,-3.23828125,0.92578125,-0.91796875,0.357421875,-0.01953125,1.84765625,-12.578125,2.24609375,1.0
4806013,,,,,,,,-0.08984375,-4.33203125,1.53125,-0.759765625,0.48828125,-0.03515625,1.12109375,-13.69140625,2.78125,1.0
4806014,,,,,,,,-0.89453125,-4.39453125,2.40234375,-0.728515625,0.45703125,-0.044921875,0.31640625,-13.76953125,3.55078125,1.0
4806015,,,,,,,,-0.7421875,-1.97265625,2.2265625,-0.400390625,0.470703125,-0.0546875,0.46875,-11.35546875,3.3203125,1.0
4806016,,,,,,,,-0.58984375,-1.66796875,2.1171875,-0.025390625,0.560546875,-0.037109375,0.62109375,-11.05078125,3.203125,1.0
4806017,,,,,,,,0.66015625,-2.38671875,2.5703125,-0.154296875,0.859375,0.03125,1.84765625,-11.77734375,3.6640625,1.0
4806018,,,,,,,,1.3203125,-2.6171875,2.953125,-0.181640625,1.0546875,0.0,2.5,-12.0078125,4.046875,1.0
4806019,,,,,,,,1.48046875,-2.38671875,2.953125,-0.140625,1.146484375,-0.01953125,2.65234375,-11.77734375,4.046875,1.0
4806020,36.0134525,129.31957033333336,87.4739705697783,116.78503593103987,1.1,115.0,,1.40625,-1.61328125,2.6015625,-0.029296875,1.23828125,-0.046875,2.578125,-11.01171875,3.703125,1.0
4806021,,,,,,,,1.19140625,-1.11328125,2.125,0.08203125,1.24609375,-0.111328125,2.34765625,-10.5078125,3.2421875,1.0
4806022,,,,,,,,0.42578125,-0.76953125,1.71875,0.115234375,1.232421875,-0.19921875,1.58203125,-10.1640625,2.859375,1.0
4806023,,,,,,,,-0.07421875,-0.6171875,1.89453125,0.111328125,1.2109375,-0.236328125,1.08203125,-10.015625,3.05078125,1.0
4806024,,,,,,,,-0.51953125,-0.6171875,1.984375,0.078125,1.146484375,-0.31640625,0.66015625,-10.015625,3.1640625,1.0
4806025,,,,,,,,-1.23046875,-0.43359375,1.37109375,0.095703125,1.0078125,-0.365234375,-0.02734375,-9.8203125,2.58984375,1.0
4806026,,,,,,,,-1.37109375,-0.09765625,0.859375,0.103515625,0.951171875,-0.349609375,-0.14453125,-9.4765625,2.09375,1.0
4806027,,,,,,,,-1.234375,0.66796875,0.3359375,0.09375,0.935546875,-0.3046875,0.0078125,-8.7109375,1.59375,1.0
4806028,,,,,,,,-1.171875,0.8984375,0.21484375,0.095703125,0.95703125,-0.2734375,0.0859375,-8.48828125,1.48046875,1.0
4806029,,,,,,,,-0.94921875,1.24609375,0.0390625,0.06640625,0.984375,-0.23828125,0.31640625,-8.13671875,1.328125,1.0
4806030,36.013452,129.31957133333333,87.56411949334654,116.72955720491208,1.0,115.0,,-0.65234375,1.58984375,-0.13671875,-0.00390625,0.994140625,-0.22265625,0.77734375,-7.68359375,1.17578125,1.0
4806031,,,,,,,,-0.19921875,1.88671875,-0.19140625,-0.041015625,0.96875,-0.23828125,1.08203125,-7.484375,1.13671875,1.0
4806032,,,,,,,,-0.08203125,2.00390625,-0.23046875,-0.04296875,0.943359375,-0.259765625,1.234375,-7.296875,1.05859375,1.0
4806033,,,,,,,,0.015625,2.15625,-0.31640625,-0.029296875,0.89453125,-0.294921875,1.3515625,-7.14453125,1.01953125,1.0
4806034,,,,,,,,-0.03125,2.234375,-0.36328125,0.013671875,0.873046875,-0.3203125,1.16015625,-7.1015625,0.828125,1.0
4806035,,,,,,,,-0.28515625,2.30078125,-0.61328125,0.076171875,0.873046875,-0.330078125,0.73828125,-7.0625,0.67578125,1.0
4806036,,,,,,,,-0.95703125,2.21875,-0.72265625,0.134765625,0.90234375,-0.330078125,0.39453125,-7.14453125,0.67578125,1.0
4806037,,,,,,,,-1.51171875,2.0625,-0.79296875,0.185546875,0.919921875,-0.302734375,-0.14453125,-7.296875,0.63671875,1.0
4806038,,,,,,,,-1.7265625,1.93359375,-0.6875,0.259765625,0.92578125,-0.251953125,-0.3359375,-7.41015625,0.7890625,1.0
4806039,,,,,,,,-1.80859375,1.93359375,-0.6640625,0.267578125,0.91796875,-0.236328125,-0.41015625,-7.41015625,0.828125,1.0
4806040,36.013451833333335,129.31957233333333,87.65426805082011,116.7110648953345,1.0,113.0,,-1.88671875,1.84765625,-0.671875,-0.00390625,0.994140625,-0.22265625,-0.48828125,-7.48828125,0.8671875,1.0
4806041,,,,,,,,-1.92578125,1.80078125,-0.75,0.275390625,0.8515625,-0.142578125,-0.52734375,-7.52734375,0.828125,1.0
4806042,,,,,,,,-2.078125,1.71875,-0.7109375,0.24609375,0.80859375,-0.10546875,-0.6796875,-7.60546875,0.90625,1.0
4806043,,,,,,,,-2.22265625,1.78515625,-0.66796875,0.2109375,0.75,-0.076171875,-0.83203125,-7.5234375,0.98046875,1.0
4806044,,,,,,,,-2.29296875,1.7109375,-0.734375,0.177734375,0.6640625,-0.052734375,-0.91015625,-7.60546875,0.9453125,1.0
4806045,,,,,,,,-2.19921875,1.55078125,-0.84375,0.150390625,0.54296875,-0.029296875,-0.83203125,-7.75390625,0.8671875,1.0
4806046,,,,,,,,-2.0,1.16796875,-0.78125,0.111328125,0.4609375,-0.02734375,-0.640625,-8.1328125,0.9453125,1.0
4806047,,,,,,,,-1.734375,0.78515625,-0.60546875,0.076171875,0.38671875,-0.013671875,-0.375,-8.515625,1.13671875,1.0
4806048,,,,,,,,-1.5625,0.546875,-0.515625,0.0234375,0.31640625,-0.01953125,-0.21875,-8.75,1.25,1.0
4806049,,,,,,,,-1.40234375,0.3828125,-0.24609375,0.013671875,0.3046875,-0.02734375,-0.06640625,-8.91015625,1.51953125,1.0
4806050,36.01345083333333,129.3195735,87.75944226157954,116.60010669513463,1.1,121.0,,-1.203125,0.4140625,-0.0234375,0.017578125,0.298828125,-0.046875,0.125,-8.8671875,1.75,1.0
4806051,,,,,,,,-1.125,0.34765625,-0.1484375,0.001953125,0.2734375,-0.08203125,0.203125,-8.9375,1.6328125,1.0
4806052,,,,,,,,-1.1640625,0.109375,-0.453125,-0.02734375,0.26171875,-0.109375,0.1640625,-9.17578125,1.328125,1.0
4806053,,,,,,,,-1.1640625,0.109375,-0.53125,-0.064453125,0.255859375,-0.119140625,0.1640625,-9.17578125,1.25,1.0
4806054,,,,,,,,-1.2890625,-0.0078125,-0.5625,-0.125,0.25390625,-0.140625,0.046875,-9.29296875,1.2109375,1.0
4806055,,,,,,,,-1.44921875,-0.28125,-0.515625,-0.201171875,0.275390625,-0.150390625,-0.10546875,-9.5546875,1.25,1.0
4806056,,,,,,,,-1.49609375,-0.62109375,-0.64453125,-0.27734375,0.29296875,-0.15625,-0.14453125,-9.8984375,1.09765625,1.0
4806057,,,,,,,,-1.37890625,-0.88671875,-0.7578125,-0.40234375,0.287109375,-0.146484375,-0.02734375,-10.1640625,0.9453125,1.0
4806058,,,,,,,,-1.1875,-0.87890625,-0.8203125,-0.451171875,0.27734375,-0.138671875,0.1640625,-10.16796875,0.8671875,1.0
4806059,,,,,,,,-0.8125,-0.6875,-0.859375,-0.5078125,0.267578125,-0.126953125,0.546875,-9.98046875,0.7890625,1.0
4806060,36.01344983333333,129.31957400000002,87.8045175588499,116.4891478959334,1.1,130.0,,-0.70703125,-0.41015625,-0.8125,-0.537109375,0.296875,-0.126953125,0.66015625,-9.70703125,0.7890625,1.0
4806061,,,,,,,,-0.58984375,-0.01171875,-0.93359375,-0.607421875,0.310546875,-0.1328125,0.77734375,-9.32421875,0.59765625,1.0
4806062,,,,,,,,-0.5625,0.1015625,-0.9765625,-0.640625,0.302734375,-0.1328125,0.8125,-9.2109375,0.5234375,1.0
4806063,,,,,,,,-0.40625,0.30078125,-0.80078125,-0.712890625,0.251953125,-0.1328125,0.96875,-9.015625,0.63671875,1.0
4806064,,,,,,,,-0.37890625,0.22265625,-0.73046875,-0.75,0.23046875,-0.13671875,1.00390625,-9.09375,0.67578125,1.0
4806065,,,,,,,,-0.34765625,-0.37890625,-0.66015625,-0.86328125,0.220703125,-0.125,1.04296875,-9.70703125,0.67578125,1.0
4806066,,,,,,,,0.03515625,-2.1640625,0.19921875,-1.0625,0.234375,-0.083984375,1.42578125,-11.5078125,1.40234375,1.0
4806067,,,,,,,,1.0703125,-3.421875,1.3984375,-1.09765625,0.216796875,-0.064453125,2.4609375,-12.7734375,2.5546875,1.0
4806068,,,,,,,,3.0234375,-6.234375,2.13671875,-1.142578125,0.34375,-0.021484375,4.4140625,-15.61328125,3.08984375,1.0
4806069,,,,,,,,3.4453125,-6.33984375,2.4140625,-1.16015625,0.44140625,-0.01171875,4.8359375,-15.72265625,3.3203125,1.0
4806070,36.013449,129.31957466666665,87.86461739660581,116.39668245543288,1.1,137.0,,4.10546875,-4.07421875,3.08984375,-0.982421875,0.66796875,-0.03125,5.48828125,-13.46484375,3.89453125,1.0
4806071,,,,,,,,3.37890625,-2.6953125,2.80078125,-0.4296875,0.90234375,-0.1171875,4.22265625,-11.69921875,3.359375,1.0
4806072,,,,,,,,0.87109375,-2.30078125,2.75390625,0.173828125,1.068359375,-0.26953125,2.26953125,-11.6953125,3.51171875,1.0
4806073,,,,,,,,0.25,-2.41796875,3.00390625,0.244140625,1.046875,-0.31640625,1.65625,-11.81640625,3.77734375,1.0
4806074,,,,,,,,-1.0,-2.88671875,3.33984375,0.33984375,0.931640625,-0.357421875,0.4296875,-12.2734375,4.16015625,1.0
4806075,,,,,,,,-1.25,-2.47265625,2.94140625,0.404296875,0.826171875,-0.328125,0.203125,-11.85546875,3.81640625,1.0
4806076,,,,,,,,-1.0,-1.359375,2.05078125,0.453125,0.826171875,-0.24609375,0.46875,-10.74609375,2.97265625,1.0
4806077,,,,,,,,-0.890625,-0.41796875,1.73046875,0.427734375,0.931640625,-0.158203125,0.5859375,-9.78515625,2.70703125,1.0
4806078,,,,,,,,-0.73828125,0.6171875,1.4296875,0.384765625,0.990234375,-0.099609375,0.73828125,-8.75,2.4375,1.0
4806079,,,,,,,,-0.76171875,0.76953125,1.09765625,0.19140625,0.98828125,0.017578125,0.69921875,-8.59765625,2.16796875,1.0
4806080,36.013448000000004,129.3195755,87.93974215722521,116.28572395705012,1.2000000000000002,140.0,,-0.28515625,-0.07421875,0.73046875,-0.0078125,0.873046875,0.0625,1.16015625,-9.44140625,1.82421875,1.0
4806081,,,,,,,,0.02734375,-0.640625,0.80078125,-0.181640625,0.76171875,0.06640625,1.46484375,-10.01953125,1.90234375,1.0
4806082,,,,,,,,-0.078125,-0.640625,1.0390625,-0.22265625,0.7265625,0.056640625,1.3515625,-10.01953125,2.1328125,1.0
4806083,,,,,,,,-0.24609375,-0.48046875,1.0390625,-0.140625,0.751953125,0.025390625,0.9296875,-9.6328125,1.94140625,1.0
4806084,,,,,,,,-0.62109375,-0.09765625,0.73828125,-0.017578125,0.78125,-0.00390625,0.69921875,-9.171875,1.7109375,1.0
4806085,,,,,,,,-0.76953125,0.40234375,0.5,0.064453125,0.796875,-0.021484375,0.5078125,-8.63671875,1.44140625,1.0
4806086,,,,,,,,-0.875,0.74609375,0.31640625,0.095703125,0.806640625,-0.009765625,0.4296875,-8.44921875,1.44140625,1.0
4806087,,,,,,,,-1.01171875,1.21484375,0.2265625,0.126953125,0.83203125,0.0,0.35546875,-7.828125,1.25,1.0
4806088,,,,,,,,-0.96484375,1.75,0.0859375,0.15234375,0.845703125,0.0078125,0.39453125,-7.48828125,1.2109375,1.0
4806089,,,,,,,,-0.95703125,1.90234375,0.03125,0.16015625,0.849609375,0.005859375,0.546875,-7.37109375,1.13671875,1.0
4806090,36.01344733333334,129.31957633333334,88.01486654680252,116.21175187662944,1.1,140.0,,-0.28515625,-0.07421875,0.73046875,-0.0078125,0.873046875,0.0625,0.62109375,-7.21875,1.05859375,1.0
4806091,,,,,,,,-0.62109375,2.171875,-0.21484375,0.162109375,0.857421875,0.015625,0.8515625,-7.140625,1.13671875,1.0
4806092,,,,,,,,-0.4609375,2.25,-0.11328125,0.162109375,0.873046875,0.015625,0.9296875,-7.0625,1.13671875,1.0
4806093,,,,,,,,-0.24609375,2.25,-0.09375,0.208984375,0.892578125,-0.013671875,1.16015625,-7.21875,1.25,1.0
4806094,,,,,,,,-0.08203125,2.0859375,-0.0859375,0.220703125,0.888671875,-0.025390625,1.19921875,-7.296875,1.25,1.0
4806095,,,,,,,,-0.05859375,2.078125,-0.1875,0.2421875,0.888671875,-0.078125,1.19921875,-7.296875,1.2109375,1.0
4806096,,,,,,,,-0.09765625,2.15625,-0.23828125,0.248046875,0.884765625,-0.0859375,1.16015625,-7.21875,1.17578125,1.0
4806097,,,,,,,,-0.20703125,2.1953125,-0.44140625,0.26171875,0.869140625,-0.134765625,1.04296875,-7.18359375,1.01953125,1.0
4806098,,,,,,,,-0.24609375,2.1953125,-0.50390625,0.26953125,0.861328125,-0.14453125,1.00390625,-7.1796875,0.98046875,1.0
4806099,,,,,,,,-0.3984375,2.0625,-0.6171875,0.255859375,0.865234375,-0.173828125,0.8515625,-7.30078125,0.90625,1.0
4806100,36.013446333333334,129.31957666666668,88.04491711790835,116.10079292754031,1.0,143.0,0.0,-0.51171875,1.90234375,-0.6796875,-0.0078125,0.873046875,0.0625,0.62109375,-7.21875,1.05859375,1.0
4806101,,,,,,,,-0.62890625,1.703125,-0.56640625,0.2109375,0.826171875,-0.203125,0.62109375,-7.64453125,1.01953125,1.0
4806102,,,,,,,,-0.87109375,1.50390625,-0.56640625,0.208984375,0.771484375,-0.2109375,0.39453125,-7.83203125,1.05859375,1.0
4806103,,,,,,,,-0.94921875,1.3046875,-0.68359375,0.205078125,0.736328125,-0.20703125,0.31640625,-8.0234375,0.98046875,1.0
4806104,,,,,,,,-0.8046875,0.9921875,-0.70703125,0.171875,0.67578125,-0.201171875,0.46875,-8.33203125,0.98046875,1.0
4806105,,,,,,,,-0.62109375,0.75390625,-0.73828125,0.099609375,0.578125,-0.1953125,0.66015625,-8.5546875,0.98046875,1.0
4806106,,,,,,,,-0.62890625,0.67578125,-0.7890625,0.0546875,0.541015625,-0.1796875,0.66015625,-8.63671875,0.9453125,1.0
4806107,,,,,,,,-0.66796875,0.19921875,-0.76171875,0.0078125,0.521484375,-0.16796875,0.62109375,-9.09765625,0.98046875,1.0
4806108,,,,,,,,-0.703125,-0.14453125,-0.69140625,-0.03515625,0.478515625,-0.138671875,0.5859375,-9.4375,1.05859375,1.0
4806109,,,,,,,,-0.7109375,-0.06640625,-0.4609375,-0.048828125,0.455078125,-0.1171875,0.5859375,-9.36328125,1.2890625,1.0
4806110,36.01344516666666,129.3195773333333,88.10501733228153,115.97134107109716,1.1,145.0,,-0.7421875,-0.19140625,-0.30859375,-0.0078125,0.873046875,0.0625,0.62109375,-7.21875,1.05859375,1.0
4806111,,,,,,,,-0.828125,-0.3828125,-0.27734375,-0.017578125,0.451171875,-0.0625,0.46875,-9.671875,1.48046875,1.0
4806112,,,,,,,,-0.7421875,-0.6484375,-0.24609375,-0.033203125,0.4453125,-0.04296875,0.546875,-9.94140625,1.51953125,1.0
4806113,,,,,,,,-0.4765625,-0.8046875,-0.09375,-0.0625,0.38671875,-0.037109375,0.8125,-10.09765625,1.671875,1.0
4806114,,,,,,,,0.0390625,-0.8046875,-0.046875,-0.10546875,0.294921875,-0.0234375,1.3125,-10.09375,1.7109375,1.0
4806115,,,,,,,,0.46875,-0.7265625,-0.1171875,-0.12890625,0.212890625,-0.021484375,1.84765625,-9.9375,1.59375,1.0
4806116,,,,,,,,0.69921875,-0.56640625,-0.22265625,-0.1328125,0.185546875,-0.009765625,1.96484375,-9.86328125,1.51953125,1.0
4806117,,,,,,,,0.62109375,-0.06640625,-0.359375,-0.166015625,0.2265625,-0.001953125,1.88671875,-9.36328125,1.3671875,1.0
4806118,,,,,,,,0.40625,0.19921875,-0.53515625,-0.25,0.30078125,0.01171875,1.65625,-9.09765625,1.17578125,1.0
4806119,,,,,,,,0.40625,0.1640625,-0.56640625,-0.314453125,0.3359375,0.01953125,1.65625,-9.1328125,1.13671875,1.0
4806120,36.013444,129.31957716666665,88.08999390024569,115.84188846139136,1.1,153.0,,0.921875,-0.43359375,-0.48046875,-0.529296875,0.36328125,0.0625,2.15625,-9.7421875,1.17578125,1.0
4806121,,,,,,,,1.16796875,-1.5,-0.42578125,-0.693359375,0.37109375,0.08203125,2.38671875,-10.8203125,1.17578125,1.0
4806122,,,,,,,,1.2109375,-2.1796875,-0.46484375,-0.78515625,0.36328125,0.087890625,2.421875,-11.5078125,1.09765625,1.0
4806123,,,,,,,,1.234375,-2.9609375,1.23046875,-0.943359375,0.435546875,0.0546875,2.421875,-12.31640625,2.62890625,1.0
4806124,,,,,,,,0.9765625,-2.9921875,1.4921875,-0.90234375,0.576171875,0.025390625,2.15625,-12.35546875,2.859375,1.0
4806125,,,,,,,,-0.1875,-3.859375,1.37109375,-0.712890625,0.96875,0.041015625,0.96875,-13.234375,2.62890625,1.0
4806126,,,,,,,,-0.86328125,-2.28125,2.375,-0.646484375,0.94921875,0.037109375,0.27734375,-11.6640625,3.5859375,1.0
4806127,,,,,,,,-0.6640625,-0.96875,2.5546875,-0.541015625,0.9453125,0.005859375,0.46875,-10.359375,3.7421875,1.0
4806128,,,,,,,,-0.46484375,-0.703125,2.1953125,-0.1953125,1.01171875,-0.044921875,0.66015625,-10.09765625,3.359375,1.0
4806129,,,,,,,,-0.37890625,-0.84765625,1.9921875,-0.099609375,1.05859375,-0.05859375,0.73828125,-10.2421875,3.1640625,1.0
4806130,36.01344316666667,129.319578,88.16511848360567,115.74942317471877,1.1,154.0,,-0.02734375,-1.19140625,1.83984375,-0.529296875,0.36328125,0.0625,1.08203125,-10.58984375,3.01171875,1.0
4806131,,,,,,,,0.86328125,-1.61328125,2.4140625,-0.16796875,1.19140625,-0.138671875,1.96484375,-11.0078125,3.5859375,1.0
4806132,,,,,,,,1.24609375,-1.68359375,2.37890625,-0.16796875,1.21875,-0.1796875,2.34765625,-11.0859375,3.55078125,1.0
4806133,,,,,,,,1.0078125,-1.64453125,2.03125,-0.076171875,1.322265625,-0.25,2.1171875,-11.046875,3.203125,1.0
4806134,,,,,,,,0.46484375,-1.48828125,1.89453125,-0.029296875,1.404296875,-0.287109375,1.58203125,-10.890625,3.08984375,1.0
4806135,,,,,,,,-0.578125,-1.421875,2.15625,0.0,1.474609375,-0.328125,0.546875,-10.8203125,3.359375,1.0
4806136,,,,,,,,-0.78515625,-1.34375,2.24609375,0.009765625,1.494140625,-0.376953125,0.35546875,-10.7421875,3.47265625,1.0
4806137,,,,,,,,-1.26953125,-0.9609375,2.30078125,0.04296875,1.44921875,-0.412109375,-0.10546875,-10.36328125,3.55078125,1.0
4806138,,,,,,,,-1.5703125,-0.81640625,1.578125,0.08984375,1.27734375,-0.400390625,-0.375,-10.203125,2.859375,1.0
4806139,,,,,,,,-1.64453125,-0.703125,1.1484375,0.080078125,1.224609375,-0.390625,-0.44921875,-10.09765625,2.4375,1.0
4806140,36.013442000000005,129.31957849999998,88.21019397118994,115.61997116847108,1.2000000000000002,156.0,,-1.62890625,-0.59375,0.89453125,-0.529296875,0.36328125,0.0625,1.08203125,-10.58984375,3.01171875,1.0
4806141,,,,,,,,-1.2421875,0.2109375,0.6171875,0.005859375,1.10546875,-0.30859375,0.0078125,-9.17578125,1.9765625,1.0
4806142,,,,,,,,-0.90234375,0.86328125,0.3515625,0.0078125,1.0859375,-0.298828125,0.35546875,-8.515625,1.7109375,1.0
4806143,,,,,,,,-0.8359375,1.23828125,0.16796875,0.03125,1.029296875,-0.302734375,0.4296875,-8.13671875,1.55859375,1.0
4806144,,,,,,,,-0.8125,1.7265625,-0.1171875,0.0234375,0.984375,-0.30859375,0.46875,-7.64453125,1.2890625,1.0
4806145,,,,,,,,-0.90234375,2.0703125,-0.24609375,0.029296875,0.94921875,-0.32421875,0.39453125,-7.30078125,1.17578125,1.0
4806146,,,,,,,,-0.94921875,2.1484375,-0.30078125,0.03125,0.92578125,-0.3359375,0.35546875,-7.21875,1.13671875,1.0
4806147,,,,,,,,-1.1953125,2.41796875,-0.5,0.052734375,0.87890625,-0.34375,0.125,-6.94921875,0.9453125,1.0
4806148,,,,,,,,-1.37109375,2.53125,-0.6015625,0.080078125,0.837890625,-0.349609375,-0.02734375,-6.8359375,0.8671875,1.0
4806149,,,,,,,,-1.48828125,2.5703125,-0.73046875,0.091796875,0.826171875,-0.33984375,-0.14453125,-6.796875,0.75390625,1.0
4806150,36.01344133333334,129.31957916666667,88.27029364079556,115.54599893947263,1.1,152.0,,-1.703125,2.37109375,-0.74609375,0.1015625,0.806640625,-0.326171875,-0.3359375,-6.984375,0.75390625,1.0
4806151,,,,,,,,-1.87890625,2.24609375,-0.89453125,0.125,0.796875,-0.2734375,-0.48828125,-7.10546875,0.63671875,1.0
4806152,,,,,,,,-1.87890625,2.1640625,-0.88671875,0.134765625,0.767578125,-0.23046875,-0.48828125,-7.18359375,0.67578125,1.0
4806153,,,,,,,,-1.84765625,2.078125,-0.90234375,0.12890625,0.732421875,-0.1953125,-0.44921875,-7.26171875,0.67578125,1.0
4806154,,,,,,,,-1.84765625,1.95703125,-0.85546875,0.125,0.6875,-0.162109375,-0.44921875,-7.37109375,0.75390625,1.0
4806155,,,,,,,,-1.84765625,1.80078125,-0.8359375,0.11328125,0.63671875,-0.13671875,-0.44921875,-7.5234375,0.7890625,1.0
4806156,,,,,,,,-1.7734375,1.52734375,-0.765625,0.107421875,0.615234375,-0.12109375,-0.375,-7.79296875,0.8671875,1.0
4806157,,,,,,,,-1.80078125,1.3359375,-0.7890625,0.08984375,0.560546875,-0.095703125,-0.41015625,-7.98828125,0.8671875,1.0
4806158,,,,,,,,-1.6875,1.296875,-0.57421875,0.068359375,0.490234375,-0.076171875,-0.296875,-8.0234375,1.09765625,1.0
4806159,,,,,,,,-1.7265625,1.25,-0.58203125,0.095703125,0.4296875,-0.0546875,-0.3359375,-8.0625,1.09765625,1.0
4806160,36.01344016666667,129.31957916666667,88.27029494151839,115.41654648091027,1.1,158.0,,-1.7109375,1.17578125,-0.68359375,0.12890625,0.3828125,-0.025390625,-0.3359375,-8.1328125,1.01953125,1.0
4806161,,,,,,,,-1.6328125,0.859375,-0.7734375,0.15625,0.35546875,0.0,-0.2578125,-8.4453125,0.9453125,1.0
4806162,,,,,,,,-1.59375,0.78515625,-0.75390625,0.16015625,0.341796875,0.0078125,-0.21875,-8.515625,0.98046875,1.0
4806163,,,,,,,,-1.41796875,0.5078125,-0.61328125,0.158203125,0.310546875,0.017578125,-0.06640625,-8.7890625,1.13671875,1.0
4806164,,,,,,,,-1.34375,0.390625,-0.5078125,0.138671875,0.28515625,0.0234375,0.0078125,-8.90625,1.25,1.0
4806165,,,,,,,,-1.05859375,0.125,-0.1171875,0.12890625,0.232421875,0.013671875,0.27734375,-9.171875,1.671875,1.0
4806166,,,,,,,,-1.08984375,0.078125,-0.01171875,0.125,0.23046875,0.01171875,0.23828125,-9.2109375,1.78515625,1.0
4806167,,,,,,,,-1.1171875,0.1171875,-0.09375,0.130859375,0.236328125,0.0,0.203125,-9.17578125,1.7109375,1.0
4806168,,,,,,,,-1.02734375,0.140625,-0.31640625,0.091796875,0.23828125,-0.029296875,0.27734375,-9.1328125,1.51953125,1.0
4806169,,,,,,,,-0.875,-0.015625,-0.2421875,0.05859375,0.23046875,-0.03515625,0.4296875,-9.29296875,1.59375,1.0
4806170,36.01343933333333,129.319579,88.25527113955549,115.32408028851577,1.0,167.0,,-0.8671875,-0.2421875,-0.09375,-0.076171875,0.212890625,-0.056640625,0.4296875,-9.515625,1.75,1.0
4806171,,,,,,,,-0.90234375,-0.3515625,-0.078125,-0.150390625,0.23828125,-0.056640625,0.39453125,-9.6328125,1.75,1.0
4806172,,,,,,,,-0.859375,-0.42578125,-0.453125,-0.240234375,0.26953125,-0.060546875,0.4296875,-9.703125,1.3671875,1.0
4806173,,,,,,,,-0.78125,-0.46484375,-0.69921875,-0.34375,0.3046875,-0.05859375,0.5078125,-9.7421875,1.09765625,1.0
4806174,,,,,,,,-0.4765625,-0.41796875,-0.8125,-0.466796875,0.328125,-0.046875,0.8125,-9.703125,0.9453125,1.0
4806175,,,,,,,,-0.16015625,-0.2578125,-0.73828125,-0.5703125,0.3515625,-0.033203125,1.12109375,-9.5546875,0.98046875,1.0
4806176,,,,,,,,-0.19140625,-0.14453125,-0.71484375,-0.6171875,0.37109375,-0.02734375,1.08203125,-9.44140625,0.98046875,1.0
4806177,,,,,,,,-0.4609375,0.140625,-0.734375,-0.65625,0.40625,-0.009765625,0.8125,-9.17578125,0.90625,1.0
4806178,,,,,,,,-1.01953125,0.29296875,-0.71875,-0.658203125,0.443359375,-0.009765625,0.23828125,-9.01953125,0.8671875,1.0
4806179,,,,,,,,-1.27734375,0.0390625,-0.55078125,-0.666015625,0.447265625,0.001953125,-0.02734375,-9.29296875,0.98046875,1.0
4806180,36.01343833333333,129.31957866666667,88.22522279216298,115.21312073707367,1.0,177.0,,-1.25390625,-1.125,-0.5625,-0.759765625,0.376953125,0.03125,-0.02734375,-10.4765625,0.8671875,1.0
4806181,,,,,,,,-0.7890625,-1.16015625,0.390625,-0.876953125,0.267578125,0.052734375,0.4296875,-10.5078125,1.75,1.0
4806182,,,,,,,,-0.3203125,-0.7265625,1.34765625,-0.884765625,0.173828125,0.0546875,0.890625,-10.09765625,2.62890625,1.0
4806183,,,,,,,,0.421875,-1.71484375,1.88671875,-0.8125,0.1953125,0.076171875,1.6171875,-11.0859375,3.08984375,1.0
4806184,,,,,,,,1.328125,-4.68359375,1.7734375,-0.95703125,0.353515625,0.1328125,2.5,-14.0703125,2.859375,1.0
4806185,,,,,,,,2.8828125,-5.7890625,3.27734375,-1.015625,0.3984375,0.0859375,4.03125,-15.19140625,4.27734375,1.0
4806186,,,,,,,,3.7734375,-3.55078125,3.66796875,-0.681640625,0.427734375,-0.005859375,4.9140625,-12.96484375,4.58203125,1.0
4806187,,,,,,,,2.6328125,-2.27734375,3.5,0.072265625,0.572265625,-0.119140625,3.765625,-11.69921875,4.390625,1.0
4806188,,,,,,,,0.2109375,-1.94140625,3.4375,0.37890625,0.640625,-0.171875,1.3515625,-11.3515625,4.3515625,1.0
4806189,,,,,,,,-1.453125,-2.28515625,3.578125,0.458984375,0.544921875,-0.171875,-0.296875,-11.6953125,4.546875,1.0
4806190,36.01343733333333,129.31957866666667,88.22522390664425,115.10216148652097,1.1,177.0,,-1.765625,-2.09375,3.13671875,-0.759765625,0.376953125,0.03125,-0.02734375,-10.4765625,0.8671875,1.0
4806191,,,,,,,,-1.19140625,-1.18359375,2.25,0.443359375,0.359375,-0.01953125,-0.02734375,-10.58984375,3.3203125,1.0
4806192,,,,,,,,-0.75390625,-0.2265625,1.828125,0.380859375,0.41796875,0.07421875,0.39453125,-9.6328125,2.9375,1.0
4806193,,,,,,,,-0.51953125,0.1875,1.6484375,0.318359375,0.447265625,0.1015625,0.62109375,-9.21484375,2.78125,1.0
4806194,,,,,,,,-0.2578125,0.2734375,1.10546875,0.091796875,0.451171875,0.224609375,0.8515625,-9.1328125,2.28515625,1.0
4806195,,,,,,,,-0.03515625,-0.1484375,0.63671875,-0.044921875,0.396484375,0.255859375,1.04296875,-9.5546875,1.82421875,1.0
4806196,,,,,,,,0.03515625,-0.5234375,0.76171875,-0.181640625,0.345703125,0.251953125,1.08203125,-9.94140625,1.94140625,1.0
4806197,,,,,,,,-0.046875,-0.25,0.96875,-0.298828125,0.30859375,0.232421875,0.96875,-9.67578125,2.1328125,1.0
4806198,,,,,,,,-0.1171875,-0.09375,1.05859375,-0.302734375,0.3046875,0.220703125,0.890625,-9.515625,2.20703125,1.0
4806199,,,,,,,,-0.23828125,0.33984375,1.0,-0.22265625,0.30859375,0.1953125,0.73828125,-9.09375,2.1328125,1.0
4806200,36.013436666666664,129.31957866666667,88.22522464958944,115.02818865324312,0.8,177.0,0.0,-0.5234375,0.88671875,0.59375,-0.759765625,0.376953125,0.03125,-0.02734375,-10.4765625,0.8671875,1.0
4806201,,,,,,,,-0.61328125,1.14453125,0.27734375,-0.05078125,0.353515625,0.15625,0.31640625,-8.29296875,1.40234375,1.0
4806202,,,,,,,,-0.60546875,1.3828125,0.171875,-0.044921875,0.36328125,0.15625,0.31640625,-8.0625,1.2890625,1.0
4806203,,,,,,,,-0.4375,1.69921875,0.01171875,-0.0546875,0.3828125,0.13671875,0.46875,-7.75,1.13671875,1.0
4806204,,,,,,,,-0.0625,2.04296875,-0.06640625,-0.060546875,0.38671875,0.12890625,0.8125,-7.41015625,1.05859375,1.0
4806205,,,,,,,,0.18359375,2.203125,-0.10546875,-0.060546875,0.392578125,0.1171875,1.04296875,-7.2578125,1.01953125,1.0
4806206,,,,,,,,0.23046875,2.2734375,-0.10546875,-0.05078125,0.400390625,0.107421875,1.08203125,-7.18359375,1.01953125,1.0
4806207,,,,,,,,0.453125,2.39453125,-0.41015625,-0.001953125,0.41796875,0.068359375,1.2734375,-7.0625,0.71484375,1.0
4806208,,,,,,,,0.515625,2.3203125,-0.49609375,0.01171875,0.439453125,0.046875,1.3125,-7.140625,0.63671875,1.0
4806209,,,,,,,,0.6015625,2.35546875,-0.50390625,0.017578125,0.478515625,0.015625,1.390625,-7.1015625,0.63671875,1.0
4806210,36.013436,129.31957849999998,88.21020065650276,114.95421566950816,0.8,181.0,,0.67578125,2.28125,-0.39453125,0.037109375,0.51171875,-0.017578125,-0.02734375,-10.4765625,0.8671875,1.0
4806211,,,,,,,,0.69140625,2.1640625,-0.3671875,0.04296875,0.560546875,-0.03515625,1.46484375,-7.30078125,0.7890625,1.0
4806212,,,,,,,,0.69140625,2.15625,-0.34375,0.05859375,0.580078125,-0.044921875,1.46484375,-7.30078125,0.828125,1.0
4806213,,,,,,,,0.6171875,2.04296875,-0.3984375,0.072265625,0.619140625,-0.080078125,1.390625,-7.40625,0.7890625,1.0
4806214,,,,,,,,0.609375,2.00390625,-0.40625,0.09375,0.625,-0.099609375,1.390625,-7.44921875,0.7890625,1.0
4806215,,,,,,,,0.578125,1.84375,-0.49609375,0.1015625,0.640625,-0.11328125,1.3515625,-7.60546875,0.71484375,1.0
4806216,,,,,,,,0.578125,1.7734375,-0.58203125,0.095703125,0.646484375,-0.11328125,1.3515625,-7.6796875,0.63671875,1.0
4806217,,,,,,,,0.4609375,1.3828125,-0.59765625,0.103515625,0.666015625,-0.119140625,1.234375,-8.06640625,0.63671875,1.0
4806218,,,,,,,,0.41796875,0.953125,-0.58984375,0.11328125,0.728515625,-0.12890625,1.19921875,-8.48828125,0.67578125,1.0
4806219,,,,,,,,0.4921875,0.76171875,-0.484375,0.123046875,0.7578125,-0.12890625,1.2734375,-8.671875,0.7890625,1.0
4806220,36.01343516666667,129.31957849999998,88.21020158487288,114.86174962845453,0.9,180.0,,0.4453125,0.6484375,-0.30859375,0.037109375,0.51171875,-0.017578125,1.234375,-8.7890625,0.98046875,1.0
4806221,,,,,,,,0.41796875,0.48046875,-0.12890625,0.140625,0.861328125,-0.138671875,1.19921875,-8.94140625,1.17578125,1.0
4806222,,,,,,,,0.26171875,0.40234375,-0.125,0.126953125,0.865234375,-0.130859375,1.04296875,-9.01953125,1.2109375,1.0
4806223,,,,,,,,0.109375,0.31640625,-0.16796875,0.115234375,0.8515625,-0.125,0.890625,-9.09765625,1.17578125,1.0
4806224,,,,,,,,-0.16015625,0.2421875,-0.19140625,0.080078125,0.80859375,-0.10546875,0.62109375,-9.17578125,1.17578125,1.0
4806225,,,,,,,,-0.2734375,0.1640625,-0.19921875,0.046875,0.7734375,-0.09765625,0.5078125,-9.25,1.17578125,1.0
4806226,,,,,,,,-0.3046875,-0.2578125,-0.25390625,-0.0078125,0.71484375,-0.08203125,0.46875,-9.671875,1.13671875,1.0
4806227,,,,,,,,-0.37109375,-0.9140625,-0.1796875,-0.119140625,0.642578125,-0.05078125,0.39453125,-10.3203125,1.2109375,1.0
4806228,,,,,,,,-0.41015625,-1.10546875,-0.0234375,-0.15625,0.619140625,-0.04296875,0.35546875,-10.5078125,1.3671875,1.0
4806229,,,,,,,,-0.6328125,-1.4140625,0.18359375,-0.19140625,0.55078125,-0.041015625,0.125,-10.8203125,1.55859375,1.0
4806230,36.01343433333333,129.31957833333334,88.19517778356867,114.76928343509297,0.9,183.0,,-0.5546875,-1.14453125,0.3515625,0.037109375,0.51171875,-0.017578125,0.203125,-10.546875,1.7109375,1.0
4806231,,,,,,,,-0.3203125,-0.5703125,0.05859375,-0.15625,0.39453125,-0.03515625,0.4296875,-9.98046875,1.40234375,1.0
4806232,,,,,,,,-0.203125,-0.37890625,-0.0546875,-0.162109375,0.375,-0.029296875,0.546875,-9.78125,1.2890625,1.0
4806233,,,,,,,,0.2265625,-0.06640625,-0.1015625,-0.298828125,0.384765625,0.0078125,0.96875,-9.4765625,1.2109375,1.0
4806234,,,,,,,,0.45703125,-0.5234375,-0.20703125,-0.36328125,0.4140625,0.02734375,1.19921875,-9.9375,1.09765625,1.0
4806235,,,,,,,,0.6640625,-1.89453125,-0.12890625,-0.576171875,0.466796875,0.05078125,1.390625,-11.31640625,1.13671875,1.0
4806236,,,,,,,,0.75390625,-2.578125,0.1640625,-0.861328125,0.41015625,0.064453125,1.46484375,-12.01171875,1.328125,1.0
4806237,,,,,,,,0.72265625,-2.02734375,0.47265625,-0.8203125,0.3828125,0.046875,1.42578125,-11.46875,1.55859375,1.0
4806238,,,,,,,,0.2421875,-3.08984375,1.0625,-0.62890625,0.578125,0.0078125,0.9296875,-12.5390625,2.0546875,1.0
4806239,,,,,,,,-0.21875,-4.5,1.19921875,-0.65234375,0.625,0.015625,0.46875,-13.9609375,2.16796875,1.0
4806240,36.0134335,129.31957833333334,88.19517871197307,114.67681739466232,1.0,185.0,,-0.40234375,-4.4140625,1.9140625,-0.75390625,0.62109375,0.021484375,0.27734375,-13.8828125,2.8203125,1.0
4806241,,,,,,,,-0.35546875,-2.1953125,2.09375,-0.595703125,0.61328125,0.0,0.31640625,-11.6640625,2.9375,1.0
4806242,,,,,,,,-0.453125,-0.9609375,1.6640625,-0.0859375,0.75390625,-0.033203125,0.203125,-10.4375,2.4765625,1.0
4806243,,,,,,,,-0.5703125,-0.65234375,1.5703125,0.177734375,0.90625,-0.01953125,0.0859375,-10.125,2.3984375,1.0
4806244,,,,,,,,-0.41015625,-1.0,1.9296875,0.138671875,1.0078125,-0.009765625,0.23828125,-10.48046875,2.78125,1.0
4806245,,,,,,,,0.05859375,-1.3828125,2.296875,0.048828125,1.0390625,-0.033203125,0.69921875,-10.86328125,3.1640625,1.0
4806246,,,,,,,,0.48046875,-1.57421875,2.484375,0.052734375,1.06640625,-0.056640625,1.12109375,-11.05078125,3.359375,1.0
4806247,,,,,,,,0.7109375,-1.34375,2.18359375,0.205078125,1.14453125,-0.1171875,1.3515625,-10.8203125,3.08984375,1.0
4806248,,,,,,,,0.296875,-0.76953125,1.80859375,0.30859375,1.181640625,-0.177734375,0.9296875,-10.2421875,2.74609375,1.0
4806249,,,,,,,,-0.515625,-0.39453125,1.84375,0.353515625,1.21484375,-0.244140625,0.125,-9.86328125,2.8203125,1.0
4806250,36.01343266666667,129.31957833333334,88.19517964060732,114.58435135294548,1.0,184.0,,-1.03125,-0.00390625,1.9140625,0.333984375,1.1875,-0.294921875,-0.375,-9.4765625,2.9375,1.0
4806251,,,,,,,,-1.40625,0.01953125,1.78125,0.248046875,1.02734375,-0.330078125,-0.71875,-9.44140625,2.859375,1.0
4806252,,,,,,,,-1.60546875,-0.01953125,1.49609375,0.212890625,0.9765625,-0.333984375,-0.91015625,-9.4765625,2.58984375,1.0
4806253,,,,,,,,-1.62109375,-0.09375,1.16015625,0.15234375,0.900390625,-0.31640625,-0.91015625,-9.55859375,2.28515625,1.0
4806254,,,,,,,,-1.58984375,-0.0546875,1.02734375,0.126953125,0.87890625,-0.291015625,-0.87109375,-9.51953125,2.16796875,1.0
4806255,,,,,,,,-1.52734375,0.08984375,0.8984375,0.099609375,0.857421875,-0.259765625,-0.79296875,-9.359375,2.0546875,1.0
4806256,,,,,,,,-1.16796875,0.89453125,0.60546875,0.119140625,0.8828125,-0.19921875,-0.41015625,-8.55859375,1.78515625,1.0
4806257,,,,,,,,-0.90234375,1.359375,0.31640625,0.126953125,0.880859375,-0.177734375,-0.14453125,-8.10546875,1.51953125,1.0
4806258,,,,,,,,-0.83203125,1.91796875,0.0859375,0.123046875,0.802734375,-0.181640625,-0.06640625,-7.5234375,1.328125,1.0
4806259,,,,,,,,-0.87890625,2.00390625,0.0703125,0.12109375,0.783203125,-0.1875,-0.10546875,-7.44921875,1.328125,1.0
4806260,36.013431833333335,129.31957816666667,88.18015583658578,114.49188516120083,1.0,185.0,,-1.03125,2.11328125,-0.0234375,0.134765625,0.755859375,-0.197265625,-0.375,-9.4765625,2.9375,1.0
4806261,,,,,,,,-1.34765625,2.1875,-0.16015625,0.158203125,0.734375,-0.203125,-0.56640625,-7.2578125,1.13671875,1.0
4806262,,,,,,,,-1.62109375,2.1796875,-0.26171875,0.1796875,0.708984375,-0.1953125,-0.83203125,-7.2578125,1.05859375,1.0
4806263,,,,,,,,-1.7734375,1.98046875,-0.4765625,0.201171875,0.6796875,-0.1796875,-0.984375,-7.44921875,0.8671875,1.0
4806264,,,,,,,,-1.9375,1.90234375,-0.515625,0.19921875,0.640625,-0.16796875,-1.140625,-7.5234375,0.8671875,1.0
4806265,,,,,,,,-1.9453125,1.90234375,-0.5390625,0.18359375,0.5859375,-0.146484375,-1.140625,-7.5234375,0.8671875,1.0
4806266,,,,,,,,-1.9140625,1.7890625,-0.4609375,0.166015625,0.5625,-0.138671875,-1.1015625,-7.640625,0.9453125,1.0
4806267,,,,,,,,-1.9453125,1.62890625,-0.42578125,0.130859375,0.490234375,-0.111328125,-1.140625,-7.7890625,1.01953125,1.0
4806268,,,,,,,,-1.90625,1.58203125,-0.32421875,0.13671875,0.44921875,-0.087890625,-1.1015625,-7.828125,1.13671875,1.0
4806269,,,,,,,,-1.9140625,1.58203125,-0.33203125,0.14453125,0.4296875,-0.078125,-1.1015625,-7.828125,1.13671875,1.0
4806270,36.01343083333334,129.31957783333334,88.15010748526815,114.38092561053128,1.0,191.0,,-1.74609375,1.53515625,-0.35546875,0.134765625,0.755859375,-0.197265625,-0.94921875,-7.87109375,1.13671875,1.0
4806271,,,,,,,,-1.515625,1.49609375,-0.6171875,0.197265625,0.3125,-0.048828125,-0.71875,-7.91015625,0.90625,1.0
4806272,,,,,,,,-1.4375,1.421875,-0.6796875,0.181640625,0.2890625,-0.044921875,-0.640625,-7.984375,0.8671875,1.0
4806273,,,,,,,,-1.4296875,1.3359375,-0.6875,0.17578125,0.287109375,-0.03125,-0.640625,-8.0625,0.8671875,1.0
4806274,,,,,,,,-1.34765625,0.9921875,-0.75,0.142578125,0.279296875,-0.029296875,-0.56640625,-8.41015625,0.828125,1.0
4806275,,,,,,,,-1.34765625,0.75390625,-0.6796875,0.11328125,0.263671875,-0.0234375,-0.56640625,-8.63671875,0.90625,1.0
4806276,,,,,,,,-1.33984375,0.515625,-0.57421875,0.087890625,0.23046875,-0.021484375,-0.56640625,-8.87109375,1.01953125,1.0
4806277,,,,,,,,-1.3671875,0.39453125,-0.63671875,0.08984375,0.205078125,-0.04296875,-0.6015625,-8.98046875,0.98046875,1.0
4806278,,,,,,,,-1.40625,0.39453125,-0.63671875,0.1015625,0.193359375,-0.044921875,-0.640625,-8.9765625,0.98046875,1.0
4806279,,,,,,,,-1.515625,0.203125,-0.57421875,0.103515625,0.185546875,-0.052734375,-0.7578125,-9.17578125,1.05859375,1.0
4806280,36.013430166666666,129.31957716666665,88.09000929231334,114.30695217357602,0.9,200.0,,-1.55859375,0.125,-0.51171875,0.087890625,0.166015625,-0.060546875,-0.79296875,-9.25390625,1.13671875,1.0
4806281,,,,,,,,-1.55078125,-0.03515625,-0.40625,0.08203125,0.138671875,-0.068359375,-0.79296875,-9.40234375,1.25,1.0
4806282,,,,,,,,-1.5234375,-0.1875,-0.3359375,0.072265625,0.1015625,-0.078125,-0.7578125,-9.55859375,1.328125,1.0
4806283,,,,,,,,-1.20703125,-0.49609375,-0.14453125,0.068359375,0.0703125,-0.083984375,-0.44921875,-9.859375,1.51953125,1.0
4806284,,,,,,,,-0.984375,-0.55078125,-0.046875,0.056640625,0.052734375,-0.08984375,-0.21875,-9.90234375,1.6328125,1.0
4806285,,,,,,,,-0.6015625,-0.5859375,-0.0859375,0.041015625,0.04296875,-0.099609375,0.1640625,-9.9375,1.59375,1.0
4806286,,,,,,,,-0.5703125,-0.50390625,-0.12109375,0.01953125,0.04296875,-0.107421875,0.203125,-9.86328125,1.55859375,1.0
4806287,,,,,,,,-0.42578125,-0.3203125,-0.28515625,-0.017578125,0.064453125,-0.126953125,0.35546875,-9.671875,1.40234375,1.0
4806288,,,,,,,,-0.46484375,-0.203125,-0.3515625,-0.087890625,0.107421875,-0.1484375,0.31640625,-9.5546875,1.328125,1.0
4806289,,,,,,,,-0.48046875,-0.08984375,-0.4609375,-0.17578125,0.14453125,-0.166015625,0.31640625,-9.44140625,1.2109375,1.0
4806290,36.0134295,129.3195765,88.02991110558565,114.23297873893057,0.9,208.0,,-0.49609375,-0.08984375,-0.61328125,-0.35546875,0.158203125,-0.173828125,0.31640625,-9.44140625,1.01953125,1.0
4806291,,,,,,,,-0.6875,-0.15625,-0.49609375,-0.47265625,0.16796875,-0.173828125,0.125,-9.515625,1.09765625,1.0
4806292,,,,,,,,-1.1640625,-0.1484375,-0.296875,-0.55078125,0.162109375,-0.16796875,-0.3359375,-9.51953125,1.25,1.0
4806293,,,,,,,,-1.62890625,-0.5625,-0.28125,-0.583984375,0.15625,-0.171875,-0.79296875,-9.9375,1.2109375,1.0
4806294,,,,,,,,-1.828125,-1.17578125,-0.38671875,-0.64453125,0.103515625,-0.166015625,-0.984375,-10.55078125,1.05859375,1.0
4806295,,,,,,,,-1.609375,-1.78125,-0.31640625,-0.79296875,-0.017578125,-0.15234375,-0.7578125,-11.16796875,1.05859375,1.0
4806296,,,,,,,,-0.62109375,-2.5,0.22265625,-0.87109375,-0.091796875,-0.1328125,0.23828125,-11.890625,1.55859375,1.0
4806297,,,,,,,,0.4375,-3.18359375,0.7265625,-0.951171875,-0.220703125,-0.09375,1.3125,-12.578125,1.9765625,1.0
4806298,,,,,,,,1.5859375,-4.27734375,1.05078125,-1.029296875,-0.279296875,-0.052734375,2.4609375,-13.69140625,2.20703125,1.0
4806299,,,,,,,,2.61328125,-4.953125,1.4609375,-1.115234375,-0.2109375,-0.005859375,3.49609375,-14.3828125,2.515625,1.0
4806300,36.013428999999995,129.31957599999998,87.98483745845499,114.1774986610958,0.9,213.0,0.0,3.2734375,-3.18359375,2.14453125,-0.35546875,0.158203125,-0.173828125,0.31640625,-9.44140625,1.01953125,1.0
4806301,,,,,,,,2.19921875,-1.03125,2.0234375,-0.15625,0.48046875,-0.1484375,3.07421875,-10.48046875,2.8984375,1.0
4806302,,,,,,,,1.1953125,-0.6484375,2.03125,0.033203125,0.544921875,-0.189453125,2.078125,-10.09375,2.8984375,1.0
4806303,,,,,,,,-0.453125,-2.03515625,2.828125,0.212890625,0.296875,-0.314453125,0.46875,-11.46875,3.7421875,1.0
4806304,,,,,,,,-0.4921875,-2.2265625,2.78125,0.22265625,0.189453125,-0.3203125,0.4296875,-11.66796875,3.703125,1.0
4806305,,,,,,,,-0.40625,-2.1171875,2.2421875,0.291015625,0.03125,-0.306640625,0.546875,-11.546875,3.203125,1.0
4806306,,,,,,,,0.09765625,-1.16015625,1.8125,0.4453125,0.0859375,-0.21875,1.08203125,-10.58984375,2.8203125,1.0
4806307,,,,,,,,0.08984375,-0.86328125,1.67578125,0.47265625,0.162109375,-0.177734375,1.08203125,-10.28515625,2.70703125,1.0
4806308,,,,,,,,0.00390625,-0.01953125,1.8125,0.470703125,0.345703125,-0.083984375,1.00390625,-9.44140625,2.8984375,1.0
4806309,,,,,,,,-0.0703125,0.05859375,1.671875,0.45703125,0.404296875,-0.029296875,0.9296875,-9.36328125,2.78125,1.0
4806310,36.01342833333333,129.31957516666668,87.90971453661493,114.10352507649833,1.1,220.0,,-0.0625,-0.06640625,1.51953125,-0.35546875,0.158203125,-0.173828125,0.9296875,-9.48046875,2.66796875,1.0
4806311,,,,,,,,0.23046875,-0.515625,1.43359375,0.15234375,0.263671875,0.1171875,1.19921875,-9.94140625,2.62890625,1.0
4806312,,,,,,,,0.3984375,-0.59375,1.42578125,0.044921875,0.146484375,0.11328125,1.3515625,-10.01953125,2.62890625,1.0
4806313,,,,,,,,0.11328125,-0.140625,1.14453125,0.064453125,0.091796875,0.080078125,1.04296875,-9.55859375,2.36328125,1.0
4806314,,,,,,,,-0.18359375,0.48046875,0.8515625,0.1484375,0.107421875,0.064453125,0.73828125,-8.9375,2.09375,1.0
4806315,,,,,,,,-0.359375,1.0546875,0.52734375,0.18359375,0.111328125,0.064453125,0.546875,-8.37109375,1.78515625,1.0
4806316,,,,,,,,-0.359375,1.13671875,0.3984375,0.189453125,0.103515625,0.068359375,0.546875,-8.2890625,1.671875,1.0
4806317,,,,,,,,-0.3515625,1.4765625,0.26953125,0.173828125,0.1171875,0.07421875,0.546875,-7.94921875,1.55859375,1.0
4806318,,,,,,,,-0.26171875,1.93359375,0.16015625,0.1484375,0.08984375,0.083984375,0.62109375,-7.484375,1.48046875,1.0
4806319,,,,,,,,-0.16796875,2.2421875,-0.0859375,0.146484375,0.08203125,0.08203125,0.69921875,-7.1796875,1.25,1.0
4806320,36.013427666666665,129.31957466666665,87.86464107284715,114.02955179254303,1.0,220.0,,0.18359375,2.47265625,-0.17578125,0.130859375,0.078125,0.083984375,1.04296875,-6.9453125,1.17578125,1.0
4806321,,,,,,,,0.4296875,2.5078125,-0.23046875,0.111328125,0.080078125,0.07421875,1.2734375,-6.9140625,1.13671875,1.0
4806322,,,,,,,,1.08984375,2.31640625,-0.36328125,0.09375,0.06640625,0.0703125,1.92578125,-7.10546875,1.01953125,1.0
4806323,,,,,,,,1.171875,2.31640625,-0.36328125,0.08984375,0.0703125,0.0625,2.0,-7.10546875,1.01953125,1.0
4806324,,,,,,,,1.296875,2.234375,-0.41015625,0.078125,0.072265625,0.025390625,2.1171875,-7.18359375,0.98046875,1.0
4806325,,,,,,,,1.10546875,2.05078125,-0.5390625,0.091796875,0.109375,0.005859375,1.92578125,-7.3671875,0.8671875,1.0
4806326,,,,,,,,0.76953125,1.88671875,-0.66796875,0.103515625,0.16796875,-0.001953125,1.58203125,-7.5234375,0.75390625,1.0
4806327,,,,,,,,0.34765625,1.92578125,-0.6484375,0.11328125,0.228515625,-0.001953125,1.16015625,-7.48828125,0.7890625,1.0
4806328,,,,,,,,0.26953125,1.92578125,-0.6484375,0.119140625,0.251953125,-0.009765625,1.08203125,-7.48828125,0.7890625,1.0
4806329,,,,,,,,0.19921875,1.8046875,-0.71484375,0.115234375,0.3046875,-0.005859375,1.00390625,-7.60546875,0.75390625,1.0
4806330,36.013427166666666,129.31957400000002,87.80454269768212,113.97407156783181,1.0,221.0,,0.27734375,1.49609375,-0.6875,0.130859375,0.078125,0.083984375,1.08203125,-7.91015625,0.7890625,1.0
4806331,,,,,,,,0.25390625,1.23046875,-0.6953125,0.0703125,0.2734375,0.009765625,1.04296875,-8.17578125,0.7890625,1.0
4806332,,,,,,,,0.1875,0.9140625,-0.6015625,0.072265625,0.26171875,0.015625,0.96875,-8.484375,0.90625,1.0
4806333,,,,,,,,0.078125,0.87890625,-0.5625,0.072265625,0.263671875,0.01171875,0.8515625,-8.515625,0.9453125,1.0
4806334,,,,,,,,-0.15234375,0.6484375,-0.42578125,0.095703125,0.248046875,0.01171875,0.62109375,-8.75390625,1.09765625,1.0
4806335,,,,,,,,-0.1796875,0.53125,-0.3203125,0.123046875,0.2265625,0.015625,0.5859375,-8.8671875,1.2109375,1.0
4806336,,,,,,,,-0.09765625,0.37109375,-0.1875,0.126953125,0.15625,0.0234375,0.66015625,-9.01953125,1.3671875,1.0
4806337,,,,,,,,-0.01171875,0.125,-0.234375,0.123046875,0.08984375,0.03515625,0.73828125,-9.25,1.328125,1.0
4806338,,,,,,,,-0.01171875,0.05859375,-0.28125,0.12890625,0.064453125,0.05078125,0.73828125,-9.3203125,1.2890625,1.0
4806339,,,,,,,,0.03515625,-0.02734375,-0.328125,0.1171875,0.03125,0.064453125,0.77734375,-9.40234375,1.25,1.0
4806340,36.0134265,129.31957316666666,87.72941976591632,113.90009798405295,1.0,223.0,,0.1171875,0.01171875,-0.3515625,0.130859375,0.078125,0.083984375,1.08203125,-7.91015625,0.7890625,1.0
4806341,,,,,,,,0.27734375,-0.06640625,-0.2421875,0.072265625,0.037109375,0.10546875,1.00390625,-9.4375,1.3671875,1.0
4806342,,,,,,,,0.5625,-0.37890625,-0.16796875,-0.013671875,0.05078125,0.12890625,1.2734375,-9.74609375,1.44140625,1.0
4806343,,,,,,,,0.80859375,-0.6015625,-0.12890625,-0.04296875,0.052734375,0.12890625,1.50390625,-9.98046875,1.48046875,1.0
4806344,,,,,,,,1.16796875,-0.83984375,-0.12890625,-0.138671875,0.03125,0.109375,1.84765625,-10.203125,1.48046875,1.0
4806345,,,,,,,,1.4453125,-0.640625,-0.2265625,-0.1796875,-0.0078125,0.09765625,2.1171875,-10.015625,1.3671875,1.0
4806346,,,,,,,,1.4140625,-0.33203125,-0.39453125,-0.20703125,-0.044921875,0.07421875,2.078125,-9.703125,1.17578125,1.0
4806347,,,,,,,,1.30859375,-0.09765625,-0.71875,-0.259765625,-0.04296875,0.0625,1.96484375,-9.4765625,0.828125,1.0
4806348,,,,,,,,1.26953125,0.01953125,-0.82421875,-0.287109375,-0.033203125,0.060546875,1.92578125,-9.36328125,0.71484375,1.0
4806349,,,,,,,,1.31640625,-0.08984375,-0.9453125,-0.3671875,0.0078125,0.0625,1.96484375,-9.48046875,0.5625,1.0
