time,latitude,longitude,enu_x,enu_y,speed,course,ecg,accX,accY,accZ,gyrX,gyrY,gyrZ,eulR,eulP,eulY,validity
4810490,36.01340033333334,129.3195395,84.69445156293004,110.99663450818744,1.1,236.0,,-0.453125,0.02734375,1.6015625,0.083984375,0.025390625,-0.208984375,-0.02734375,-9.05859375,1.3671875,1.0
4810491,,,,,,,,-1.56640625,0.11328125,-0.78125,0.048828125,-0.015625,-0.212890625,0.046875,-9.09765625,1.328125,1.0
4810492,,,,,,,,-1.390625,0.05859375,-0.859375,-0.013671875,-0.046875,-0.21484375,0.1640625,-9.09375,1.2890625,1.0
4810493,,,,,,,,-1.24609375,0.05859375,-0.8984375,-0.048828125,-0.064453125,-0.220703125,0.39453125,-9.09375,1.25,1.0
4810494,,,,,,,,-0.82421875,-0.0546875,-0.95703125,-0.166015625,-0.064453125,-0.21484375,0.77734375,-9.2109375,1.17578125,1.0
4810495,,,,,,,,-0.48828125,-0.29296875,-1.05859375,-0.28125,-0.05078125,-0.2109375,1.12109375,-9.4375,1.05859375,1.0
4810496,,,,,,,,-0.12109375,-0.66796875,-1.02734375,-0.40234375,-0.017578125,-0.20703125,1.50390625,-9.8203125,1.05859375,1.0
4810497,,,,,,,,0.19921875,-0.8203125,-0.98046875,-0.513671875,0.017578125,-0.19921875,1.84765625,-9.9765625,1.05859375,1.0
4810498,,,,,,,,0.5,-0.8515625,-0.91015625,-0.5703125,0.04296875,-0.197265625,2.15625,-10.01953125,1.09765625,1.0
4810499,,,,,,,,0.51953125,-0.3359375,-0.71875,-0.646484375,0.15625,-0.16796875,2.19140625,-9.51953125,1.2109375,1.0
4810500,36.01339983333333,129.31953833333333,84.58927892703119,110.94115386999087,1.1,242.0,0.0,0.12109375,0.015625,-0.81640625,0.083984375,0.025390625,-0.208984375,1.80859375,-9.171875,1.05859375,1.0
4810501,,,,,,,,-0.10546875,0.16796875,-0.86328125,-0.5859375,0.31640625,-0.166015625,1.58203125,-9.015625,0.98046875,1.0
4810502,,,,,,,,-0.875,0.48046875,-0.70703125,-0.58203125,0.3828125,-0.1640625,0.8125,-8.71484375,1.09765625,1.0
4810503,,,,,,,,-1.30078125,0.10546875,-0.76953125,-0.646484375,0.353515625,-0.1484375,0.39453125,-9.09765625,0.98046875,1.0
4810504,,,,,,,,-1.6953125,-0.8828125,-0.78125,-0.794921875,0.25,-0.11328125,0.0078125,-10.09375,0.90625,1.0
4810505,,,,,,,,-1.6171875,-0.91796875,-0.47265625,-0.86328125,0.177734375,-0.095703125,0.0859375,-10.12890625,1.17578125,1.0
4810506,,,,,,,,-1.15625,-0.796875,0.33203125,-0.904296875,0.11328125,-0.080078125,0.546875,-10.01953125,1.94140625,1.0
4810507,,,,,,,,-0.27734375,-2.53515625,0.5703125,-0.94140625,0.017578125,0.021484375,1.42578125,-11.7734375,2.0546875,1.0
4810508,,,,,,,,0.18359375,-3.6015625,0.578125,-1.044921875,0.017578125,0.078125,1.88671875,-12.8515625,2.015625,1.0
4810509,,,,,,,,5.6484375,-4.55859375,2.84375,-1.3515625,-0.0546875,0.11328125,7.328125,-13.84765625,4.046875,1.0
4810510,36.01339966666667,129.319537,84.46908119496209,110.92265950550791,1.1,250.0,,5.35546875,-3.3828125,2.37109375,-0.556640625,0.357421875,-0.00390625,7.01953125,-12.69921875,3.43359375,1.0
4810511,,,,,,,,2.98046875,-3.19140625,2.01171875,-0.15625,0.619140625,-0.119140625,4.64453125,-12.50390625,3.05078125,1.0
4810512,,,,,,,,0.4453125,-3.8828125,3.26953125,0.0546875,0.65234375,-0.212890625,2.1171875,-13.1953125,4.31640625,1.0
4810513,,,,,,,,0.015625,-3.9296875,3.375,0.15625,0.609375,-0.236328125,1.6953125,-13.234375,4.4296875,1.0
4810514,,,,,,,,-0.3125,-3.046875,2.73828125,0.486328125,0.478515625,-0.203125,1.390625,-12.3515625,3.85546875,1.0
4810515,,,,,,,,-0.3984375,-1.33203125,1.79296875,0.61328125,0.517578125,-0.115234375,1.3125,-10.62890625,2.97265625,1.0
4810516,,,,,,,,-0.8203125,-0.11328125,1.33984375,0.609375,0.62890625,-0.001953125,0.890625,-9.3984375,2.58984375,1.0
4810517,,,,,,,,-0.94921875,0.5390625,1.125,0.513671875,0.703125,0.09375,0.73828125,-8.75,2.4375,1.0
4810518,,,,,,,,-0.90234375,0.953125,0.91015625,0.447265625,0.701171875,0.138671875,0.77734375,-8.328125,2.24609375,1.0
4810519,,,,,,,,-0.61328125,0.953125,0.671875,0.302734375,0.63671875,0.203125,1.04296875,-8.33203125,2.0546875,1.0
4810520,36.013399166666666,129.319536,84.37893329587739,110.86717901389824,1.0,250.0,,-0.11328125,0.69140625,0.3203125,0.078125,0.423828125,0.212890625,1.50390625,-8.59375,1.75,1.0
4810521,,,,,,,,-0.04296875,0.69921875,0.15625,-0.03515625,0.3359375,0.201171875,1.54296875,-8.59375,1.59375,1.0
4810522,,,,,,,,-0.3203125,1.12890625,0.1953125,-0.06640625,0.33984375,0.173828125,1.234375,-8.171875,1.6328125,1.0
4810523,,,,,,,,-0.640625,1.81640625,0.03515625,-0.029296875,0.349609375,0.16015625,0.890625,-7.48828125,1.48046875,1.0
4810524,,,,,,,,-0.81640625,2.171875,-0.078125,-0.001953125,0.35546875,0.1484375,0.69921875,-7.140625,1.3671875,1.0
4810525,,,,,,,,-0.83984375,2.5625,-0.2421875,0.0078125,0.36328125,0.14453125,0.66015625,-6.7578125,1.2109375,1.0
4810526,,,,,,,,-0.78515625,2.63671875,-0.28515625,0.009765625,0.359375,0.1328125,0.69921875,-6.6796875,1.17578125,1.0
4810527,,,,,,,,-0.43359375,2.63671875,-0.40234375,-0.0078125,0.322265625,0.119140625,1.04296875,-6.68359375,1.05859375,1.0
4810528,,,,,,,,-0.1015625,2.4453125,-0.44921875,-0.02734375,0.27734375,0.1015625,1.3515625,-6.875,1.01953125,1.0
4810529,,,,,,,,0.2109375,2.33984375,-0.5625,-0.033203125,0.2578125,0.072265625,1.65625,-6.984375,0.90625,1.0
4810530,36.01339883333333,129.319535,84.2887852191629,110.8301917326684,0.9,248.0,,0.37890625,2.33984375,-0.6796875,-0.0078125,0.271484375,0.033203125,1.50390625,-8.59375,1.75,1.0
4810531,,,,,,,,0.578125,2.30078125,-0.79296875,0.013671875,0.31640625,0.017578125,2.0,-7.0234375,0.67578125,1.0
4810532,,,,,,,,0.7421875,2.26171875,-0.76171875,0.0,0.365234375,-0.009765625,2.15625,-7.0625,0.71484375,1.0
4810533,,,,,,,,0.94140625,2.1484375,-0.76953125,0.00390625,0.41015625,-0.04296875,2.34765625,-7.1796875,0.71484375,1.0
4810534,,,,,,,,0.98046875,1.95703125,-0.73828125,0.01171875,0.46484375,-0.080078125,2.38671875,-7.3671875,0.75390625,1.0
4810535,,,,,,,,0.703125,1.640625,-0.7109375,0.025390625,0.513671875,-0.11328125,2.1171875,-7.6796875,0.7890625,1.0
4810536,,,,,,,,0.47265625,1.52734375,-0.6484375,0.03125,0.55859375,-0.138671875,1.88671875,-7.79296875,0.8671875,1.0
4810537,,,,,,,,0.08203125,1.48828125,-0.51171875,0.076171875,0.6015625,-0.15234375,1.50390625,-7.83203125,1.01953125,1.0
4810538,,,,,,,,-0.1875,1.40234375,-0.48828125,0.1015625,0.615234375,-0.15234375,1.234375,-7.90625,1.05859375,1.0
4810539,,,,,,,,-0.23046875,1.05078125,-0.625,0.126953125,0.587890625,-0.140625,1.19921875,-8.25,0.9453125,1.0
4810540,36.0133985,129.31953383333334,84.1836124016063,110.79320430827521,1.0,251.0,,-0.15625,0.74609375,-0.7265625,-0.0078125,0.271484375,0.033203125,1.2734375,-8.5546875,0.8671875,1.0
4810541,,,,,,,,0.07421875,0.31640625,-0.828125,0.126953125,0.48828125,-0.1015625,1.50390625,-8.9765625,0.7890625,1.0
4810542,,,,,,,,0.1875,0.23046875,-0.87109375,0.111328125,0.439453125,-0.09375,1.6171875,-9.05859375,0.75390625,1.0
4810543,,,,,,,,0.37109375,0.26171875,-0.734375,0.103515625,0.41015625,-0.08984375,1.80859375,-9.015625,0.90625,1.0
4810544,,,,,,,,0.37109375,0.30078125,-0.75,0.123046875,0.41015625,-0.091796875,1.80859375,-8.98046875,0.90625,1.0
4810545,,,,,,,,0.296875,0.29296875,-0.7734375,0.142578125,0.412109375,-0.1015625,1.734375,-8.98046875,0.90625,1.0
4810546,,,,,,,,0.13671875,0.140625,-0.90625,0.142578125,0.392578125,-0.095703125,1.58203125,-9.1328125,0.7890625,1.0
4810547,,,,,,,,-0.0546875,-0.08984375,-0.99609375,0.09375,0.353515625,-0.091796875,1.390625,-9.36328125,0.71484375,1.0
4810548,,,,,,,,-0.09375,-0.14453125,-1.00390625,0.0546875,0.326171875,-0.080078125,1.3515625,-9.3984375,0.71484375,1.0
4810549,,,,,,,,-0.24609375,-0.22265625,-0.8125,0.03515625,0.3125,-0.072265625,1.19921875,-9.48046875,0.90625,1.0
4810550,36.013398,129.31953266666667,84.0784397598164,110.73772367638624,1.1,251.0,,-0.2109375,-0.57421875,-0.71484375,-0.048828125,0.25390625,-0.041015625,1.234375,-9.82421875,1.01953125,1.0
4810551,,,,,,,,-0.046875,-0.7578125,-0.78125,-0.126953125,0.169921875,-0.015625,1.390625,-10.01953125,0.9453125,1.0
4810552,,,,,,,,-0.01171875,-0.7578125,-0.7734375,-0.15234375,0.14453125,-0.013671875,1.42578125,-10.01953125,0.9453125,1.0
4810553,,,,,,,,0.44921875,-0.61328125,-0.72265625,-0.203125,0.095703125,-0.013671875,1.88671875,-9.859375,0.98046875,1.0
4810554,,,,,,,,0.59375,-0.52734375,-0.71484375,-0.2265625,0.083984375,-0.009765625,2.0390625,-9.78515625,0.98046875,1.0
4810555,,,,,,,,0.6796875,-0.375,-0.765625,-0.263671875,0.08203125,-0.017578125,2.1171875,-9.63671875,0.90625,1.0
4810556,,,,,,,,0.984375,-0.13671875,-0.78125,-0.30078125,0.09765625,-0.0078125,2.421875,-9.40234375,0.8671875,1.0
4810557,,,,,,,,1.0625,-0.08984375,-0.75,-0.369140625,0.1328125,0.00390625,2.5,-9.359375,0.8671875,1.0
4810558,,,,,,,,1.4453125,-0.16796875,-0.71875,-0.443359375,0.173828125,0.0078125,2.8828125,-9.44140625,0.8671875,1.0
4810559,,,,,,,,1.67578125,-0.6953125,-0.80859375,-0.498046875,0.20703125,-0.001953125,3.11328125,-9.9765625,0.75390625,1.0
4810560,36.01339766666667,129.31953133333334,83.95824220053588,110.70073611020226,1.1,250.0,,1.8671875,-2.41015625,-1.14453125,-0.048828125,0.25390625,-0.041015625,1.234375,-9.82421875,1.01953125,1.0
4810561,,,,,,,,1.4140625,-2.47265625,-0.15625,-0.810546875,0.314453125,-0.017578125,2.84375,-11.77734375,1.25,1.0
4810562,,,,,,,,0.83984375,-1.8125,0.86328125,-0.779296875,0.57421875,-0.08203125,2.26953125,-11.125,2.20703125,1.0
4810563,,,,,,,,0.45703125,-1.8515625,1.27734375,-0.73828125,0.74609375,-0.103515625,1.88671875,-11.16796875,2.58984375,1.0
4810564,,,,,,,,-0.37890625,-3.71484375,1.203125,-0.697265625,0.955078125,-0.00390625,1.04296875,-13.0390625,2.4375,1.0
4810565,,,,,,,,-1.12890625,-4.12890625,2.7890625,-0.744140625,0.7734375,0.015625,0.27734375,-13.46484375,3.96875,1.0
4810566,,,,,,,,-1.234375,-2.77734375,3.49609375,-0.501953125,0.7734375,0.0,0.1640625,-12.12109375,4.62109375,1.0
4810567,,,,,,,,-1.3046875,-1.4296875,2.59375,0.06640625,0.765625,0.025390625,0.0859375,-10.78125,3.703125,1.0
4810568,,,,,,,,-1.1796875,-1.31640625,2.1953125,0.12109375,0.7421875,0.044921875,0.203125,-10.66796875,3.3203125,1.0
4810569,,,,,,,,-0.24609375,-1.8515625,2.0546875,0.091796875,0.736328125,0.0703125,1.12109375,-11.203125,3.203125,1.0
4810570,36.01339733333334,129.31953016666665,83.85306937770926,110.6637486896487,1.1,252.0,,1.0703125,-2.83984375,2.4609375,0.01171875,0.75,0.060546875,2.421875,-12.1953125,3.625,1.0
4810571,,,,,,,,1.2421875,-2.76171875,2.37109375,0.07421875,0.80859375,-0.0078125,2.578125,-12.1171875,3.55078125,1.0
4810572,,,,,,,,1.09375,-2.265625,1.9765625,0.138671875,0.841796875,-0.041015625,2.421875,-11.625,3.1640625,1.0
4810573,,,,,,,,0.671875,-1.61328125,1.6328125,0.265625,0.931640625,-0.123046875,2.0,-10.97265625,2.859375,1.0
4810574,,,,,,,,0.2890625,-1.23046875,1.45703125,0.30078125,0.974609375,-0.162109375,1.6171875,-10.5859375,2.70703125,1.0
4810575,,,,,,,,-0.53125,-0.51171875,1.42578125,0.30078125,1.025390625,-0.23046875,0.8125,-9.86328125,2.70703125,1.0
4810576,,,,,,,,-1.12109375,-0.05078125,1.36328125,0.228515625,0.93359375,-0.28515625,0.23828125,-9.40234375,2.70703125,1.0
4810577,,,,,,,,-1.12890625,-0.05078125,1.15625,0.21484375,0.876953125,-0.296875,0.23828125,-9.3984375,2.515625,1.0
4810578,,,,,,,,-1.10546875,0.0546875,0.43359375,0.1796875,0.771484375,-0.294921875,0.27734375,-9.29296875,1.82421875,1.0
4810579,,,,,,,,-1.11328125,0.1640625,0.37890625,0.162109375,0.744140625,-0.29296875,0.27734375,-9.17578125,1.78515625,1.0
4810580,36.01339683333333,129.31952883333332,83.73287199334456,110.60826791821648,1.2000000000000002,248.0,,-0.9921875,1.12109375,-0.01171875,0.125,0.75,-0.265625,0.4296875,-8.2109375,1.44140625,1.0
4810581,,,,,,,,-0.8515625,2.1015625,-0.30859375,0.12109375,0.7421875,-0.27734375,0.5859375,-7.21875,1.17578125,1.0
4810582,,,,,,,,-0.82421875,2.30078125,-0.36328125,0.1171875,0.7265625,-0.28515625,0.62109375,-7.0234375,1.13671875,1.0
4810583,,,,,,,,-0.76171875,2.67578125,-0.54296875,0.103515625,0.68359375,-0.306640625,0.69921875,-6.64453125,0.98046875,1.0
4810584,,,,,,,,-0.671875,2.70703125,-0.7109375,0.09765625,0.650390625,-0.32421875,0.8125,-6.6015625,0.828125,1.0
4810585,,,,,,,,-0.80078125,2.515625,-0.7734375,0.087890625,0.623046875,-0.330078125,0.69921875,-6.796875,0.7890625,1.0
4810586,,,,,,,,-0.90234375,2.390625,-0.75,0.08203125,0.626953125,-0.33203125,0.62109375,-6.9140625,0.828125,1.0
4810587,,,,,,,,-1.30078125,2.1640625,-0.734375,0.103515625,0.658203125,-0.314453125,0.23828125,-7.14453125,0.8671875,1.0
4810588,,,,,,,,-1.69921875,1.80859375,-0.671875,0.111328125,0.671875,-0.28125,-0.14453125,-7.484375,0.9453125,1.0
4810589,,,,,,,,-1.8203125,1.7265625,-0.57421875,0.107421875,0.658203125,-0.267578125,-0.2578125,-7.5625,1.05859375,1.0
4810590,36.01339666666667,129.319528,83.65774847217763,110.58977399544182,1.0,248.0,,-1.828125,1.76171875,-0.63671875,0.134765625,0.55859375,-0.181640625,-0.18359375,-7.6015625,1.01953125,1.0
4810591,,,,,,,,-1.61328125,1.44140625,-0.70703125,0.12890625,0.517578125,-0.138671875,0.0078125,-7.91015625,1.01953125,1.0
4810592,,,,,,,,-1.5,1.171875,-0.60546875,0.107421875,0.490234375,-0.107421875,0.046875,-8.1328125,1.13671875,1.0
4810593,,,,,,,,-1.5,1.09765625,-0.55078125,0.103515625,0.458984375,-0.087890625,0.125,-8.17578125,1.17578125,1.0
4810594,,,,,,,,-1.421875,1.1640625,-0.4921875,0.130859375,0.408203125,-0.076171875,0.203125,-8.06640625,1.2109375,1.0
4810595,,,,,,,,-1.34765625,1.1953125,-0.546875,0.154296875,0.37109375,-0.06640625,0.27734375,-8.02734375,1.13671875,1.0
4810596,,,,,,,,-1.30859375,1.234375,-0.63671875,0.1640625,0.3515625,-0.072265625,0.27734375,-7.98828125,1.05859375,1.0
4810597,,,,,,,,-1.30859375,1.3125,-0.76953125,0.16015625,0.326171875,-0.06640625,0.31640625,-8.0625,1.01953125,1.0
4810598,,,,,,,,-1.23046875,0.99609375,-0.8671875,0.125,0.298828125,-0.0625,0.35546875,-8.2890625,0.98046875,1.0
4810599,,,,,,,,-1.26171875,0.875,-0.84765625,0.09375,0.26953125,-0.06640625,0.35546875,-8.4453125,1.01953125,1.0
4810600,36.01339666666667,129.31952683333333,83.55257529765967,110.58977299442,1.1,254.0,0.0,-1.828125,1.76171875,-0.63671875,0.0703125,0.24609375,-0.0703125,0.4296875,-8.5546875,1.01953125,1.0
4810601,,,,,,,,-1.109375,0.63671875,-0.87109375,0.048828125,0.22265625,-0.080078125,0.5078125,-8.63671875,0.98046875,1.0
4810602,,,,,,,,-1.0703125,0.55859375,-1.0,0.0234375,0.205078125,-0.091796875,0.546875,-8.671875,0.828125,1.0
4810603,,,,,,,,-0.9921875,0.51953125,-1.0390625,-0.0234375,0.197265625,-0.103515625,0.62109375,-8.75,0.8671875,1.0
4810604,,,,,,,,-0.96484375,0.3984375,-0.921875,-0.072265625,0.19140625,-0.1171875,0.62109375,-8.9375,1.05859375,1.0
4810605,,,,,,,,-1.0,0.16796875,-0.68359375,-0.123046875,0.177734375,-0.12890625,0.73828125,-9.3203125,1.2109375,1.0
4810606,,,,,,,,-0.85546875,-0.10546875,-0.640625,-0.125,0.166015625,-0.134765625,0.77734375,-9.40234375,1.25,1.0
4810607,,,,,,,,-0.7109375,-0.26171875,-0.5546875,-0.119140625,0.166015625,-0.134765625,0.9296875,-9.5546875,1.328125,1.0
4810608,,,,,,,,-0.52734375,-0.453125,-0.5859375,-0.1328125,0.171875,-0.140625,1.12109375,-9.70703125,1.2109375,1.0
4810609,,,,,,,,-0.44921875,-0.52734375,-0.64453125,-0.16015625,0.201171875,-0.138671875,1.16015625,-9.74609375,1.17578125,1.0
4810610,36.01339666666667,129.31952566666666,83.44740212258587,110.58977199472756,1.0,258.0,,-0.50390625,-0.56640625,-0.62890625,0.0703125,0.24609375,-0.0703125,0.4296875,-8.5546875,1.01953125,1.0
4810611,,,,,,,,-0.58984375,-0.75,-0.80859375,-0.25,0.279296875,-0.12109375,1.04296875,-9.98046875,0.98046875,1.0
4810612,,,,,,,,-0.55078125,-0.7890625,-0.9453125,-0.3125,0.31640625,-0.1015625,1.08203125,-10.01953125,0.828125,1.0
4810613,,,,,,,,-0.43359375,-0.7890625,-0.90625,-0.3828125,0.34375,-0.09375,1.19921875,-10.015625,0.828125,1.0
4810614,,,,,,,,-0.51171875,-0.28125,-0.7578125,-0.431640625,0.35546875,-0.08984375,1.12109375,-9.515625,0.9453125,1.0
4810615,,,,,,,,-0.89453125,-0.08203125,-0.65234375,-0.435546875,0.375,-0.10546875,0.73828125,-9.3203125,1.01953125,1.0
4810616,,,,,,,,-1.078125,-0.0078125,-0.55859375,-0.4296875,0.3828125,-0.10546875,0.546875,-9.25,1.09765625,1.0
4810617,,,,,,,,-1.5078125,-0.0390625,-0.56640625,-0.427734375,0.3671875,-0.12109375,0.125,-9.2890625,1.05859375,1.0
4810618,,,,,,,,-1.9765625,-0.87109375,-0.734375,-0.494140625,0.20703125,-0.125,-0.3359375,-10.12890625,0.828125,1.0
4810619,,,,,,,,-1.70703125,-1.41015625,-0.83984375,-0.623046875,0.044921875,-0.10546875,-0.06640625,-10.6640625,0.67578125,1.0
4810620,36.01339683333333,129.3195245,83.34222877355,110.6082642032948,1.1,265.0,,-1.0625,-0.7421875,0.37890625,-0.744140625,-0.140625,-0.076171875,0.5859375,-10.01953125,1.78515625,1.0
4810621,,,,,,,,-0.046875,-2.375,0.6640625,-0.646484375,-0.19921875,-0.048828125,1.6171875,-11.6640625,1.9765625,1.0
4810622,,,,,,,,0.26171875,-3.29296875,0.66015625,-0.728515625,-0.19140625,-0.041015625,1.92578125,-12.578125,1.94140625,1.0
4810623,,,,,,,,0.94921875,-4.3203125,1.05078125,-0.986328125,-0.201171875,-0.03125,2.61328125,-13.62109375,2.24609375,1.0
4810624,,,,,,,,1.6796875,-4.16015625,1.60546875,-1.048828125,-0.2109375,-0.048828125,3.34375,-13.46484375,2.74609375,1.0
4810625,,,,,,,,4.07421875,-1.9609375,2.42578125,-0.693359375,-0.15234375,-0.11328125,5.75390625,-11.28125,3.43359375,1.0
4810626,,,,,,,,3.6015625,-1.8828125,2.3203125,-0.373046875,0.111328125,-0.177734375,5.296875,-11.20703125,3.28125,1.0
4810627,,,,,,,,1.90625,-2.41796875,2.6796875,-0.28125,0.232421875,-0.2109375,3.609375,-11.73828125,3.625,1.0
4810628,,,,,,,,0.703125,-3.0703125,3.00390625,-0.126953125,0.349609375,-0.2421875,2.421875,-12.39453125,3.93359375,1.0
4810629,,,,,,,,0.3515625,-3.25390625,3.0390625,-0.03515625,0.34375,-0.25390625,2.078125,-12.578125,3.96875,1.0
4810630,36.013397000000005,129.31952316666667,83.22203068498601,110.62675627229004,1.1,270.0,,-0.16015625,-3.0703125,2.6875,-0.744140625,-0.140625,-0.076171875,0.5859375,-10.01953125,1.78515625,1.0
4810631,,,,,,,,0.05078125,-2.50390625,2.359375,0.267578125,0.21484375,-0.169921875,1.80859375,-11.8125,3.3203125,1.0
4810632,,,,,,,,0.234375,-1.4609375,1.859375,0.345703125,0.283203125,-0.08984375,2.0,-10.78515625,2.859375,1.0
4810633,,,,,,,,-0.17578125,-0.625,1.4609375,0.333984375,0.525390625,0.05078125,1.58203125,-9.94140625,2.515625,1.0
4810634,,,,,,,,-0.3984375,-0.08984375,1.23046875,0.279296875,0.6015625,0.134765625,1.3515625,-9.3984375,2.32421875,1.0
4810635,,,,,,,,-0.28515625,-0.00390625,0.64453125,0.12890625,0.515625,0.181640625,1.42578125,-9.32421875,1.78515625,1.0
4810636,,,,,,,,-0.16015625,-0.234375,0.4453125,0.060546875,0.45703125,0.181640625,1.54296875,-9.55859375,1.59375,1.0
4810637,,,,,,,,-0.0234375,-0.34375,0.546875,-0.041015625,0.37109375,0.173828125,1.65625,-9.671875,1.7109375,1.0
4810638,,,,,,,,-0.19140625,0.00390625,0.62109375,-0.046875,0.345703125,0.142578125,1.46484375,-9.3203125,1.78515625,1.0
4810639,,,,,,,,-0.48046875,0.39453125,0.5859375,0.0234375,0.380859375,0.125,1.16015625,-8.9375,1.75,1.0
4810640,36.013397166666664,129.31952233333334,83.14690681288255,110.64524876932316,1.0,270.0,,-0.88671875,1.05078125,0.25390625,0.09375,0.41796875,0.11328125,0.73828125,-8.29296875,1.44140625,1.0
4810641,,,,,,,,-1.0546875,1.65625,0.0859375,0.12109375,0.431640625,0.123046875,0.546875,-7.6796875,1.2890625,1.0
4810642,,,,,,,,-0.7734375,2.078125,-0.12109375,0.119140625,0.41015625,0.130859375,0.8125,-7.26171875,1.09765625,1.0
4810643,,,,,,,,-0.48046875,2.1640625,-0.22265625,0.078125,0.365234375,0.126953125,1.08203125,-7.18359375,1.01953125,1.0
4810644,,,,,,,,-0.12890625,2.27734375,-0.3828125,0.025390625,0.33984375,0.1171875,1.42578125,-7.06640625,0.8671875,1.0
4810645,,,,,,,,0.1953125,2.2109375,-0.390625,-0.01171875,0.33203125,0.1015625,1.734375,-7.140625,0.8671875,1.0
4810646,,,,,,,,0.31640625,2.171875,-0.50390625,-0.02734375,0.33984375,0.09765625,1.84765625,-7.1796875,0.75390625,1.0
4810647,,,,,,,,0.4921875,2.0546875,-0.51171875,-0.04296875,0.365234375,0.078125,2.0,-7.30078125,0.75390625,1.0
4810648,,,,,,,,0.69140625,1.91015625,-0.51171875,-0.060546875,0.39453125,0.0546875,2.19140625,-7.44921875,0.75390625,1.0
4810649,,,,,,,,0.70703125,1.91015625,-0.51171875,-0.0703125,0.4296875,0.015625,2.19140625,-7.44921875,0.75390625,1.0
4810650,36.013397499999996,129.31952166666667,83.08680750732977,110.68223461732111,0.9,274.0,,0.70703125,1.91015625,-0.3984375,-0.064453125,0.490234375,-0.05078125,2.19140625,-7.4453125,0.8671875,1.0
4810651,,,,,,,,0.515625,1.7578125,-0.484375,-0.041015625,0.529296875,-0.09375,2.0,-7.60546875,0.7890625,1.0
4810652,,,,,,,,0.2890625,1.6796875,-0.56640625,-0.00390625,0.5546875,-0.123046875,1.7734375,-7.68359375,0.71484375,1.0
4810653,,,,,,,,0.05859375,1.7109375,-0.53515625,0.01953125,0.5859375,-0.142578125,1.54296875,-7.640625,0.75390625,1.0
4810654,,,,,,,,-0.1015625,1.703125,-0.4765625,0.05078125,0.62109375,-0.158203125,1.390625,-7.640625,0.828125,1.0
4810655,,,,,,,,-0.1875,1.78125,-0.453125,0.08984375,0.63671875,-0.158203125,1.3125,-7.5625,0.8671875,1.0
4810656,,,,,,,,-0.1171875,1.6640625,-0.62109375,0.1171875,0.595703125,-0.150390625,1.390625,-7.68359375,0.71484375,1.0
4810657,,,,,,,,0.07421875,1.54296875,-0.76171875,0.134765625,0.556640625,-0.1484375,1.58203125,-7.7890625,0.59765625,1.0
4810658,,,,,,,,0.33203125,1.2265625,-0.9140625,0.140625,0.517578125,-0.130859375,1.84765625,-8.10546875,0.484375,1.0
4810659,,,,,,,,0.4765625,0.8359375,-0.9296875,0.140625,0.529296875,-0.12890625,2.0,-8.48828125,0.484375,1.0
4810660,36.01339766666667,129.3195205,82.98163415895257,110.70072683094796,1.0,275.0,,0.4765625,0.5625,-0.953125,-0.064453125,0.490234375,-0.05078125,2.19140625,-7.4453125,0.8671875,1.0
4810661,,,,,,,,0.31640625,0.3984375,-0.82421875,0.111328125,0.599609375,-0.123046875,1.84765625,-8.91015625,0.63671875,1.0
4810662,,,,,,,,0.27734375,0.4375,-0.79296875,0.1171875,0.615234375,-0.123046875,1.80859375,-8.87109375,0.67578125,1.0
4810663,,,,,,,,0.01171875,0.4375,-0.85546875,0.119140625,0.62890625,-0.119140625,1.54296875,-8.87109375,0.63671875,1.0
4810664,,,,,,,,-0.2109375,0.4296875,-0.83984375,0.10546875,0.611328125,-0.107421875,1.3125,-8.8671875,0.67578125,1.0
4810665,,,,,,,,-0.2890625,0.23046875,-0.77734375,0.08203125,0.57421875,-0.099609375,1.234375,-9.05859375,0.75390625,1.0
4810666,,,,,,,,-0.296875,0.109375,-0.78515625,0.064453125,0.560546875,-0.10546875,1.234375,-9.17578125,0.75390625,1.0
4810667,,,,,,,,-0.33203125,-0.3515625,-0.48828125,0.03515625,0.51171875,-0.08984375,1.19921875,-9.63671875,1.05859375,1.0
4810668,,,,,,,,-0.33203125,-0.62109375,-0.3515625,0.009765625,0.470703125,-0.083984375,1.19921875,-9.8984375,1.2109375,1.0
4810669,,,,,,,,-0.296875,-0.84765625,-0.28125,0.01171875,0.416015625,-0.056640625,1.234375,-10.125,1.2890625,1.0
4810670,36.01339766666667,129.31951933333332,82.87646098277048,110.70072583780558,1.0,273.0,,0.171875,-0.54296875,-0.51171875,-0.021484375,0.310546875,-0.021484375,1.6953125,-9.8203125,1.05859375,1.0
4810671,,,,,,,,0.41015625,-0.3203125,-0.58984375,-0.1015625,0.24609375,0.001953125,1.92578125,-9.59375,0.98046875,1.0
4810672,,,,,,,,0.80078125,-0.2421875,-0.49609375,-0.177734375,0.232421875,0.0078125,2.30859375,-9.515625,1.05859375,1.0
4810673,,,,,,,,0.87890625,-0.2421875,-0.52734375,-0.224609375,0.228515625,0.015625,2.38671875,-9.51953125,1.01953125,1.0
4810674,,,,,,,,1.0,-0.390625,-0.578125,-0.3125,0.24609375,0.01953125,2.5,-9.67578125,0.9453125,1.0
4810675,,,,,,,,1.23828125,-0.765625,-0.5390625,-0.443359375,0.26171875,0.029296875,2.73046875,-10.0546875,0.9453125,1.0
4810676,,,,,,,,1.3984375,-2.2109375,-0.68359375,-0.560546875,0.30078125,0.033203125,2.8828125,-11.51171875,0.75390625,1.0
4810677,,,,,,,,1.17578125,-3.69921875,-0.70703125,-0.712890625,0.314453125,0.0234375,2.65234375,-13.00390625,0.67578125,1.0
4810678,,,,,,,,1.0625,-3.69140625,-0.5234375,-0.779296875,0.333984375,0.017578125,2.5390625,-13.00390625,0.828125,1.0
4810679,,,,,,,,0.87890625,-2.95703125,0.390625,-0.73828125,0.494140625,-0.01953125,2.34765625,-12.27734375,1.671875,1.0
4810680,36.01339816666667,129.31951816666665,82.7712872859476,110.75620447216416,1.1,276.0,,0.03515625,-2.41015625,1.12890625,-0.021484375,0.310546875,-0.021484375,1.6953125,-9.8203125,1.05859375,1.0
4810681,,,,,,,,-0.26171875,-3.62890625,1.05078125,-0.544921875,0.810546875,0.00390625,1.19921875,-12.96484375,2.24609375,1.0
4810682,,,,,,,,-0.859375,-4.2734375,1.48828125,-0.671875,0.654296875,0.0234375,0.5859375,-13.6171875,2.62890625,1.0
4810683,,,,,,,,-0.96875,-2.2734375,2.109375,-0.455078125,0.66015625,-0.015625,0.46875,-11.625,3.203125,1.0
4810684,,,,,,,,-0.81640625,-0.54296875,1.62890625,-0.041015625,0.724609375,-0.029296875,0.62109375,-9.90234375,2.70703125,1.0
4810685,,,,,,,,-0.81640625,-0.3203125,1.453125,0.13671875,0.76953125,-0.0078125,0.62109375,-9.671875,2.5546875,1.0
4810686,,,,,,,,-0.69140625,-0.54296875,1.51953125,0.134765625,0.791015625,0.009765625,0.73828125,-9.90234375,2.62890625,1.0
4810687,,,,,,,,-0.37109375,-1.15234375,1.796875,-0.013671875,0.869140625,0.021484375,1.04296875,-10.51171875,2.9375,1.0
4810688,,,,,,,,0.55859375,-1.99609375,2.171875,-0.001953125,0.888671875,-0.01171875,1.96484375,-11.35546875,3.3203125,1.0
4810689,,,,,,,,1.1484375,-2.11328125,1.84765625,0.076171875,0.873046875,-0.0546875,2.5390625,-11.46875,3.01171875,1.0
4810690,36.01339816666667,129.319517,82.66611411229064,110.75620348169866,1.1,276.0,,1.26171875,-1.375,1.2109375,0.185546875,0.890625,-0.123046875,2.65234375,-10.74609375,2.3984375,1.0
4810691,,,,,,,,0.57421875,-0.50390625,1.09765625,0.2734375,1.025390625,-0.220703125,1.96484375,-9.859375,2.32421875,1.0
4810692,,,,,,,,0.13671875,-0.35546875,1.171875,0.3046875,1.220703125,-0.296875,1.54296875,-9.70703125,2.4375,1.0
4810693,,,,,,,,-1.17578125,-0.25,1.81640625,0.2890625,1.287109375,-0.328125,0.23828125,-9.59375,3.12890625,1.0
4810694,,,,,,,,-1.7265625,-0.40234375,1.796875,0.267578125,1.158203125,-0.333984375,-0.296875,-9.74609375,3.1640625,1.0
4810695,,,,,,,,-1.7578125,-0.11328125,0.53125,0.2265625,0.890625,-0.271484375,-0.296875,-9.44140625,1.9765625,1.0
4810696,,,,,,,,-1.53515625,0.38671875,0.08203125,0.193359375,0.884765625,-0.21875,-0.06640625,-8.94140625,1.55859375,1.0
4810697,,,,,,,,-1.34375,0.76953125,-0.08984375,0.1796875,0.896484375,-0.189453125,0.125,-8.55859375,1.40234375,1.0
4810698,,,,,,,,-1.08203125,1.06640625,-0.234375,0.134765625,0.892578125,-0.171875,0.39453125,-8.25,1.2890625,1.0
4810699,,,,,,,,-0.77734375,1.328125,-0.3203125,0.125,0.880859375,-0.166015625,0.69921875,-7.984375,1.2109375,1.0
4810700,36.0133985,129.319516,82.57596533023766,110.79318904958454,1.1,278.0,0.0,-0.5859375,1.55859375,-0.41796875,0.111328125,0.830078125,-0.19140625,0.890625,-7.75390625,1.13671875,1.0
4810701,,,,,,,,-0.32421875,1.6640625,-0.6484375,0.11328125,0.751953125,-0.25,1.16015625,-7.640625,0.9453125,1.0
4810702,,,,,,,,-0.33203125,1.703125,-0.6953125,0.115234375,0.732421875,-0.279296875,1.16015625,-7.6015625,0.90625,1.0
4810703,,,,,,,,-0.5390625,1.5859375,-0.6796875,0.12109375,0.724609375,-0.314453125,0.96875,-7.72265625,0.9453125,1.0
4810704,,,,,,,,-0.9375,1.54296875,-0.51171875,0.1328125,0.732421875,-0.328125,0.5859375,-7.75,1.13671875,1.0
4810705,,,,,,,,-1.23828125,1.6015625,-0.4453125,0.185546875,0.73828125,-0.318359375,0.31640625,-7.6796875,1.25,1.0
4810706,,,,,,,,-1.359375,1.640625,-0.421875,0.208984375,0.728515625,-0.306640625,0.203125,-7.64453125,1.2890625,1.0
4810707,,,,,,,,-1.4921875,1.6328125,-0.56640625,0.24609375,0.71875,-0.265625,0.0859375,-7.64453125,1.17578125,1.0
4810708,,,,,,,,-1.5703125,1.47265625,-0.59765625,0.263671875,0.69921875,-0.232421875,0.0078125,-7.79296875,1.17578125,1.0
4810709,,,,,,,,-1.578125,1.42578125,-0.62109375,0.265625,0.68359375,-0.208984375,0.0078125,-7.83203125,1.17578125,1.0
4810710,36.013399,129.3195151666667,82.50084111807712,110.8486679671116,0.9,282.0,,-1.65234375,1.41796875,-0.578125,0.111328125,0.830078125,-0.19140625,0.890625,-7.75390625,1.13671875,1.0
4810711,,,,,,,,-1.66015625,1.5625,-0.6171875,0.3046875,0.630859375,-0.1171875,-0.06640625,-7.6796875,1.25,1.0
4810712,,,,,,,,-1.61328125,1.6015625,-0.6796875,0.30859375,0.611328125,-0.10546875,-0.02734375,-7.64453125,1.2109375,1.0
4810713,,,,,,,,-1.65234375,1.59375,-0.82421875,0.314453125,0.56640625,-0.08984375,-0.06640625,-7.64453125,1.09765625,1.0
4810714,,,,,,,,-1.59765625,1.5078125,-0.78515625,0.26953125,0.515625,-0.076171875,-0.02734375,-7.71875,1.17578125,1.0
4810715,,,,,,,,-1.63671875,1.38671875,-0.78125,0.220703125,0.462890625,-0.06640625,-0.06640625,-7.828125,1.2109375,1.0
4810716,,,,,,,,-1.59765625,1.265625,-0.671875,0.208984375,0.4453125,-0.064453125,-0.02734375,-7.9453125,1.328125,1.0
4810717,,,,,,,,-1.515625,1.33203125,-0.7109375,0.18359375,0.388671875,-0.052734375,0.046875,-7.8671875,1.328125,1.0
4810718,,,,,,,,-1.3515625,1.484375,-0.8515625,0.185546875,0.380859375,-0.044921875,0.203125,-7.71875,1.2109375,1.0
4810719,,,,,,,,-1.31640625,1.5234375,-0.89453125,0.1796875,0.37109375,-0.04296875,0.23828125,-7.68359375,1.17578125,1.0
4810720,36.0133995,129.319514,82.39566742394403,110.90414660512951,1.0,286.0,,-1.30078125,1.5859375,-0.8203125,0.111328125,0.830078125,-0.19140625,0.890625,-7.75390625,1.13671875,1.0
4810721,,,,,,,,-1.26171875,1.39453125,-0.7578125,0.029296875,0.302734375,-0.099609375,0.31640625,-7.90625,1.328125,1.0
4810722,,,,,,,,-1.18359375,1.04296875,-0.8359375,-0.025390625,0.294921875,-0.125,0.4296875,-8.25390625,1.2890625,1.0
4810723,,,,,,,,-1.109375,0.734375,-0.84375,-0.09765625,0.28515625,-0.146484375,0.4296875,-8.63671875,1.328125,1.0
4810724,,,,,,,,-1.03125,0.12109375,-0.64453125,-0.171875,0.279296875,-0.1640625,0.5078125,-9.25,1.6328125,1.0
4810725,,,,,,,,-1.0390625,-0.26171875,-0.4453125,-0.23046875,0.263671875,-0.166015625,0.5078125,-9.59375,1.75,1.0
4810726,,,,,,,,-0.96875,-0.52734375,-0.3828125,-0.2578125,0.265625,-0.162109375,0.5859375,-9.86328125,1.6328125,1.0
4810727,,,,,,,,-0.9765625,-0.7578125,-0.51953125,-0.283203125,0.28515625,-0.162109375,0.62109375,-10.09765625,1.44140625,1.0
4810728,,,,,,,,-0.94921875,-0.94921875,-0.65234375,-0.318359375,0.318359375,-0.15234375,0.5859375,-10.12890625,1.328125,1.0
4810729,,,,,,,,-0.87109375,-0.98828125,-0.78125,-0.380859375,0.326171875,-0.15234375,0.69921875,-10.1640625,1.25,1.0
4810730,36.013400000000004,129.319513,82.30551847104421,110.95962538437558,1.0,292.0,,-0.609375,-1.2109375,-0.82421875,-0.4609375,0.30078125,-0.154296875,0.96875,-10.40234375,1.17578125,1.0
4810731,,,,,,,,-0.41796875,-1.32421875,-0.75,-0.5234375,0.291015625,-0.158203125,1.16015625,-10.51171875,1.2109375,1.0
4810732,,,,,,,,-0.38671875,-1.2421875,-0.6640625,-0.560546875,0.30859375,-0.162109375,1.19921875,-10.44140625,1.25,1.0
4810733,,,,,,,,-0.7890625,-1.08203125,-0.5390625,-0.5625,0.345703125,-0.173828125,0.8125,-10.28515625,1.328125,1.0
4810734,,,,,,,,-0.98046875,-1.109375,-0.453125,-0.5703125,0.333984375,-0.17578125,0.62109375,-10.3203125,1.3671875,1.0
4810735,,,,,,,,-1.1015625,-1.74609375,-0.5625,-0.640625,0.275390625,-0.16796875,0.5078125,-10.97265625,1.2109375,1.0
4810736,,,,,,,,-0.98828125,-1.9375,-0.57421875,-0.697265625,0.23828125,-0.162109375,0.62109375,-11.16796875,1.17578125,1.0
4810737,,,,,,,,-0.6484375,-2.15234375,-0.12890625,-0.8125,0.1328125,-0.140625,0.96875,-11.390625,1.51953125,1.0
4810738,,,,,,,,0.53125,-3.140625,1.09765625,-0.859375,0.078125,-0.1171875,2.15625,-12.39453125,2.66796875,1.0
4810739,,,,,,,,1.48046875,-5.22265625,1.453125,-0.998046875,0.068359375,-0.080078125,3.11328125,-14.49609375,2.8984375,1.0
4810740,36.01340066666667,129.319512,82.21536934618256,111.03359737374934,1.0,296.0,,2.62109375,-5.59765625,1.69921875,-0.4609375,0.30078125,-0.154296875,0.96875,-10.40234375,1.17578125,1.0
4810741,,,,,,,,3.76953125,-1.71484375,2.1015625,-0.873046875,0.388671875,-0.095703125,5.41015625,-11.0078125,3.359375,1.0
4810742,,,,,,,,2.62109375,-0.51953125,2.109375,-0.41015625,0.787109375,-0.1640625,4.26171875,-9.82421875,3.3203125,1.0
4810743,,,,,,,,2.0,-0.328125,2.0,-0.2734375,0.927734375,-0.1953125,3.6484375,-9.63671875,3.203125,1.0
4810744,,,,,,,,0.1171875,-1.1328125,2.19140625,-0.1484375,0.962890625,-0.21875,1.7734375,-10.4375,3.39453125,1.0
4810745,,,,,,,,-0.65234375,-2.08203125,2.65234375,-0.08984375,0.794921875,-0.224609375,1.00390625,-11.390625,3.85546875,1.0
4810746,,,,,,,,-0.7109375,-2.81640625,2.7890625,0.099609375,0.564453125,-0.185546875,0.96875,-12.12109375,4.0078125,1.0
4810747,,,,,,,,-0.3671875,-1.890625,2.3359375,0.248046875,0.564453125,-0.125,1.3125,-11.203125,3.5859375,1.0
4810748,,,,,,,,-0.375,-1.4375,2.20703125,0.314453125,0.609375,-0.08984375,1.3125,-10.74609375,3.47265625,1.0
4810749,,,,,,,,-0.703125,-0.06640625,1.875,0.392578125,0.798828125,0.02734375,0.96875,-9.359375,3.203125,1.0
4810750,36.0134015,129.31951116666667,82.14024479052372,111.12606271097297,1.1,304.0,,-1.26171875,0.74609375,1.36328125,0.337890625,0.84375,0.109375,0.96875,-10.40234375,1.17578125,1.0
4810751,,,,,,,,-1.1953125,0.8515625,0.94140625,0.197265625,0.76171875,0.16015625,0.4296875,-8.4453125,2.36328125,1.0
4810752,,,,,,,,-0.83203125,0.546875,0.73828125,0.103515625,0.677734375,0.169921875,0.77734375,-8.75,2.16796875,1.0
4810753,,,,,,,,-0.45703125,0.71484375,0.92578125,-0.16015625,0.4921875,0.1484375,1.08203125,-8.59375,2.36328125,1.0
4810754,,,,,,,,-0.6328125,1.0,0.703125,-0.130859375,0.51171875,0.130859375,0.890625,-8.33203125,2.1328125,1.0
4810755,,,,,,,,-0.76953125,1.3828125,0.39453125,-0.08203125,0.541015625,0.1171875,0.73828125,-7.94921875,1.82421875,1.0
4810756,,,,,,,,-0.75390625,1.57421875,0.28125,-0.0703125,0.541015625,0.11328125,0.73828125,-7.75390625,1.7109375,1.0
4810757,,,,,,,,-0.625,2.00390625,0.05078125,-0.0859375,0.517578125,0.099609375,0.8515625,-7.328125,1.48046875,1.0
4810758,,,,,,,,-0.546875,2.078125,0.05078125,-0.083984375,0.52734375,0.095703125,0.9296875,-7.2578125,1.48046875,1.0
4810759,,,,,,,,-0.40234375,2.26953125,-0.109375,-0.078125,0.53125,0.078125,1.04296875,-7.0625,1.328125,1.0
4810760,36.013402166666665,129.3195105,82.0801451453427,111.20003498279738,0.9,307.0,,-0.34765625,2.31640625,-0.0703125,-0.08203125,0.525390625,0.072265625,1.08203125,-7.02734375,1.3671875,1.0
4810761,,,,,,,,-0.25390625,2.4296875,-0.1875,-0.072265625,0.537109375,0.060546875,1.16015625,-6.9140625,1.25,1.0
4810762,,,,,,,,-0.0859375,2.35546875,-0.34765625,-0.052734375,0.54296875,0.0546875,1.3125,-6.984375,1.09765625,1.0
4810763,,,,,,,,0.41796875,1.90234375,-0.69140625,-0.060546875,0.52734375,0.037109375,1.80859375,-7.4453125,0.75390625,1.0
4810764,,,,,,,,0.55859375,1.7109375,-0.65625,-0.08984375,0.5546875,0.02734375,1.92578125,-7.640625,0.7890625,1.0
4810765,,,,,,,,0.6796875,1.44140625,-0.5,-0.126953125,0.62109375,-0.001953125,2.0390625,-7.91015625,0.9453125,1.0
4810766,,,,,,,,0.6875,1.3671875,-0.46484375,-0.130859375,0.65234375,-0.015625,2.0390625,-7.98828125,0.98046875,1.0
4810767,,,,,,,,0.54296875,1.3359375,-0.5,-0.08984375,0.703125,-0.05859375,1.88671875,-8.02734375,0.9453125,1.0
4810768,,,,,,,,0.46484375,1.51953125,-0.65625,-0.06640625,0.724609375,-0.0859375,1.80859375,-7.828125,0.7890625,1.0
4810769,,,,,,,,0.4296875,1.60546875,-0.76953125,-0.0546875,0.736328125,-0.103515625,1.7734375,-7.75,0.67578125,1.0
4810770,36.01340283333333,129.31950966666668,82.00502076223923,111.27400711345491,1.0,311.0,,0.3203125,1.55859375,-0.9765625,-0.08203125,0.525390625,0.072265625,1.08203125,-7.02734375,1.3671875,1.0
4810771,,,,,,,,0.21484375,1.44140625,-0.9375,-0.09375,0.75390625,-0.134765625,1.54296875,-7.91015625,0.5234375,1.0
4810772,,,,,,,,-0.0625,0.9453125,-0.8984375,-0.091796875,0.7890625,-0.138671875,1.2734375,-8.40625,0.5625,1.0
4810773,,,,,,,,-0.13671875,0.75390625,-0.8984375,-0.08203125,0.810546875,-0.140625,1.19921875,-8.59375,0.5625,1.0
4810774,,,,,,,,-0.3671875,0.5234375,-0.82421875,-0.06640625,0.826171875,-0.126953125,0.96875,-8.83203125,0.63671875,1.0
4810775,,,,,,,,-0.484375,0.4453125,-0.640625,-0.06640625,0.814453125,-0.1171875,0.8515625,-8.90625,0.828125,1.0
4810776,,,,,,,,-0.4375,0.40234375,-0.48828125,-0.064453125,0.77734375,-0.115234375,0.890625,-8.9375,0.98046875,1.0
4810777,,,,,,,,-0.359375,0.4296875,-0.49609375,-0.048828125,0.697265625,-0.111328125,1.00390625,-8.9765625,1.01953125,1.0
4810778,,,,,,,,-0.32421875,0.35546875,-0.45703125,-0.041015625,0.677734375,-0.10546875,1.00390625,-9.09375,0.90625,1.0
4810779,,,,,,,,-0.32421875,0.1640625,-0.578125,-0.03515625,0.634765625,-0.09375,1.00390625,-9.25,0.828125,1.0
4810780,36.01340366666667,129.31950866666665,81.91487147128257,111.36647231393292,1.1,311.0,,0.3203125,1.55859375,-0.9765625,-0.08203125,0.525390625,0.072265625,1.04296875,-9.25390625,0.9453125,1.0
4810781,,,,,,,,-0.34375,0.01171875,-0.43359375,-0.021484375,0.59765625,-0.037109375,0.8125,-9.48046875,1.13671875,1.0
4810782,,,,,,,,-0.5,-0.14453125,-0.37109375,-0.021484375,0.595703125,-0.021484375,0.8125,-9.70703125,1.328125,1.0
4810783,,,,,,,,-0.51953125,-0.44921875,-0.1875,-0.029296875,0.568359375,-0.0078125,0.890625,-9.94140625,1.40234375,1.0
4810784,,,,,,,,-0.40625,-0.6015625,-0.11328125,-0.046875,0.5390625,-0.0078125,0.96875,-10.015625,1.44140625,1.0
4810785,,,,,,,,-0.16015625,-0.80078125,0.00390625,-0.08984375,0.48046875,-0.013671875,1.19921875,-10.1640625,1.55859375,1.0
4810786,,,,,,,,-0.07421875,-0.79296875,0.00390625,-0.119140625,0.40625,-0.03125,1.3125,-9.9765625,1.59375,1.0
4810787,,,,,,,,0.0390625,-0.640625,0.0859375,-0.125,0.392578125,-0.03515625,1.390625,-9.7421875,1.51953125,1.0
4810788,,,,,,,,0.1171875,-0.21875,-0.05859375,-0.16796875,0.34765625,-0.0546875,1.50390625,-9.2890625,1.328125,1.0
4810789,,,,,,,,0.23046875,0.046875,-0.1640625,-0.1953125,0.34375,-0.05859375,1.6171875,-9.21484375,1.25,1.0
4810790,36.01340416666667,129.31950766666665,81.82472252585869,111.4219510983354,1.1,311.0,,0.3203125,1.55859375,-0.9765625,-0.08203125,0.525390625,0.072265625,2.0,-9.015625,1.05859375,1.0
4810791,,,,,,,,0.8125,0.23828125,-0.47265625,-0.373046875,0.365234375,-0.04296875,2.30859375,-9.2890625,1.09765625,1.0
4810792,,,,,,,,1.15625,-0.2109375,-0.30859375,-0.4765625,0.40234375,-0.03515625,2.4609375,-10.40234375,0.9453125,1.0
4810793,,,,,,,,1.203125,-1.58203125,-0.64453125,-0.59375,0.453125,-0.0234375,2.421875,-11.5078125,0.59765625,1.0
4810794,,,,,,,,1.12890625,-2.953125,-0.859375,-0.734375,0.529296875,-0.041015625,2.34765625,-12.3515625,0.59765625,1.0
4810795,,,,,,,,1.01953125,-2.2109375,0.23046875,-0.78125,0.708984375,-0.068359375,2.26953125,-11.58984375,1.44140625,1.0
4810796,,,,,,,,0.03125,-2.546875,1.21484375,-0.740234375,0.947265625,-0.09375,1.2734375,-11.93359375,2.36328125,1.0
4810797,,,,,,,,-0.57421875,-4.53125,1.0234375,-0.734375,0.91796875,-0.052734375,0.66015625,-13.92578125,2.09375,1.0
4810798,,,,,,,,-0.91796875,-4.29296875,2.00390625,-0.6640625,0.814453125,-0.0625,0.31640625,-13.69140625,3.01171875,1.0
4810799,,,,,,,,-1.109375,-2.03515625,2.3515625,-0.33984375,0.84375,-0.0625,0.125,-11.4296875,3.3203125,1.0
4810800,36.01340483333333,129.31950683333335,81.74959815003217,111.49592323179056,1.1,313.0,0.0,-1.21875,-0.53125,1.4296875,-0.08203125,0.525390625,0.072265625,0.0078125,-9.94140625,2.3984375,1.0
4810801,,,,,,,,-0.82421875,-0.9921875,1.078125,0.041015625,0.94140625,-0.046875,0.39453125,-10.3984375,2.0546875,1.0
4810802,,,,,,,,-0.48046875,-1.296875,1.30078125,0.009765625,0.95703125,-0.03125,0.73828125,-10.70703125,2.28515625,1.0
4810803,,,,,,,,0.4453125,-2.33203125,2.05859375,-0.0859375,1.013671875,-0.041015625,1.65625,-11.734375,3.05078125,1.0
4810804,,,,,,,,0.8359375,-2.83203125,2.2109375,-0.07421875,1.08984375,-0.056640625,2.0390625,-12.234375,3.203125,1.0
4810805,,,,,,,,0.8828125,-2.82421875,2.12109375,0.064453125,1.19921875,-0.091796875,2.0,-12.0859375,3.08984375,1.0
4810806,,,,,,,,0.65234375,-2.28515625,1.98828125,0.150390625,1.24609375,-0.12109375,1.84765625,-11.69921875,3.01171875,1.0
4810807,,,,,,,,0.1875,-1.3671875,1.875,0.296875,1.302734375,-0.197265625,1.390625,-10.78125,2.9375,1.0
4810808,,,,,,,,-0.43359375,-0.2734375,1.56640625,0.400390625,1.310546875,-0.291015625,0.77734375,-9.67578125,2.70703125,1.0
4810809,,,,,,,,-0.7890625,0.1171875,1.265625,0.390625,1.283203125,-0.30078125,0.4296875,-9.29296875,2.4375,1.0
4810810,36.0134055,129.31950583333335,81.6594490378237,111.56989522512929,1.1,317.0,,-1.33984375,0.37890625,0.7578125,0.333984375,1.2109375,-0.3125,-0.10546875,-9.015625,1.9765625,1.0
4810811,,,,,,,,-1.515625,0.5625,0.3046875,0.19140625,1.080078125,-0.3125,-0.2578125,-8.828125,1.59375,1.0
4810812,,,,,,,,-1.4921875,0.66796875,0.2734375,0.14453125,1.03515625,-0.29296875,-0.21875,-8.59375,1.51953125,1.0
4810813,,,,,,,,-1.38671875,1.12890625,0.12109375,0.1328125,0.99609375,-0.287109375,-0.10546875,-8.25,1.48046875,1.0
4810814,,,,,,,,-1.25,1.58203125,0.05859375,0.1171875,0.947265625,-0.294921875,0.0859375,-7.5625,1.2890625,1.0
4810815,,,,,,,,-1.109375,2.1171875,-0.26953125,0.0859375,0.88671875,-0.31640625,0.23828125,-7.140625,1.13671875,1.0
4810816,,,,,,,,-1.04296875,2.30078125,-0.31640625,0.0703125,0.859375,-0.326171875,0.27734375,-7.06640625,1.09765625,1.0
4810817,,,,,,,,-1.01953125,2.37109375,-0.46484375,0.044921875,0.806640625,-0.345703125,0.31640625,-6.98828125,0.98046875,1.0
4810818,,,,,,,,-1.1484375,2.33203125,-0.546875,0.025390625,0.7734375,-0.357421875,0.203125,-7.02734375,0.90625,1.0
4810819,,,,,,,,-1.40234375,2.171875,-0.5234375,0.01171875,0.759765625,-0.349609375,-0.02734375,-7.1796875,0.9453125,1.0
4810820,36.013406333333336,129.319505,81.58432448787383,111.66236056975299,1.1,322.0,,-1.609375,2.01953125,-0.609375,0.021484375,0.7578125,-0.3203125,-0.3359375,-7.37109375,0.8671875,1.0
4810821,,,,,,,,-1.81640625,1.93359375,-0.6328125,0.037109375,0.751953125,-0.298828125,-0.48828125,-7.6015625,0.90625,1.0
4810822,,,,,,,,-1.90234375,1.75,-0.6015625,0.060546875,0.748046875,-0.2734375,-0.52734375,-7.72265625,0.9453125,1.0
4810823,,,,,,,,-1.99609375,1.58984375,-0.54296875,0.0859375,0.705078125,-0.248046875,-0.56640625,-7.75390625,0.98046875,1.0
4810824,,,,,,,,-1.96484375,1.42578125,-0.59375,0.140625,0.619140625,-0.19921875,-0.48828125,-7.984375,0.9453125,1.0
4810825,,,,,,,,-1.89453125,1.15234375,-0.703125,0.16015625,0.55859375,-0.177734375,-0.44921875,-8.171875,0.8671875,1.0
4810826,,,,,,,,-1.86328125,1.11328125,-0.7265625,0.162109375,0.537109375,-0.166015625,-0.41015625,-8.2109375,0.8671875,1.0
4810827,,,,,,,,-1.87109375,0.953125,-0.63671875,0.1640625,0.482421875,-0.15234375,-0.41015625,-8.37109375,0.98046875,1.0
4810828,,,,,,,,-1.84375,0.828125,-0.50390625,0.18359375,0.435546875,-0.142578125,-0.375,-8.48828125,1.13671875,1.0
4810829,,,,,,,,-1.8359375,0.8984375,-0.52734375,0.212890625,0.375,-0.130859375,-0.375,-8.41015625,1.13671875,1.0
4810830,36.013407,129.31950416666666,81.50920011349172,111.7363327045222,1.0,326.0,,-1.765625,1.00390625,-0.70703125,0.021484375,0.7578125,-0.3203125,-0.3359375,-7.37109375,0.8671875,1.0
4810831,,,,,,,,-1.6796875,1.03515625,-0.90625,0.244140625,0.28125,-0.099609375,-0.21875,-8.25,0.828125,1.0
4810832,,,,,,,,-1.57421875,0.98828125,-0.9765625,0.1796875,0.228515625,-0.087890625,-0.10546875,-8.29296875,0.7890625,1.0
4810833,,,,,,,,-1.23046875,0.59765625,-0.875,0.1015625,0.177734375,-0.091796875,0.23828125,-8.67578125,0.90625,1.0
4810834,,,,,,,,-1.23046875,0.33203125,-0.77734375,0.072265625,0.162109375,-0.091796875,0.23828125,-8.9375,1.01953125,1.0
4810835,,,,,,,,-1.19140625,0.0234375,-0.70703125,0.017578125,0.15625,-0.091796875,0.27734375,-9.25390625,1.09765625,1.0
4810836,,,,,,,,-1.16015625,-0.09765625,-0.59375,-0.001953125,0.158203125,-0.095703125,0.31640625,-9.359375,1.2109375,1.0
4810837,,,,,,,,-1.16015625,-0.2890625,-0.39453125,-0.03515625,0.162109375,-0.095703125,0.31640625,-9.5546875,1.40234375,1.0
4810838,,,,,,,,-1.16015625,-0.2890625,-0.28515625,-0.041015625,0.1796875,-0.099609375,0.31640625,-9.5546875,1.51953125,1.0
4810839,,,,,,,,-1.046875,-0.21484375,-0.125,-0.0546875,0.1875,-0.107421875,0.4296875,-9.4765625,1.671875,1.0
4810840,36.01340783333333,129.31950366666666,81.46412504485907,111.82879832748674,1.0,331.0,,-1.015625,-0.21484375,-0.1640625,0.021484375,0.7578125,-0.3203125,0.46875,-9.4765625,1.6328125,1.0
4810841,,,,,,,,-1.08203125,-0.296875,-0.30859375,-0.115234375,0.228515625,-0.107421875,0.39453125,-9.5546875,1.48046875,1.0
4810842,,,,,,,,-1.015625,-0.375,-0.4140625,-0.177734375,0.240234375,-0.099609375,0.46875,-9.6328125,1.3671875,1.0
4810843,,,,,,,,-0.87109375,-0.59765625,-0.58984375,-0.26953125,0.259765625,-0.099609375,0.62109375,-9.86328125,1.17578125,1.0
4810844,,,,,,,,-0.515625,-0.86328125,-0.5234375,-0.375,0.27734375,-0.08984375,0.96875,-10.12890625,1.2109375,1.0
4810845,,,,,,,,-0.32421875,-0.7890625,-0.453125,-0.47265625,0.306640625,-0.078125,1.16015625,-10.05859375,1.25,1.0
4810846,,,,,,,,-0.32421875,-0.58984375,-0.390625,-0.501953125,0.328125,-0.0703125,1.16015625,-9.86328125,1.2890625,1.0
4810847,,,,,,,,-0.82421875,0.03125,-0.34375,-0.52734375,0.416015625,-0.072265625,0.66015625,-9.25,1.2890625,1.0
4810848,,,,,,,,-1.24609375,0.26953125,-0.45703125,-0.521484375,0.494140625,-0.078125,0.23828125,-9.015625,1.13671875,1.0
4810849,,,,,,,,-1.7265625,0.078125,-0.53515625,-0.55078125,0.5,-0.06640625,-0.2578125,-9.2109375,1.01953125,1.0
4810850,36.013409,129.3195031666667,81.41904963633067,111.95825036690636,1.2000000000000002,339.0,,-1.7265625,-0.51953125,-0.5546875,0.021484375,0.7578125,-0.3203125,-0.2578125,-9.82421875,0.9453125,1.0
4810851,,,,,,,,-1.2578125,-1.0078125,-0.1875,-0.73046875,0.3046875,-0.0234375,0.203125,-10.3203125,1.25,1.0
4810852,,,,,,,,-0.9453125,-0.84765625,0.14453125,-0.82421875,0.185546875,-0.01171875,0.5078125,-10.16796875,1.51953125,1.0
4810853,,,,,,,,0.09765625,-0.83203125,1.05859375,-0.7890625,0.13671875,0.01171875,1.54296875,-10.1640625,2.32421875,1.0
4810854,,,,,,,,0.48046875,-2.203125,1.05859375,-0.830078125,0.166015625,0.01171875,1.92578125,-11.55078125,2.28515625,1.0
4810855,,,,,,,,2.91015625,-4.640625,2.83203125,-1.05078125,0.189453125,0.005859375,4.33984375,-14.0,3.93359375,1.0
4810856,,,,,,,,4.2890625,-3.8984375,3.62109375,-0.85546875,0.177734375,-0.083984375,5.71875,-13.27734375,4.58203125,1.0
4810857,,,,,,,,4.32421875,-3.19921875,3.5078125,-0.6484375,0.265625,-0.119140625,5.75390625,-12.578125,4.4296875,1.0
4810858,,,,,,,,2.96875,-2.703125,3.234375,-0.25390625,0.5078125,-0.203125,4.4140625,-12.0859375,4.125,1.0
4810859,,,,,,,,2.12890625,-2.6640625,3.1953125,-0.08203125,0.603515625,-0.236328125,3.57421875,-12.05078125,4.0859375,1.0
4810860,36.01341,129.31950283333333,81.38899913054674,112.06920933781284,1.1,345.0,,-0.53125,-3.3984375,3.4453125,0.181640625,0.634765625,-0.2578125,0.9296875,-12.7734375,4.3515625,1.0
4810861,,,,,,,,-0.9296875,-3.390625,3.453125,0.302734375,0.505859375,-0.236328125,0.546875,-12.77734375,4.390625,1.0
4810862,,,,,,,,-0.75390625,-2.44140625,2.84765625,0.404296875,0.408203125,-0.173828125,0.73828125,-11.81640625,3.81640625,1.0
4810863,,,,,,,,-0.6015625,-1.98828125,2.625,0.443359375,0.400390625,-0.134765625,0.890625,-11.35546875,3.625,1.0
4810864,,,,,,,,-0.45703125,-1.22265625,2.234375,0.462890625,0.515625,0.013671875,0.890625,-10.01953125,3.05078125,1.0
4810865,,,,,,,,-0.640625,-0.45703125,1.8359375,0.384765625,0.55859375,0.10546875,0.77734375,-9.63671875,2.859375,1.0
4810866,,,,,,,,-0.69140625,0.04296875,1.48046875,0.2734375,0.513671875,0.173828125,0.8515625,-9.3203125,2.4765625,1.0
4810867,,,,,,,,-0.40234375,-0.00390625,1.10546875,0.140625,0.41015625,0.197265625,1.16015625,-9.36328125,2.24609375,1.0
4810868,,,,,,,,-0.25390625,0.00390625,1.04296875,0.02734375,0.322265625,0.203125,1.2734375,-9.359375,2.09375,1.0
4810869,,,,,,,,-0.125,0.125,0.8359375,-0.037109375,0.30078125,0.18359375,1.234375,-9.1328125,2.015625,1.0
4810870,36.013411,129.3195025,81.35894863007049,112.18016830901735,1.2000000000000002,348.0,,-0.53125,-3.3984375,3.4453125,0.181640625,0.634765625,-0.2578125,1.08203125,-8.83203125,1.94140625,1.0
4810871,,,,,,,,-0.421875,1.0234375,0.55859375,-0.01171875,0.353515625,0.140625,0.8515625,-8.2109375,1.75,1.0
4810872,,,,,,,,-0.4921875,1.17578125,0.5234375,0.005859375,0.36328125,0.130859375,0.73828125,-7.75390625,1.59375,1.0
4810873,,,,,,,,-0.62890625,1.828125,0.33203125,-0.00390625,0.376953125,0.123046875,0.66015625,-7.484375,1.48046875,1.0
4810874,,,,,,,,-0.65234375,1.90234375,0.24609375,-0.015625,0.384765625,0.125,0.69921875,-7.26171875,1.3671875,1.0
4810875,,,,,,,,-0.4765625,2.2578125,-0.03125,-0.03515625,0.38671875,0.119140625,0.890625,-7.10546875,1.2109375,1.0
4810876,,,,,,,,-0.296875,2.41015625,-0.15234375,-0.060546875,0.39453125,0.1015625,1.12109375,-6.9453125,1.17578125,1.0
4810877,,,,,,,,-0.13671875,2.45703125,-0.07421875,-0.06640625,0.396484375,0.08984375,1.2734375,-6.875,1.13671875,1.0
4810878,,,,,,,,0.078125,2.53125,-0.15234375,-0.0546875,0.41015625,0.0546875,1.50390625,-6.9140625,1.05859375,1.0
4810879,,,,,,,,0.27734375,2.4921875,-0.19140625,-0.052734375,0.40625,0.041015625,1.58203125,-6.98828125,1.01953125,1.0
4810880,36.01341183333333,129.3195025,81.35894777353434,112.27263434879934,1.0,354.0,,-0.53125,-3.3984375,3.4453125,0.0,0.470703125,-0.046875,1.7734375,-6.984375,0.828125,1.0
4810881,,,,,,,,0.60546875,2.1484375,-0.51171875,0.009765625,0.5,-0.09375,1.80859375,-7.33203125,0.71484375,1.0
4810882,,,,,,,,0.60546875,1.95703125,-0.63671875,-0.009765625,0.515625,-0.138671875,1.65625,-7.5625,0.63671875,1.0
4810883,,,,,,,,0.453125,1.84375,-0.64453125,-0.0078125,0.533203125,-0.1484375,1.734375,-7.64453125,0.63671875,1.0
4810884,,,,,,,,0.4453125,1.65234375,-0.53515625,-0.013671875,0.57421875,-0.16796875,1.54296875,-7.71875,0.7890625,1.0
4810885,,,,,,,,0.24609375,1.6796875,-0.46875,0.001953125,0.634765625,-0.177734375,1.42578125,-7.6796875,0.90625,1.0
4810886,,,,,,,,0.19921875,1.6796875,-0.3984375,0.0546875,0.693359375,-0.1796875,1.3515625,-7.75,0.9453125,1.0
4810887,,,,,,,,0.125,1.55859375,-0.421875,0.1015625,0.69921875,-0.18359375,1.3125,-8.0234375,0.828125,1.0
4810888,,,,,,,,0.078125,1.3671875,-0.5,0.115234375,0.689453125,-0.18359375,1.3125,-8.1328125,0.7890625,1.0
4810889,,,,,,,,0.0703125,1.08984375,-0.59765625,0.130859375,0.65625,-0.18359375,1.3515625,-8.37109375,0.71484375,1.0
4810890,36.013413,129.31950233333333,81.34392183882309,112.40208666868759,1.1,355.0,,-0.53125,-3.3984375,3.4453125,0.0,0.470703125,-0.046875,1.390625,-8.79296875,0.67578125,1.0
4810891,,,,,,,,0.09375,0.46875,-0.63671875,0.12890625,0.65234375,-0.173828125,1.390625,-9.09765625,0.7890625,1.0
4810892,,,,,,,,0.1328125,0.15625,-0.546875,0.119140625,0.671875,-0.18359375,1.3515625,-9.2890625,1.01953125,1.0
4810893,,,,,,,,0.0078125,0.078125,-0.26171875,0.12109375,0.677734375,-0.17578125,1.16015625,-9.25,1.2890625,1.0
4810894,,,,,,,,-0.15234375,0.140625,-0.09375,0.15625,0.666015625,-0.169921875,1.00390625,-9.171875,1.44140625,1.0
4810895,,,,,,,,-0.3828125,0.1796875,-0.08203125,0.185546875,0.634765625,-0.1484375,0.69921875,-9.171875,1.3671875,1.0
4810896,,,,,,,,-0.57421875,0.171875,-0.140625,0.185546875,0.60546875,-0.13671875,0.546875,-9.21484375,1.40234375,1.0
4810897,,,,,,,,-0.7265625,0.1640625,-0.12890625,0.150390625,0.52734375,-0.103515625,0.546875,-9.2890625,1.44140625,1.0
4810898,,,,,,,,-0.7265625,-0.21875,0.046875,0.103515625,0.455078125,-0.078125,0.5859375,-9.67578125,1.75,1.0
4810899,,,,,,,,-0.61328125,-0.48828125,0.22265625,0.046875,0.357421875,-0.052734375,0.77734375,-9.94140625,1.82421875,1.0
4810900,36.01341383333333,129.319502,81.31387151139282,112.4945524304986,1.1,355.0,0.0,-0.53125,-3.3984375,3.4453125,0.001953125,0.267578125,-0.037109375,1.16015625,-10.01953125,1.59375,1.0
4810901,,,,,,,,0.0390625,-0.65625,-0.06640625,-0.046875,0.216796875,-0.033203125,1.58203125,-9.67578125,1.40234375,1.0
4810902,,,,,,,,0.5,-0.1953125,-0.296875,-0.12109375,0.216796875,-0.02734375,1.92578125,-9.359375,1.2109375,1.0
4810903,,,,,,,,0.7734375,0.1171875,-0.39453125,-0.224609375,0.21484375,-0.029296875,2.1171875,-9.09375,1.09765625,1.0
4810904,,,,,,,,1.04296875,0.38671875,-0.45703125,-0.359375,0.240234375,-0.01953125,2.38671875,-8.94140625,1.09765625,1.0
4810905,,,,,,,,1.15625,0.39453125,-0.42578125,-0.509765625,0.287109375,-0.013671875,2.421875,-9.05859375,1.01953125,1.0
4810906,,,,,,,,1.1953125,0.09375,-0.2734375,-0.66796875,0.3515625,0.009765625,2.4609375,-9.5546875,1.25,1.0
4810907,,,,,,,,1.2109375,-1.19921875,-0.1796875,-0.802734375,0.40625,0.03125,2.4609375,-10.55078125,1.25,1.0
4810908,,,,,,,,1.1796875,-3.14453125,-0.37890625,-0.904296875,0.3828125,0.041015625,2.421875,-12.50390625,0.98046875,1.0
4810909,,,,,,,,1.2265625,-3.0546875,0.3203125,-0.916015625,0.38671875,0.013671875,2.4609375,-12.43359375,1.59375,1.0
4810910,36.013415,129.3195018333333,81.29884557271879,112.62400474965847,1.1,356.0,,-0.53125,-3.3984375,3.4453125,-0.78515625,0.61328125,-0.03515625,1.16015625,-10.01953125,1.59375,1.0
4810911,,,,,,,,0.5078125,-1.99609375,1.12109375,-0.6875,0.8671875,-0.048828125,1.734375,-11.39453125,2.24609375,1.0
4810912,,,,,,,,0.24609375,-2.45703125,1.25390625,-0.69140625,0.904296875,-0.017578125,1.46484375,-11.8515625,2.32421875,1.0
4810913,,,,,,,,-0.47265625,-3.94140625,1.421875,-0.765625,0.890625,0.025390625,0.73828125,-13.34375,2.4375,1.0
4810914,,,,,,,,-0.734375,-3.93359375,1.7890625,-0.791015625,0.841796875,0.03515625,0.46875,-13.34765625,2.78125,1.0
4810915,,,,,,,,-0.90234375,-0.9765625,2.0234375,-0.0390625,1.05078125,-0.017578125,0.27734375,-10.40234375,2.9375,1.0
4810916,,,,,,,,-0.734375,-0.8984375,2.08203125,-0.025390625,1.134765625,0.00390625,0.4296875,-10.32421875,3.01171875,1.0
4810917,,,,,,,,-0.578125,-1.12890625,2.2734375,-0.064453125,1.15625,0.01171875,0.5859375,-10.55078125,3.203125,1.0
4810918,,,,,,,,0.35546875,-1.859375,2.6484375,-0.103515625,1.177734375,-0.017578125,1.50390625,-11.28125,3.5859375,1.0
4810919,,,,,,,,0.69921875,-1.96484375,2.640625,-0.083984375,1.189453125,-0.04296875,1.84765625,-11.39453125,3.5859375,1.0
4810920,36.013416,129.3195015,81.26879507758787,112.73496372115527,1.1,356.0,,1.28125,-1.91796875,2.328125,-0.78515625,0.61328125,-0.03515625,1.16015625,-10.01953125,1.59375,1.0
4810921,,,,,,,,1.19921875,-1.23828125,1.875,0.150390625,1.251953125,-0.216796875,2.34765625,-10.6640625,2.859375,1.0
4810922,,,,,,,,-0.12109375,-0.31640625,1.796875,0.18359375,1.318359375,-0.33203125,1.04296875,-9.74609375,2.8203125,1.0
4810923,,,,,,,,-0.50390625,-0.25,1.78125,0.197265625,1.345703125,-0.369140625,0.66015625,-9.67578125,2.8203125,1.0
4810924,,,,,,,,-1.37109375,-0.05859375,1.66796875,0.166015625,1.3359375,-0.408203125,-0.18359375,-9.4765625,2.74609375,1.0
4810925,,,,,,,,-1.5859375,0.05078125,1.375,0.115234375,1.2578125,-0.41796875,-0.375,-9.36328125,2.4765625,1.0
4810926,,,,,,,,-1.5390625,0.08203125,0.84375,0.05859375,1.162109375,-0.3984375,-0.296875,-9.32421875,1.9765625,1.0
4810927,,,,,,,,-1.44921875,0.2734375,0.5546875,-0.015625,1.126953125,-0.34375,-0.18359375,-9.1328125,1.7109375,1.0
4810928,,,,,,,,-1.41796875,0.38671875,0.46875,-0.021484375,1.130859375,-0.322265625,-0.14453125,-9.01953125,1.6328125,1.0
4810929,,,,,,,,-1.2421875,0.9609375,0.33984375,-0.01953125,1.134765625,-0.28125,0.046875,-8.4453125,1.51953125,1.0
4810930,36.013417,129.3195015,81.26879405092876,112.84592297056844,1.1,357.0,,-1.04296875,1.52734375,0.15625,-0.78515625,0.61328125,-0.03515625,1.16015625,-10.01953125,1.59375,1.0
4810931,,,,,,,,-0.9140625,1.98046875,-0.19140625,0.01953125,0.904296875,-0.31640625,0.4296875,-7.40625,1.05859375,1.0
4810932,,,,,,,,-1.07421875,2.09375,-0.27734375,0.017578125,0.884765625,-0.330078125,0.27734375,-7.296875,0.98046875,1.0
4810933,,,,,,,,-1.25,2.0859375,-0.359375,0.04296875,0.86328125,-0.337890625,0.125,-7.30078125,0.90625,1.0
4810934,,,,,,,,-1.44140625,2.0859375,-0.453125,0.046875,0.853515625,-0.33203125,-0.06640625,-7.296875,0.828125,1.0
4810935,,,,,,,,-1.6171875,2.078125,-0.46875,0.080078125,0.84375,-0.3203125,-0.21875,-7.30078125,0.828125,1.0
4810936,,,,,,,,-1.94140625,2.15625,-0.60546875,0.10546875,0.83984375,-0.306640625,-0.52734375,-7.22265625,0.71484375,1.0
4810937,,,,,,,,-1.98828125,2.078125,-0.62109375,0.119140625,0.8359375,-0.287109375,-0.56640625,-7.30078125,0.71484375,1.0
4810938,,,,,,,,-2.109375,1.95703125,-0.60546875,0.126953125,0.80078125,-0.2578125,-0.6796875,-7.41015625,0.75390625,1.0
4810939,,,,,,,,-2.1171875,1.91796875,-0.62109375,0.12890625,0.783203125,-0.23828125,-0.6796875,-7.4453125,0.75390625,1.0
4810940,36.013418,129.3195015,81.2687930245647,112.95688221944008,1.0,0.0,,-2.01171875,1.6796875,-0.5703125,-0.78515625,0.61328125,-0.03515625,-0.56640625,-7.6796875,0.828125,1.0
4810941,,,,,,,,-1.86328125,1.55078125,-0.4921875,0.138671875,0.6640625,-0.1640625,-0.41015625,-7.7890625,0.9453125,1.0
4810942,,,,,,,,-1.75,1.47265625,-0.44140625,0.1484375,0.61328125,-0.140625,-0.296875,-7.8671875,1.01953125,1.0
4810943,,,,,,,,-1.7109375,1.54296875,-0.47265625,0.185546875,0.5390625,-0.125,-0.2578125,-7.79296875,1.01953125,1.0
4810944,,,,,,,,-1.63671875,1.609375,-0.54296875,0.201171875,0.498046875,-0.107421875,-0.18359375,-7.72265625,0.98046875,1.0
4810945,,,,,,,,-1.63671875,1.34375,-0.6796875,0.197265625,0.46484375,-0.091796875,-0.18359375,-7.98828125,0.8671875,1.0
4810946,,,,,,,,-1.59765625,1.10546875,-0.703125,0.15625,0.419921875,-0.078125,-0.14453125,-8.2109375,0.8671875,1.0
4810947,,,,,,,,-1.47265625,0.67578125,-0.765625,0.1171875,0.373046875,-0.072265625,-0.02734375,-8.6328125,0.828125,1.0
4810948,,,,,,,,-1.3203125,0.20703125,-0.7109375,0.07421875,0.30859375,-0.0703125,0.125,-9.09375,0.90625,1.0
4810949,,,,,,,,-1.2734375,0.09375,-0.56640625,0.064453125,0.2890625,-0.080078125,0.1640625,-9.2109375,1.05859375,1.0
4810950,36.013419,129.31950166666667,81.28381673235593,113.06784160797099,1.0,5.0,,-1.2421875,-0.09765625,-0.3046875,0.060546875,0.275390625,-0.087890625,0.203125,-9.40234375,1.328125,1.0
4810951,,,,,,,,-1.28125,-0.48828125,-0.20703125,0.0546875,0.267578125,-0.099609375,0.1640625,-9.78125,1.44140625,1.0
4810952,,,,,,,,-1.28125,-0.71875,-0.17578125,0.048828125,0.2578125,-0.1015625,0.1640625,-10.015625,1.48046875,1.0
4810953,,,,,,,,-1.2890625,-0.8046875,-0.14453125,0.048828125,0.26171875,-0.109375,0.1640625,-10.09375,1.51953125,1.0
4810954,,,,,,,,-1.20703125,-0.7265625,-0.10546875,0.056640625,0.265625,-0.1171875,0.23828125,-10.01953125,1.55859375,1.0
4810955,,,,,,,,-0.9921875,-0.53515625,-0.16015625,0.078125,0.25,-0.130859375,0.46875,-9.8203125,1.51953125,1.0
4810956,,,,,,,,-0.79296875,-0.49609375,-0.24609375,0.0703125,0.23828125,-0.142578125,0.66015625,-9.78125,1.44140625,1.0
4810957,,,,,,,,-0.83984375,-0.50390625,-0.3203125,0.01171875,0.220703125,-0.158203125,0.62109375,-9.78515625,1.3671875,1.0
4810958,,,,,,,,-0.9609375,-0.58203125,-0.359375,-0.037109375,0.21484375,-0.171875,0.5078125,-9.86328125,1.328125,1.0
4810959,,,,,,,,-0.96875,-0.6640625,-0.54296875,-0.17578125,0.205078125,-0.1796875,0.5078125,-9.94140625,1.13671875,1.0
4810960,36.01341983333334,129.3195018333333,81.29884060948777,113.16030778772759,1.0,11.0,,-0.9375,-0.6640625,-0.65234375,0.060546875,0.275390625,-0.087890625,0.203125,-9.40234375,1.328125,1.0
4810961,,,,,,,,-0.87109375,-0.7421875,-0.828125,-0.3515625,0.203125,-0.16015625,0.62109375,-10.01953125,0.828125,1.0
4810962,,,,,,,,-0.72265625,-0.7734375,-0.75,-0.490234375,0.203125,-0.126953125,0.77734375,-10.05859375,0.8671875,1.0
4810963,,,,,,,,-0.6953125,-0.640625,-0.34765625,-0.609375,0.271484375,-0.078125,0.8125,-9.9375,1.17578125,1.0
4810964,,,,,,,,-1.0703125,-1.8203125,-0.109375,-0.734375,0.267578125,-0.048828125,0.4296875,-11.125,1.328125,1.0
4810965,,,,,,,,-0.87109375,-2.6484375,0.34375,-0.83203125,0.16796875,-0.041015625,0.62109375,-11.97265625,1.7109375,1.0
4810966,,,,,,,,-0.29296875,-2.79296875,0.765625,-0.87109375,0.09765625,-0.044921875,1.19921875,-12.12109375,2.09375,1.0
4810967,,,,,,,,0.96875,-3.24609375,1.03515625,-0.880859375,-0.025390625,-0.029296875,2.4609375,-12.58203125,2.28515625,1.0
4810968,,,,,,,,1.6953125,-3.7734375,1.16015625,-0.890625,-0.052734375,-0.021484375,3.1875,-13.1171875,2.32421875,1.0
4810969,,,,,,,,2.5,-3.57421875,1.55859375,-0.935546875,0.0546875,-0.01171875,3.9921875,-12.92578125,2.62890625,1.0
4810970,36.013420833333335,129.3195025,81.35893852468882,113.27126759369992,1.1,18.0,,2.85546875,-1.875,2.05078125,0.060546875,0.275390625,-0.087890625,4.33984375,-11.24609375,3.05078125,1.0
4810971,,,,,,,,2.01171875,-1.25390625,2.2109375,-0.3828125,0.5859375,-0.052734375,3.49609375,-10.62890625,3.1640625,1.0
4810972,,,,,,,,0.71484375,-1.97265625,2.7578125,-0.0859375,0.708984375,-0.1015625,2.19140625,-11.3515625,3.703125,1.0
4810973,,,,,,,,-0.44140625,-2.74609375,3.4453125,0.02734375,0.60546875,-0.126953125,1.04296875,-12.1171875,4.390625,1.0
4810974,,,,,,,,-0.78515625,-2.40234375,3.19140625,0.2421875,0.498046875,-0.1328125,0.69921875,-11.7734375,4.16015625,1.0
4810975,,,,,,,,-0.71484375,-1.67578125,2.76953125,0.427734375,0.40625,-0.11328125,0.77734375,-11.05078125,3.77734375,1.0
4810976,,,,,,,,-0.6796875,-1.30078125,2.47265625,0.498046875,0.390625,-0.083984375,0.8125,-10.66796875,3.51171875,1.0
4810977,,,,,,,,-0.87109375,-0.2265625,1.84375,0.52734375,0.421875,-0.001953125,0.62109375,-9.59375,2.9375,1.0
4810978,,,,,,,,-0.96875,0.26953125,1.7109375,0.44921875,0.458984375,0.08984375,0.5078125,-9.09765625,2.859375,1.0
4810979,,,,,,,,-0.953125,0.65234375,1.3671875,0.34375,0.466796875,0.185546875,0.5078125,-8.71484375,2.5546875,1.0
4810980,36.013421666666666,129.319503,81.40401187075223,113.36373405219044,1.1,24.0,,-0.4375,0.26953125,1.1953125,0.126953125,0.37109375,0.287109375,0.96875,-9.09375,2.4375,1.0
4810981,,,,,,,,0.015625,-0.06640625,1.1484375,-0.00390625,0.3046875,0.3125,1.390625,-9.4375,2.3984375,1.0
4810982,,,,,,,,0.10546875,-0.06640625,1.265625,-0.052734375,0.287109375,0.310546875,1.46484375,-9.44140625,2.515625,1.0
4810983,,,,,,,,-0.0859375,0.44140625,1.06640625,-0.05078125,0.31640625,0.28515625,1.234375,-8.9375,2.32421875,1.0
4810984,,,,,,,,-0.23828125,0.9453125,0.796875,0.08203125,0.3828125,0.216796875,1.04296875,-8.4453125,2.0546875,1.0
4810985,,,,,,,,-0.47265625,1.60546875,0.421875,0.134765625,0.390625,0.1796875,0.77734375,-7.79296875,1.7109375,1.0
4810986,,,,,,,,-0.49609375,1.71875,0.3359375,0.138671875,0.376953125,0.166015625,0.73828125,-7.68359375,1.6328125,1.0
4810987,,,,,,,,-0.48046875,2.1015625,0.16796875,0.1015625,0.349609375,0.13671875,0.73828125,-7.296875,1.48046875,1.0
4810988,,,,,,,,-0.41015625,2.30078125,0.06640625,0.044921875,0.33203125,0.111328125,0.77734375,-7.1015625,1.40234375,1.0
4810989,,,,,,,,-0.328125,2.41796875,-0.0078125,0.046875,0.337890625,0.111328125,0.8515625,-6.98828125,1.328125,1.0
4810990,36.01342266666666,129.31950366666666,81.46410978143467,113.47469385914043,1.1,25.0,,-0.1953125,2.4921875,-0.0625,0.126953125,0.37109375,0.287109375,0.96875,-9.09375,2.4375,1.0
4810991,,,,,,,,-0.01953125,2.45703125,-0.1484375,0.048828125,0.3984375,0.095703125,1.12109375,-6.9453125,1.2109375,1.0
4810992,,,,,,,,0.140625,2.33984375,-0.15625,0.046875,0.412109375,0.0859375,1.2734375,-7.06640625,1.2109375,1.0
4810993,,,,,,,,0.37890625,2.33203125,-0.20703125,0.04296875,0.42578125,0.0703125,1.50390625,-7.0625,1.17578125,1.0
4810994,,,,,,,,0.46484375,2.33203125,-0.28515625,0.037109375,0.423828125,0.0546875,1.58203125,-7.06640625,1.09765625,1.0
4810995,,,,,,,,0.79296875,1.98828125,-0.41796875,0.025390625,0.4140625,0.0,1.88671875,-7.40625,0.98046875,1.0
4810996,,,,,,,,0.9140625,1.796875,-0.5390625,0.013671875,0.396484375,-0.025390625,2.0,-7.60546875,0.8671875,1.0
4810997,,,,,,,,0.6875,1.421875,-0.6328125,-0.001953125,0.443359375,-0.095703125,1.7734375,-7.984375,0.7890625,1.0
4810998,,,,,,,,0.53125,1.3359375,-0.484375,0.005859375,0.470703125,-0.10546875,1.6171875,-8.06640625,0.9453125,1.0
4810999,,,,,,,,0.140625,1.25390625,-0.41796875,0.021484375,0.541015625,-0.126953125,1.234375,-8.13671875,1.01953125,1.0
4811000,36.0134235,129.31950433333336,81.52420786181801,113.5671604575193,1.0,30.0,0.0,-0.01171875,1.09765625,-0.45703125,0.029296875,0.55078125,-0.125,0.96875,-9.09375,2.4375,1.0
4811001,,,,,,,,-0.05078125,0.984375,-0.42578125,0.052734375,0.541015625,-0.119140625,1.04296875,-8.40625,1.01953125,1.0
4811002,,,,,,,,-0.125,0.87109375,-0.59375,0.060546875,0.51171875,-0.111328125,0.96875,-8.51953125,0.8671875,1.0
4811003,,,,,,,,0.06640625,0.77734375,-0.76171875,0.072265625,0.482421875,-0.099609375,1.16015625,-8.59765625,0.71484375,1.0
4811004,,,,,,,,0.140625,0.6328125,-0.76953125,0.083984375,0.466796875,-0.09375,1.234375,-8.75,0.71484375,1.0
4811005,,,,,,,,0.1328125,0.5859375,-0.6796875,0.083984375,0.474609375,-0.0859375,1.234375,-8.79296875,0.828125,1.0
4811006,,,,,,,,-0.01953125,0.546875,-0.609375,0.08984375,0.4765625,-0.08203125,1.08203125,-8.828125,0.90625,1.0
4811007,,,,,,,,-0.25,0.69140625,-0.44140625,0.12890625,0.505859375,-0.064453125,0.8515625,-8.671875,1.09765625,1.0
4811008,,,,,,,,-0.2734375,0.68359375,-0.3515625,0.171875,0.515625,-0.046875,0.8125,-8.67578125,1.2109375,1.0
4811009,,,,,,,,-0.234375,0.53125,-0.44140625,0.18359375,0.470703125,-0.025390625,0.8515625,-8.83203125,1.13671875,1.0
4811010,36.0134245,129.319505,81.58430576729226,113.67812026478565,1.0,30.0,,-0.1875,0.453125,-0.390625,0.142578125,0.4140625,-0.0078125,0.890625,-8.91015625,1.2109375,1.0
4811011,,,,,,,,0.01171875,0.2109375,-0.3671875,0.111328125,0.3828125,0.0078125,1.08203125,-9.1328125,1.25,1.0
4811012,,,,,,,,0.09765625,-0.13671875,-0.265625,0.068359375,0.35546875,0.013671875,1.16015625,-9.4765625,1.3671875,1.0
4811013,,,,,,,,0.2265625,-0.40234375,-0.046875,-0.005859375,0.330078125,0.025390625,1.2734375,-9.7421875,1.59375,1.0
4811014,,,,,,,,0.3125,-0.43359375,0.109375,-0.06640625,0.318359375,0.0390625,1.3515625,-9.78515625,1.75,1.0
4811015,,,,,,,,0.359375,-0.3203125,0.1171875,-0.11328125,0.271484375,0.037109375,1.390625,-9.671875,1.75,1.0
4811016,,,,,,,,0.3671875,-0.2890625,-0.14453125,-0.150390625,0.20703125,0.04296875,1.390625,-9.6328125,1.48046875,1.0
4811017,,,,,,,,0.3359375,-0.35546875,-0.16796875,-0.212890625,0.15625,0.041015625,1.3515625,-9.703125,1.44140625,1.0
4811018,,,,,,,,0.3828125,-0.6640625,-0.18359375,-0.322265625,0.134765625,0.046875,1.390625,-10.015625,1.40234375,1.0
4811019,,,,,,,,0.54296875,-0.84765625,-0.03515625,-0.435546875,0.140625,0.072265625,1.54296875,-10.20703125,1.51953125,1.0
