time,latitude,longitude,enu_x,enu_y,speed,course,ecg,accX,accY,accZ,gyrX,gyrY,gyrZ,eulR,eulP,eulY,validity
4765220,36.01340533333334,129.319502,81.31388024148364,111.55139881321696,1.1,216.0,,0.328125,-0.30078125,0.86328125,0.451171875,-0.44921875,0.20703125,1.234375,-9.7421875,1.78515625,1.0
4765221,,,,,,,,0.7265625,-0.6171875,0.56640625,0.357421875,-0.47265625,0.279296875,1.6171875,-10.0546875,1.51953125,1.0
4765222,,,,,,,,0.90625,-0.76171875,0.3828125,0.2734375,-0.5625,0.32421875,1.7734375,-10.203125,1.3671875,1.0
4765223,,,,,,,,0.7734375,-0.45703125,0.17578125,0.25,-0.59765625,0.333984375,1.6171875,-9.8984375,1.17578125,1.0
4765224,,,,,,,,0.4921875,0.1953125,0.07421875,0.3046875,-0.541015625,0.318359375,1.3125,-9.25390625,1.09765625,1.0
4765225,,,,,,,,0.171875,1.23828125,-0.109375,0.392578125,-0.474609375,0.30078125,0.96875,-8.21484375,0.9453125,1.0
4765226,,,,,,,,0.109375,1.58203125,-0.203125,0.421875,-0.44921875,0.296875,0.890625,-7.8671875,0.8671875,1.0
4765227,,,,,,,,-0.05859375,2.50390625,-0.42578125,0.453125,-0.455078125,0.30078125,0.69921875,-6.94921875,0.67578125,1.0
4765228,,,,,,,,0.00390625,2.80859375,-0.54296875,0.435546875,-0.4921875,0.306640625,0.73828125,-6.640625,0.59765625,1.0
4765229,,,,,,,,0.33203125,2.9921875,-0.734375,0.404296875,-0.541015625,0.326171875,1.04296875,-6.45703125,0.4453125,1.0
4765230,36.013404666666666,129.31950166666667,81.28383144854554,111.47742570145033,1.0,215.0,,0.59375,3.0390625,-0.7890625,0.451171875,-0.44921875,0.20703125,1.2734375,-6.4140625,0.4453125,1.0
4765231,,,,,,,,0.87109375,3.078125,-0.84375,0.33203125,-0.611328125,0.298828125,1.54296875,-6.375,0.40625,1.0
4765232,,,,,,,,1.390625,2.83984375,-0.94140625,0.296875,-0.603515625,0.2734375,2.0390625,-6.6015625,0.33203125,1.0
4765233,,,,,,,,1.4453125,2.76171875,-1.07421875,0.265625,-0.564453125,0.248046875,2.078125,-6.68359375,0.21484375,1.0
4765234,,,,,,,,1.53125,2.53125,-1.1328125,0.248046875,-0.50390625,0.2265625,2.15625,-6.91796875,0.1796875,1.0
4765235,,,,,,,,1.69921875,2.44921875,-0.99609375,0.197265625,-0.4296875,0.2109375,2.30859375,-6.98828125,0.33203125,1.0
4765236,,,,,,,,1.74609375,2.33203125,-0.74609375,0.15234375,-0.353515625,0.162109375,2.34765625,-7.10546875,0.59765625,1.0
4765237,,,,,,,,1.421875,1.60546875,-0.421875,0.142578125,-0.173828125,0.119140625,2.0,-7.83203125,0.9453125,1.0
4765238,,,,,,,,1.30859375,1.4921875,-0.30859375,0.15625,-0.142578125,0.11328125,1.88671875,-7.9453125,1.05859375,1.0
4765239,,,,,,,,1.1640625,1.1015625,-0.37109375,0.166015625,-0.1015625,0.11328125,1.734375,-8.33203125,1.01953125,1.0
4765240,36.013403833333335,129.319501,81.22373335372797,111.38495910486489,1.0,213.0,,1.1328125,1.0546875,-0.33203125,0.451171875,-0.44921875,0.20703125,1.2734375,-6.4140625,0.4453125,1.0
4765241,,,,,,,,1.1796875,0.70703125,-0.39453125,0.171875,-0.076171875,0.126953125,1.734375,-8.71484375,1.01953125,1.0
4765242,,,,,,,,1.109375,0.40234375,-0.484375,0.166015625,-0.044921875,0.1171875,1.65625,-9.01953125,0.9453125,1.0
4765243,,,,,,,,1.078125,0.05078125,-0.5,0.177734375,-0.03125,0.107421875,1.6171875,-9.36328125,0.9453125,1.0
4765244,,,,,,,,0.98046875,-0.02734375,-0.44140625,0.193359375,-0.021484375,0.10546875,1.50390625,-9.4375,1.01953125,1.0
4765245,,,,,,,,0.828125,0.00390625,-0.37890625,0.224609375,-0.029296875,0.111328125,1.3515625,-9.3984375,1.09765625,1.0
4765246,,,,,,,,0.7890625,0.04296875,-0.35546875,0.236328125,-0.03125,0.107421875,1.3125,-9.359375,1.13671875,1.0
4765247,,,,,,,,0.765625,0.04296875,-0.45703125,0.259765625,-0.0546875,0.111328125,1.2734375,-9.359375,1.05859375,1.0
4765248,,,,,,,,0.7734375,0.109375,-0.59375,0.259765625,-0.087890625,0.107421875,1.2734375,-9.2890625,0.9453125,1.0
4765249,,,,,,,,0.7734375,0.109375,-0.734375,0.224609375,-0.11328125,0.1171875,1.2734375,-9.29296875,0.828125,1.0
4765250,36.013403000000004,129.31950083333334,81.20870947087313,111.29249292536618,0.9,209.0,,0.78125,0.02734375,-0.75,0.451171875,-0.44921875,0.20703125,1.2734375,-6.4140625,0.4453125,1.0
4765251,,,,,,,,0.75,-0.1640625,-0.7265625,0.103515625,-0.1484375,0.12109375,1.234375,-9.5546875,0.8671875,1.0
4765252,,,,,,,,0.7578125,-0.44140625,-0.640625,0.048828125,-0.146484375,0.125,1.234375,-9.8203125,0.9453125,1.0
4765253,,,,,,,,0.60546875,-0.59375,-0.57421875,-0.021484375,-0.158203125,0.13671875,1.08203125,-9.9765625,1.01953125,1.0
4765254,,,,,,,,0.54296875,-0.59375,-0.52734375,-0.06640625,-0.162109375,0.140625,1.00390625,-9.9765625,1.05859375,1.0
4765255,,,,,,,,0.54296875,-0.6328125,-0.82421875,-0.1015625,-0.20703125,0.14453125,1.00390625,-10.015625,0.75390625,1.0
4765256,,,,,,,,0.58984375,-0.6640625,-0.80859375,-0.130859375,-0.24609375,0.150390625,1.04296875,-10.0546875,0.75390625,1.0
4765257,,,,,,,,0.59765625,-0.6640625,-0.87890625,-0.17578125,-0.3125,0.1328125,1.04296875,-10.05859375,0.67578125,1.0
4765258,,,,,,,,0.64453125,-0.42578125,-0.80078125,-0.228515625,-0.32421875,0.109375,1.08203125,-9.82421875,0.71484375,1.0
4765259,,,,,,,,0.68359375,-0.234375,-0.625,-0.26171875,-0.28515625,0.103515625,1.12109375,-9.6328125,0.8671875,1.0
4765260,36.013402,129.31950083333334,81.20871049669145,111.1815336751844,1.0,200.0,,0.875,-0.109375,-0.48046875,0.451171875,-0.44921875,0.20703125,1.3125,-9.515625,0.98046875,1.0
4765261,,,,,,,,1.15234375,-0.44921875,-0.35546875,-0.392578125,-0.263671875,0.08203125,1.58203125,-9.86328125,1.05859375,1.0
4765262,,,,,,,,1.00390625,-1.17578125,-0.84375,-0.537109375,-0.318359375,0.078125,1.42578125,-10.5859375,0.5234375,1.0
4765263,,,,,,,,0.5,0.06640625,-0.55078125,-0.599609375,-0.341796875,0.037109375,0.9296875,-9.36328125,0.75390625,1.0
4765264,,,,,,,,0.4921875,0.296875,-0.27734375,-0.5,-0.12109375,-0.013671875,0.96875,-9.1328125,1.17578125,1.0
4765265,,,,,,,,0.5234375,-0.80859375,0.390625,-0.607421875,0.041015625,0.0078125,0.890625,-11.0859375,1.7109375,1.0
4765266,,,,,,,,0.4453125,-1.64453125,0.53125,-0.724609375,0.05859375,0.03515625,0.69921875,-11.89453125,1.78515625,1.0
4765267,,,,,,,,-0.04296875,-3.16796875,0.79296875,-0.892578125,0.001953125,0.029296875,-0.3359375,-13.3828125,2.28515625,1.0
4765268,,,,,,,,-1.125,-3.96484375,1.453125,-0.798828125,-0.056640625,0.017578125,-1.0625,-13.08203125,2.78125,1.0
4765269,,,,,,,,-1.96875,-2.34765625,2.21875,-0.43359375,-0.03515625,-0.01171875,-1.5234375,-11.81640625,3.1640625,1.0
4765270,36.013401,129.31950066666667,81.19368678413097,111.0705742876628,1.0,195.0,,-2.08203125,-1.390625,2.453125,-0.10546875,0.0,0.005859375,-1.5625,-10.6640625,3.43359375,1.0
4765271,,,,,,,,-1.81640625,-1.2734375,2.53515625,0.001953125,-0.025390625,0.056640625,-1.37109375,-10.7421875,3.43359375,1.0
4765272,,,,,,,,-1.01171875,-1.84765625,2.54296875,0.021484375,-0.099609375,0.09375,-0.56640625,-11.31640625,3.43359375,1.0
4765273,,,,,,,,-0.3515625,-1.8125,2.50390625,0.0234375,-0.138671875,0.083984375,0.0859375,-11.28125,3.39453125,1.0
4765274,,,,,,,,0.26171875,-1.6875,2.296875,0.09765625,-0.150390625,0.046875,0.69921875,-11.16796875,3.203125,1.0
4765275,,,,,,,,0.26171875,-1.45703125,2.13671875,0.1796875,-0.130859375,-0.029296875,0.69921875,-10.9296875,3.05078125,1.0
4765276,,,,,,,,0.140625,-1.03515625,1.8515625,0.2578125,-0.14453125,-0.12890625,0.5859375,-10.5078125,2.78125,1.0
4765277,,,,,,,,-0.10546875,-0.38671875,1.37109375,0.29296875,-0.197265625,-0.21484375,0.35546875,-9.86328125,2.32421875,1.0
4765278,,,,,,,,-0.2734375,-0.30859375,1.1171875,0.271484375,-0.240234375,-0.25390625,0.203125,-9.78515625,2.09375,1.0
4765279,,,,,,,,-0.375,-0.5078125,1.0546875,0.16796875,-0.306640625,-0.27734375,0.125,-9.98046875,2.0546875,1.0
4765280,36.01339983333333,129.31950066666667,81.19368798060394,110.94112183003796,1.1,190.0,,-0.58203125,-0.46875,1.046875,0.07421875,-0.310546875,-0.255859375,-0.02734375,-9.94140625,2.0546875,1.0
4765281,,,,,,,,-0.578125,0.10546875,0.76171875,0.123046875,-0.29296875,-0.2265625,0.0078125,-9.36328125,1.78515625,1.0
4765282,,,,,,,,-0.37109375,0.75390625,0.296875,0.1953125,-0.2890625,-0.197265625,0.23828125,-8.7109375,1.328125,1.0
4765283,,,,,,,,-0.26953125,0.984375,0.15625,0.21875,-0.310546875,-0.18359375,0.35546875,-8.48828125,1.2109375,1.0
4765284,,,,,,,,0.01171875,1.515625,-0.125,0.2109375,-0.341796875,-0.1796875,0.66015625,-7.94921875,0.9453125,1.0
4765285,,,,,,,,0.296875,1.93359375,-0.44921875,0.197265625,-0.369140625,-0.1953125,0.96875,-7.5234375,0.63671875,1.0
4765286,,,,,,,,0.234375,1.93359375,-0.5859375,0.185546875,-0.369140625,-0.203125,0.9296875,-7.5234375,0.5234375,1.0
4765287,,,,,,,,-0.01953125,1.97265625,-0.78515625,0.1875,-0.341796875,-0.22265625,0.69921875,-7.48828125,0.33203125,1.0
4765288,,,,,,,,-0.140625,1.96484375,-0.75390625,0.18359375,-0.3203125,-0.21875,0.5859375,-7.484375,0.37109375,1.0
4765289,,,,,,,,-0.5625,1.890625,-0.703125,0.1640625,-0.255859375,-0.22265625,0.203125,-7.56640625,0.4453125,1.0
4765290,36.013399166666666,129.31950016666667,81.14861444715979,110.86714858033537,1.0,194.0,,-0.89453125,1.7265625,-0.640625,0.177734375,-0.2265625,-0.212890625,-0.10546875,-7.72265625,0.5234375,1.0
4765291,,,,,,,,-0.95703125,1.61328125,-0.6484375,0.189453125,-0.2109375,-0.20703125,-0.14453125,-7.83203125,0.5234375,1.0
4765292,,,,,,,,-1.01953125,1.52734375,-0.7890625,0.19140625,-0.23046875,-0.1875,-0.18359375,-7.91015625,0.40625,1.0
4765293,,,,,,,,-1.03515625,1.453125,-0.8046875,0.1875,-0.263671875,-0.1640625,-0.18359375,-7.98828125,0.40625,1.0
4765294,,,,,,,,-1.203125,1.25390625,-0.78125,0.15625,-0.275390625,-0.138671875,-0.3359375,-8.171875,0.4453125,1.0
4765295,,,,,,,,-1.33203125,1.17578125,-0.63671875,0.134765625,-0.27734375,-0.107421875,-0.44921875,-8.25,0.59765625,1.0
4765296,,,,,,,,-1.45703125,1.015625,-0.52734375,0.125,-0.2890625,-0.095703125,-0.56640625,-8.40625,0.71484375,1.0
4765297,,,,,,,,-1.5078125,0.78515625,-0.50390625,0.130859375,-0.310546875,-0.076171875,-0.6015625,-8.63671875,0.75390625,1.0
4765298,,,,,,,,-1.36328125,0.74609375,-0.55078125,0.158203125,-0.34375,-0.046875,-0.44921875,-8.67578125,0.71484375,1.0
4765299,,,,,,,,-1.140625,0.9296875,-0.71875,0.189453125,-0.404296875,-0.025390625,-0.21875,-8.48828125,0.5625,1.0
4765300,36.013398,129.31950049999998,81.17866511767639,110.7376964013917,1.0,189.0,0.0,-0.95703125,1.046875,-0.7734375,0.177734375,-0.2265625,-0.212890625,-0.10546875,-7.72265625,0.5234375,1.0
4765301,,,,,,,,-0.8125,1.0390625,-0.8671875,0.21875,-0.46484375,-0.0234375,0.125,-8.37109375,0.4453125,1.0
4765302,,,,,,,,-0.66796875,1.11328125,-0.8828125,0.21484375,-0.478515625,-0.029296875,0.27734375,-8.29296875,0.4453125,1.0
4765303,,,,,,,,-0.53125,1.0390625,-0.97265625,0.203125,-0.490234375,-0.033203125,0.4296875,-8.3671875,0.37109375,1.0
4765304,,,,,,,,-0.33984375,0.87109375,-1.09765625,0.19140625,-0.484375,-0.048828125,0.62109375,-8.515625,0.25390625,1.0
4765305,,,,,,,,-0.29296875,0.75390625,-1.11328125,0.126953125,-0.48046875,-0.08203125,0.69921875,-8.6328125,0.25390625,1.0
4765306,,,,,,,,-0.22265625,0.6328125,-1.04296875,0.111328125,-0.47265625,-0.09375,0.77734375,-8.75390625,0.33203125,1.0
4765307,,,,,,,,-0.203125,0.5546875,-0.9375,0.072265625,-0.455078125,-0.107421875,0.8125,-8.83203125,0.4453125,1.0
4765308,,,,,,,,-0.2265625,0.39453125,-0.8515625,0.04296875,-0.443359375,-0.115234375,0.8125,-8.9765625,0.5234375,1.0
4765309,,,,,,,,-0.2265625,0.31640625,-0.8125,0.03515625,-0.43359375,-0.1171875,0.8125,-9.0546875,0.5625,1.0
4765310,36.013397000000005,129.31950033333334,81.16364140649509,110.62673701368607,1.0,191.0,,-0.1328125,0.01171875,-0.8125,0.017578125,-0.4296875,-0.11328125,-0.10546875,-7.72265625,0.5234375,1.0
4765311,,,,,,,,0.04296875,-0.33203125,-0.65234375,-0.01171875,-0.421875,-0.111328125,1.12109375,-9.703125,0.71484375,1.0
4765312,,,,,,,,0.06640625,-0.52734375,-0.578125,-0.037109375,-0.388671875,-0.111328125,1.16015625,-9.90234375,0.7890625,1.0
4765313,,,,,,,,0.1328125,-0.87890625,-0.40625,-0.064453125,-0.357421875,-0.095703125,1.234375,-10.24609375,0.9453125,1.0
4765314,,,,,,,,0.08203125,-1.18359375,-0.390625,-0.087890625,-0.3125,-0.076171875,1.19921875,-10.546875,0.9453125,1.0
4765315,,,,,,,,0.03515625,-1.0703125,-0.4609375,-0.103515625,-0.291015625,-0.056640625,1.16015625,-10.4375,0.8671875,1.0
4765316,,,,,,,,-0.12890625,-0.83984375,-0.59765625,-0.099609375,-0.267578125,-0.03125,1.00390625,-10.203125,0.71484375,1.0
4765317,,,,,,,,-0.48828125,-0.37890625,-0.8515625,-0.109375,-0.251953125,-0.009765625,0.66015625,-9.7421875,0.4453125,1.0
4765318,,,,,,,,-0.86328125,0.03515625,-0.90234375,-0.134765625,-0.212890625,0.029296875,0.27734375,-9.32421875,0.37109375,1.0
4765319,,,,,,,,-1.09375,0.00390625,-0.96484375,-0.193359375,-0.2109375,0.0546875,0.046875,-9.36328125,0.29296875,1.0
4765320,36.013396166666666,129.31950016666667,81.14861752207223,110.53427083426982,1.0,196.0,,-1.3984375,-0.6875,-0.828125,0.017578125,-0.4296875,-0.11328125,-0.10546875,-7.72265625,0.5234375,1.0
4765321,,,,,,,,-1.31640625,-1.58984375,-0.7265625,-0.494140625,-0.34765625,0.109375,-0.18359375,-10.96875,0.4453125,1.0
4765322,,,,,,,,-0.6953125,-2.234375,0.06640625,-0.591796875,-0.4765625,0.125,0.4296875,-11.625,1.17578125,1.0
4765323,,,,,,,,-0.2265625,-3.34375,0.6796875,-0.638671875,-0.529296875,0.130859375,0.890625,-12.73828125,1.75,1.0
4765324,,,,,,,,0.59375,-5.85546875,1.28515625,-0.82421875,-0.6640625,0.1875,1.6953125,-15.26171875,2.24609375,1.0
4765325,,,,,,,,1.51953125,-5.88671875,1.984375,-0.810546875,-0.78515625,0.1640625,2.61328125,-15.296875,2.859375,1.0
4765326,,,,,,,,2.2265625,-3.390625,1.93359375,-0.431640625,-0.791015625,0.109375,3.3046875,-12.81640625,2.74609375,1.0
4765327,,,,,,,,1.8046875,-0.73828125,1.12109375,0.08984375,-0.65234375,0.048828125,2.8828125,-10.1640625,1.90234375,1.0
4765328,,,,,,,,1.34375,-0.125,0.76953125,0.255859375,-0.6015625,0.025390625,2.421875,-9.55859375,1.55859375,1.0
4765329,,,,,,,,0.33984375,-0.546875,1.08984375,0.349609375,-0.603515625,0.02734375,1.42578125,-9.98046875,1.90234375,1.0
4765330,36.01339533333333,129.3195,81.13359363627355,110.44180465327887,1.0,196.0,,-0.2734375,-1.3125,1.48046875,0.017578125,-0.4296875,-0.11328125,0.8125,-10.7421875,2.32421875,1.0
4765331,,,,,,,,-0.6171875,-1.8515625,2.078125,0.32421875,-0.744140625,0.05078125,0.46875,-11.28515625,2.9375,1.0
4765332,,,,,,,,-0.5390625,-1.78125,2.046875,0.42578125,-0.8984375,0.05859375,0.546875,-11.203125,2.9375,1.0
4765333,,,,,,,,0.03515625,-1.3203125,1.71484375,0.552734375,-0.974609375,0.0703125,1.12109375,-10.74609375,2.62890625,1.0
4765334,,,,,,,,0.33984375,-0.9375,1.5,0.58203125,-0.970703125,0.08984375,1.42578125,-10.359375,2.4375,1.0
4765335,,,,,,,,0.33203125,-0.40234375,1.18359375,0.5546875,-0.921875,0.130859375,1.42578125,-9.82421875,2.16796875,1.0
4765336,,,,,,,,0.33984375,-0.09375,1.03125,0.50390625,-0.923828125,0.1796875,1.42578125,-9.51953125,2.0546875,1.0
4765337,,,,,,,,0.34765625,0.05859375,0.77734375,0.46875,-0.947265625,0.19921875,1.42578125,-9.36328125,1.82421875,1.0
4765338,,,,,,,,0.51171875,-0.140625,0.625,0.375,-1.015625,0.23046875,1.58203125,-9.55859375,1.7109375,1.0
4765339,,,,,,,,0.6796875,-0.2578125,0.5625,0.31640625,-1.044921875,0.2421875,1.734375,-9.67578125,1.671875,1.0
4765340,36.013394166666664,129.31949983333334,81.11857009250461,110.31235205856154,1.1,194.0,,0.65625,0.1328125,0.5234375,0.3125,-1.01953125,0.23828125,1.6953125,-9.29296875,1.671875,1.0
4765341,,,,,,,,0.671875,0.671875,0.39453125,0.361328125,-1.00390625,0.228515625,1.6953125,-8.75,1.55859375,1.0
4765342,,,,,,,,0.6796875,0.9375,0.26953125,0.396484375,-1.0,0.224609375,1.6953125,-8.48828125,1.44140625,1.0
4765343,,,,,,,,0.7265625,1.58984375,-0.06640625,0.45703125,-0.96875,0.22265625,1.734375,-7.83203125,1.13671875,1.0
4765344,,,,,,,,0.88671875,1.97265625,-0.18359375,0.48046875,-0.955078125,0.22265625,1.88671875,-7.4453125,1.05859375,1.0
4765345,,,,,,,,1.046875,2.28125,-0.30078125,0.486328125,-0.947265625,0.220703125,2.0390625,-7.14453125,0.98046875,1.0
4765346,,,,,,,,1.31640625,2.46484375,-0.390625,0.4765625,-0.943359375,0.208984375,2.30859375,-6.94921875,0.90625,1.0
4765347,,,,,,,,1.4453125,2.6484375,-0.4375,0.435546875,-0.921875,0.205078125,2.421875,-6.7578125,0.90625,1.0
4765348,,,,,,,,1.53125,2.953125,-0.4296875,0.41015625,-0.884765625,0.181640625,2.5,-6.453125,0.9453125,1.0
4765349,,,,,,,,1.5703125,2.9921875,-0.4453125,0.408203125,-0.857421875,0.177734375,2.5390625,-6.4140625,0.9453125,1.0
4765350,36.01339316666667,129.3194995,81.088521637901,110.20139253180149,1.0,193.0,,1.68359375,2.90625,-0.75390625,0.3125,-1.01953125,0.23828125,2.65234375,-6.49609375,0.67578125,1.0
4765351,,,,,,,,1.8359375,2.78515625,-0.9375,0.38671875,-0.79296875,0.158203125,2.8046875,-6.6015625,0.5234375,1.0
4765352,,,,,,,,2.03515625,2.5078125,-1.15234375,0.33984375,-0.740234375,0.14453125,2.99609375,-6.875,0.33203125,1.0
4765353,,,,,,,,2.14453125,2.40234375,-1.21484375,0.279296875,-0.6640625,0.123046875,3.11328125,-6.98828125,0.29296875,1.0
4765354,,,,,,,,1.9609375,2.1328125,-1.16015625,0.234375,-0.544921875,0.107421875,2.921875,-7.26171875,0.37109375,1.0
4765355,,,,,,,,1.76171875,1.93359375,-0.94140625,0.201171875,-0.408203125,0.103515625,2.73046875,-7.44921875,0.59765625,1.0
4765356,,,,,,,,1.609375,1.7421875,-0.71875,0.1953125,-0.34765625,0.087890625,2.578125,-7.640625,0.828125,1.0
4765357,,,,,,,,1.4609375,1.65625,-0.50390625,0.203125,-0.244140625,0.09375,2.421875,-7.71875,1.05859375,1.0
4765358,,,,,,,,1.42578125,1.50390625,-0.328125,0.2265625,-0.1796875,0.10546875,2.38671875,-7.87109375,1.25,1.0
4765359,,,,,,,,1.44140625,1.23046875,-0.3984375,0.248046875,-0.150390625,0.119140625,2.38671875,-8.1328125,1.2109375,1.0
4765360,36.01339233333333,129.31949983333334,81.11857197137292,110.10892676817997,0.9,187.0,,1.5234375,0.8671875,-0.61328125,0.20703125,-0.169921875,0.134765625,2.4609375,-8.48828125,1.01953125,1.0
4765361,,,,,,,,1.5703125,0.5625,-0.7890625,0.1875,-0.154296875,0.134765625,2.5,-8.79296875,0.8671875,1.0
4765362,,,,,,,,1.5078125,0.28515625,-0.734375,0.15234375,-0.107421875,0.138671875,2.421875,-9.0546875,0.9453125,1.0
4765363,,,,,,,,1.47265625,0.1328125,-0.66796875,0.142578125,-0.064453125,0.138671875,2.38671875,-9.2109375,1.01953125,1.0
4765364,,,,,,,,1.44921875,-0.05859375,-0.4453125,0.14453125,-0.02734375,0.13671875,2.34765625,-9.40234375,1.25,1.0
4765365,,,,,,,,1.50390625,-0.2578125,-0.31640625,0.1484375,-0.037109375,0.126953125,2.38671875,-9.59375,1.40234375,1.0
4765366,,,,,,,,1.5390625,-0.37109375,-0.28515625,0.16015625,-0.046875,0.123046875,2.421875,-9.703125,1.44140625,1.0
4765367,,,,,,,,1.51171875,-0.3359375,-0.40625,0.177734375,-0.052734375,0.1171875,2.38671875,-9.67578125,1.328125,1.0
4765368,,,,,,,,1.40234375,-0.3046875,-0.5078125,0.1875,-0.044921875,0.1171875,2.26953125,-9.63671875,1.25,1.0
4765369,,,,,,,,1.1796875,-0.50390625,-0.63671875,0.169921875,-0.025390625,0.11328125,2.0390625,-9.8203125,1.13671875,1.0
4765370,36.013391166666665,129.31950016666667,81.14862264674419,109.97947458858928,0.9,179.0,,0.921875,-0.6953125,-0.60546875,0.20703125,-0.169921875,0.134765625,2.4609375,-8.48828125,1.01953125,1.0
4765371,,,,,,,,0.57421875,-0.83984375,-0.5078125,0.056640625,-0.025390625,0.1015625,1.42578125,-10.1640625,1.2890625,1.0
4765372,,,,,,,,0.27734375,-0.84765625,-0.46875,-0.001953125,-0.056640625,0.1015625,1.12109375,-10.16796875,1.328125,1.0
4765373,,,,,,,,0.1328125,-0.53515625,-0.38671875,-0.04296875,-0.115234375,0.09765625,0.96875,-9.86328125,1.40234375,1.0
4765374,,,,,,,,0.16796875,-0.37890625,-0.4140625,-0.076171875,-0.19140625,0.08984375,1.00390625,-9.70703125,1.3671875,1.0
4765375,,,,,,,,0.4296875,-0.00390625,-0.46875,-0.150390625,-0.306640625,0.072265625,1.2734375,-9.32421875,1.2890625,1.0
4765376,,,,,,,,0.62890625,0.1171875,-0.46875,-0.185546875,-0.3359375,0.060546875,1.46484375,-9.2109375,1.2890625,1.0
4765377,,,,,,,,0.9375,0.1953125,-0.4375,-0.263671875,-0.375,0.046875,1.7734375,-9.13671875,1.2890625,1.0
4765378,,,,,,,,1.1953125,-0.56640625,-0.40625,-0.36328125,-0.396484375,0.02734375,2.0390625,-9.8984375,1.2890625,1.0
4765379,,,,,,,,1.07421875,-1.16796875,-0.58984375,-0.486328125,-0.408203125,0.009765625,1.92578125,-10.5078125,1.05859375,1.0
4765380,36.01339016666667,129.31950083333334,81.20872263470974,109.86851589615782,1.0,171.0,,0.71484375,-1.46875,-0.2265625,0.20703125,-0.169921875,0.134765625,1.58203125,-10.8203125,1.3671875,1.0
4765381,,,,,,,,0.54296875,-1.53515625,0.4921875,-0.697265625,-0.423828125,-0.076171875,1.42578125,-10.890625,2.015625,1.0
4765382,,,,,,,,0.375,-2.1796875,0.984375,-0.68359375,-0.33203125,-0.095703125,1.2734375,-11.55078125,2.4375,1.0
4765383,,,,,,,,-0.12109375,-3.28515625,1.015625,-0.693359375,-0.310546875,-0.087890625,0.77734375,-12.65625,2.4375,1.0
4765384,,,,,,,,-1.12109375,-4.109375,1.5859375,-0.748046875,-0.361328125,-0.0625,-0.18359375,-13.50390625,2.8984375,1.0
4765385,,,,,,,,-1.85546875,-2.65625,2.8046875,-0.607421875,-0.37890625,-0.060546875,-0.91015625,-12.046875,4.046875,1.0
4765386,,,,,,,,-1.79296875,-0.76953125,3.01171875,-0.072265625,-0.4921875,-0.04296875,-0.83203125,-10.16796875,4.19921875,1.0
4765387,,,,,,,,-1.2734375,-0.1484375,2.19921875,0.142578125,-0.607421875,0.00390625,-0.296875,-9.55859375,3.39453125,1.0
4765388,,,,,,,,-1.08203125,-0.2265625,2.0859375,0.16015625,-0.64453125,0.033203125,-0.10546875,-9.6328125,3.28125,1.0
4765389,,,,,,,,-0.09375,-1.18359375,2.1640625,0.091796875,-0.673828125,0.0546875,0.890625,-10.58984375,3.359375,1.0
4765390,36.01338933333333,129.31950116666667,81.23877297005149,109.77605013253819,1.0,164.0,,0.13671875,-1.375,2.390625,0.033203125,-0.658203125,0.0390625,1.12109375,-10.78125,3.5859375,1.0
4765391,,,,,,,,0.2421875,-1.375,2.390625,0.068359375,-0.603515625,0.00390625,1.234375,-10.78515625,3.5859375,1.0
4765392,,,,,,,,0.19140625,-1.10546875,2.19140625,0.146484375,-0.56640625,-0.033203125,1.19921875,-10.51171875,3.39453125,1.0
4765393,,,,,,,,0.06640625,-0.83984375,2.0390625,0.171875,-0.56640625,-0.0625,1.08203125,-10.2421875,3.2421875,1.0
4765394,,,,,,,,-0.1015625,-0.15625,1.52734375,0.185546875,-0.58984375,-0.107421875,0.9296875,-9.5546875,2.74609375,1.0
4765395,,,,,,,,-0.32421875,0.07421875,1.39453125,0.123046875,-0.58203125,-0.1484375,0.73828125,-9.3203125,2.62890625,1.0
4765396,,,,,,,,-0.578125,-0.04296875,1.38671875,0.056640625,-0.580078125,-0.158203125,0.5078125,-9.4375,2.62890625,1.0
4765397,,,,,,,,-0.5234375,0.06640625,1.28125,0.017578125,-0.623046875,-0.138671875,0.5859375,-9.32421875,2.515625,1.0
4765398,,,,,,,,-0.41796875,0.37109375,0.93359375,0.017578125,-0.654296875,-0.13671875,0.69921875,-9.015625,2.16796875,1.0
4765399,,,,,,,,-0.2109375,0.72265625,0.59765625,0.0234375,-0.71484375,-0.12890625,0.9296875,-8.67578125,1.82421875,1.0
4765400,36.013388666666664,129.3195015,81.26882313532874,109.70207757753855,0.9,160.0,0.0,-0.05078125,1.03125,0.140625,0.01953125,-0.7421875,-0.111328125,1.12109375,-10.78125,3.5859375,1.0
4765401,,,,,,,,0.23046875,1.21484375,-0.05078125,0.001953125,-0.755859375,-0.109375,1.42578125,-8.171875,1.17578125,1.0
4765402,,,,,,,,0.26171875,1.2890625,-0.08203125,-0.00390625,-0.751953125,-0.11328125,1.46484375,-8.1015625,1.13671875,1.0
4765403,,,,,,,,0.27734375,1.51953125,-0.23046875,0.0,-0.751953125,-0.115234375,1.50390625,-7.8671875,0.98046875,1.0
4765404,,,,,,,,0.23046875,1.51953125,-0.3046875,0.01171875,-0.75390625,-0.111328125,1.46484375,-7.87109375,0.90625,1.0
4765405,,,,,,,,0.1328125,1.7109375,-0.48828125,0.041015625,-0.734375,-0.099609375,1.390625,-7.68359375,0.71484375,1.0
4765406,,,,,,,,0.0390625,1.75,-0.51953125,0.060546875,-0.734375,-0.078125,1.3125,-7.64453125,0.67578125,1.0
4765407,,,,,,,,-0.0078125,1.7890625,-0.59765625,0.076171875,-0.720703125,-0.068359375,1.2734375,-7.6015625,0.59765625,1.0
4765408,,,,,,,,-0.26171875,1.6640625,-0.7890625,0.10546875,-0.685546875,-0.033203125,1.04296875,-7.71875,0.40625,1.0
4765409,,,,,,,,-0.34375,1.58984375,-0.7890625,0.107421875,-0.662109375,-0.021484375,0.96875,-7.79296875,0.40625,1.0
4765410,36.013388,129.31950166666667,81.28384856032645,109.62810488432214,0.8,159.0,,-1.01171875,0.9765625,-0.56640625,0.01953125,-0.7421875,-0.111328125,1.12109375,-10.78125,3.5859375,1.0
4765411,,,,,,,,-1.08984375,0.8984375,-0.3828125,0.17578125,-0.634765625,0.1015625,0.23828125,-8.484375,0.828125,1.0
4765412,,,,,,,,-1.05078125,0.73828125,-0.359375,0.20703125,-0.671875,0.130859375,0.27734375,-8.6328125,0.8671875,1.0
4765413,,,,,,,,-0.8984375,0.69921875,-0.3671875,0.23828125,-0.70703125,0.15625,0.4296875,-8.671875,0.8671875,1.0
4765414,,,,,,,,-0.69921875,0.66015625,-0.3828125,0.263671875,-0.734375,0.181640625,0.62109375,-8.7109375,0.8671875,1.0
4765415,,,,,,,,-0.4609375,0.890625,-0.51953125,0.29296875,-0.76171875,0.205078125,0.8515625,-8.48828125,0.75390625,1.0
4765416,,,,,,,,-0.4140625,1.0078125,-0.55859375,0.306640625,-0.76953125,0.203125,0.890625,-8.3671875,0.71484375,1.0
4765417,,,,,,,,-0.29296875,1.19140625,-0.69921875,0.330078125,-0.78125,0.205078125,1.00390625,-8.171875,0.59765625,1.0
4765418,,,,,,,,-0.28515625,1.15234375,-0.8359375,0.330078125,-0.775390625,0.203125,1.00390625,-8.2109375,0.484375,1.0
4765419,,,,,,,,-0.19921875,1.03125,-1.08984375,0.30859375,-0.78125,0.203125,1.08203125,-8.33203125,0.25390625,1.0
4765420,36.01338716666667,129.319502,81.31389890022446,109.53563912273245,0.9,155.0,,-0.16015625,0.9140625,-1.06640625,0.01953125,-0.7421875,-0.111328125,1.12109375,-10.78125,3.5859375,1.0
4765421,,,,,,,,0.0390625,0.83984375,-1.08203125,0.263671875,-0.8125,0.18359375,1.3125,-8.515625,0.29296875,1.0
4765422,,,,,,,,0.09375,0.90625,-1.01171875,0.24609375,-0.798828125,0.1640625,1.3515625,-8.4453125,0.37109375,1.0
4765423,,,,,,,,0.1328125,0.984375,-0.875,0.224609375,-0.76171875,0.142578125,1.390625,-8.37109375,0.5234375,1.0
4765424,,,,,,,,0.24609375,0.8671875,-0.921875,0.205078125,-0.71484375,0.123046875,1.50390625,-8.484375,0.484375,1.0
4765425,,,,,,,,0.55078125,0.70703125,-0.9375,0.154296875,-0.69921875,0.109375,1.80859375,-8.63671875,0.484375,1.0
4765426,,,,,,,,0.859375,0.59375,-0.82421875,0.10546875,-0.693359375,0.095703125,2.1171875,-8.75,0.59765625,1.0
4765427,,,,,,,,1.15625,0.171875,-0.77734375,0.041015625,-0.66015625,0.0703125,2.421875,-9.171875,0.63671875,1.0
4765428,,,,,,,,1.15625,-0.05859375,-0.80859375,0.017578125,-0.634765625,0.068359375,2.421875,-9.3984375,0.59765625,1.0
4765429,,,,,,,,1.07421875,-0.82421875,-0.609375,-0.044921875,-0.498046875,0.064453125,2.34765625,-10.16796875,0.7890625,1.0
4765430,36.01338616666667,129.31950216666667,81.32892466830174,109.4246800128875,1.0,156.0,,0.5,-1.24609375,-0.29296875,-0.05078125,-0.373046875,0.064453125,1.7734375,-10.58984375,1.09765625,1.0
4765431,,,,,,,,0.30859375,-1.21484375,-0.20703125,-0.021484375,-0.271484375,0.068359375,1.58203125,-10.546875,1.17578125,1.0
4765432,,,,,,,,0.19921875,-1.17578125,-0.19921875,-0.017578125,-0.240234375,0.080078125,1.46484375,-10.51171875,1.17578125,1.0
4765433,,,,,,,,0.0859375,-0.91015625,-0.27734375,-0.001953125,-0.193359375,0.0859375,1.3515625,-10.2421875,1.09765625,1.0
4765434,,,,,,,,-0.2890625,-0.37109375,-0.421875,-0.005859375,-0.1796875,0.087890625,0.96875,-9.703125,0.9453125,1.0
4765435,,,,,,,,-1.01171875,0.0546875,-0.70703125,-0.111328125,-0.1796875,0.103515625,0.23828125,-9.29296875,0.63671875,1.0
4765436,,,,,,,,-1.15625,0.1796875,-0.7578125,-0.228515625,-0.296875,0.107421875,0.0859375,-9.171875,0.5625,1.0
4765437,,,,,,,,-1.5390625,0.1796875,-0.8515625,-0.306640625,-0.39453125,0.11328125,-0.296875,-9.17578125,0.4453125,1.0
4765438,,,,,,,,-1.68359375,0.02734375,-0.90234375,-0.353515625,-0.443359375,0.119140625,-0.44921875,-9.3203125,0.37109375,1.0
4765439,,,,,,,,-1.67578125,-0.38671875,-1.09375,-0.439453125,-0.541015625,0.140625,-0.44921875,-9.7421875,0.140625,1.0
4765440,36.0133855,129.31950266666666,81.37399957582782,109.35070759709757,0.9,153.0,,-1.6015625,-0.65625,-1.0625,-0.05078125,-0.373046875,0.064453125,-0.375,-10.01953125,0.140625,1.0
4765441,,,,,,,,-1.36328125,-0.953125,-1.16015625,-0.58203125,-0.7265625,0.185546875,-0.14453125,-10.3203125,-0.01171875,1.0
4765442,,,,,,,,-0.89453125,-1.28515625,-0.77734375,-0.66015625,-0.861328125,0.212890625,0.31640625,-10.66796875,0.29296875,1.0
4765443,,,,,,,,-0.54296875,-2.00390625,-0.36328125,-0.70703125,-0.94140625,0.23828125,0.66015625,-11.39453125,0.63671875,1.0
4765444,,,,,,,,0.36328125,-4.4765625,0.26171875,-0.869140625,-0.9921875,0.310546875,1.54296875,-13.88671875,1.13671875,1.0
4765445,,,,,,,,1.4296875,-5.8046875,1.47265625,-0.931640625,-1.111328125,0.318359375,2.578125,-15.23046875,2.24609375,1.0
4765446,,,,,,,,1.8203125,-5.22265625,1.90234375,-0.87109375,-1.201171875,0.302734375,2.9609375,-14.6484375,2.62890625,1.0
4765447,,,,,,,,2.41796875,-1.11328125,1.52734375,-0.482421875,-1.26953125,0.26171875,3.53515625,-10.55078125,2.16796875,1.0
4765448,,,,,,,,1.62109375,-0.38671875,0.52734375,0.060546875,-1.109375,0.181640625,2.73046875,-9.82421875,1.13671875,1.0
4765449,,,,,,,,0.9765625,-1.265625,0.6796875,0.33984375,-0.974609375,0.146484375,2.078125,-10.703125,1.2890625,1.0
4765450,36.01338483333333,129.319503,81.4040497436954,109.27673504288286,0.9,150.0,,0.06640625,-2.30078125,1.65234375,-0.05078125,-0.373046875,0.064453125,1.16015625,-11.734375,2.28515625,1.0
4765451,,,,,,,,-0.42578125,-3.18359375,2.625,0.349609375,-1.078125,0.14453125,0.66015625,-12.62109375,3.28125,1.0
4765452,,,,,,,,-0.15625,-3.22265625,2.671875,0.5390625,-1.181640625,0.1953125,0.9296875,-12.65625,3.359375,1.0
4765453,,,,,,,,-0.1484375,-3.22265625,2.65625,0.80078125,-1.208984375,0.25,1.19921875,-11.8515625,2.66796875,1.0
4765454,,,,,,,,0.2109375,-1.95703125,1.671875,0.978515625,-1.125,0.330078125,1.3515625,-10.51171875,2.16796875,1.0
4765455,,,,,,,,0.296875,-1.07421875,1.35546875,1.025390625,-1.005859375,0.40234375,1.234375,-10.125,2.09375,1.0
4765456,,,,,,,,0.2109375,-0.69921875,1.203125,1.001953125,-0.974609375,0.42578125,1.04296875,-9.703125,2.0546875,1.0
4765457,,,,,,,,-0.30078125,0.41015625,0.96484375,0.828125,-1.068359375,0.47265625,0.890625,-8.83203125,1.7109375,1.0
4765458,,,,,,,,-0.0703125,0.6015625,0.6640625,0.658203125,-1.224609375,0.474609375,1.16015625,-9.17578125,1.59375,1.0
4765459,,,,,,,,0.40625,0.1484375,0.36328125,0.455078125,-1.380859375,0.455078125,1.390625,-9.09765625,1.59375,1.0
4765460,36.013384333333335,129.3195031666667,81.41907500380589,109.22125555747175,0.9,150.0,,0.06640625,-2.30078125,1.65234375,0.42578125,-1.390625,0.44921875,1.3515625,-8.9375,1.55859375,1.0
4765461,,,,,,,,0.484375,0.640625,0.23828125,0.431640625,-1.35546875,0.419921875,1.2734375,-8.41015625,1.3671875,1.0
4765462,,,,,,,,0.4375,1.21484375,0.0546875,0.474609375,-1.318359375,0.400390625,1.234375,-7.94921875,1.25,1.0
4765463,,,,,,,,0.453125,1.7109375,-0.08984375,0.509765625,-1.30859375,0.396484375,1.42578125,-7.33203125,1.09765625,1.0
4765464,,,,,,,,0.73828125,2.25,-0.20703125,0.515625,-1.326171875,0.40234375,1.6953125,-7.06640625,1.09765625,1.0
4765465,,,,,,,,1.3828125,2.5859375,-0.5703125,0.45703125,-1.421875,0.392578125,2.26953125,-6.8359375,0.75390625,1.0
4765466,,,,,,,,1.6640625,2.5859375,-0.67578125,0.353515625,-1.44921875,0.3828125,2.5,-6.9453125,0.59765625,1.0
4765467,,,,,,,,1.87890625,2.46484375,-0.79296875,0.291015625,-1.41015625,0.361328125,2.69140625,-6.91796875,0.5625,1.0
4765468,,,,,,,,2.0859375,2.5,-0.921875,0.24609375,-1.349609375,0.330078125,2.8046875,-6.9140625,0.5234375,1.0
4765469,,,,,,,,2.21875,2.578125,-1.015625,0.232421875,-1.25390625,0.302734375,2.921875,-6.83984375,0.4453125,1.0
4765470,36.01338366666666,129.3195035,81.44912517039714,109.14728300418005,0.9,147.0,,2.33203125,2.30859375,-1.26171875,0.208984375,-1.173828125,0.2734375,3.03515625,-7.1015625,0.21484375,1.0
4765471,,,,,,,,2.38671875,1.8125,-1.16015625,0.140625,-0.99609375,0.216796875,3.07421875,-7.60546875,0.33203125,1.0
4765472,,,,,,,,2.34765625,1.4296875,-1.12890625,0.125,-0.94140625,0.205078125,3.03515625,-7.98828125,0.37109375,1.0
4765473,,,,,,,,2.1171875,1.078125,-0.9375,0.12890625,-0.8046875,0.1953125,2.8046875,-8.33203125,0.5625,1.0
4765474,,,,,,,,1.97265625,0.921875,-0.76171875,0.166015625,-0.626953125,0.173828125,2.65234375,-8.484375,0.75390625,1.0
4765475,,,,,,,,1.859375,0.88671875,-0.625,0.24609375,-0.455078125,0.150390625,2.5390625,-8.515625,0.90625,1.0
4765476,,,,,,,,1.90625,0.87890625,-0.55859375,0.29296875,-0.390625,0.15234375,2.578125,-8.51953125,0.98046875,1.0
4765477,,,,,,,,1.828125,0.79296875,-0.58984375,0.396484375,-0.30078125,0.158203125,2.5,-8.59375,0.98046875,1.0
4765478,,,,,,,,1.8046875,0.75390625,-0.7421875,0.466796875,-0.24609375,0.158203125,2.4609375,-8.63671875,0.8671875,1.0
4765479,,,,,,,,1.765625,0.5546875,-0.84375,0.4765625,-0.220703125,0.15234375,2.421875,-8.828125,0.7890625,1.0
4765480,36.01338316666667,129.31950466666666,81.55429887812367,109.09180435569004,1.0,138.0,,1.66796875,0.35546875,-0.8671875,0.447265625,-0.162109375,0.1484375,3.03515625,-7.1015625,0.21484375,1.0
4765481,,,,,,,,1.62890625,0.1484375,-0.62890625,0.412109375,-0.1328125,0.123046875,2.26953125,-9.2109375,1.09765625,1.0
4765482,,,,,,,,1.55859375,0.0625,-0.515625,0.40625,-0.109375,0.11328125,2.19140625,-9.2890625,1.25,1.0
4765483,,,,,,,,1.484375,-0.12890625,-0.28515625,0.396484375,-0.08984375,0.1171875,2.1171875,-9.48046875,1.51953125,1.0
4765484,,,,,,,,1.56640625,-0.25,-0.25,0.3984375,-0.09375,0.109375,2.19140625,-9.59375,1.59375,1.0
4765485,,,,,,,,1.69140625,-0.265625,-0.28125,0.388671875,-0.126953125,0.11328125,2.30859375,-9.59765625,1.59375,1.0
4765486,,,,,,,,1.8125,-0.34375,-0.46484375,0.36328125,-0.150390625,0.109375,2.421875,-9.671875,1.44140625,1.0
4765487,,,,,,,,1.8046875,-0.2421875,-0.49609375,0.330078125,-0.1171875,0.095703125,2.421875,-9.5546875,1.44140625,1.0
4765488,,,,,,,,1.70703125,-0.2421875,-0.56640625,0.283203125,-0.056640625,0.080078125,2.30859375,-9.5546875,1.40234375,1.0
4765489,,,,,,,,1.546875,-0.2890625,-0.6640625,0.203125,-0.0078125,0.078125,2.15625,-9.59765625,1.328125,1.0
4765490,36.013382666666665,129.31950566666669,81.64444784491538,109.03632556819161,0.9,133.0,,1.24609375,-0.328125,-0.75,0.029296875,-0.01953125,0.083984375,1.65625,-9.59765625,1.2890625,1.0
4765491,,,,,,,,0.75,-0.2109375,-0.6328125,-0.07421875,-0.02734375,0.06640625,1.3515625,-9.51953125,1.3671875,1.0
4765492,,,,,,,,0.60546875,-0.25,-0.65625,-0.169921875,-0.078125,0.080078125,1.16015625,-9.67578125,1.328125,1.0
4765493,,,,,,,,0.48828125,-0.59765625,-0.44921875,-0.3046875,-0.1640625,0.083984375,1.08203125,-9.90234375,1.51953125,1.0
4765494,,,,,,,,0.56640625,-1.0859375,-0.1953125,-0.419921875,-0.23046875,0.095703125,1.19921875,-10.82421875,1.86328125,1.0
4765495,,,,,,,,0.7578125,-2.6875,0.26953125,-0.556640625,-0.33984375,0.134765625,1.2734375,-12.66015625,2.24609375,1.0
4765496,,,,,,,,0.6796875,-3.33203125,0.37109375,-0.615234375,-0.39453125,0.140625,1.19921875,-13.234375,2.3984375,1.0
4765497,,,,,,,,0.44921875,-4.12890625,1.125,-0.611328125,-0.4765625,0.134765625,1.04296875,-13.4609375,2.9375,1.0
4765498,,,,,,,,-0.35546875,-2.33984375,1.8515625,-0.33203125,-0.302734375,0.078125,0.23828125,-11.6953125,3.5859375,1.0
4765499,,,,,,,,-0.73828125,-1.8828125,1.03515625,-0.099609375,-0.197265625,0.10546875,-0.14453125,-11.24609375,2.74609375,1.0
4765500,36.013382,129.31950666666668,81.73459698524708,108.96235357462355,1.1,122.0,0.0,-1.08203125,-1.84375,1.30859375,0.029296875,-0.01953125,0.083984375,-0.48828125,-11.20703125,3.01171875,1.0
4765501,,,,,,,,-1.41796875,-0.9453125,2.296875,-0.294921875,-0.3359375,0.15234375,-0.83203125,-10.32421875,3.96875,1.0
4765502,,,,,,,,-1.41015625,0.125,2.8203125,-0.095703125,-0.25390625,0.14453125,-0.83203125,-9.25390625,4.46875,1.0
4765503,,,,,,,,-1.37109375,0.5078125,2.55859375,0.06640625,-0.265625,0.1171875,-0.79296875,-8.8671875,4.19921875,1.0
4765504,,,,,,,,-0.59765625,0.46875,2.09375,0.033203125,-0.388671875,0.09765625,-0.02734375,-8.91015625,3.7421875,1.0
4765505,,,,,,,,0.015625,0.2109375,2.015625,-0.091796875,-0.51953125,0.06640625,0.5859375,-9.171875,3.6640625,1.0
4765506,,,,,,,,0.3515625,0.01953125,1.91015625,-0.13671875,-0.55078125,0.0390625,0.9296875,-9.36328125,3.55078125,1.0
4765507,,,,,,,,0.6484375,-0.6328125,1.81640625,-0.1875,-0.5546875,0.0078125,1.234375,-10.01953125,3.43359375,1.0
4765508,,,,,,,,0.48046875,-0.90234375,2.03125,-0.1953125,-0.49609375,-0.017578125,1.08203125,-10.28125,3.625,1.0
4765509,,,,,,,,0.234375,-0.89453125,2.1640625,-0.154296875,-0.41796875,-0.05078125,0.8515625,-10.28125,3.7421875,1.0
4765510,36.013381833333334,129.3195075,81.80972086667944,108.94386106517558,0.9,117.0,,-0.15625,-0.77734375,2.20703125,0.029296875,-0.01953125,0.083984375,-0.48828125,-11.20703125,3.01171875,1.0
4765511,,,,,,,,-0.37109375,-0.703125,2.1875,-0.068359375,-0.349609375,-0.1484375,0.27734375,-10.09765625,3.7421875,1.0
4765512,,,,,,,,-0.69140625,-0.65625,2.109375,-0.064453125,-0.353515625,-0.158203125,-0.02734375,-10.0546875,3.6640625,1.0
4765513,,,,,,,,-0.83984375,-0.65625,1.7734375,-0.046875,-0.375,-0.1640625,-0.14453125,-10.05859375,3.3203125,1.0
4765514,,,,,,,,-0.88671875,-0.578125,1.6640625,-0.041015625,-0.390625,-0.166015625,-0.18359375,-9.98046875,3.203125,1.0
4765515,,,,,,,,-0.76171875,-0.1171875,1.2421875,-0.015625,-0.4140625,-0.154296875,-0.02734375,-9.515625,2.78125,1.0
4765516,,,,,,,,-0.7421875,-0.04296875,1.16796875,0.001953125,-0.408203125,-0.15234375,0.0078125,-9.4375,2.70703125,1.0
4765517,,,,,,,,-0.6484375,0.45703125,0.9375,0.04296875,-0.390625,-0.142578125,0.125,-8.9375,2.4765625,1.0
4765518,,,,,,,,-0.5859375,0.5703125,0.9296875,0.06640625,-0.40625,-0.138671875,0.203125,-8.828125,2.4765625,1.0
4765519,,,,,,,,-0.09765625,1.453125,0.38671875,0.08203125,-0.482421875,-0.146484375,0.73828125,-7.94921875,1.94140625,1.0
4765520,36.01338116666667,129.31950783333332,81.83977103907236,108.86988851286912,0.9,117.0,,-0.08203125,1.60546875,0.26953125,0.072265625,-0.521484375,-0.16015625,0.77734375,-7.7890625,1.82421875,1.0
4765521,,,,,,,,-0.03125,1.90234375,0.03125,0.076171875,-0.564453125,-0.171875,0.8515625,-7.48828125,1.59375,1.0
4765522,,,,,,,,-0.1015625,2.01953125,-0.12890625,0.080078125,-0.583984375,-0.185546875,0.8125,-7.3671875,1.44140625,1.0
4765523,,,,,,,,-0.18359375,2.1328125,-0.2421875,0.087890625,-0.5859375,-0.181640625,0.73828125,-7.2578125,1.328125,1.0
4765524,,,,,,,,-0.375,2.2421875,-0.40234375,0.076171875,-0.583984375,-0.171875,0.5859375,-7.14453125,1.17578125,1.0
4765525,,,,,,,,-0.5703125,2.1953125,-0.51953125,0.08203125,-0.5546875,-0.1484375,0.4296875,-7.1796875,1.05859375,1.0
4765526,,,,,,,,-0.69921875,2.078125,-0.6328125,0.078125,-0.5390625,-0.1171875,0.31640625,-7.30078125,0.9453125,1.0
4765527,,,,,,,,-0.79296875,1.92578125,-0.71875,0.083984375,-0.53125,-0.080078125,0.23828125,-7.4453125,0.8671875,1.0
4765528,,,,,,,,-0.80078125,1.8046875,-0.796875,0.08203125,-0.529296875,-0.056640625,0.23828125,-7.5625,0.7890625,1.0
4765529,,,,,,,,-0.81640625,1.45703125,-0.87890625,0.064453125,-0.5390625,-0.009765625,0.23828125,-7.90625,0.71484375,1.0
4765530,36.01338066666666,129.3195085,81.89987052884229,108.8144094479643,0.8,111.0,,-0.78515625,1.11328125,-0.8046875,0.072265625,-0.521484375,-0.16015625,0.77734375,-7.7890625,1.82421875,1.0
4765531,,,,,,,,-0.78515625,0.84765625,-0.7265625,0.064453125,-0.53125,0.064453125,0.27734375,-8.51953125,0.8671875,1.0
4765532,,,,,,,,-0.8671875,0.73046875,-0.6484375,0.103515625,-0.51953125,0.0859375,0.203125,-8.63671875,0.9453125,1.0
4765533,,,,,,,,-0.90625,0.80078125,-0.7265625,0.150390625,-0.49609375,0.111328125,0.1640625,-8.55859375,0.8671875,1.0
4765534,,,,,,,,-0.9453125,1.06640625,-0.86328125,0.224609375,-0.48046875,0.126953125,0.125,-8.29296875,0.75390625,1.0
4765535,,,,,,,,-0.8984375,1.2578125,-1.03515625,0.26953125,-0.470703125,0.142578125,0.1640625,-8.1015625,0.59765625,1.0
4765536,,,,,,,,-0.859375,1.13671875,-1.09375,0.271484375,-0.47265625,0.15234375,0.203125,-8.21484375,0.5625,1.0
4765537,,,,,,,,-0.81640625,1.05859375,-1.109375,0.220703125,-0.486328125,0.1640625,0.27734375,-8.4453125,0.59765625,1.0
4765538,,,,,,,,-0.65234375,0.70703125,-0.8984375,0.193359375,-0.515625,0.15625,0.5078125,-8.7109375,0.7890625,1.0
4765539,,,,,,,,-0.4921875,0.5078125,-0.875,0.185546875,-0.537109375,0.13671875,0.69921875,-8.8671875,0.98046875,1.0
4765540,36.01338016666667,129.31950933333334,81.97499475627392,108.7589305253909,0.9,109.0,,-0.78515625,1.11328125,-0.8046875,0.220703125,-0.513671875,0.109375,0.69921875,-8.83203125,1.05859375,1.0
4765541,,,,,,,,-0.41796875,0.4296875,-0.70703125,0.23828125,-0.498046875,0.083984375,0.546875,-8.9375,0.9453125,1.0
4765542,,,,,,,,-0.453125,0.34765625,-0.875,0.205078125,-0.51953125,0.060546875,0.546875,-8.91015625,0.90625,1.0
4765543,,,,,,,,-0.41796875,0.60546875,-0.77734375,0.15234375,-0.53515625,0.0390625,0.62109375,-8.71484375,0.98046875,1.0
4765544,,,,,,,,-0.234375,0.75390625,-0.67578125,0.107421875,-0.546875,0.021484375,0.8125,-8.5546875,1.09765625,1.0
4765545,,,,,,,,0.02734375,0.4453125,-0.5625,0.033203125,-0.5546875,0.005859375,1.08203125,-8.8671875,1.2109375,1.0
4765546,,,,,,,,0.05859375,0.33203125,-0.5625,-0.013671875,-0.5546875,-0.001953125,1.12109375,-8.9765625,1.2109375,1.0
4765547,,,,,,,,0.08984375,-0.3203125,-0.5078125,-0.109375,-0.5390625,-0.005859375,1.16015625,-9.6328125,1.25,1.0
4765548,,,,,,,,-0.00390625,-0.89453125,-0.33203125,-0.18359375,-0.515625,-0.009765625,1.08203125,-10.20703125,1.40234375,1.0
4765549,,,,,,,,-0.28125,-1.1640625,-0.19140625,-0.2109375,-0.48046875,-0.013671875,0.8125,-10.4765625,1.51953125,1.0
4765550,36.01337983333334,129.31951033333334,82.06514355700153,108.72194495175512,1.0,108.0,,-0.40234375,-1.1640625,-0.16796875,0.220703125,-0.513671875,0.109375,0.69921875,-10.48046875,1.51953125,1.0
4765551,,,,,,,,-0.5625,-0.85546875,-0.22265625,-0.216796875,-0.427734375,-0.01171875,0.546875,-10.16796875,1.44140625,1.0
4765552,,,,,,,,-0.6875,-0.65625,-0.24609375,-0.21875,-0.419921875,-0.01171875,0.4296875,-9.98046875,1.40234375,1.0
4765553,,,,,,,,-1.0390625,-0.234375,-0.375,-0.216796875,-0.384765625,-0.001953125,0.0859375,-9.55859375,1.25,1.0
4765554,,,,,,,,-1.19140625,-0.15234375,-0.40625,-0.224609375,-0.373046875,0.0,-0.06640625,-9.48046875,1.2109375,1.0
4765555,,,,,,,,-1.5078125,0.1171875,-0.44921875,-0.259765625,-0.3828125,0.0234375,-0.375,-9.21484375,1.13671875,1.0
4765556,,,,,,,,-1.7421875,-0.10546875,-0.37890625,-0.373046875,-0.564453125,0.04296875,-0.6015625,-9.44140625,1.13671875,1.0
4765557,,,,,,,,-1.63671875,-1.78125,-0.578125,-0.578125,-0.83984375,0.05859375,-0.48828125,-11.12890625,0.8671875,1.0
4765558,,,,,,,,-1.29296875,-2.84765625,0.11328125,-0.71875,-1.02734375,0.048828125,-0.14453125,-12.1953125,1.48046875,1.0
4765559,,,,,,,,-0.6484375,-3.60546875,0.87890625,-0.771484375,-1.123046875,0.048828125,0.5078125,-12.9609375,2.20703125,1.0
4765560,36.0133795,129.3195113333333,82.15529235635333,108.68495937616797,1.0,106.0,,0.953125,-5.4375,1.3125,0.220703125,-0.513671875,0.109375,2.1171875,-14.80859375,2.5546875,1.0
4765561,,,,,,,,2.20703125,-6.2265625,1.45703125,-0.896484375,-1.505859375,0.111328125,3.37890625,-15.609375,2.58984375,1.0
4765562,,,,,,,,2.859375,-5.8046875,1.8125,-0.912109375,-1.544921875,0.10546875,4.03125,-15.19140625,2.8984375,1.0
4765563,,,,,,,,4.1171875,-2.4921875,1.70703125,-0.359375,-1.091796875,0.044921875,5.296875,-11.89453125,2.66796875,1.0
4765564,,,,,,,,2.0390625,-0.04296875,1.0703125,0.181640625,-0.56640625,-0.0234375,3.2265625,-9.4375,2.015625,1.0
4765565,,,,,,,,0.64453125,-0.1484375,1.69140625,0.361328125,-0.380859375,-0.05859375,1.84765625,-9.55859375,2.66796875,1.0
4765566,,,,,,,,-0.28125,-1.0390625,2.09765625,0.359375,-0.466796875,-0.060546875,0.9296875,-10.44140625,3.08984375,1.0
4765567,,,,,,,,-0.671875,-1.95703125,2.37109375,0.326171875,-0.7734375,-0.0546875,0.546875,-11.35546875,3.39453125,1.0
4765568,,,,,,,,-0.3828125,-2.15625,2.33984375,0.416015625,-1.09375,0.02734375,0.8515625,-11.55078125,3.39453125,1.0
4765569,,,,,,,,-0.0078125,-1.58203125,1.8671875,0.5078125,-1.09765625,0.05859375,1.234375,-10.96875,2.9375,1.0
4765570,36.01337866666667,129.31951216666667,82.23041693532173,108.59249403910421,1.1,112.0,,0.1484375,-0.86328125,1.55078125,0.220703125,-0.513671875,0.109375,2.1171875,-14.80859375,2.5546875,1.0
4765571,,,,,,,,-0.2734375,0.06640625,1.390625,0.69140625,-0.8203125,0.240234375,0.96875,-9.32421875,2.5546875,1.0
4765572,,,,,,,,-0.45703125,0.25,1.328125,0.6640625,-0.779296875,0.30078125,0.77734375,-9.13671875,2.515625,1.0
4765573,,,,,,,,-0.42578125,0.59375,1.12109375,0.548828125,-0.791015625,0.431640625,0.77734375,-8.7890625,2.36328125,1.0
4765574,,,,,,,,-0.18359375,0.515625,0.94921875,0.474609375,-0.833984375,0.48828125,1.00390625,-8.8671875,2.20703125,1.0
4765575,,,,,,,,0.83203125,-0.31640625,0.86328125,0.2421875,-1.00390625,0.55078125,1.96484375,-9.70703125,2.16796875,1.0
4765576,,,,,,,,1.09375,-0.578125,1.01953125,0.123046875,-1.015625,0.525390625,2.15625,-9.9765625,2.32421875,1.0
4765577,,,,,,,,1.109375,-0.33984375,0.94140625,0.1640625,-0.986328125,0.49609375,2.15625,-9.7421875,2.24609375,1.0
4765578,,,,,,,,0.9921875,0.9609375,0.23828125,0.28515625,-0.93359375,0.431640625,2.0,-8.4453125,1.55859375,1.0
4765579,,,,,,,,1.0078125,1.26953125,0.15234375,0.33984375,-0.90234375,0.408203125,2.0,-8.1328125,1.48046875,1.0
4765580,36.013377999999996,129.319513,82.30554134252048,108.51852190900428,1.0,113.0,,0.84765625,1.84375,-0.27734375,0.36328125,-0.837890625,0.36328125,1.80859375,-7.5625,1.09765625,1.0
4765581,,,,,,,,0.87109375,2.07421875,-0.33984375,0.296875,-0.802734375,0.345703125,1.80859375,-7.328125,1.05859375,1.0
4765582,,,,,,,,0.92578125,2.265625,-0.24609375,0.244140625,-0.787109375,0.330078125,1.84765625,-7.14453125,1.17578125,1.0
4765583,,,,,,,,1.03515625,2.265625,-0.33984375,0.201171875,-0.796875,0.3125,1.92578125,-7.14453125,1.09765625,1.0
4765584,,,,,,,,1.2421875,2.265625,-0.36328125,0.1953125,-0.7890625,0.287109375,2.1171875,-7.14453125,1.09765625,1.0
4765585,,,,,,,,1.44921875,2.1875,-0.37109375,0.220703125,-0.763671875,0.263671875,2.30859375,-7.21875,1.09765625,1.0
4765586,,,,,,,,1.49609375,2.140625,-0.45703125,0.232421875,-0.751953125,0.248046875,2.34765625,-7.2578125,1.01953125,1.0
4765587,,,,,,,,1.5859375,2.1015625,-0.7109375,0.22265625,-0.71875,0.2109375,2.4609375,-7.30078125,0.71484375,1.0
4765588,,,,,,,,1.6640625,2.02734375,-0.87890625,0.18359375,-0.6796875,0.17578125,2.5390625,-7.41015625,0.59765625,1.0
4765589,,,,,,,,1.78515625,1.87109375,-1.0078125,0.158203125,-0.603515625,0.146484375,2.578125,-7.5625,0.5625,1.0
4765590,36.01337733333333,129.31951383333333,82.38066575099893,108.44454978149598,1.0,110.0,,0.84765625,1.84375,-0.27734375,0.1484375,-0.501953125,0.125,2.4609375,-7.75390625,0.63671875,1.0
4765591,,,,,,,,1.640625,1.56640625,-0.83203125,0.173828125,-0.37109375,0.109375,2.421875,-7.828125,0.71484375,1.0
4765592,,,,,,,,1.56640625,1.55859375,-0.734375,0.1953125,-0.30078125,0.099609375,2.38671875,-7.83203125,0.828125,1.0
4765593,,,,,,,,1.37109375,1.63671875,-0.55078125,0.267578125,-0.17578125,0.099609375,2.19140625,-7.75390625,1.01953125,1.0
4765594,,,,,,,,1.34375,1.6640625,-0.61328125,0.3203125,-0.11328125,0.103515625,2.15625,-7.71875,0.98046875,1.0
4765595,,,,,,,,1.3515625,1.62890625,-0.60546875,0.330078125,-0.095703125,0.119140625,2.15625,-7.75,1.01953125,1.0
4765596,,,,,,,,1.42578125,1.50390625,-0.6953125,0.322265625,-0.09765625,0.125,2.23046875,-7.8671875,0.9453125,1.0
4765597,,,,,,,,1.51171875,1.19921875,-0.8046875,0.283203125,-0.1171875,0.1328125,2.30859375,-8.171875,0.8671875,1.0
4765598,,,,,,,,1.51171875,1.0390625,-0.90625,0.244140625,-0.12109375,0.138671875,2.30859375,-8.33203125,0.7890625,1.0
4765599,,,,,,,,1.51953125,0.875,-0.84375,0.23046875,-0.1171875,0.134765625,2.30859375,-8.48828125,0.8671875,1.0
4765600,36.01337733333333,129.31951466666666,82.45578946397583,108.44455048635446,0.8,102.0,0.0,1.53515625,0.4921875,-0.73046875,0.19140625,-0.0625,0.125,2.30859375,-8.87109375,1.01953125,1.0
4765601,,,,,,,,1.47265625,-0.1640625,-0.140625,0.17578125,-0.001953125,0.12890625,2.23046875,-9.51953125,1.6328125,1.0
4765602,,,,,,,,1.40625,-0.25,0.03515625,0.181640625,0.037109375,0.12890625,2.15625,-9.59375,1.82421875,1.0
4765603,,,,,,,,1.3671875,-0.2890625,0.06640625,0.19140625,0.048828125,0.1328125,2.1171875,-9.63671875,1.86328125,1.0
4765604,,,,,,,,1.421875,-0.2578125,0.03515625,0.224609375,0.072265625,0.1484375,2.15625,-9.59765625,1.86328125,1.0
4765605,,,,,,,,1.48046875,-0.44921875,-0.1015625,0.212890625,0.07421875,0.173828125,2.19140625,-9.78515625,1.75,1.0
4765606,,,,,,,,1.49609375,-0.6484375,-0.125,0.142578125,0.09765625,0.205078125,2.19140625,-9.9765625,1.75,1.0
4765607,,,,,,,,1.21484375,-0.609375,-0.296875,0.111328125,0.125,0.220703125,1.88671875,-9.9375,1.59375,1.0
4765608,,,,,,,,1.03125,-0.53515625,-0.33203125,0.087890625,0.138671875,0.21875,1.6953125,-9.86328125,1.55859375,1.0
4765609,,,,,,,,0.703125,-0.6875,-0.3046875,0.046875,0.14453125,0.240234375,1.3515625,-10.01953125,1.59375,1.0
4765610,36.013377,129.31951566666666,82.54593827047422,108.40756491621887,1.0,90.0,,0.49609375,-0.734375,-0.234375,0.19140625,-0.0625,0.125,2.30859375,-8.87109375,1.01953125,1.0
4765611,,,,,,,,0.328125,-0.6484375,0.05078125,-0.119140625,0.06640625,0.25390625,0.9296875,-9.9765625,1.94140625,1.0
4765612,,,,,,,,0.43359375,-0.91796875,0.21875,-0.193359375,0.021484375,0.259765625,1.00390625,-10.24609375,2.09375,1.0
4765613,,,,,,,,0.65234375,-1.828125,0.08984375,-0.32421875,-0.12109375,0.28515625,1.19921875,-11.16796875,1.94140625,1.0
4765614,,,,,,,,0.75,-2.81640625,-0.171875,-0.515625,-0.3125,0.294921875,1.2734375,-12.16015625,1.6328125,1.0
4765615,,,,,,,,0.14453125,-1.73828125,0.52734375,-0.5703125,-0.302734375,0.25390625,0.66015625,-11.08984375,2.28515625,1.0
4765616,,,,,,,,-0.03125,-1.23046875,0.703125,-0.509765625,-0.189453125,0.21484375,0.46875,-10.58984375,2.4375,1.0
4765617,,,,,,,,-0.484375,-1.453125,0.90234375,-0.36328125,0.0234375,0.203125,0.0078125,-10.8203125,2.58984375,1.0
4765618,,,,,,,,-0.765625,-2.2890625,0.94140625,-0.431640625,-0.029296875,0.23828125,-0.296875,-11.6640625,2.58984375,1.0
4765619,,,,,,,,-1.32421875,-2.34765625,1.6796875,-0.62109375,-0.232421875,0.251953125,-0.87109375,-11.73828125,3.28125,1.0
4765620,36.01337716666667,129.319517,82.666136039869,108.42605925514638,1.2000000000000002,81.0,,-1.5390625,-1.57421875,2.1953125,0.19140625,-0.0625,0.125,2.30859375,-8.87109375,1.01953125,1.0
4765621,,,,,,,,-1.5234375,-0.1875,2.1171875,-0.3203125,-0.265625,0.220703125,-1.1015625,-9.59765625,3.625,1.0
4765622,,,,,,,,-1.1640625,0.5859375,1.64453125,-0.154296875,-0.32421875,0.2109375,-0.7578125,-8.828125,3.12890625,1.0
4765623,,,,,,,,-0.97265625,0.625,1.46875,-0.130859375,-0.376953125,0.193359375,-0.56640625,-8.79296875,2.9375,1.0
4765624,,,,,,,,-0.53515625,0.171875,1.51953125,-0.193359375,-0.388671875,0.1796875,-0.14453125,-9.25,2.97265625,1.0
4765625,,,,,,,,-0.2578125,-0.82421875,1.9296875,-0.23828125,-0.369140625,0.15234375,0.125,-10.2421875,3.359375,1.0
4765626,,,,,,,,-0.10546875,-1.390625,2.171875,-0.208984375,-0.345703125,0.1171875,0.27734375,-10.82421875,3.5859375,1.0
4765627,,,,,,,,0.0546875,-1.58203125,2.34375,-0.1171875,-0.306640625,0.083984375,0.4296875,-11.01171875,3.7421875,1.0
4765628,,,,,,,,0.171875,-1.4296875,2.3125,0.009765625,-0.283203125,0.04296875,0.546875,-10.86328125,3.703125,1.0
4765629,,,,,,,,0.0859375,-0.81640625,2.11328125,0.115234375,-0.27734375,-0.017578125,0.46875,-10.24609375,3.51171875,1.0
4765630,36.01337683333334,129.31951733333332,82.69618587360821,108.38907312226902,0.9,78.0,,-0.234375,-0.31640625,1.7890625,0.19140625,-0.0625,0.125,0.1640625,-9.7421875,3.203125,1.0
4765631,,,,,,,,-0.3984375,-0.234375,1.69140625,0.171875,-0.271484375,-0.119140625,0.0078125,-9.67578125,3.12890625,1.0
4765632,,,,,,,,-0.53515625,-0.2421875,1.328125,0.162109375,-0.283203125,-0.130859375,-0.10546875,-9.67578125,2.78125,1.0
4765633,,,,,,,,-0.58203125,-0.1640625,1.3125,0.14453125,-0.294921875,-0.130859375,-0.14453125,-9.59765625,2.78125,1.0
4765634,,,,,,,,-0.51953125,0.09765625,1.0,0.14453125,-0.31640625,-0.140625,-0.06640625,-9.32421875,2.4765625,1.0
4765635,,,,,,,,-0.50390625,0.40234375,0.83203125,0.162109375,-0.326171875,-0.142578125,-0.02734375,-9.015625,2.32421875,1.0
4765636,,,,,,,,-0.3671875,0.82421875,0.5078125,0.1796875,-0.341796875,-0.146484375,0.125,-8.59765625,2.015625,1.0
4765637,,,,,,,,-0.390625,0.96875,0.41796875,0.193359375,-0.38671875,-0.1484375,0.27734375,-8.13671875,1.82421875,1.0
4765638,,,,,,,,-0.25390625,1.27734375,0.28515625,0.19140625,-0.3984375,-0.1484375,0.27734375,-8.0625,1.671875,1.0
4765639,,,,,,,,-0.19921875,1.53515625,0.078125,0.16796875,-0.43359375,-0.146484375,0.35546875,-7.7890625,1.55859375,1.0
4765640,36.013377,129.31951833333332,82.78633415794948,108.40756717845647,1.0,78.0,,-0.234375,-0.31640625,1.7890625,0.19140625,-0.0625,0.125,0.4296875,-7.5234375,1.3671875,1.0
4765641,,,,,,,,-0.171875,1.96484375,-0.2578125,0.119140625,-0.486328125,-0.134765625,0.46875,-7.41015625,1.25,1.0
4765642,,,,,,,,-0.140625,2.00390625,-0.3359375,0.11328125,-0.494140625,-0.126953125,0.39453125,-7.37109375,1.17578125,1.0
4765643,,,,,,,,-0.27734375,2.03515625,-0.50390625,0.095703125,-0.482421875,-0.087890625,0.27734375,-7.3671875,0.98046875,1.0
4765644,,,,,,,,-0.37890625,2.02734375,-0.671875,0.080078125,-0.46875,-0.060546875,0.27734375,-7.44921875,0.9453125,1.0
4765645,,,,,,,,-0.46875,1.796875,-0.75,0.068359375,-0.4375,-0.0234375,0.125,-7.83203125,0.8671875,1.0
4765646,,,,,,,,-0.5546875,1.55859375,-0.75,0.080078125,-0.42578125,-0.0078125,0.1640625,-7.8671875,0.9453125,1.0
4765647,,,,,,,,-0.6015625,1.25390625,-0.64453125,0.091796875,-0.4140625,0.0234375,0.046875,-8.2890625,0.98046875,1.0
4765648,,,,,,,,-0.6875,1.0625,-0.66015625,0.1328125,-0.408203125,0.06640625,0.0078125,-8.3671875,1.01953125,1.0
4765649,,,,,,,,-0.6953125,1.0234375,-0.62890625,0.15234375,-0.396484375,0.07421875,0.046875,-8.4453125,1.01953125,1.0
4765650,36.01337683333334,129.31951916666668,82.86145805108805,108.38907467962798,1.0,78.0,,-0.234375,-0.31640625,1.7890625,0.19140625,-0.0625,0.125,0.046875,-8.59765625,0.90625,1.0
4765651,,,,,,,,-0.609375,0.78515625,-0.7734375,0.212890625,-0.400390625,0.119140625,0.0859375,-8.59375,0.90625,1.0
4765652,,,,,,,,-0.6015625,0.890625,-0.8359375,0.236328125,-0.388671875,0.134765625,0.0859375,-8.484375,0.8671875,1.0
4765653,,,,,,,,-0.640625,1.11328125,-0.8203125,0.279296875,-0.369140625,0.1484375,0.046875,-8.25390625,0.90625,1.0
4765654,,,,,,,,-0.6328125,1.15234375,-1.07421875,0.296875,-0.35546875,0.1640625,0.046875,-8.21484375,0.67578125,1.0
4765655,,,,,,,,-0.546875,1.10546875,-1.17578125,0.283203125,-0.353515625,0.1640625,0.125,-8.25390625,0.59765625,1.0
4765656,,,,,,,,-0.4921875,1.03125,-1.16015625,0.255859375,-0.36328125,0.166015625,0.1640625,-8.33203125,0.63671875,1.0
4765657,,,,,,,,-0.30078125,0.8671875,-1.03125,0.23828125,-0.375,0.158203125,0.35546875,-8.48828125,0.7890625,1.0
4765658,,,,,,,,-0.171875,0.59375,-0.8984375,0.220703125,-0.380859375,0.146484375,0.46875,-8.75390625,0.9453125,1.0
4765659,,,,,,,,-0.1640625,0.59375,-0.9140625,0.208984375,-0.369140625,0.134765625,0.46875,-8.75390625,0.9453125,1.0
4765660,36.013377,129.31951983333332,82.92155684470787,108.4075684537042,0.9,74.0,,-0.203125,0.5859375,-0.96875,0.19140625,-0.0625,0.125,0.046875,-8.59765625,0.90625,1.0
4765661,,,,,,,,-0.34765625,0.46875,-0.9453125,0.1796875,-0.31640625,0.111328125,0.27734375,-8.87109375,0.9453125,1.0
4765662,,,,,,,,-0.421875,0.35546875,-0.9921875,0.166015625,-0.314453125,0.103515625,0.203125,-8.9765625,0.90625,1.0
4765663,,,,,,,,-0.4140625,0.23828125,-1.0,0.107421875,-0.31640625,0.0859375,0.203125,-9.09375,0.90625,1.0
4765664,,,,,,,,-0.33984375,-0.16015625,-0.625,0.03125,-0.330078125,0.060546875,0.27734375,-9.4765625,1.2890625,1.0
4765665,,,,,,,,-0.4609375,-1.15625,-0.6953125,-0.06640625,-0.35546875,0.0625,0.1640625,-10.4765625,1.2109375,1.0
4765666,,,,,,,,-0.4609375,-1.26953125,-0.6171875,-0.087890625,-0.357421875,0.064453125,0.1640625,-10.58984375,1.2890625,1.0
4765667,,,,,,,,-0.5,-1.18359375,-0.44921875,-0.109375,-0.3359375,0.0703125,0.125,-10.5078125,1.44140625,1.0
4765668,,,,,,,,-0.5390625,-1.0703125,-0.44140625,-0.083984375,-0.30859375,0.07421875,0.0859375,-10.3984375,1.44140625,1.0
4765669,,,,,,,,-0.5390625,-1.03125,-0.47265625,-0.083984375,-0.2890625,0.072265625,0.0859375,-10.36328125,1.40234375,1.0
4765670,36.01337683333334,129.31952116666668,83.04175496600307,108.38907638185918,1.2000000000000002,76.0,,-0.72265625,-0.84765625,-0.33984375,-0.109375,-0.263671875,0.0546875,-0.10546875,-10.1640625,1.51953125,1.0
4765671,,,,,,,,-0.9140625,-0.45703125,-0.37109375,-0.1484375,-0.2890625,0.04296875,-0.296875,-9.78515625,1.48046875,1.0
4765672,,,,,,,,-1.06640625,-0.1875,-0.38671875,-0.193359375,-0.33203125,0.029296875,-0.44921875,-9.51953125,1.44140625,1.0
4765673,,,,,,,,-1.2265625,0.15625,-0.53125,-0.216796875,-0.35546875,0.02734375,-0.6015625,-9.17578125,1.2890625,1.0
4765674,,,,,,,,-1.41796875,0.39453125,-0.5859375,-0.29296875,-0.396484375,0.0234375,-0.79296875,-8.9375,1.2109375,1.0
4765675,,,,,,,,-1.65625,0.40234375,-0.546875,-0.3828125,-0.470703125,0.009765625,-1.0234375,-8.94140625,1.2109375,1.0
4765676,,,,,,,,-1.51953125,-0.77734375,-0.78125,-0.583984375,-0.634765625,-0.009765625,-0.87109375,-10.12890625,0.90625,1.0
4765677,,,,,,,,-0.9609375,-1.4609375,-0.0234375,-0.740234375,-0.78515625,-0.00390625,-0.296875,-10.82421875,1.59375,1.0
4765678,,,,,,,,-0.69140625,-1.796875,0.40625,-0.8125,-0.869140625,0.001953125,-0.02734375,-11.16796875,1.9765625,1.0
4765679,,,,,,,,0.59375,-3.7734375,0.9140625,-0.888671875,-1.00390625,0.013671875,1.2734375,-13.15625,2.3984375,1.0
4765680,36.01337716666667,129.31952216666664,83.13190307274546,108.42606365043153,1.1,76.0,,2.1171875,-5.7890625,1.4375,-0.953125,-1.07421875,0.02734375,2.8046875,-15.1875,2.8203125,1.0
4765681,,,,,,,,3.24609375,-4.890625,2.57421875,-0.9296875,-1.099609375,0.005859375,3.95703125,-14.3046875,3.81640625,1.0
4765682,,,,,,,,4.01171875,-3.08203125,3.1484375,-0.736328125,-1.029296875,-0.01171875,4.72265625,-12.5,4.3515625,1.0
4765683,,,,,,,,3.265625,-1.66015625,2.890625,-0.15234375,-0.66796875,-0.0859375,3.9921875,-11.08984375,4.046875,1.0
4765684,,,,,,,,1.44921875,-1.390625,2.38671875,0.234375,-0.400390625,-0.142578125,2.19140625,-10.82421875,3.55078125,1.0
4765685,,,,,,,,-0.21875,-2.35546875,2.5546875,0.3359375,-0.44921875,-0.162109375,0.546875,-11.7734375,3.7421875,1.0
4765686,,,,,,,,-0.609375,-2.9296875,2.73046875,0.341796875,-0.556640625,-0.158203125,0.1640625,-12.3515625,3.93359375,1.0
4765687,,,,,,,,-0.55859375,-3.08984375,2.62890625,0.369140625,-0.810546875,-0.13671875,0.23828125,-12.5,3.85546875,1.0
4765688,,,,,,,,-0.359375,-2.40234375,2.16015625,0.51953125,-0.908203125,-0.037109375,0.46875,-11.8125,3.43359375,1.0
4765689,,,,,,,,-0.3203125,-1.59765625,1.82421875,0.59375,-0.8515625,0.005859375,0.5078125,-11.01171875,3.12890625,1.0
4765690,36.01337716666667,129.3195233333333,83.23707627392879,108.4260646463982,1.2000000000000002,78.0,,-0.56640625,-0.34765625,1.546875,-0.953125,-1.07421875,0.02734375,2.8046875,-15.1875,2.8203125,1.0
4765691,,,,,,,,-0.55859375,0.484375,1.17578125,0.638671875,-0.669921875,0.236328125,0.27734375,-8.90625,2.62890625,1.0
4765692,,,,,,,,-0.47265625,0.640625,0.9609375,0.576171875,-0.71484375,0.2734375,0.35546875,-8.75390625,2.4375,1.0
4765693,,,,,,,,0.453125,0.37109375,0.61328125,0.19921875,-0.884765625,0.3515625,1.234375,-9.015625,2.16796875,1.0
4765694,,,,,,,,0.5390625,0.5234375,0.69140625,0.1640625,-0.87890625,0.349609375,1.3125,-8.8671875,2.24609375,1.0
4765695,,,,,,,,0.625,0.984375,0.515625,0.19140625,-0.75390625,0.32421875,1.3515625,-8.40625,2.09375,1.0
4765696,,,,,,,,0.5546875,1.3671875,0.31640625,0.208984375,-0.73046875,0.318359375,1.2734375,-8.02734375,1.90234375,1.0
4765697,,,,,,,,0.5703125,1.94140625,-0.04296875,0.212890625,-0.69921875,0.310546875,1.2734375,-7.44921875,1.55859375,1.0
4765698,,,,,,,,0.6171875,2.05859375,-0.17578125,0.20703125,-0.68359375,0.30859375,1.3125,-7.328125,1.44140625,1.0
4765699,,,,,,,,0.78515625,2.28515625,-0.265625,0.16015625,-0.662109375,0.287109375,1.46484375,-7.1015625,1.3671875,1.0
4765700,36.01337733333333,129.31952416666667,83.312199814388,108.4445585664804,0.9,77.0,0.0,0.91015625,2.5546875,-0.3125,-0.953125,-1.07421875,0.02734375,1.58203125,-6.8359375,1.328125,1.0
4765701,,,,,,,,1.0,2.515625,-0.3515625,0.083984375,-0.66015625,0.25390625,1.65625,-6.87890625,1.2890625,1.0
4765702,,,,,,,,1.20703125,2.44140625,-0.359375,0.0625,-0.6328125,0.2578125,1.84765625,-6.9453125,1.2890625,1.0
4765703,,,,,,,,1.25390625,2.44140625,-0.359375,0.05859375,-0.611328125,0.259765625,1.88671875,-6.9453125,1.2890625,1.0
4765704,,,,,,,,1.375,2.44921875,-0.3671875,0.07421875,-0.552734375,0.220703125,2.0,-6.94921875,1.2890625,1.0
4765705,,,,,,,,1.390625,2.44921875,-0.57421875,0.138671875,-0.49609375,0.19140625,2.0,-6.9453125,1.09765625,1.0
4765706,,,,,,,,1.515625,2.2109375,-0.890625,0.154296875,-0.455078125,0.1640625,2.1171875,-7.1796875,0.7890625,1.0
4765707,,,,,,,,1.4453125,1.94140625,-0.97265625,0.134765625,-0.40625,0.119140625,2.0390625,-7.4453125,0.71484375,1.0
4765708,,,,,,,,1.484375,1.828125,-0.94140625,0.11328125,-0.3828125,0.111328125,2.078125,-7.5625,0.75390625,1.0
4765709,,,,,,,,1.33203125,1.7890625,-0.875,0.095703125,-0.328125,0.0859375,1.92578125,-7.60546875,0.828125,1.0
4765710,36.013377500000004,129.31952516666666,83.40234809719553,108.46305262977668,1.0,77.0,,1.1328125,1.86328125,-0.69140625,-0.953125,-1.07421875,0.02734375,1.734375,-7.5234375,1.01953125,1.0
4765711,,,,,,,,0.98828125,1.92578125,-0.64453125,0.23046875,-0.07421875,0.0546875,1.58203125,-7.44921875,1.09765625,1.0
4765712,,,,,,,,1.1484375,1.65625,-0.78515625,0.265625,-0.04296875,0.05859375,1.734375,-7.71875,0.98046875,1.0
4765713,,,,,,,,1.33984375,1.265625,-0.84375,0.26171875,-0.044921875,0.0625,1.92578125,-8.10546875,0.9453125,1.0
4765714,,,,,,,,1.5,0.73046875,-0.8828125,0.2265625,-0.029296875,0.068359375,2.078125,-8.6328125,0.9453125,1.0
4765715,,,,,,,,1.4609375,0.33984375,-0.73828125,0.23046875,0.015625,0.0703125,2.0390625,-9.01953125,1.09765625,1.0
4765716,,,,,,,,1.4296875,0.25390625,-0.67578125,0.2421875,0.046875,0.06640625,2.0,-9.09765625,1.17578125,1.0
4765717,,,,,,,,1.35546875,0.1328125,-0.48046875,0.27734375,0.119140625,0.06640625,1.92578125,-9.21484375,1.40234375,1.0
4765718,,,,,,,,1.32421875,0.1640625,-0.2734375,0.318359375,0.1796875,0.064453125,1.88671875,-9.17578125,1.6328125,1.0
4765719,,,,,,,,1.33203125,0.23046875,-0.03515625,0.330078125,0.20703125,0.0625,1.88671875,-9.09375,1.90234375,1.0
4765720,36.013378333333335,129.31952616666666,83.4924956757217,108.55551952685929,1.1,65.0,,1.30078125,0.34765625,-0.19140625,0.33203125,0.20703125,0.0859375,1.84765625,-8.9765625,1.78515625,1.0
4765721,,,,,,,,1.30859375,0.33984375,-0.375,0.302734375,0.19921875,0.091796875,1.84765625,-8.9765625,1.6328125,1.0
4765722,,,,,,,,1.36328125,0.0625,-0.390625,0.234375,0.19921875,0.109375,1.88671875,-9.25,1.6328125,1.0
4765723,,,,,,,,1.36328125,-0.01171875,-0.40625,0.19921875,0.2109375,0.115234375,1.88671875,-9.3203125,1.6328125,1.0
4765724,,,,,,,,1.41796875,-0.2578125,-0.3828125,0.107421875,0.21875,0.130859375,1.92578125,-9.55859375,1.671875,1.0
4765725,,,,,,,,1.31640625,-0.3359375,-0.390625,0.03515625,0.232421875,0.14453125,1.80859375,-9.6328125,1.671875,1.0
4765726,,,,,,,,0.765625,-0.640625,-0.359375,-0.078125,0.251953125,0.142578125,1.234375,-9.94140625,1.7109375,1.0
4765727,,,,,,,,0.32421875,-0.90234375,-0.3046875,-0.162109375,0.22265625,0.146484375,0.77734375,-10.20703125,1.75,1.0
4765728,,,,,,,,0.0625,-1.015625,-0.18359375,-0.208984375,0.19921875,0.146484375,0.5078125,-10.3203125,1.86328125,1.0
4765729,,,,,,,,-0.11328125,-0.97265625,-0.07421875,-0.30078125,0.15234375,0.1484375,0.31640625,-10.28515625,1.94140625,1.0
4765730,36.013378833333334,129.31952683333333,83.55259411810654,108.61099972191357,1.1,59.0,,-0.10546875,-0.55078125,0.1484375,0.33203125,0.20703125,0.0859375,0.31640625,-9.859375,2.1328125,1.0
4765731,,,,,,,,0.0625,-0.65625,0.140625,-0.404296875,0.064453125,0.146484375,0.46875,-9.9765625,2.09375,1.0
4765732,,,,,,,,0.30859375,-1.55859375,-0.140625,-0.572265625,-0.041015625,0.158203125,0.69921875,-10.89453125,1.75,1.0
4765733,,,,,,,,0.31640625,-2.1640625,-0.04296875,-0.67578125,-0.08984375,0.166015625,0.69921875,-11.51171875,1.82421875,1.0
4765734,,,,,,,,0.1328125,-2.03515625,0.41015625,-0.796875,-0.12890625,0.15234375,0.5078125,-11.390625,2.20703125,1.0
4765735,,,,,,,,-0.55078125,-0.9921875,0.87890625,-0.75390625,-0.044921875,0.12109375,-0.18359375,-10.36328125,2.58984375,1.0
4765736,,,,,,,,-1.14453125,-0.6640625,0.96484375,-0.603515625,0.123046875,0.095703125,-0.79296875,-10.05859375,2.58984375,1.0
4765737,,,,,,,,-1.5234375,-1.57421875,1.2109375,-0.66796875,0.02734375,0.1015625,-1.1796875,-10.97265625,2.78125,1.0
4765738,,,,,,,,-1.4765625,-1.875,1.40625,-0.724609375,-0.0703125,0.103515625,-1.140625,-11.28125,2.9375,1.0
4765739,,,,,,,,-1.55078125,-2.1328125,1.93359375,-0.748046875,-0.251953125,0.09375,-1.21484375,-11.55078125,3.39453125,1.0
4765740,36.0133795,129.31952783333332,83.6427418701418,108.68497341280485,1.2000000000000002,55.0,,-1.4765625,-1.58984375,2.2265625,0.33203125,0.20703125,0.0859375,-1.140625,-11.01171875,3.625,1.0
4765741,,,,,,,,-1.3203125,-1.16015625,2.3046875,-0.330078125,-0.193359375,0.0078125,-0.984375,-10.58984375,3.6640625,1.0
4765742,,,,,,,,-1.09375,-1.3125,2.2890625,-0.16015625,-0.123046875,-0.013671875,-0.7578125,-10.7421875,3.625,1.0
4765743,,,,,,,,-0.6796875,-1.7265625,2.45703125,-0.12109375,-0.091796875,-0.017578125,-0.3359375,-11.1640625,3.77734375,1.0
4765744,,,,,,,,-0.265625,-1.95703125,2.61328125,-0.107421875,-0.072265625,-0.025390625,0.0859375,-11.39453125,3.93359375,1.0
4765745,,,,,,,,0.453125,-1.65234375,2.6953125,-0.001953125,-0.02734375,-0.076171875,0.8125,-11.0859375,4.0078125,1.0
4765746,,,,,,,,0.4375,-0.921875,2.2578125,0.181640625,0.041015625,-0.171875,0.8125,-10.359375,3.5859375,1.0
4765747,,,,,,,,0.109375,-0.5,1.9296875,0.2578125,0.087890625,-0.23046875,0.5078125,-9.94140625,3.28125,1.0
4765748,,,,,,,,-0.40625,-0.1640625,1.7890625,0.224609375,0.1015625,-0.2734375,0.0078125,-9.59765625,3.1640625,1.0
4765749,,,,,,,,-0.6640625,-0.5078125,1.5390625,0.142578125,0.056640625,-0.294921875,-0.21875,-9.9375,2.9375,1.0
4765750,36.01338016666667,129.31952850000002,83.70284013895574,108.75894681870369,1.1,52.0,,-0.7265625,-0.39453125,1.26171875,0.33203125,0.20703125,0.0859375,-0.2578125,-9.8203125,2.66796875,1.0
4765751,,,,,,,,-0.765625,-0.234375,1.09375,0.056640625,-0.005859375,-0.283203125,-0.2578125,-9.671875,2.515625,1.0
4765752,,,,,,,,-0.67578125,0.21875,0.78515625,0.09375,0.025390625,-0.28515625,-0.14453125,-9.2109375,2.20703125,1.0
4765753,,,,,,,,-0.61328125,0.6015625,0.5859375,0.10546875,0.046875,-0.27734375,-0.06640625,-8.828125,2.015625,1.0
4765754,,,,,,,,-0.5703125,1.0625,0.41015625,0.138671875,0.064453125,-0.2734375,0.0078125,-8.3671875,1.86328125,1.0
4765755,,,,,,,,-0.4765625,1.4765625,0.1640625,0.14453125,0.048828125,-0.275390625,0.125,-7.9453125,1.6328125,1.0
4765756,,,,,,,,-0.4375,1.62890625,0.03515625,0.140625,0.01953125,-0.279296875,0.203125,-7.79296875,1.51953125,1.0
4765757,,,,,,,,-0.4609375,1.97265625,-0.140625,0.12890625,-0.015625,-0.28125,0.203125,-7.4453125,1.3671875,1.0
4765758,,,,,,,,-0.46875,2.08203125,-0.21875,0.126953125,-0.033203125,-0.28125,0.203125,-7.33203125,1.2890625,1.0
4765759,,,,,,,,-0.46484375,2.2734375,-0.2734375,0.126953125,-0.056640625,-0.28125,0.23828125,-7.14453125,1.25,1.0
4765760,36.01338066666666,129.31952933333332,83.77796331812046,108.81442715783851,1.0,53.0,,-0.65625,2.4921875,-0.56640625,0.33203125,0.20703125,0.0859375,0.0859375,-6.91796875,0.98046875,1.0
4765761,,,,,,,,-0.88671875,2.33203125,-0.7421875,0.111328125,-0.078125,-0.236328125,-0.10546875,-7.06640625,0.828125,1.0
4765762,,,,,,,,-1.0625,2.1796875,-0.82421875,0.078125,-0.078125,-0.212890625,-0.2578125,-7.22265625,0.75390625,1.0
4765763,,,,,,,,-1.1953125,2.01953125,-0.87109375,0.060546875,-0.080078125,-0.173828125,-0.375,-7.3671875,0.71484375,1.0
4765764,,,,,,,,-1.1328125,1.7109375,-0.95703125,0.05078125,-0.08203125,-0.13671875,-0.296875,-7.68359375,0.63671875,1.0
4765765,,,,,,,,-0.99609375,1.63671875,-0.84765625,0.037109375,-0.0859375,-0.103515625,-0.14453125,-7.75,0.75390625,1.0
4765766,,,,,,,,-0.92578125,1.55078125,-0.84765625,0.015625,-0.09375,-0.0703125,-0.06640625,-7.83203125,0.75390625,1.0
4765767,,,,,,,,-0.93359375,1.16796875,-0.734375,0.015625,-0.0859375,-0.052734375,-0.06640625,-8.21484375,0.8671875,1.0
4765768,,,,,,,,-1.01171875,1.24609375,-0.65625,0.033203125,-0.076171875,-0.0390625,-0.14453125,-8.13671875,0.9453125,1.0
4765769,,,,,,,,-1.2109375,1.3984375,-0.78125,0.068359375,-0.0703125,-0.025390625,-0.3359375,-7.98828125,0.828125,1.0
4765770,36.01338116666667,129.31953016666665,83.85308650089104,108.86990749988317,1.0,54.0,,-1.25,1.54296875,-0.90234375,0.130859375,-0.0625,-0.01171875,0.0859375,-6.91796875,0.98046875,1.0
4765771,,,,,,,,-1.2109375,1.57421875,-1.1484375,0.15625,-0.072265625,-0.005859375,-0.3359375,-7.79296875,0.484375,1.0
4765772,,,,,,,,-1.171875,1.45703125,-1.125,0.154296875,-0.103515625,0.01171875,-0.296875,-7.90625,0.5234375,1.0
4765773,,,,,,,,-1.09375,1.11328125,-1.06640625,0.115234375,-0.13671875,0.01953125,-0.21875,-8.25390625,0.59765625,1.0
4765774,,,,,,,,-0.90234375,0.53125,-0.92578125,0.10546875,-0.197265625,0.021484375,-0.02734375,-8.83203125,0.75390625,1.0
4765775,,,,,,,,-0.6796875,0.109375,-0.78125,0.111328125,-0.244140625,0.017578125,0.203125,-9.25,0.90625,1.0
4765776,,,,,,,,-0.60546875,-0.05078125,-0.70703125,0.123046875,-0.271484375,0.009765625,0.27734375,-9.3984375,0.98046875,1.0
4765777,,,,,,,,-0.4140625,-0.2890625,-0.64453125,0.1484375,-0.326171875,0.0,0.46875,-9.6328125,1.05859375,1.0
4765778,,,,,,,,-0.19140625,-0.44140625,-0.5078125,0.185546875,-0.3515625,-0.021484375,0.69921875,-9.78125,1.2109375,1.0
4765779,,,,,,,,-0.19140625,-0.44140625,-0.390625,0.20703125,-0.357421875,-0.02734375,0.69921875,-9.78125,1.328125,1.0
4765780,36.013381833333334,129.31953116666668,83.94323425024326,108.94388119301436,1.1,52.0,,-0.16015625,-0.41015625,-0.453125,0.130859375,-0.0625,-0.01171875,0.0859375,-6.91796875,0.98046875,1.0
4765781,,,,,,,,-0.24609375,-0.44921875,-0.5078125,0.25390625,-0.3203125,-0.052734375,0.66015625,-9.78515625,1.25,1.0
4765782,,,,,,,,-0.25390625,-0.734375,-0.4921875,0.21484375,-0.310546875,-0.060546875,0.66015625,-10.05859375,1.2890625,1.0
4765783,,,,,,,,-0.26953125,-0.7734375,-0.4296875,0.158203125,-0.31640625,-0.052734375,0.66015625,-10.09375,1.3671875,1.0
4765784,,,,,,,,-0.20703125,-0.85546875,-0.5234375,0.08203125,-0.298828125,-0.044921875,0.73828125,-10.16796875,1.2890625,1.0
4765785,,,,,,,,-0.17578125,-0.6640625,-0.5625,-0.00390625,-0.2578125,-0.029296875,0.77734375,-9.9765625,1.25,1.0
4765786,,,,,,,,-0.29296875,-0.51171875,-0.59375,-0.05078125,-0.240234375,-0.029296875,0.66015625,-9.8203125,1.2109375,1.0
4765787,,,,,,,,-0.484375,-0.2890625,-0.546875,-0.107421875,-0.18359375,-0.025390625,0.46875,-9.59375,1.25,1.0
4765788,,,,,,,,-0.9453125,0.015625,-0.4609375,-0.150390625,-0.1328125,-0.033203125,0.0078125,-9.2890625,1.328125,1.0
4765789,,,,,,,,-1.48828125,-0.3203125,-0.5546875,-0.208984375,-0.123046875,-0.046875,-0.52734375,-9.6328125,1.2109375,1.0
