time,latitude,longitude,enu_x,enu_y,speed,course,ecg,accX,accY,accZ,gyrX,gyrY,gyrZ,eulR,eulP,eulY,validity
4743010,36.01342866666666,129.31957300000002,87.71439263458024,114.140509540442,1.2000000000000002,33.0,,0.62109375,-3.03515625,1.9296875,-0.802734375,-0.705078125,0.015625,2.23046875,-12.27734375,3.5859375,1.0
4743011,,,,,,,,0.63671875,-2.16015625,1.87109375,0.48828125,-0.873046875,0.326171875,2.23046875,-11.39453125,3.55078125,1.0
4743012,,,,,,,,0.4140625,-1.1640625,1.65625,0.572265625,-0.787109375,0.359375,2.0,-10.40234375,3.359375,1.0
4743013,,,,,,,,0.1796875,-0.2734375,1.0859375,0.689453125,-0.6640625,0.4765625,1.734375,-9.51953125,2.859375,1.0
4743014,,,,,,,,0.01953125,0.7890625,0.34765625,0.615234375,-0.705078125,0.521484375,1.54296875,-8.44921875,2.16796875,1.0
4743015,,,,,,,,0.28125,0.8671875,0.30859375,0.44140625,-0.8046875,0.529296875,1.7734375,-8.37109375,2.16796875,1.0
4743016,,,,,,,,0.5703125,0.63671875,0.44921875,0.345703125,-0.8515625,0.533203125,2.0390625,-8.59375,2.32421875,1.0
4743017,,,,,,,,0.45703125,0.8359375,0.5859375,0.20703125,-0.880859375,0.509765625,1.88671875,-8.40625,2.4765625,1.0
4743018,,,,,,,,0.18359375,1.1875,0.46484375,0.2109375,-0.814453125,0.48046875,1.58203125,-8.06640625,2.36328125,1.0
4743019,,,,,,,,0.12109375,1.45703125,0.33984375,0.2265625,-0.783203125,0.458984375,1.50390625,-7.79296875,2.24609375,1.0
4743020,36.01342966666667,129.31957366666666,87.7744904568431,114.25146939029196,1.1,29.0,,0.10546875,1.953125,0.1796875,0.248046875,-0.75390625,0.431640625,1.46484375,-7.30078125,2.09375,1.0
4743021,,,,,,,,0.328125,2.69140625,-0.2265625,0.228515625,-0.796875,0.396484375,1.65625,-6.56640625,1.7109375,1.0
4743022,,,,,,,,0.49609375,2.765625,-0.3515625,0.20703125,-0.826171875,0.38671875,1.80859375,-6.49609375,1.59375,1.0
4743023,,,,,,,,0.8203125,3.03515625,-0.625,0.17578125,-0.87890625,0.373046875,2.1171875,-6.22265625,1.328125,1.0
4743024,,,,,,,,0.98046875,3.03515625,-0.703125,0.16015625,-0.884765625,0.365234375,2.26953125,-6.22265625,1.25,1.0
4743025,,,,,,,,1.1953125,3.03515625,-0.81640625,0.12890625,-0.876953125,0.359375,2.4609375,-6.21875,1.13671875,1.0
4743026,,,,,,,,1.47265625,2.8515625,-1.0078125,0.099609375,-0.875,0.330078125,2.73046875,-6.41796875,0.9453125,1.0
4743027,,,,,,,,1.59375,2.66015625,-1.046875,0.087890625,-0.861328125,0.333984375,2.84375,-6.60546875,0.90625,1.0
4743028,,,,,,,,1.6796875,2.54296875,-1.09375,0.080078125,-0.806640625,0.318359375,2.921875,-6.71875,0.8671875,1.0
4743029,,,,,,,,1.84765625,2.32421875,-1.1640625,0.083984375,-0.74609375,0.3046875,3.07421875,-6.9453125,0.7890625,1.0
4743030,36.013430666666665,129.31957433333335,87.83458828123656,114.3624292408627,1.1,28.0,,1.82421875,1.625,-1.125,0.107421875,-0.60546875,0.26953125,3.03515625,-7.640625,0.828125,1.0
4743031,,,,,,,,1.65625,1.51953125,-1.0546875,0.14453125,-0.478515625,0.255859375,2.84375,-7.75,0.90625,1.0
4743032,,,,,,,,1.625,1.47265625,-1.015625,0.15234375,-0.4296875,0.251953125,2.8046875,-7.7890625,0.9453125,1.0
4743033,,,,,,,,1.51953125,1.43359375,-0.83984375,0.197265625,-0.33984375,0.251953125,2.69140625,-7.828125,1.13671875,1.0
4743034,,,,,,,,1.49609375,1.65625,-0.7109375,0.275390625,-0.255859375,0.259765625,2.65234375,-7.60546875,1.2890625,1.0
4743035,,,,,,,,1.63671875,1.5390625,-1.05078125,0.326171875,-0.255859375,0.279296875,2.76953125,-7.71875,0.98046875,1.0
4743036,,,,,,,,1.71875,1.42578125,-1.29296875,0.34375,-0.263671875,0.294921875,2.84375,-7.83203125,0.75390625,1.0
4743037,,,,,,,,1.859375,1.2265625,-1.39453125,0.330078125,-0.26953125,0.314453125,3.03515625,-8.2109375,0.5625,1.0
4743038,,,,,,,,2.03515625,0.7578125,-1.5390625,0.302734375,-0.22265625,0.318359375,3.03515625,-8.7109375,0.59765625,1.0
4743039,,,,,,,,1.96484375,0.52734375,-1.51171875,0.298828125,-0.181640625,0.318359375,2.9609375,-8.87109375,0.7890625,1.0
4743040,36.0134315,129.31957466666665,87.86463681863444,114.45489558379481,1.0,24.0,,1.7578125,0.29296875,-1.265625,0.283203125,-0.111328125,0.318359375,2.76953125,-8.9765625,0.98046875,1.0
4743041,,,,,,,,1.60546875,0.12890625,-0.8828125,0.30078125,-0.05078125,0.322265625,2.4609375,-9.171875,1.40234375,1.0
4743042,,,,,,,,1.46875,0.0078125,-0.71484375,0.310546875,-0.04296875,0.32421875,2.421875,-9.29296875,1.48046875,1.0
4743043,,,,,,,,1.53125,-0.18359375,-0.66796875,0.3046875,-0.05078125,0.3203125,2.5390625,-9.44140625,1.6328125,1.0
4743044,,,,,,,,1.6328125,-0.296875,-0.65625,0.287109375,-0.033203125,0.328125,2.61328125,-9.515625,1.7109375,1.0
4743045,,,,,,,,1.6640625,-0.3515625,-0.6015625,0.2578125,0.0,0.322265625,2.578125,-9.55859375,1.671875,1.0
4743046,,,,,,,,1.6953125,-0.27734375,-0.6640625,0.21484375,0.0234375,0.32421875,2.578125,-9.48046875,1.6328125,1.0
4743047,,,,,,,,1.6796875,-0.46875,-0.75390625,0.162109375,0.072265625,0.314453125,2.5390625,-9.671875,1.55859375,1.0
4743048,,,,,,,,1.56640625,-0.8984375,-1.15234375,0.056640625,0.068359375,0.314453125,2.38671875,-10.09375,1.17578125,1.0
4743049,,,,,,,,1.05078125,-1.1171875,-1.27734375,-0.068359375,0.072265625,0.298828125,1.84765625,-10.3203125,1.05859375,1.0
4743050,36.01343266666667,129.31957466666665,87.86463552389876,114.58434804068268,1.1,14.0,,0.5859375,-1.30859375,-1.26171875,0.283203125,-0.111328125,0.318359375,1.3515625,-10.51171875,1.05859375,1.0
4743051,,,,,,,,0.33203125,-1.41796875,-1.046875,-0.224609375,0.123046875,0.267578125,1.08203125,-10.62890625,1.25,1.0
4743052,,,,,,,,0.140625,-1.640625,-0.5078125,-0.341796875,0.11328125,0.251953125,0.8515625,-10.86328125,1.75,1.0
4743053,,,,,,,,0.2265625,-2.16796875,-0.07421875,-0.380859375,0.091796875,0.25390625,0.9296875,-11.39453125,2.16796875,1.0
4743054,,,,,,,,0.2109375,-3.578125,0.3359375,-0.53515625,-0.103515625,0.24609375,0.890625,-12.81640625,2.515625,1.0
4743055,,,,,,,,-0.4609375,-4.58984375,1.4609375,-0.591796875,-0.236328125,0.23828125,0.203125,-13.84765625,3.5859375,1.0
4743056,,,,,,,,-1.375,-5.0,2.55078125,-0.515625,-0.298828125,0.224609375,-0.71875,-14.265625,4.62109375,1.0
4743057,,,,,,,,-1.85546875,-5.1796875,2.3671875,-0.380859375,-0.490234375,0.25,-1.21484375,-14.4609375,4.390625,1.0
4743058,,,,,,,,-2.0390625,-5.0625,2.19140625,-0.32421875,-0.615234375,0.255859375,-1.40625,-14.34765625,4.19921875,1.0
4743059,,,,,,,,-2.72265625,-2.86328125,2.26953125,-0.193359375,-0.798828125,0.263671875,-2.09765625,-12.16015625,4.23828125,1.0
4743060,36.01343383333334,129.31957466666665,87.8646342291322,114.7138004993322,1.2000000000000002,7.0,,-2.5625,0.4296875,2.46875,0.15234375,-0.857421875,0.283203125,-1.9453125,-8.8671875,4.4296875,1.0
4743061,,,,,,,,-1.671875,1.92578125,2.0703125,0.26953125,-0.814453125,0.263671875,-1.0625,-7.37109375,4.046875,1.0
4743062,,,,,,,,-0.70703125,1.703125,1.51953125,0.220703125,-0.798828125,0.24609375,-0.10546875,-7.60546875,3.51171875,1.0
4743063,,,,,,,,0.85546875,0.58984375,1.21875,-0.15625,-0.888671875,0.154296875,1.46484375,-8.71484375,3.203125,1.0
4743064,,,,,,,,1.23046875,0.33203125,1.2265625,-0.23828125,-0.890625,0.115234375,1.84765625,-8.98046875,3.203125,1.0
4743065,,,,,,,,1.57421875,-0.38671875,1.57421875,-0.302734375,-0.796875,0.0703125,2.19140625,-9.70703125,3.51171875,1.0
4743066,,,,,,,,1.453125,-0.58203125,1.6953125,-0.30078125,-0.7109375,0.048828125,2.078125,-9.90234375,3.625,1.0
4743067,,,,,,,,0.83203125,-0.7265625,1.99609375,-0.23046875,-0.560546875,0.017578125,1.46484375,-10.0546875,3.89453125,1.0
4743068,,,,,,,,0.51171875,-0.45703125,2.04296875,-0.173828125,-0.517578125,0.001953125,1.16015625,-9.78125,3.93359375,1.0
4743069,,,,,,,,0.05859375,0.203125,1.71875,0.0078125,-0.3125,-0.078125,0.73828125,-9.13671875,3.5859375,1.0
4743070,36.01343466666666,129.31957466666665,87.86463330442979,114.8062665393957,1.1,3.0,,-0.140625,0.31640625,1.52734375,0.15234375,-0.857421875,0.283203125,0.546875,-9.01953125,3.39453125,1.0
4743071,,,,,,,,-0.1640625,0.1640625,1.26171875,-0.0234375,-0.251953125,-0.115234375,0.546875,-9.171875,3.12890625,1.0
4743072,,,,,,,,-0.21875,0.125,0.88671875,-0.029296875,-0.248046875,-0.130859375,0.5078125,-9.2109375,2.74609375,1.0
4743073,,,,,,,,-0.39453125,0.27734375,0.76953125,-0.021484375,-0.23046875,-0.158203125,0.35546875,-9.0546875,2.62890625,1.0
4743074,,,,,,,,-0.48828125,0.4296875,0.6953125,0.005859375,-0.21484375,-0.17578125,0.23828125,-8.7890625,2.4765625,1.0
4743075,,,,,,,,-0.55078125,0.8515625,0.38671875,0.046875,-0.21875,-0.18359375,0.23828125,-8.484375,2.24609375,1.0
4743076,,,,,,,,-0.52734375,1.08203125,0.2265625,0.060546875,-0.2265625,-0.19140625,0.27734375,-8.25,2.09375,1.0
4743077,,,,,,,,-0.55078125,1.12109375,0.06640625,0.111328125,-0.234375,-0.20703125,0.31640625,-8.06640625,1.82421875,1.0
4743078,,,,,,,,-0.45703125,1.49609375,-0.171875,0.134765625,-0.255859375,-0.21484375,0.39453125,-7.71875,1.75,1.0
4743079,,,,,,,,-0.48828125,1.6875,-0.1484375,0.140625,-0.28125,-0.228515625,0.4296875,-7.484375,1.55859375,1.0
4743080,36.013435666666666,129.3195745,87.84960746318713,114.91722563938765,1.0,359.0,,-0.4765625,1.87109375,-0.38671875,0.142578125,-0.3203125,-0.234375,0.4296875,-7.37109375,1.48046875,1.0
4743081,,,,,,,,-0.58203125,1.98046875,-0.546875,0.15234375,-0.353515625,-0.232421875,0.35546875,-7.26171875,1.328125,1.0
4743082,,,,,,,,-0.73046875,2.09375,-0.71875,0.1640625,-0.3671875,-0.208984375,0.23828125,-7.21875,1.2109375,1.0
4743083,,,,,,,,-1.0,2.0078125,-0.84765625,0.173828125,-0.376953125,-0.1953125,0.0078125,-7.296875,1.09765625,1.0
4743084,,,,,,,,-1.21484375,2.046875,-0.98046875,0.19140625,-0.38671875,-0.154296875,-0.18359375,-7.26171875,0.98046875,1.0
4743085,,,,,,,,-1.3125,1.83984375,-1.109375,0.1875,-0.40234375,-0.125,-0.2578125,-7.4453125,0.8671875,1.0
4743086,,,,,,,,-1.328125,1.7265625,-1.1171875,0.185546875,-0.412109375,-0.109375,-0.2578125,-7.5625,0.8671875,1.0
4743087,,,,,,,,-1.26953125,1.3359375,-1.203125,0.16796875,-0.455078125,-0.072265625,-0.18359375,-7.9453125,0.7890625,1.0
4743088,,,,,,,,-1.0546875,1.02734375,-1.171875,0.140625,-0.50390625,-0.04296875,0.046875,-8.25390625,0.828125,1.0
4743089,,,,,,,,-0.87890625,0.7890625,-1.02734375,0.1171875,-0.544921875,-0.021484375,0.23828125,-8.48828125,0.98046875,1.0
4743090,36.0134365,129.31957466666665,87.86463126960342,115.00969183156646,0.9,0.0,,-0.73046875,0.71484375,-0.99609375,0.142578125,-0.3203125,-0.234375,0.39453125,-8.55859375,1.01953125,1.0
4743091,,,,,,,,-0.703125,0.70703125,-1.078125,0.16015625,-0.560546875,0.01171875,0.4296875,-8.55859375,0.9453125,1.0
4743092,,,,,,,,-0.6796875,0.78125,-1.0859375,0.189453125,-0.548828125,0.015625,0.46875,-8.48828125,0.9453125,1.0
4743093,,,,,,,,-0.6875,0.8515625,-1.09375,0.201171875,-0.537109375,0.017578125,0.46875,-8.41015625,0.9453125,1.0
4743094,,,,,,,,-0.6953125,1.07421875,-1.02734375,0.232421875,-0.5078125,0.015625,0.46875,-8.17578125,1.01953125,1.0
4743095,,,,,,,,-0.5859375,1.1484375,-1.08203125,0.25,-0.48046875,0.015625,0.5859375,-8.1015625,0.98046875,1.0
4743096,,,,,,,,-0.56640625,1.140625,-1.1484375,0.224609375,-0.4765625,0.017578125,0.62109375,-8.1015625,0.9453125,1.0
4743097,,,,,,,,-0.48828125,0.94140625,-1.15625,0.19140625,-0.482421875,0.009765625,0.69921875,-8.2890625,0.9453125,1.0
4743098,,,,,,,,-0.45703125,0.90625,-1.12890625,0.18359375,-0.486328125,0.005859375,0.73828125,-8.33203125,0.98046875,1.0
4743099,,,,,,,,-0.51171875,0.734375,-1.09765625,0.13671875,-0.5,-0.01953125,0.69921875,-8.48828125,1.01953125,1.0
4743100,36.01343733333333,129.31957466666665,87.86463034457506,115.10215787242645,0.9,358.0,0.0,-0.56640625,0.66015625,-0.94140625,0.1328125,-0.501953125,-0.029296875,0.66015625,-8.55859375,1.17578125,1.0
4743101,,,,,,,,-0.62109375,0.62109375,-0.98828125,0.125,-0.5078125,-0.05078125,0.66015625,-8.6328125,1.25,1.0
4743102,,,,,,,,-0.59765625,0.49609375,-0.8828125,0.107421875,-0.533203125,-0.056640625,0.69921875,-8.79296875,1.2109375,1.0
4743103,,,,,,,,-0.56640625,0.421875,-0.921875,0.08984375,-0.546875,-0.064453125,0.8125,-8.9375,1.25,1.0
4743104,,,,,,,,-0.3125,-0.0078125,-0.84375,0.021484375,-0.61328125,-0.072265625,1.04296875,-9.36328125,1.2890625,1.0
4743105,,,,,,,,-0.14453125,-0.3984375,-0.68359375,-0.033203125,-0.6484375,-0.078125,1.12109375,-9.67578125,1.55859375,1.0
4743106,,,,,,,,-0.24609375,-0.4765625,-0.4765625,-0.076171875,-0.654296875,-0.091796875,1.00390625,-9.67578125,1.59375,1.0
4743107,,,,,,,,-0.34765625,-0.51171875,-0.57421875,-0.08984375,-0.63671875,-0.076171875,1.04296875,-9.63671875,1.48046875,1.0
4743108,,,,,,,,-0.31640625,-0.4375,-0.60546875,-0.10546875,-0.625,-0.064453125,1.08203125,-9.51953125,1.3671875,1.0
4743109,,,,,,,,-0.109375,-0.21484375,-0.8046875,-0.16015625,-0.611328125,-0.037109375,1.2734375,-9.3984375,1.25,1.0
4743110,36.0134385,129.31957483333332,87.8796537834523,115.23161048134811,1.0,359.0,,-0.0546875,-0.0546875,-0.8125,-0.21484375,-0.578125,-0.017578125,0.66015625,-8.55859375,1.17578125,1.0
4743111,,,,,,,,-0.25390625,0.40625,-0.86328125,-0.265625,-0.544921875,0.0,1.16015625,-8.79296875,1.13671875,1.0
4743112,,,,,,,,-0.9609375,0.49609375,-0.65625,-0.330078125,-0.494140625,0.0078125,0.46875,-8.7109375,1.2890625,1.0
4743113,,,,,,,,-1.234375,-1.29296875,-0.37109375,-0.484375,-0.619140625,0.052734375,0.203125,-10.5078125,1.48046875,1.0
4743114,,,,,,,,-1.12890625,-2.015625,-0.2265625,-0.572265625,-0.697265625,0.068359375,0.31640625,-11.2421875,1.59375,1.0
4743115,,,,,,,,-0.25390625,-4.3359375,0.87890625,-0.748046875,-0.90625,0.087890625,1.19921875,-13.58203125,2.62890625,1.0
4743116,,,,,,,,1.1171875,-6.80859375,1.81640625,-0.796875,-1.080078125,0.0859375,2.578125,-16.0625,3.47265625,1.0
4743117,,,,,,,,1.68359375,-7.30859375,1.96875,-0.802734375,-1.150390625,0.083984375,3.15234375,-16.56640625,3.5859375,1.0
4743118,,,,,,,,3.67578125,-5.953125,2.33203125,-0.7578125,-1.27734375,0.07421875,5.14453125,-15.2265625,3.85546875,1.0
4743119,,,,,,,,4.125,-4.44921875,2.1484375,-0.650390625,-1.251953125,0.064453125,5.6015625,-13.73046875,3.625,1.0
4743120,36.01343983333334,129.319575,87.8946770340878,115.37955629904813,1.2000000000000002,2.0,,3.26953125,-0.765625,1.09375,-0.21484375,-0.578125,-0.017578125,4.76171875,-10.05859375,2.515625,1.0
4743121,,,,,,,,2.1875,-0.08203125,1.23828125,0.36328125,-0.5234375,-0.05859375,3.6875,-9.359375,2.66796875,1.0
4743122,,,,,,,,1.60546875,-0.3125,1.56640625,0.408203125,-0.458984375,-0.078125,3.11328125,-9.59765625,3.01171875,1.0
4743123,,,,,,,,-0.1796875,-2.58203125,2.609375,0.310546875,-0.5859375,-0.05859375,1.3515625,-11.8515625,4.0859375,1.0
4743124,,,,,,,,-0.41796875,-4.3046875,3.17578125,0.158203125,-0.95703125,0.00390625,1.12109375,-13.58203125,4.66015625,1.0
4743125,,,,,,,,-0.01171875,-4.95703125,2.79296875,0.3515625,-1.306640625,0.142578125,1.54296875,-14.23046875,4.27734375,1.0
4743126,,,,,,,,0.484375,-3.61328125,2.25,0.486328125,-1.2890625,0.197265625,2.0390625,-12.8828125,3.7421875,1.0
4743127,,,,,,,,0.30859375,-2.47265625,1.7890625,0.88671875,-0.982421875,0.404296875,1.84765625,-11.73828125,3.359375,1.0
4743128,,,,,,,,-0.1640625,-0.671875,1.21875,0.97265625,-0.841796875,0.525390625,1.3515625,-9.94140625,2.859375,1.0
4743129,,,,,,,,-0.2265625,-0.17578125,1.1015625,0.9453125,-0.837890625,0.564453125,1.2734375,-9.4375,2.78125,1.0
4743130,36.013440833333334,129.319575,87.89467592399812,115.49051554801169,1.1,359.0,,3.26953125,-0.765625,1.09375,-0.21484375,-0.578125,-0.017578125,1.46484375,-9.015625,2.3984375,1.0
4743131,,,,,,,,0.50390625,0.1171875,0.37109375,0.4921875,-1.28125,0.63671875,2.078125,-9.0546875,1.9765625,1.0
4743132,,,,,,,,0.6796875,0.19921875,0.1640625,0.419921875,-1.3203125,0.630859375,2.078125,-8.9765625,1.82421875,1.0
4743133,,,,,,,,0.60546875,0.390625,-0.01171875,0.361328125,-1.294921875,0.638671875,1.7734375,-8.51953125,1.82421875,1.0
4743134,,,,,,,,0.421875,0.74609375,-0.02734375,0.36328125,-1.25390625,0.638671875,1.734375,-8.29296875,1.86328125,1.0
4743135,,,,,,,,0.53515625,1.6328125,-0.02734375,0.42578125,-1.16015625,0.638671875,2.34765625,-6.8359375,1.75,1.0
4743136,,,,,,,,1.43359375,3.1640625,-0.328125,0.400390625,-1.1484375,0.611328125,2.76953125,-5.9921875,1.48046875,1.0
4743137,,,,,,,,1.58203125,3.28125,-0.46484375,0.373046875,-1.158203125,0.61328125,2.921875,-5.8359375,1.40234375,1.0
4743138,,,,,,,,1.87890625,3.43359375,-0.6015625,0.349609375,-1.158203125,0.607421875,3.1875,-5.7578125,1.09765625,1.0
4743139,,,,,,,,2.046875,3.51171875,-0.88671875,0.322265625,-1.1796875,0.59765625,3.2265625,-5.7578125,0.98046875,1.0
4743140,36.01344183333333,129.31957483333332,87.87965008344842,115.60147464765959,1.1,353.0,,3.26953125,-0.765625,1.09375,0.275390625,-1.185546875,0.591796875,3.37890625,-6.07421875,0.5625,1.0
4743141,,,,,,,,2.35546875,3.05078125,-1.4921875,0.203125,-1.087890625,0.5859375,3.41796875,-6.33984375,0.5234375,1.0
4743142,,,,,,,,2.37109375,2.94140625,-1.5,0.1796875,-1.0234375,0.56640625,3.34375,-6.49609375,0.5234375,1.0
4743143,,,,,,,,2.2421875,2.67578125,-1.5078125,0.119140625,-0.8828125,0.544921875,3.2265625,-6.68359375,0.5625,1.0
4743144,,,,,,,,2.08984375,2.375,-1.39453125,0.091796875,-0.728515625,0.513671875,2.99609375,-7.0234375,0.67578125,1.0
4743145,,,,,,,,2.015625,2.1015625,-1.27734375,0.083984375,-0.52734375,0.462890625,2.76953125,-7.44921875,0.8671875,1.0
4743146,,,,,,,,1.83984375,1.83984375,-1.1640625,0.0859375,-0.478515625,0.44921875,2.69140625,-7.75,0.9453125,1.0
4743147,,,,,,,,1.75390625,1.41796875,-1.05078125,0.111328125,-0.396484375,0.41796875,2.578125,-8.02734375,1.01953125,1.0
4743148,,,,,,,,1.546875,1.1953125,-0.98828125,0.18359375,-0.306640625,0.37890625,2.38671875,-8.13671875,1.09765625,1.0
4743149,,,,,,,,1.54296875,1.15234375,-0.95703125,0.216796875,-0.279296875,0.37109375,2.26953125,-8.06640625,1.09765625,1.0
4743150,36.01344266666667,129.31957466666665,87.86462442570243,115.69394053824837,1.0,350.0,,3.26953125,-0.765625,1.09375,0.302734375,-0.189453125,0.34765625,2.19140625,-7.9453125,1.17578125,1.0
4743151,,,,,,,,1.41796875,1.296875,-0.94140625,0.349609375,-0.15234375,0.349609375,2.26953125,-8.13671875,1.2109375,1.0
4743152,,,,,,,,1.49609375,1.13671875,-0.9140625,0.353515625,-0.171875,0.357421875,2.34765625,-8.25,1.17578125,1.0
4743153,,,,,,,,1.60546875,0.8203125,-0.953125,0.3359375,-0.208984375,0.361328125,2.30859375,-8.75390625,1.2109375,1.0
4743154,,,,,,,,1.46875,0.16015625,-1.0,0.2734375,-0.224609375,0.373046875,2.15625,-9.09765625,1.2109375,1.0
4743155,,,,,,,,1.4921875,0.046875,-0.82421875,0.26953125,-0.255859375,0.3671875,2.15625,-9.21484375,1.40234375,1.0
4743156,,,,,,,,1.58203125,0.0078125,-0.76171875,0.2578125,-0.27734375,0.36328125,2.23046875,-9.25390625,1.48046875,1.0
4743157,,,,,,,,1.875,-0.046875,-0.47265625,0.259765625,-0.302734375,0.359375,2.5,-9.29296875,1.78515625,1.0
4743158,,,,,,,,2.05078125,-0.08203125,-0.37890625,0.25,-0.32421875,0.35546875,2.65234375,-9.32421875,1.90234375,1.0
4743159,,,,,,,,2.18359375,-0.16015625,-0.38671875,0.236328125,-0.337890625,0.349609375,2.76953125,-9.3984375,1.90234375,1.0
4743160,36.0134435,129.31957383333332,87.7894998504703,115.78640582923774,1.1,340.0,,2.45703125,-0.3203125,-0.37109375,0.302734375,-0.189453125,0.34765625,2.19140625,-7.9453125,1.17578125,1.0
4743161,,,,,,,,2.671875,-0.3984375,-0.49609375,0.154296875,-0.32421875,0.328125,3.2265625,-9.6328125,1.82421875,1.0
4743162,,,,,,,,2.8125,-0.328125,-0.6640625,0.123046875,-0.263671875,0.296875,3.34375,-9.55859375,1.671875,1.0
4743163,,,,,,,,2.75,-0.25390625,-0.82421875,0.0625,-0.205078125,0.267578125,3.265625,-9.4765625,1.51953125,1.0
4743164,,,,,,,,2.4140625,-0.2890625,-0.93359375,-0.013671875,-0.123046875,0.236328125,2.921875,-9.51953125,1.40234375,1.0
4743165,,,,,,,,1.6015625,-0.4375,-1.03125,-0.216796875,0.072265625,0.177734375,2.078125,-9.671875,1.2890625,1.0
4743166,,,,,,,,0.7734375,-0.58984375,-0.921875,-0.310546875,0.1171875,0.16015625,1.234375,-9.82421875,1.3671875,1.0
4743167,,,,,,,,0.55078125,-0.57421875,-0.625,-0.39453125,0.134765625,0.14453125,1.00390625,-9.8203125,1.6328125,1.0
4743168,,,,,,,,0.4140625,-1.4375,-0.0546875,-0.521484375,0.154296875,0.13671875,0.8515625,-10.70703125,2.1328125,1.0
4743169,,,,,,,,0.1640625,-3.4140625,0.3046875,-0.712890625,0.0,0.166015625,0.5859375,-12.69921875,2.4375,1.0
4743170,36.0134445,129.31957300000002,87.71437509210851,115.89736432857603,1.2000000000000002,333.0,,-0.51953125,-4.25,1.07421875,-0.8203125,-0.146484375,0.126953125,2.19140625,-7.9453125,1.17578125,1.0
4743171,,,,,,,,-1.8984375,-4.84765625,2.8671875,-0.677734375,-0.123046875,0.05859375,-1.484375,-14.15234375,4.8515625,1.0
4743172,,,,,,,,-3.8125,-5.25390625,3.2265625,-0.48046875,-0.27734375,0.0703125,-3.3984375,-14.5703125,5.15625,1.0
4743173,,,,,,,,-3.8203125,-5.24609375,3.2421875,-0.330078125,-0.646484375,0.06640625,-3.74609375,-14.00390625,4.890625,1.0
4743174,,,,,,,,-4.3671875,-2.59375,2.86328125,-0.12109375,-0.89453125,0.068359375,-3.70703125,-10.86328125,4.62109375,1.0
4743175,,,,,,,,-3.8359375,-0.71875,2.609375,0.21875,-0.9609375,0.126953125,-3.0546875,-9.40234375,4.546875,1.0
4743176,,,,,,,,-1.96875,0.546875,2.6328125,0.326171875,-0.8203125,0.169921875,-1.5234375,-8.7890625,4.5078125,1.0
4743177,,,,,,,,-0.51171875,0.203125,2.53125,0.08984375,-0.6875,0.171875,-0.06640625,-9.13671875,4.4296875,1.0
4743178,,,,,,,,0.17578125,-0.03515625,2.4453125,-0.044921875,-0.6484375,0.15625,0.62109375,-9.359375,4.3515625,1.0
4743179,,,,,,,,1.1640625,-0.52734375,2.109375,-0.166015625,-0.556640625,0.072265625,1.6171875,-9.86328125,4.0078125,1.0
4743180,36.013445000000004,129.319572,87.62422615471021,115.9528430549129,1.2000000000000002,323.0,,1.04296875,-0.59375,1.7890625,-0.8203125,-0.146484375,0.126953125,2.19140625,-7.9453125,1.17578125,1.0
4743181,,,,,,,,0.55859375,-0.3203125,1.84375,-0.064453125,-0.455078125,-0.115234375,1.04296875,-9.671875,3.703125,1.0
4743182,,,,,,,,0.23046875,0.01953125,1.84375,0.001953125,-0.541015625,-0.197265625,0.73828125,-9.32421875,3.703125,1.0
4743183,,,,,,,,0.17578125,0.09375,1.8046875,0.01171875,-0.583984375,-0.2265625,0.69921875,-9.25,3.6640625,1.0
4743184,,,,,,,,-0.33203125,-0.01953125,1.57421875,-0.03515625,-0.6015625,-0.263671875,0.23828125,-9.359375,3.43359375,1.0
4743185,,,,,,,,-0.515625,-0.25,1.5078125,-0.111328125,-0.578125,-0.26953125,0.0859375,-9.59765625,3.359375,1.0
4743186,,,,,,,,-0.484375,0.02734375,1.375,-0.1328125,-0.533203125,-0.2578125,0.1640625,-9.32421875,3.203125,1.0
4743187,,,,,,,,-0.37109375,0.67578125,0.93359375,-0.060546875,-0.490234375,-0.24609375,0.31640625,-8.671875,2.74609375,1.0
4743188,,,,,,,,-0.47265625,1.0234375,0.625,-0.033203125,-0.45703125,-0.23828125,0.23828125,-8.328125,2.4375,1.0
4743189,,,,,,,,-0.6484375,1.296875,0.40234375,-0.013671875,-0.3828125,-0.2109375,0.0078125,-8.06640625,2.09375,1.0
4743190,36.013445833333336,129.31957133333333,87.56412631393852,116.04530849631723,1.1,321.0,,1.04296875,-0.59375,1.7890625,-0.015625,-0.41796875,-0.18359375,-0.02734375,-7.7890625,1.82421875,1.0
4743191,,,,,,,,-0.6796875,1.6796875,-0.1328125,-0.00390625,-0.46875,-0.162109375,0.125,-7.6015625,1.55859375,1.0
4743192,,,,,,,,-0.6875,1.75,-0.24609375,-0.001953125,-0.498046875,-0.158203125,0.1640625,-7.52734375,1.3671875,1.0
4743193,,,,,,,,-0.6484375,2.0546875,-0.5078125,0.015625,-0.521484375,-0.146484375,0.203125,-7.30078125,1.2890625,1.0
4743194,,,,,,,,-0.6640625,2.09375,-0.5859375,0.025390625,-0.529296875,-0.142578125,0.203125,-7.2578125,1.2109375,1.0
4743195,,,,,,,,-0.6875,2.2109375,-0.73828125,0.04296875,-0.5390625,-0.142578125,0.203125,-7.14453125,1.05859375,1.0
4743196,,,,,,,,-0.7421875,2.24609375,-0.73828125,0.052734375,-0.548828125,-0.140625,0.1640625,-7.1015625,1.05859375,1.0
4743197,,,,,,,,-0.98828125,2.1328125,-0.890625,0.068359375,-0.55859375,-0.146484375,-0.06640625,-7.22265625,0.90625,1.0
4743198,,,,,,,,-1.05859375,2.0859375,-0.8984375,0.091796875,-0.56640625,-0.130859375,-0.10546875,-7.26171875,0.90625,1.0
4743199,,,,,,,,-1.18359375,1.80859375,-1.0234375,0.11328125,-0.591796875,-0.10546875,-0.18359375,-7.52734375,0.7890625,1.0
4743200,36.0134465,129.31957066666666,87.50402665584014,116.11928073056308,1.0,317.0,0.0,-1.04296875,1.57421875,-1.05859375,-0.015625,-0.41796875,-0.18359375,-0.02734375,-7.75,0.75390625,1.0
4743201,,,,,,,,-0.9921875,1.3828125,-1.03125,0.08984375,-0.658203125,-0.0625,0.046875,-7.94921875,0.7890625,1.0
4743202,,,,,,,,-0.890625,1.265625,-0.9921875,0.08203125,-0.685546875,-0.03125,0.1640625,-8.06640625,0.828125,1.0
4743203,,,,,,,,-0.67578125,1.10546875,-0.875,0.087890625,-0.701171875,-0.013671875,0.39453125,-8.21484375,0.9453125,1.0
4743204,,,,,,,,-0.6484375,1.14453125,-0.953125,0.1171875,-0.69921875,0.001953125,0.4296875,-8.171875,0.8671875,1.0
4743205,,,,,,,,-0.546875,1.296875,-0.9296875,0.162109375,-0.677734375,0.005859375,0.546875,-8.02734375,0.90625,1.0
4743206,,,,,,,,-0.515625,1.3671875,-1.08984375,0.208984375,-0.650390625,0.017578125,0.5859375,-7.94921875,0.75390625,1.0
4743207,,,,,,,,-0.49609375,1.28125,-1.17578125,0.21875,-0.62890625,0.02734375,0.62109375,-8.0234375,0.67578125,1.0
4743208,,,,,,,,-0.42578125,1.04296875,-1.23046875,0.1953125,-0.638671875,0.04296875,0.73828125,-8.328125,0.67578125,1.0
4743209,,,,,,,,-0.3203125,0.8125,-1.16015625,0.13671875,-0.662109375,0.046875,0.8125,-8.48828125,0.71484375,1.0
4743210,36.01344733333334,129.31957,87.44392681759359,116.21174617502102,1.1,320.0,,-0.40234375,0.69921875,-1.0859375,0.103515625,-0.65234375,0.05078125,0.73828125,-8.59375,0.7890625,1.0
4743211,,,,,,,,-0.52734375,0.61328125,-1.046875,0.111328125,-0.6328125,0.056640625,0.62109375,-8.67578125,0.828125,1.0
4743212,,,,,,,,-0.640625,0.53125,-1.09375,0.099609375,-0.609375,0.05859375,0.5078125,-8.75,0.7890625,1.0
4743213,,,,,,,,-0.5703125,0.375,-1.015625,0.068359375,-0.626953125,0.0625,0.5859375,-8.90625,0.8671875,1.0
4743214,,,,,,,,-0.3515625,0.18359375,-0.9375,0.041015625,-0.64453125,0.05859375,0.8125,-9.09765625,0.9453125,1.0
4743215,,,,,,,,-0.2890625,-0.12890625,-0.73828125,0.0234375,-0.658203125,0.0546875,0.890625,-9.40234375,1.13671875,1.0
4743216,,,,,,,,-0.2109375,-0.28125,-0.73046875,0.009765625,-0.66796875,0.056640625,0.96875,-9.5546875,1.13671875,1.0
4743217,,,,,,,,-0.06640625,-0.7421875,-0.4921875,-0.0390625,-0.685546875,0.0625,1.08203125,-10.015625,1.44140625,1.0
4743218,,,,,,,,-0.19140625,-0.7421875,-0.33203125,-0.021484375,-0.677734375,0.072265625,0.9296875,-9.94140625,1.55859375,1.0
4743219,,,,,,,,-0.265625,-0.62890625,-0.31640625,-0.013671875,-0.642578125,0.08203125,0.8515625,-9.86328125,1.40234375,1.0
4743220,36.01344816666666,129.31956933333333,87.38382697987197,116.30421161652117,1.1,320.0,,-0.34375,-0.51171875,-0.453125,-0.046875,-0.6015625,0.1015625,0.77734375,-9.67578125,1.2890625,1.0
4743221,,,,,,,,-0.390625,-0.43359375,-0.4453125,-0.10546875,-0.56640625,0.134765625,0.8125,-9.70703125,1.40234375,1.0
4743222,,,,,,,,-0.42578125,-0.43359375,-0.46875,-0.154296875,-0.552734375,0.15625,0.77734375,-9.70703125,1.328125,1.0
4743223,,,,,,,,-0.52734375,0.03125,-0.4765625,-0.205078125,-0.521484375,0.1796875,0.66015625,-9.25,1.2890625,1.0
4743224,,,,,,,,-0.7578125,0.453125,-0.4296875,-0.21484375,-0.498046875,0.1953125,0.4296875,-8.83203125,1.328125,1.0
4743225,,,,,,,,-1.171875,0.921875,-0.359375,-0.212890625,-0.4375,0.1953125,0.0078125,-8.3671875,1.3671875,1.0
4743226,,,,,,,,-2.07421875,0.46875,-0.4921875,-0.259765625,-0.458984375,0.189453125,-0.91015625,-8.828125,1.2109375,1.0
4743227,,,,,,,,-2.2265625,-0.10546875,-0.55078125,-0.314453125,-0.5078125,0.1875,-1.0625,-9.3984375,1.13671875,1.0
4743228,,,,,,,,-1.94140625,-1.66796875,-0.63671875,-0.61328125,-0.810546875,0.220703125,-0.79296875,-10.96875,0.98046875,1.0
4743229,,,,,,,,-1.21484375,-3.8046875,-0.2421875,-0.73828125,-0.958984375,0.23828125,-0.06640625,-13.12109375,1.328125,1.0
4743230,36.013449,129.31956883333334,87.33875187084337,116.39667721146411,1.0,321.0,,3.17578125,-9.8515625,2.97265625,-1.07421875,-1.65625,0.310546875,4.30078125,-19.21484375,4.27734375,1.0
4743231,,,,,,,,4.1875,-2.703125,1.9765625,-0.103515625,-1.009765625,0.248046875,5.296875,-12.08984375,3.1640625,1.0
4743232,,,,,,,,2.27734375,0.2109375,1.28125,0.439453125,-0.486328125,0.193359375,3.37890625,-9.171875,2.4765625,1.0
4743233,,,,,,,,-0.5,0.84765625,2.4453125,0.884765625,0.123046875,0.0703125,0.5859375,-8.515625,3.7421875,1.0
4743234,,,,,,,,-1.3046875,0.42578125,2.71875,0.798828125,-0.02734375,0.068359375,-0.21875,-8.9375,4.046875,1.0
4743235,,,,,,,,-2.80078125,-1.73828125,2.88671875,0.5,-0.685546875,0.064453125,-1.71484375,-11.0859375,4.27734375,1.0
4743236,,,,,,,,-2.45703125,-2.578125,2.75390625,0.359375,-1.09765625,0.10546875,-1.37109375,-11.93359375,4.16015625,1.0
4743237,,,,,,,,-1.0,-3.7578125,2.05078125,0.3046875,-1.623046875,0.228515625,0.0859375,-13.1171875,3.47265625,1.0
4743238,,,,,,,,-0.5859375,-3.68359375,1.96484375,0.357421875,-1.7109375,0.26171875,0.5078125,-13.04296875,3.39453125,1.0
4743239,,,,,,,,0.41796875,-2.3125,1.7734375,0.623046875,-1.5390625,0.421875,1.50390625,-11.6640625,3.2421875,1.0
4743240,36.013450166666665,129.319568,87.26362694013866,116.52612892210898,1.2000000000000002,320.0,,0.38671875,-1.46875,1.59765625,-1.07421875,-1.65625,0.310546875,4.30078125,-19.21484375,4.27734375,1.0
4743241,,,,,,,,0.07421875,-0.5859375,1.46484375,0.74609375,-1.177734375,0.57421875,1.12109375,-9.9375,3.01171875,1.0
4743242,,,,,,,,0.05859375,-0.51171875,1.3203125,0.716796875,-1.123046875,0.603515625,1.08203125,-9.859375,2.8984375,1.0
4743243,,,,,,,,0.48046875,-0.59375,0.96484375,0.5859375,-1.189453125,0.6328125,1.46484375,-9.9375,2.58984375,1.0
4743244,,,,,,,,1.09375,-0.7421875,0.7734375,0.408203125,-1.39453125,0.62109375,2.0390625,-10.09765625,2.4375,1.0
4743245,,,,,,,,1.41796875,-0.47265625,0.75,0.265625,-1.51171875,0.5859375,2.30859375,-9.82421875,2.4375,1.0
4743246,,,,,,,,1.39453125,-0.34765625,0.703125,0.26171875,-1.484375,0.5625,2.26953125,-9.70703125,2.3984375,1.0
4743247,,,,,,,,1.21875,0.1875,0.60546875,0.287109375,-1.392578125,0.541015625,2.078125,-9.17578125,2.32421875,1.0
4743248,,,,,,,,1.11328125,1.03125,0.34375,0.322265625,-1.255859375,0.49609375,1.92578125,-8.33203125,2.09375,1.0
4743249,,,,,,,,1.12109375,1.60546875,0.10546875,0.326171875,-1.22265625,0.474609375,1.92578125,-7.75,1.86328125,1.0
4743250,36.01345083333333,129.319567,87.17347783029797,116.60010086064473,1.2000000000000002,317.0,,1.46484375,2.79296875,-0.39453125,0.28125,-1.154296875,0.435546875,2.23046875,-6.5625,1.40234375,1.0
4743251,,,,,,,,1.671875,3.17578125,-0.33984375,0.24609375,-1.142578125,0.40234375,2.421875,-6.1796875,1.48046875,1.0
4743252,,,,,,,,1.7734375,3.05859375,-0.515625,0.2421875,-1.216796875,0.3984375,2.5,-6.296875,1.328125,1.0
4743253,,,,,,,,1.89453125,2.984375,-0.640625,0.244140625,-1.224609375,0.3984375,2.61328125,-6.37890625,1.2109375,1.0
4743254,,,,,,,,1.8671875,2.9453125,-0.921875,0.271484375,-1.224609375,0.353515625,2.578125,-6.4140625,0.9453125,1.0
4743255,,,,,,,,1.91796875,2.8984375,-1.09375,0.306640625,-1.1953125,0.326171875,2.61328125,-6.45703125,0.7890625,1.0
4743256,,,,,,,,1.96484375,2.73828125,-1.390625,0.328125,-1.08984375,0.2890625,2.65234375,-6.60546875,0.5234375,1.0
4743257,,,,,,,,2.04296875,2.62109375,-1.57421875,0.306640625,-0.994140625,0.255859375,2.73046875,-6.72265625,0.37109375,1.0
4743258,,,,,,,,1.96484375,2.4609375,-1.546875,0.283203125,-0.9453125,0.240234375,2.65234375,-6.87890625,0.40625,1.0
4743259,,,,,,,,1.97265625,2.34765625,-1.4140625,0.248046875,-0.81640625,0.212890625,2.65234375,-6.98828125,0.5625,1.0
4743260,36.01345166666667,129.31956616666668,87.09835326772242,116.69256615798369,1.2000000000000002,315.0,,1.7734375,2.1953125,-1.125,0.28125,-1.154296875,0.435546875,2.4609375,-7.140625,0.8671875,1.0
4743261,,,,,,,,1.734375,2.140625,-0.87109375,0.26171875,-0.544921875,0.154296875,2.421875,-7.1796875,1.13671875,1.0
4743262,,,,,,,,1.62890625,2.140625,-0.703125,0.30078125,-0.4296875,0.125,2.30859375,-7.1796875,1.328125,1.0
4743263,,,,,,,,1.4765625,2.0625,-0.64453125,0.33203125,-0.388671875,0.119140625,2.15625,-7.26171875,1.40234375,1.0
4743264,,,,,,,,1.359375,2.0078125,-0.7109375,0.369140625,-0.34375,0.111328125,2.0390625,-7.296875,1.3671875,1.0
4743265,,,,,,,,1.55078125,1.6953125,-0.828125,0.38671875,-0.328125,0.111328125,2.23046875,-7.6015625,1.2890625,1.0
4743266,,,,,,,,1.7421875,1.2265625,-0.890625,0.36328125,-0.314453125,0.109375,2.421875,-8.06640625,1.25,1.0
4743267,,,,,,,,1.8671875,1.10546875,-0.99609375,0.330078125,-0.2734375,0.103515625,2.5390625,-8.171875,1.17578125,1.0
4743268,,,,,,,,1.90625,0.9453125,-1.01953125,0.3046875,-0.224609375,0.08203125,2.578125,-8.33203125,1.17578125,1.0
4743269,,,,,,,,1.8203125,0.78125,-1.0078125,0.267578125,-0.1640625,0.06640625,2.5,-8.48828125,1.2109375,1.0
4743270,36.01345216666667,129.31956516666665,87.00820434222591,116.74804488926412,1.1,310.0,,1.70703125,0.23828125,-0.80078125,0.28125,-1.154296875,0.435546875,2.38671875,-9.015625,1.44140625,1.0
4743271,,,,,,,,1.58984375,-0.08203125,-0.71484375,0.16796875,-0.03125,0.048828125,2.26953125,-9.32421875,1.55859375,1.0
4743272,,,,,,,,1.4375,-0.3515625,-0.53125,0.140625,-0.015625,0.044921875,2.1171875,-9.59765625,1.75,1.0
4743273,,,,,,,,1.328125,-0.54296875,-0.39453125,0.087890625,0.01171875,0.041015625,2.0,-9.78125,1.90234375,1.0
4743274,,,,,,,,1.24609375,-0.7734375,-0.3203125,0.064453125,0.001953125,0.04296875,1.92578125,-10.015625,1.9765625,1.0
4743275,,,,,,,,1.20703125,-0.8203125,-0.39453125,0.015625,-0.017578125,0.052734375,1.88671875,-10.05859375,1.90234375,1.0
4743276,,,,,,,,0.90234375,-0.7421875,-0.671875,-0.00390625,-0.03125,0.06640625,1.58203125,-9.9765625,1.6328125,1.0
4743277,,,,,,,,0.52734375,-1.01171875,-1.0390625,-0.091796875,-0.068359375,0.09375,1.19921875,-10.2421875,1.25,1.0
4743278,,,,,,,,0.41015625,-1.00390625,-0.9921875,-0.1640625,-0.08203125,0.10546875,1.08203125,-10.24609375,1.2890625,1.0
4743279,,,,,,,,0.07421875,-0.8515625,-0.5859375,-0.2265625,-0.0625,0.111328125,0.73828125,-10.09765625,1.671875,1.0
4743280,36.0134525,129.31956399999999,86.90303087470672,116.785030264308,1.0,300.0,,0.15625,-0.8125,-0.40234375,-0.26171875,-0.03125,0.125,0.8125,-10.0546875,1.82421875,1.0
4743281,,,,,,,,0.39453125,-0.765625,0.234375,-0.310546875,-0.041015625,0.1328125,1.04296875,-10.01953125,2.4375,1.0
4743282,,,,,,,,0.6328125,-2.015625,0.47265625,-0.4609375,-0.126953125,0.134765625,1.2734375,-11.28125,2.62890625,1.0
4743283,,,,,,,,0.48046875,-2.85546875,0.390625,-0.537109375,-0.197265625,0.12890625,1.12109375,-12.12109375,2.515625,1.0
4743284,,,,,,,,-0.203125,-2.7265625,1.05859375,-0.6328125,-0.283203125,0.0859375,0.4296875,-12.0078125,3.12890625,1.0
4743285,,,,,,,,-0.40234375,-2.7890625,1.84765625,-0.583984375,-0.1875,0.064453125,0.23828125,-12.08984375,3.85546875,1.0
4743286,,,,,,,,-1.015625,-4.54296875,2.31640625,-0.541015625,-0.0859375,0.083984375,-0.375,-13.84765625,4.27734375,1.0
4743287,,,,,,,,-1.7734375,-5.21484375,2.4453125,-0.630859375,-0.267578125,0.095703125,-1.140625,-14.53515625,4.3515625,1.0
4743288,,,,,,,,-2.23828125,-4.90234375,2.71484375,-0.619140625,-0.353515625,0.087890625,-1.59765625,-14.23046875,4.58203125,1.0
4743289,,,,,,,,-2.73046875,-2.09765625,3.7578125,-0.3515625,-0.388671875,0.076171875,-2.09765625,-11.4296875,5.578125,1.0
4743290,36.01345283333333,129.31956283333332,86.79785741079341,116.82201564188502,1.1,293.0,,-1.43359375,0.1328125,3.125,-0.26171875,-0.03125,0.125,-0.79296875,-9.2109375,4.9296875,1.0
4743291,,,,,,,,-0.29296875,0.4375,2.92578125,0.103515625,-0.564453125,0.0703125,0.35546875,-8.90625,4.73828125,1.0
4743292,,,,,,,,1.15234375,-0.2109375,2.6875,-0.013671875,-0.501953125,0.017578125,1.80859375,-9.55859375,4.5078125,1.0
4743293,,,,,,,,1.796875,-1.0546875,2.625,-0.107421875,-0.431640625,-0.05078125,2.4609375,-10.3984375,4.4296875,1.0
4743294,,,,,,,,1.7421875,-1.125,2.48046875,-0.1015625,-0.3515625,-0.130859375,2.421875,-10.48046875,4.27734375,1.0
4743295,,,,,,,,1.68359375,-0.703125,2.25,-0.015625,-0.326171875,-0.21484375,2.38671875,-10.05859375,4.046875,1.0
4743296,,,,,,,,1.3359375,0.1796875,1.72265625,0.0703125,-0.294921875,-0.296875,2.078125,-9.171875,3.51171875,1.0
4743297,,,,,,,,0.73046875,0.4765625,1.5234375,0.0625,-0.20703125,-0.34375,1.50390625,-8.8671875,3.3203125,1.0
4743298,,,,,,,,-0.12890625,0.24609375,1.66796875,-0.05859375,-0.052734375,-0.333984375,0.69921875,-9.09765625,3.47265625,1.0
4743299,,,,,,,,-0.65625,0.01953125,1.63671875,-0.09375,-0.017578125,-0.328125,0.203125,-9.32421875,3.43359375,1.0
4743300,36.013453166666665,129.3195615,86.67765921710968,116.85900087118435,1.2000000000000002,289.0,0.0,-0.58203125,0.27734375,1.0625,-0.26171875,-0.03125,0.125,-0.79296875,-9.2109375,4.9296875,1.0
4743301,,,,,,,,-0.5,0.70703125,0.65625,-0.078125,-0.1328125,-0.31640625,0.4296875,-8.63671875,2.4375,1.0
4743302,,,,,,,,-0.57421875,0.8515625,0.50390625,-0.095703125,-0.169921875,-0.318359375,0.39453125,-8.484375,2.28515625,1.0
4743303,,,,,,,,-0.72265625,1.2421875,0.2421875,-0.115234375,-0.23046875,-0.3125,0.27734375,-8.1015625,2.015625,1.0
4743304,,,,,,,,-0.80078125,1.43359375,-0.046875,-0.111328125,-0.294921875,-0.294921875,0.23828125,-7.91015625,1.7109375,1.0
4743305,,,,,,,,-0.73046875,1.58984375,-0.18359375,-0.109375,-0.40625,-0.265625,0.35546875,-7.75,1.55859375,1.0
4743306,,,,,,,,-0.6796875,1.78125,-0.25390625,-0.099609375,-0.431640625,-0.2578125,0.4296875,-7.5625,1.48046875,1.0
4743307,,,,,,,,-0.671875,1.84765625,-0.31640625,-0.0625,-0.447265625,-0.2421875,0.46875,-7.48828125,1.40234375,1.0
4743308,,,,,,,,-0.77734375,1.99609375,-0.46875,-0.017578125,-0.466796875,-0.232421875,0.39453125,-7.33203125,1.25,1.0
4743309,,,,,,,,-0.79296875,2.00390625,-0.54296875,-0.001953125,-0.48046875,-0.21875,0.39453125,-7.33203125,1.17578125,1.0
4743310,36.013453166666665,129.3195606666667,86.60253557572338,116.85900013043519,0.9,286.0,,-0.93359375,1.96484375,-0.69921875,0.033203125,-0.5,-0.189453125,0.27734375,-7.37109375,1.01953125,1.0
4743311,,,,,,,,-1.15625,1.7265625,-0.73828125,0.0546875,-0.498046875,-0.16015625,0.0859375,-7.60546875,0.98046875,1.0
4743312,,,,,,,,-1.37109375,1.57421875,-0.66015625,0.087890625,-0.490234375,-0.130859375,-0.10546875,-7.75,1.05859375,1.0
4743313,,,,,,,,-1.34765625,1.375,-0.58984375,0.12890625,-0.49609375,-0.10546875,-0.06640625,-7.9453125,1.13671875,1.0
4743314,,,,,,,,-1.25,1.296875,-0.55859375,0.189453125,-0.51171875,-0.080078125,0.046875,-8.02734375,1.17578125,1.0
4743315,,,,,,,,-1.234375,1.2109375,-0.69140625,0.267578125,-0.533203125,-0.037109375,0.0859375,-8.10546875,1.05859375,1.0
4743316,,,,,,,,-1.25,1.16796875,-0.74609375,0.27734375,-0.548828125,-0.025390625,0.0859375,-8.1328125,1.01953125,1.0
4743317,,,,,,,,-1.265625,1.16015625,-0.73828125,0.302734375,-0.564453125,0.00390625,0.0859375,-8.1328125,1.05859375,1.0
4743318,,,,,,,,-1.15625,1.1875,-0.72265625,0.322265625,-0.580078125,0.017578125,0.203125,-8.1015625,1.09765625,1.0
4743319,,,,,,,,-1.08203125,1.21875,-0.70703125,0.330078125,-0.609375,0.037109375,0.27734375,-8.0625,1.13671875,1.0
4743320,36.01345333333334,129.31955966666666,86.5123870190456,116.87749245208438,1.0,283.0,,-0.9453125,1.21875,-0.73046875,0.033203125,-0.5,-0.189453125,0.4296875,-8.06640625,1.13671875,1.0
4743321,,,,,,,,-0.875,1.12890625,-0.71484375,0.34375,-0.626953125,0.05859375,0.5078125,-8.1328125,1.17578125,1.0
4743322,,,,,,,,-0.84375,1.05078125,-0.72265625,0.333984375,-0.625,0.064453125,0.546875,-8.21484375,1.17578125,1.0
4743323,,,,,,,,-0.62109375,0.99609375,-0.578125,0.2890625,-0.62109375,0.07421875,0.77734375,-8.25,1.3671875,1.0
4743324,,,,,,,,-0.39453125,0.875,-0.640625,0.265625,-0.630859375,0.072265625,1.00390625,-8.3671875,1.328125,1.0
4743325,,,,,,,,-0.1328125,0.453125,-0.57421875,0.208984375,-0.6328125,0.0546875,1.2734375,-8.79296875,1.40234375,1.0
4743326,,,,,,,,0.01171875,0.21484375,-0.46484375,0.15625,-0.634765625,0.041015625,1.42578125,-9.015625,1.51953125,1.0
4743327,,,,,,,,0.00390625,0.1015625,-0.390625,0.134765625,-0.626953125,0.03125,1.42578125,-9.13671875,1.59375,1.0
4743328,,,,,,,,0.07421875,-0.12890625,-0.2421875,0.1015625,-0.609375,0.00390625,1.50390625,-9.36328125,1.75,1.0
4743329,,,,,,,,0.01953125,-0.2890625,-0.234375,0.083984375,-0.58984375,-0.013671875,1.46484375,-9.51953125,1.75,1.0
4743330,36.01345383333333,129.3195585,86.40721337348131,116.93297104070066,1.1,286.0,,-0.1015625,-0.56640625,-0.2734375,0.078125,-0.56640625,-0.02734375,1.3515625,-9.78515625,1.7109375,1.0
4743331,,,,,,,,-0.26953125,-0.8046875,-0.3203125,0.068359375,-0.53125,-0.04296875,1.19921875,-10.01953125,1.671875,1.0
4743332,,,,,,,,-0.28515625,-0.8828125,-0.43359375,0.060546875,-0.4921875,-0.044921875,1.19921875,-10.09765625,1.55859375,1.0
4743333,,,,,,,,-0.2578125,-0.8828125,-0.51171875,0.048828125,-0.470703125,-0.041015625,1.234375,-10.09375,1.48046875,1.0
4743334,,,,,,,,-0.1484375,-0.69140625,-0.50390625,-0.005859375,-0.42578125,-0.0390625,1.3515625,-9.8984375,1.48046875,1.0
4743335,,,,,,,,-0.171875,-0.19140625,-0.56640625,-0.09375,-0.36328125,-0.03515625,1.3515625,-9.40234375,1.40234375,1.0
4743336,,,,,,,,-0.5625,0.421875,-0.703125,-0.134765625,-0.30859375,-0.0390625,0.96875,-8.7890625,1.25,1.0
4743337,,,,,,,,-0.91796875,0.734375,-0.83203125,-0.181640625,-0.287109375,-0.046875,0.62109375,-8.48828125,1.09765625,1.0
4743338,,,,,,,,-1.30859375,0.92578125,-0.90234375,-0.216796875,-0.296875,-0.048828125,0.23828125,-8.2890625,1.01953125,1.0
4743339,,,,,,,,-1.890625,0.8828125,-0.79296875,-0.287109375,-0.3515625,-0.048828125,-0.3359375,-8.33203125,1.09765625,1.0
4743340,36.01345383333333,129.31955733333334,86.3020402743245,116.93297000692704,1.1,284.0,,-2.25,-0.0703125,-0.77734375,-0.41796875,-0.5,-0.03515625,-0.6796875,-9.29296875,1.05859375,1.0
4743341,,,,,,,,-2.03515625,-1.01953125,-0.72265625,-0.544921875,-0.658203125,-0.01171875,-0.44921875,-10.2421875,1.05859375,1.0
4743342,,,,,,,,-1.546875,-1.85546875,-0.390625,-0.666015625,-0.84765625,0.0234375,0.046875,-11.0859375,1.328125,1.0
4743343,,,,,,,,-0.671875,-3.21875,1.2265625,-0.728515625,-0.99609375,0.052734375,0.9296875,-12.47265625,2.859375,1.0
4743344,,,,,,,,0.69921875,-6.07421875,2.0390625,-0.767578125,-1.146484375,0.078125,2.30859375,-15.33984375,3.5859375,1.0
4743345,,,,,,,,3.10546875,-7.28515625,2.82421875,-0.833984375,-1.279296875,0.08203125,4.72265625,-16.56640625,4.27734375,1.0
4743346,,,,,,,,4.0078125,-5.9375,3.30078125,-0.69921875,-1.294921875,0.01171875,5.640625,-15.2265625,4.66015625,1.0
4743347,,,,,,,,4.7890625,-1.0234375,2.51171875,-0.04296875,-0.986328125,-0.072265625,6.4453125,-10.3203125,3.81640625,1.0
4743348,,,,,,,,2.88671875,1.03515625,1.859375,0.396484375,-0.595703125,-0.17578125,4.56640625,-8.25,3.1640625,1.0
4743349,,,,,,,,2.0,0.921875,1.80859375,0.419921875,-0.5390625,-0.1875,3.6875,-8.37109375,3.12890625,1.0
4743350,36.013454333333335,129.31955616666667,86.19686663289102,116.98844859926206,1.1,286.0,,0.16015625,-1.76953125,2.3828125,0.220703125,-0.80859375,-0.11328125,1.88671875,-11.05078125,3.7421875,1.0
4743351,,,,,,,,0.375,-2.7734375,2.6875,0.162109375,-1.08203125,-0.0234375,2.1171875,-12.05078125,4.046875,1.0
4743352,,,,,,,,0.7109375,-3.23046875,2.84765625,0.1875,-1.154296875,0.044921875,2.4609375,-12.50390625,4.19921875,1.0
4743353,,,,,,,,0.89453125,-3.34765625,2.87890625,0.326171875,-1.111328125,0.138671875,2.65234375,-12.6171875,4.23828125,1.0
4743354,,,,,,,,0.703125,-2.12109375,2.46484375,0.533203125,-0.935546875,0.25,2.4609375,-11.39453125,3.85546875,1.0
4743355,,,,,,,,-0.12890625,0.0546875,1.375,0.697265625,-0.6796875,0.48046875,1.58203125,-9.21484375,2.859375,1.0
4743356,,,,,,,,-0.16796875,0.29296875,1.2421875,0.556640625,-0.73046875,0.52734375,1.50390625,-8.98046875,2.78125,1.0
4743357,,,,,,,,0.34375,0.140625,1.11328125,0.48046875,-0.8125,0.548828125,2.0,-9.13671875,2.66796875,1.0
4743358,,,,,,,,0.515625,0.03125,0.96875,0.294921875,-0.984375,0.568359375,2.1171875,-9.25,2.5546875,1.0
4743359,,,,,,,,0.4921875,0.0390625,0.84375,0.28125,-0.994140625,0.56640625,2.078125,-9.25390625,2.4375,1.0
4743360,36.013454499999995,129.31955483333334,86.07666862539037,117.00694062834293,1.2000000000000002,285.0,,0.0703125,0.4609375,0.68359375,0.279296875,-0.95703125,0.564453125,1.6171875,-8.83203125,2.28515625,1.0
4743361,,,,,,,,-0.109375,1.16015625,0.53515625,0.318359375,-0.91015625,0.5390625,1.390625,-8.13671875,2.16796875,1.0
4743362,,,,,,,,-0.03515625,1.6953125,0.28515625,0.3203125,-0.927734375,0.51953125,1.42578125,-7.6015625,1.94140625,1.0
4743363,,,,,,,,0.09765625,2.19140625,0.0859375,0.30859375,-0.951171875,0.509765625,1.54296875,-7.1015625,1.75,1.0
4743364,,,,,,,,0.625,2.73828125,0.03125,0.26953125,-1.00390625,0.498046875,2.0390625,-6.56640625,1.7109375,1.0
4743365,,,,,,,,0.96484375,2.9375,-0.12890625,0.2421875,-1.08984375,0.478515625,2.34765625,-6.375,1.55859375,1.0
4743366,,,,,,,,1.37109375,2.9375,-0.4453125,0.236328125,-1.16015625,0.45703125,2.73046875,-6.375,1.25,1.0
4743367,,,,,,,,1.80078125,2.859375,-0.64453125,0.20703125,-1.216796875,0.421875,3.15234375,-6.45703125,1.05859375,1.0
4743368,,,,,,,,1.9296875,2.8203125,-0.8359375,0.201171875,-1.224609375,0.39453125,3.265625,-6.4921875,0.8671875,1.0
4743369,,,,,,,,2.12890625,2.63671875,-1.1875,0.1484375,-1.19140625,0.34375,3.45703125,-6.6796875,0.5234375,1.0
4743370,36.013454333333335,129.319554,86.00154516396003,116.98844668506553,1.0,281.0,,2.14453125,2.37109375,-1.2578125,0.279296875,-0.95703125,0.564453125,3.45703125,-6.9453125,0.4453125,1.0
4743371,,,,,,,,2.0,2.0234375,-1.140625,0.11328125,-0.810546875,0.216796875,3.3046875,-7.296875,0.5625,1.0
4743372,,,,,,,,1.9609375,1.91015625,-1.07421875,0.123046875,-0.724609375,0.203125,3.265625,-7.40625,0.63671875,1.0
4743373,,,,,,,,1.28125,1.86328125,-0.70703125,0.171875,-0.431640625,0.158203125,2.578125,-7.44921875,1.01953125,1.0
4743374,,,,,,,,1.125,1.82421875,-0.66796875,0.1875,-0.3671875,0.150390625,2.421875,-7.48828125,1.05859375,1.0
4743375,,,,,,,,1.10546875,1.82421875,-0.4921875,0.23046875,-0.2890625,0.14453125,2.38671875,-7.48828125,1.25,1.0
4743376,,,,,,,,1.05859375,1.82421875,-0.5078125,0.265625,-0.271484375,0.154296875,2.34765625,-7.48828125,1.25,1.0
4743377,,,,,,,,1.140625,1.6640625,-0.60546875,0.328125,-0.244140625,0.15234375,2.421875,-7.64453125,1.17578125,1.0
4743378,,,,,,,,1.1875,1.55078125,-0.69921875,0.353515625,-0.248046875,0.158203125,2.4609375,-7.75390625,1.09765625,1.0
4743379,,,,,,,,1.34765625,1.1953125,-0.9375,0.36328125,-0.244140625,0.16796875,2.61328125,-8.1015625,0.90625,1.0
4743380,36.013454499999995,129.31955316666665,85.92642133823631,117.00693915709428,0.9,279.0,,1.35546875,1.08203125,-1.0703125,0.279296875,-0.95703125,0.564453125,2.61328125,-8.21484375,0.7890625,1.0
4743381,,,,,,,,1.40234375,0.9140625,-1.09375,0.34765625,-0.197265625,0.169921875,2.65234375,-8.37109375,0.7890625,1.0
4743382,,,,,,,,1.21875,0.8359375,-0.93359375,0.333984375,-0.126953125,0.16796875,2.4609375,-8.44921875,0.98046875,1.0
4743383,,,,,,,,1.234375,0.66796875,-0.6953125,0.310546875,-0.041015625,0.16015625,2.4609375,-8.59765625,1.25,1.0
4743384,,,,,,,,1.3203125,0.32421875,-0.41796875,0.2890625,0.00390625,0.169921875,2.5390625,-8.94140625,1.55859375,1.0
4743385,,,,,,,,1.375,0.125,-0.328125,0.267578125,0.009765625,0.169921875,2.578125,-9.1328125,1.671875,1.0
4743386,,,,,,,,1.44921875,-0.03125,-0.265625,0.265625,0.015625,0.1796875,2.65234375,-9.29296875,1.75,1.0
4743387,,,,,,,,1.51953125,-0.3828125,-0.3359375,0.22265625,0.005859375,0.19140625,2.69140625,-9.6328125,1.7109375,1.0
4743388,,,,,,,,1.48828125,-0.58203125,-0.3125,0.1875,-0.00390625,0.193359375,2.65234375,-9.82421875,1.75,1.0
4743389,,,,,,,,1.2734375,-0.734375,-0.4140625,0.1640625,0.017578125,0.203125,2.421875,-9.98046875,1.671875,1.0
4743390,36.013454,129.31955183333332,85.80622405378833,116.95145835968904,1.1,266.0,,1.0234375,-0.859375,-0.5078125,0.279296875,-0.95703125,0.564453125,2.15625,-10.09765625,1.59375,1.0
4743391,,,,,,,,0.47265625,-0.8515625,-0.4765625,0.09375,0.091796875,0.248046875,1.58203125,-10.09375,1.6328125,1.0
4743392,,,,,,,,0.2734375,-0.92578125,-0.5234375,-0.021484375,0.0390625,0.283203125,1.3515625,-10.16796875,1.59375,1.0
4743393,,,,,,,,0.3046875,-0.92578125,-0.4375,-0.1015625,-0.013671875,0.30859375,1.3515625,-10.1640625,1.671875,1.0
4743394,,,,,,,,0.3203125,-0.6953125,-0.30859375,-0.181640625,-0.04296875,0.32421875,1.3515625,-9.9375,1.78515625,1.0
4743395,,,,,,,,0.28125,-0.23046875,-0.25390625,-0.212890625,-0.048828125,0.3359375,1.2734375,-9.4765625,1.82421875,1.0
4743396,,,,,,,,0.3203125,0.078125,-0.3515625,-0.21875,-0.056640625,0.33984375,1.3125,-9.17578125,1.7109375,1.0
4743397,,,,,,,,0.421875,0.32421875,-0.51953125,-0.267578125,-0.142578125,0.349609375,1.390625,-8.94140625,1.51953125,1.0
4743398,,,,,,,,0.796875,0.1015625,-0.60546875,-0.40625,-0.25,0.3515625,1.734375,-9.171875,1.40234375,1.0
4743399,,,,,,,,1.01171875,-1.1875,-0.7109375,-0.603515625,-0.318359375,0.34765625,1.92578125,-10.48046875,1.25,1.0
4743400,36.01345366666667,129.319551,85.73110077470196,116.91447120879498,1.0,259.0,0.0,0.61328125,-2.359375,-0.40234375,0.279296875,-0.95703125,0.564453125,1.50390625,-11.6640625,1.48046875,1.0
4743401,,,,,,,,0.12890625,-2.265625,0.48046875,-0.98046875,-0.341796875,0.314453125,1.00390625,-11.58984375,2.28515625,1.0
4743402,,,,,,,,-0.2734375,-2.2109375,1.1796875,-0.96484375,-0.26953125,0.294921875,0.5859375,-11.546875,2.9375,1.0
4743403,,,,,,,,-0.47265625,-2.609375,1.6484375,-0.740234375,-0.0859375,0.2890625,0.35546875,-11.97265625,3.28125,1.0
4743404,,,,,,,,-1.453125,-3.20703125,2.33203125,-0.724609375,-0.23046875,0.2890625,-0.640625,-12.578125,3.89453125,1.0
4743405,,,,,,,,-1.921875,-1.70703125,2.81640625,-0.623046875,-0.341796875,0.294921875,-1.140625,-11.0859375,4.31640625,1.0
4743406,,,,,,,,-1.9140625,-1.34375,2.82421875,-0.275390625,-0.314453125,0.27734375,-1.140625,-10.74609375,4.27734375,1.0
4743407,,,,,,,,-1.46875,-0.65625,2.76171875,0.015625,-0.34375,0.27734375,-0.71875,-10.05859375,4.19921875,1.0
4743408,,,,,,,,-0.91015625,-0.80859375,3.0625,0.119140625,-0.396484375,0.27734375,-0.18359375,-10.203125,4.5078125,1.0
4743409,,,,,,,,-0.1640625,-1.26953125,3.20703125,0.103515625,-0.40234375,0.2734375,0.546875,-10.66796875,4.66015625,1.0
4743410,36.01345333333334,129.31954983333333,85.6259280356184,116.877483767056,1.1,255.0,,0.49609375,-1.48828125,2.73828125,0.279296875,-0.95703125,0.564453125,1.50390625,-11.6640625,1.48046875,1.0
4743411,,,,,,,,0.85546875,-1.296875,2.00390625,0.10546875,-0.419921875,0.193359375,1.54296875,-10.70703125,3.47265625,1.0
4743412,,,,,,,,0.90234375,-1.22265625,1.8515625,0.146484375,-0.376953125,0.158203125,1.58203125,-10.62890625,3.3203125,1.0
4743413,,,,,,,,0.59375,-0.6484375,1.875,0.232421875,-0.32421875,0.0859375,1.2734375,-10.05859375,3.359375,1.0
4743414,,,,,,,,-0.2578125,0.04296875,1.7578125,0.26171875,-0.30078125,-0.0234375,0.4296875,-9.36328125,3.28125,1.0
4743415,,,,,,,,-0.625,-0.00390625,1.21875,0.169921875,-0.326171875,-0.11328125,0.0859375,-9.3984375,2.78125,1.0
4743416,,,,,,,,-0.59375,0.06640625,1.13671875,0.154296875,-0.345703125,-0.126953125,0.125,-9.3203125,2.70703125,1.0
4743417,,,,,,,,-0.5390625,0.33203125,0.8125,0.103515625,-0.37890625,-0.1328125,0.203125,-9.0546875,2.3984375,1.0
4743418,,,,,,,,-0.51953125,0.87109375,0.4296875,0.072265625,-0.3828125,-0.140625,0.23828125,-8.515625,2.015625,1.0
4743419,,,,,,,,-0.53515625,1.0625,0.34765625,0.07421875,-0.373046875,-0.140625,0.23828125,-8.33203125,1.94140625,1.0
4743420,36.013452666666666,129.3195486666667,85.52075565807661,116.80350990836814,1.1,250.0,,-0.55078125,1.48046875,0.1015625,0.072265625,-0.341796875,-0.142578125,0.23828125,-7.91015625,1.7109375,1.0
4743421,,,,,,,,-0.6015625,1.671875,0.0625,0.068359375,-0.349609375,-0.1484375,0.203125,-7.72265625,1.671875,1.0
4743422,,,,,,,,-0.59765625,1.93359375,-0.21484375,0.0546875,-0.375,-0.150390625,0.23828125,-7.4453125,1.40234375,1.0
4743423,,,,,,,,-0.62109375,2.05078125,-0.328125,0.060546875,-0.4140625,-0.154296875,0.23828125,-7.33203125,1.2890625,1.0
4743424,,,,,,,,-0.55859375,2.27734375,-0.48828125,0.068359375,-0.44140625,-0.162109375,0.31640625,-7.1015625,1.13671875,1.0
4743425,,,,,,,,-0.58203125,2.27734375,-0.71875,0.08984375,-0.47265625,-0.1640625,0.31640625,-7.10546875,0.90625,1.0
4743426,,,,,,,,-0.61328125,2.15625,-0.91796875,0.095703125,-0.47265625,-0.154296875,0.31640625,-7.21875,0.71484375,1.0
4743427,,,,,,,,-0.75,1.83984375,-0.88671875,0.091796875,-0.455078125,-0.154296875,0.203125,-7.5234375,0.75390625,1.0
4743428,,,,,,,,-0.7734375,1.7265625,-0.859375,0.087890625,-0.453125,-0.142578125,0.203125,-7.64453125,0.7890625,1.0
4743429,,,,,,,,-0.90625,1.4140625,-0.7421875,0.080078125,-0.4609375,-0.125,0.0859375,-7.9453125,0.90625,1.0
4743430,36.01345233333333,129.31954783333333,85.44563237090004,116.76652276068495,0.9,250.0,,-1.015625,1.22265625,-0.67578125,0.126953125,-0.46484375,-0.109375,0.0078125,-8.13671875,0.98046875,1.0
4743431,,,,,,,,-1.03125,1.18359375,-0.64453125,0.16015625,-0.453125,-0.09375,0.0078125,-8.17578125,1.01953125,1.0
4743432,,,,,,,,-1.16796875,1.05078125,-0.8125,0.1953125,-0.453125,-0.083984375,-0.10546875,-8.29296875,0.8671875,1.0
4743433,,,,,,,,-1.3359375,1.04296875,-0.75,0.2265625,-0.4296875,-0.076171875,-0.2578125,-8.29296875,0.9453125,1.0
4743434,,,,,,,,-1.57421875,1.42578125,-0.66015625,0.25390625,-0.416015625,-0.060546875,-0.48828125,-7.91015625,1.05859375,1.0
4743435,,,,,,,,-1.63671875,1.3828125,-0.875,0.291015625,-0.443359375,-0.037109375,-0.52734375,-7.9453125,0.8671875,1.0
4743436,,,,,,,,-1.60546875,1.21875,-1.12890625,0.255859375,-0.5,-0.021484375,-0.48828125,-8.1015625,0.63671875,1.0
4743437,,,,,,,,-1.5,0.9453125,-1.21875,0.177734375,-0.572265625,-0.001953125,-0.375,-8.37109375,0.5625,1.0
4743438,,,,,,,,-1.28515625,0.21484375,-1.2734375,0.119140625,-0.658203125,0.015625,-0.14453125,-9.09375,0.5234375,1.0
4743439,,,,,,,,-1.0234375,-0.01171875,-1.234375,0.072265625,-0.75390625,0.044921875,0.125,-9.32421875,0.5625,1.0
4743440,36.01345166666667,129.31954683333333,85.35548471739556,116.69254905091216,1.0,249.0,,-0.6484375,-0.2890625,-1.19140625,0.064453125,-0.779296875,0.0703125,0.5078125,-9.59765625,0.59765625,1.0
4743441,,,,,,,,-0.42578125,-0.2109375,-1.02734375,0.080078125,-0.765625,0.07421875,0.73828125,-9.515625,0.75390625,1.0
4743442,,,,,,,,-0.3125,-0.09765625,-0.953125,0.09765625,-0.736328125,0.0703125,0.8515625,-9.40234375,0.828125,1.0
4743443,,,,,,,,-0.05078125,0.27734375,-0.9296875,0.158203125,-0.66015625,0.0546875,1.12109375,-9.01953125,0.8671875,1.0
4743444,,,,,,,,0.02734375,0.27734375,-0.890625,0.1796875,-0.6328125,0.060546875,1.19921875,-9.015625,0.90625,1.0
4743445,,,,,,,,0.1328125,0.23046875,-0.859375,0.1796875,-0.583984375,0.052734375,1.3125,-9.0546875,0.9453125,1.0
4743446,,,,,,,,0.39453125,-0.19140625,-0.4453125,0.123046875,-0.556640625,0.041015625,1.58203125,-9.4765625,1.3671875,1.0
4743447,,,,,,,,0.5859375,-0.41796875,-0.37890625,0.10546875,-0.53515625,0.033203125,1.7734375,-9.70703125,1.44140625,1.0
4743448,,,,,,,,0.8046875,-0.8125,-0.41015625,0.10546875,-0.474609375,0.015625,2.0,-10.09765625,1.40234375,1.0
4743449,,,,,,,,0.796875,-0.88671875,-0.41796875,0.08984375,-0.396484375,0.013671875,2.0,-10.1640625,1.40234375,1.0
4743450,36.01345116666666,129.3195455,85.23528742715602,116.63706825816891,1.1,250.0,,0.63671875,-1.046875,-0.453125,0.04296875,-0.3203125,0.0,1.84765625,-10.3203125,1.3671875,1.0
4743451,,,,,,,,0.4765625,-1.0390625,-0.30078125,-0.0078125,-0.236328125,-0.013671875,1.6953125,-10.3203125,1.51953125,1.0
4743452,,,,,,,,0.19921875,-0.58203125,-0.21875,-0.0703125,-0.11328125,-0.0234375,1.42578125,-9.859375,1.59375,1.0
4743453,,,,,,,,-0.10546875,-0.08203125,-0.31640625,-0.1015625,0.01171875,-0.04296875,1.12109375,-9.359375,1.48046875,1.0
4743454,,,,,,,,-0.87890625,0.33984375,-0.38671875,-0.134765625,0.076171875,-0.046875,0.35546875,-8.94140625,1.40234375,1.0
4743455,,,,,,,,-1.37890625,0.25390625,-0.33203125,-0.224609375,0.064453125,-0.048828125,-0.14453125,-9.015625,1.44140625,1.0
4743456,,,,,,,,-1.9140625,-0.62109375,-0.078125,-0.341796875,-0.056640625,-0.048828125,-0.6796875,-9.90234375,1.671875,1.0
4743457,,,,,,,,-1.84375,-1.80859375,-0.0703125,-0.5234375,-0.287109375,-0.01953125,-0.6015625,-11.08984375,1.6328125,1.0
4743458,,,,,,,,-1.8515625,-2.14453125,0.18359375,-0.609375,-0.421875,-0.005859375,-0.6015625,-11.4296875,1.86328125,1.0
4743459,,,,,,,,-1.01953125,-3.32421875,1.05859375,-0.6796875,-0.578125,0.001953125,0.23828125,-12.6171875,2.66796875,1.0
4743460,36.01345066666667,129.31954416666667,85.11509013321448,116.58158746842943,1.2000000000000002,251.0,,0.32421875,-5.26171875,1.359375,0.04296875,-0.3203125,0.0,1.84765625,-10.3203125,1.3671875,1.0
4743461,,,,,,,,1.50390625,-6.28125,1.66796875,-0.716796875,-0.826171875,0.0625,2.76953125,-15.609375,3.12890625,1.0
4743462,,,,,,,,3.33203125,-3.4765625,2.28125,-0.609375,-0.828125,0.1015625,4.60546875,-12.81640625,3.6640625,1.0
4743463,,,,,,,,3.30078125,-1.97265625,2.0,-0.4375,-0.71875,0.10546875,4.56640625,-11.31640625,3.359375,1.0
4743464,,,,,,,,1.65625,0.36328125,1.41015625,0.1640625,-0.23046875,0.064453125,2.921875,-8.9765625,2.74609375,1.0
4743465,,,,,,,,0.8515625,0.71484375,1.796875,0.4140625,0.103515625,0.013671875,2.1171875,-8.6328125,3.1640625,1.0
4743466,,,,,,,,-0.18359375,-0.6328125,1.9375,0.2578125,-0.25390625,-0.025390625,1.08203125,-9.98046875,3.359375,1.0
4743467,,,,,,,,0.03125,-3.09375,2.42578125,0.083984375,-0.880859375,0.025390625,1.3125,-12.4296875,3.85546875,1.0
4743468,,,,,,,,0.17578125,-3.32421875,2.38671875,0.142578125,-0.939453125,0.05078125,1.46484375,-12.65625,3.81640625,1.0
4743469,,,,,,,,0.62890625,-2.2890625,1.8359375,0.380859375,-0.8984375,0.11328125,1.92578125,-11.62890625,3.28125,1.0
4743470,36.0134505,129.319543,85.00991720861663,116.56309324100572,1.1,253.0,,0.4453125,-1.3671875,1.453125,0.763671875,-0.58984375,0.22265625,1.58203125,-10.203125,2.78125,1.0
4743471,,,,,,,,0.0703125,-0.11328125,1.12109375,0.802734375,-0.453125,0.341796875,1.234375,-9.29296875,2.62890625,1.0
4743472,,,,,,,,0.015625,0.109375,1.05078125,0.7109375,-0.421875,0.439453125,1.54296875,-9.25,2.74609375,1.0
4743473,,,,,,,,0.60546875,-0.05078125,0.96484375,0.490234375,-0.552734375,0.48828125,2.0390625,-9.44140625,2.58984375,1.0
4743474,,,,,,,,1.09765625,-0.203125,0.84765625,0.400390625,-0.625,0.478515625,2.26953125,-9.515625,2.58984375,1.0
4743475,,,,,,,,1.08984375,-0.12890625,0.7734375,0.41015625,-0.607421875,0.451171875,2.0,-9.0546875,2.4375,1.0
4743476,,,,,,,,0.875,0.25390625,0.640625,0.435546875,-0.580078125,0.43359375,1.88671875,-8.75390625,2.3984375,1.0
4743477,,,,,,,,0.72265625,0.8671875,0.45703125,0.494140625,-0.525390625,0.3984375,1.80859375,-8.1015625,2.16796875,1.0
4743478,,,,,,,,0.625,1.671875,0.21875,0.484375,-0.505859375,0.361328125,1.734375,-7.41015625,2.015625,1.0
4743479,,,,,,,,0.703125,2.23828125,0.046875,0.44140625,-0.5234375,0.3359375,1.734375,-7.06640625,1.9765625,1.0
4743480,36.01345,129.319542,84.91976937028407,116.50761274457825,1.1,250.0,,0.765625,2.4609375,-0.18359375,0.408203125,-0.5546875,0.32421875,1.58203125,-10.203125,2.78125,1.0
4743481,,,,,,,,0.703125,2.5,-0.3359375,0.376953125,-0.591796875,0.33203125,1.6953125,-6.796875,1.671875,1.0
4743482,,,,,,,,0.6328125,2.65234375,-0.49609375,0.373046875,-0.603515625,0.333984375,1.6171875,-6.640625,1.51953125,1.0
4743483,,,,,,,,0.62109375,2.8046875,-0.52734375,0.37109375,-0.607421875,0.345703125,1.58203125,-6.4921875,1.51953125,1.0
4743484,,,,,,,,0.62890625,2.796875,-0.7734375,0.373046875,-0.615234375,0.341796875,1.58203125,-6.4921875,1.2890625,1.0
4743485,,,,,,,,0.98828125,2.72265625,-0.8359375,0.345703125,-0.6328125,0.3515625,1.92578125,-6.56640625,1.25,1.0
4743486,,,,,,,,1.078125,2.67578125,-0.890625,0.314453125,-0.63671875,0.35546875,2.0,-6.60546875,1.2109375,1.0
4743487,,,,,,,,1.37109375,2.5234375,-0.890625,0.224609375,-0.60546875,0.322265625,2.26953125,-6.76171875,1.25,1.0
4743488,,,,,,,,1.46484375,2.25390625,-0.98046875,0.20703125,-0.57421875,0.30078125,2.34765625,-7.02734375,1.17578125,1.0
4743489,,,,,,,,1.41015625,1.9765625,-0.96875,0.220703125,-0.501953125,0.2578125,2.26953125,-7.296875,1.2109375,1.0
4743490,36.013449333333334,129.31954066666668,84.7995722511555,116.4336387507349,1.2000000000000002,244.0,,1.41015625,1.82421875,-0.9375,0.408203125,-0.5546875,0.32421875,1.58203125,-10.203125,2.78125,1.0
4743491,,,,,,,,1.1875,1.5859375,-0.69921875,0.2265625,-0.349609375,0.19140625,2.0390625,-7.6796875,1.51953125,1.0
4743492,,,,,,,,1.01171875,1.51171875,-0.5234375,0.251953125,-0.2578125,0.166015625,1.84765625,-7.75390625,1.7109375,1.0
4743493,,,,,,,,0.9375,1.50390625,-0.4921875,0.271484375,-0.220703125,0.15625,1.7734375,-7.75,1.75,1.0
4743494,,,,,,,,0.875,1.49609375,-0.48828125,0.3203125,-0.17578125,0.16015625,1.6953125,-7.75390625,1.78515625,1.0
4743495,,,,,,,,1.2578125,1.02734375,-0.6640625,0.337890625,-0.18359375,0.1640625,2.078125,-8.21484375,1.6328125,1.0
4743496,,,,,,,,1.41796875,0.72265625,-0.80859375,0.29296875,-0.201171875,0.1640625,2.26953125,-8.63671875,1.51953125,1.0
4743497,,,,,,,,1.55078125,0.359375,-0.87890625,0.291015625,-0.181640625,0.1484375,2.34765625,-8.91015625,1.44140625,1.0
4743498,,,,,,,,1.55078125,0.3125,-0.94140625,0.30078125,-0.150390625,0.1484375,2.30859375,-8.94140625,1.40234375,1.0
4743499,,,,,,,,1.59765625,0.3046875,-0.99609375,0.33984375,-0.064453125,0.134765625,2.34765625,-8.91015625,1.48046875,1.0
