time,latitude,longitude,enu_x,enu_y,speed,course,ecg,accX,accY,accZ,gyrX,gyrY,gyrZ,eulR,eulP,eulY,validity
4756390,36.013419500000005,129.3195725,87.66932858383421,113.12338263684032,1.1,27.0,,0.87109375,-0.1875,0.49609375,0.216796875,-0.927734375,0.37109375,1.54296875,-9.59375,1.90234375,1.0
4756391,,,,,,,,0.96875,-0.1796875,0.6015625,0.162109375,-0.892578125,0.35546875,1.6171875,-9.59375,2.015625,1.0
4756392,,,,,,,,1.0546875,0.08203125,0.51953125,0.15625,-0.85546875,0.349609375,1.6953125,-9.32421875,1.94140625,1.0
4756393,,,,,,,,0.96484375,0.43359375,0.43359375,0.1875,-0.779296875,0.330078125,1.58203125,-8.9765625,1.86328125,1.0
4756394,,,,,,,,0.90234375,0.96875,0.11328125,0.2421875,-0.708984375,0.310546875,1.50390625,-8.44921875,1.55859375,1.0
4756395,,,,,,,,0.83984375,1.3515625,-0.140625,0.271484375,-0.669921875,0.294921875,1.42578125,-8.0625,1.328125,1.0
4756396,,,,,,,,0.84765625,1.50390625,-0.30859375,0.271484375,-0.658203125,0.28125,1.42578125,-7.90625,1.17578125,1.0
4756397,,,,,,,,0.8359375,2.2734375,-0.53515625,0.2265625,-0.650390625,0.271484375,1.390625,-7.14453125,0.98046875,1.0
4756398,,,,,,,,0.7734375,2.5390625,-0.6640625,0.21484375,-0.625,0.255859375,1.3125,-6.875,0.8671875,1.0
4756399,,,,,,,,0.7421875,2.5,-0.671875,0.212890625,-0.62109375,0.259765625,1.2734375,-6.91796875,0.8671875,1.0
4756400,36.01342016666667,129.31957283333335,87.6993773173651,113.1973557699445,0.9,25.0,0.0,0.875,2.4921875,-0.765625,0.208984375,-0.587890625,0.251953125,1.390625,-6.91796875,0.7890625,1.0
4756401,,,,,,,,0.95703125,2.5703125,-0.86328125,0.201171875,-0.55859375,0.234375,1.46484375,-6.83984375,0.71484375,1.0
4756402,,,,,,,,1.1640625,2.45703125,-0.87890625,0.20703125,-0.53125,0.197265625,1.65625,-6.9453125,0.71484375,1.0
4756403,,,,,,,,1.25,2.2265625,-0.90234375,0.236328125,-0.43359375,0.158203125,1.734375,-7.18359375,0.71484375,1.0
4756404,,,,,,,,1.140625,2.06640625,-0.8515625,0.232421875,-0.37890625,0.12109375,1.6171875,-7.328125,0.7890625,1.0
4756405,,,,,,,,1.21875,1.91015625,-0.8671875,0.2265625,-0.345703125,0.095703125,1.6953125,-7.48828125,0.7890625,1.0
4756406,,,,,,,,1.265625,1.7578125,-0.890625,0.22265625,-0.328125,0.076171875,1.734375,-7.640625,0.7890625,1.0
4756407,,,,,,,,1.3046875,1.671875,-0.8671875,0.212890625,-0.30078125,0.0703125,1.7734375,-7.72265625,0.828125,1.0
4756408,,,,,,,,1.1875,1.59765625,-0.8125,0.21484375,-0.236328125,0.05078125,1.65625,-7.7890625,0.90625,1.0
4756409,,,,,,,,1.1484375,1.390625,-0.71484375,0.232421875,-0.16015625,0.037109375,1.6171875,-7.984375,1.01953125,1.0
4756410,36.01342116666667,129.31957333333332,87.74445041007729,113.30831546948008,1.0,21.0,,1.1796875,0.9296875,-0.62109375,0.208984375,-0.587890625,0.251953125,1.390625,-6.91796875,0.7890625,1.0
4756411,,,,,,,,1.21875,0.6171875,-0.5625,0.259765625,-0.07421875,0.041015625,1.6953125,-8.75,1.2109375,1.0
4756412,,,,,,,,1.1796875,0.5,-0.62109375,0.259765625,-0.064453125,0.046875,1.65625,-8.87109375,1.17578125,1.0
4756413,,,,,,,,1.07421875,0.4609375,-0.63671875,0.263671875,-0.0625,0.0390625,1.54296875,-8.90625,1.17578125,1.0
4756414,,,,,,,,0.99609375,0.5234375,-0.640625,0.259765625,-0.044921875,0.03125,1.46484375,-8.828125,1.2109375,1.0
4756415,,,,,,,,0.9140625,0.5546875,-0.5390625,0.2578125,-0.041015625,0.037109375,1.390625,-8.79296875,1.328125,1.0
4756416,,,,,,,,0.84375,0.32421875,-0.41015625,0.240234375,-0.041015625,0.037109375,1.3125,-9.015625,1.48046875,1.0
4756417,,,,,,,,0.84375,0.0390625,-0.328125,0.1875,-0.0625,0.046875,1.3125,-9.2890625,1.59375,1.0
4756418,,,,,,,,0.765625,-0.11328125,-0.296875,0.16015625,-0.07421875,0.052734375,1.234375,-9.44140625,1.6328125,1.0
4756419,,,,,,,,0.73046875,-0.07421875,-0.1953125,0.138671875,-0.083984375,0.06640625,1.19921875,-9.3984375,1.75,1.0
4756420,36.01342233333333,129.3195735,87.75947385368953,113.43776807714612,1.1,15.0,,0.69921875,-0.08203125,-0.28125,0.107421875,-0.103515625,0.083984375,1.390625,-6.91796875,0.7890625,1.0
4756421,,,,,,,,0.69921875,-0.12890625,-0.41015625,0.052734375,-0.134765625,0.08984375,1.16015625,-9.4375,1.55859375,1.0
4756422,,,,,,,,0.73828125,-0.234375,-0.59375,-0.037109375,-0.177734375,0.087890625,1.19921875,-9.5546875,1.3671875,1.0
4756423,,,,,,,,0.74609375,-0.42578125,-0.625,-0.13671875,-0.20703125,0.072265625,1.19921875,-9.7421875,1.328125,1.0
4756424,,,,,,,,0.70703125,-0.65625,-0.6796875,-0.23046875,-0.25390625,0.0703125,1.16015625,-9.9765625,1.25,1.0
4756425,,,,,,,,0.55078125,-0.6171875,-0.73046875,-0.296875,-0.265625,0.072265625,1.00390625,-9.9375,1.17578125,1.0
4756426,,,,,,,,0.5078125,-0.45703125,-0.69921875,-0.34765625,-0.265625,0.068359375,0.96875,-9.78515625,1.17578125,1.0
4756427,,,,,,,,0.66796875,-0.21875,-0.5859375,-0.388671875,-0.265625,0.08203125,1.12109375,-9.55859375,1.25,1.0
4756428,,,,,,,,0.8984375,-0.40234375,-0.4453125,-0.4140625,-0.259765625,0.08203125,1.3515625,-9.74609375,1.3671875,1.0
4756429,,,,,,,,1.203125,-1.0078125,-0.484375,-0.49609375,-0.26171875,0.087890625,1.65625,-10.359375,1.2890625,1.0
4756430,36.013423333333336,129.3195735,87.75947274496217,113.54872732793929,1.1,9.0,,1.39453125,-2.33984375,-0.58203125,0.107421875,-0.103515625,0.083984375,1.84765625,-11.6953125,1.13671875,1.0
4756431,,,,,,,,1.12890625,-2.33203125,0.3671875,-0.78125,-0.30078125,0.078125,1.58203125,-11.6953125,2.015625,1.0
4756432,,,,,,,,0.69921875,-2.30859375,1.17578125,-0.736328125,-0.052734375,0.03515625,1.16015625,-11.69921875,2.70703125,1.0
4756433,,,,,,,,0.3515625,-2.6953125,1.16015625,-0.693359375,0.029296875,0.0390625,0.8125,-12.08984375,2.66796875,1.0
4756434,,,,,,,,-0.94140625,-3.94140625,1.61328125,-0.724609375,0.037109375,0.0625,-0.48828125,-13.34765625,3.05078125,1.0
4756435,,,,,,,,-1.5859375,-3.359375,2.296875,-0.66796875,-0.052734375,0.06640625,-1.484375,-11.35546875,3.96875,1.0
4756436,,,,,,,,-1.859375,-1.19921875,2.63671875,-0.306640625,-0.017578125,0.0390625,-1.1015625,-9.671875,3.55078125,1.0
4756437,,,,,,,,-1.46875,-0.05078125,2.16796875,-0.03125,-0.05078125,0.0625,-0.87109375,-9.515625,3.359375,1.0
4756438,,,,,,,,-1.30859375,-0.0859375,2.09375,-0.06640625,-0.05078125,0.078125,-0.56640625,-10.015625,3.51171875,1.0
4756439,,,,,,,,-0.8125,-0.921875,2.3984375,-0.17578125,-0.083984375,0.0859375,-0.14453125,-10.625,3.77734375,1.0
4756440,36.0134245,129.31957366666666,87.77449618539731,113.67817993376802,1.1,5.0,,-0.15234375,-1.6875,2.7265625,-0.20703125,-0.134765625,0.0390625,0.46875,-11.28125,3.93359375,1.0
4756441,,,,,,,,0.22265625,-1.8359375,2.59765625,-0.13671875,-0.154296875,-0.0078125,0.77734375,-11.1640625,3.7421875,1.0
4756442,,,,,,,,0.453125,-1.2578125,2.22265625,-0.0546875,-0.1484375,-0.068359375,0.8125,-10.44140625,3.203125,1.0
4756443,,,,,,,,0.375,-0.9921875,2.0,-0.0234375,-0.1484375,-0.107421875,0.77734375,-10.2421875,3.05078125,1.0
4756444,,,,,,,,0.125,-0.26171875,1.53515625,-0.033203125,-0.16015625,-0.177734375,0.546875,-9.48046875,2.62890625,1.0
4756445,,,,,,,,-0.0078125,0.08203125,1.42578125,-0.08203125,-0.1640625,-0.24609375,0.39453125,-9.4375,2.58984375,1.0
4756446,,,,,,,,-0.18359375,-0.25390625,1.39453125,-0.1328125,-0.189453125,-0.2890625,0.31640625,-9.67578125,2.5546875,1.0
4756447,,,,,,,,-0.23046875,-0.21875,1.296875,-0.1640625,-0.271484375,-0.330078125,0.31640625,-9.5546875,2.20703125,1.0
4756448,,,,,,,,-0.24609375,-0.1015625,1.03515625,-0.15625,-0.279296875,-0.34375,0.31640625,-9.44140625,2.09375,1.0
4756449,,,,,,,,-0.109375,0.5859375,0.5703125,-0.123046875,-0.279296875,-0.349609375,0.5078125,-8.8671875,1.7109375,1.0
4756450,36.013425500000004,129.3195735,87.75947034326275,113.78913903513535,1.0,1.0,,-0.078125,0.93359375,0.53125,-0.078125,-0.259765625,-0.353515625,0.5859375,-8.515625,1.671875,1.0
4756451,,,,,,,,0.1171875,1.4375,0.26953125,-0.05078125,-0.25390625,-0.361328125,0.8125,-8.0234375,1.40234375,1.0
4756452,,,,,,,,0.15625,1.58203125,0.125,-0.025390625,-0.279296875,-0.36328125,0.890625,-7.8671875,1.25,1.0
4756453,,,,,,,,0.171875,1.62890625,0.04296875,-0.017578125,-0.294921875,-0.365234375,0.9296875,-7.828125,1.17578125,1.0
4756454,,,,,,,,0.29296875,1.92578125,-0.1796875,0.009765625,-0.341796875,-0.357421875,1.08203125,-7.5234375,0.9453125,1.0
4756455,,,,,,,,0.26953125,2.11328125,-0.44921875,0.03125,-0.388671875,-0.3515625,1.12109375,-7.33203125,0.67578125,1.0
4756456,,,,,,,,0.11328125,2.3046875,-0.6796875,0.025390625,-0.408203125,-0.341796875,1.00390625,-7.140625,0.4453125,1.0
4756457,,,,,,,,-0.1171875,2.265625,-0.87890625,0.037109375,-0.40234375,-0.318359375,0.8125,-7.1796875,0.25390625,1.0
4756458,,,,,,,,-0.25390625,2.296875,-0.953125,0.041015625,-0.396484375,-0.302734375,0.69921875,-7.140625,0.1796875,1.0
4756459,,,,,,,,-0.58203125,1.98828125,-1.0703125,0.033203125,-0.37109375,-0.26953125,0.39453125,-7.44921875,0.0625,1.0
4756460,36.01342616666667,129.3195735,87.7594696040471,113.86311186804318,0.9,359.0,,-0.8515625,1.59765625,-1.0234375,0.0078125,-0.328125,-0.19140625,0.1640625,-7.828125,0.1015625,1.0
4756461,,,,,,,,-0.921875,1.4453125,-0.9375,-0.025390625,-0.318359375,-0.099609375,0.125,-7.98828125,0.1796875,1.0
4756462,,,,,,,,-0.77734375,1.17578125,-0.78515625,-0.0234375,-0.33203125,-0.046875,0.27734375,-8.25390625,0.33203125,1.0
4756463,,,,,,,,-0.70703125,0.9453125,-0.6328125,-0.01953125,-0.349609375,-0.015625,0.35546875,-8.48828125,0.484375,1.0
4756464,,,,,,,,-0.67578125,0.70703125,-0.5859375,-0.001953125,-0.365234375,0.0234375,0.39453125,-8.7109375,0.5234375,1.0
4756465,,,,,,,,-0.8671875,0.48046875,-0.51953125,0.068359375,-0.388671875,0.0625,0.203125,-8.94140625,0.59765625,1.0
4756466,,,,,,,,-1.0625,0.515625,-0.6328125,0.1484375,-0.40625,0.091796875,0.0078125,-8.90625,0.484375,1.0
4756467,,,,,,,,-0.9765625,0.6328125,-0.76171875,0.2265625,-0.431640625,0.109375,0.0859375,-8.79296875,0.37109375,1.0
4756468,,,,,,,,-0.78515625,0.90234375,-1.0390625,0.25390625,-0.455078125,0.1171875,0.27734375,-8.515625,0.1015625,1.0
4756469,,,,,,,,-0.46875,1.12109375,-1.28515625,0.26171875,-0.513671875,0.119140625,0.5859375,-8.2890625,-0.12890625,1.0
4756470,36.013427,129.3195735,87.75946868061766,113.95557790856577,0.9,359.0,,-0.2421875,1.0859375,-1.4609375,0.25,-0.544921875,0.125,0.8125,-8.33203125,-0.28125,1.0
4756471,,,,,,,,-0.03515625,0.76953125,-1.5546875,0.1953125,-0.576171875,0.111328125,1.00390625,-8.63671875,-0.359375,1.0
4756472,,,,,,,,0.04296875,0.578125,-1.6015625,0.17578125,-0.578125,0.103515625,1.08203125,-8.83203125,-0.3984375,1.0
4756473,,,,,,,,0.16015625,0.34765625,-1.5390625,0.14453125,-0.58203125,0.076171875,1.19921875,-9.0546875,-0.3203125,1.0
4756474,,,,,,,,0.16015625,0.15625,-1.26953125,0.12890625,-0.556640625,0.041015625,1.19921875,-9.25,-0.05078125,1.0
4756475,,,,,,,,0.07421875,-0.125,-1.203125,0.130859375,-0.51953125,0.01171875,1.12109375,-9.51953125,0.0234375,1.0
4756476,,,,,,,,0.07421875,-0.05078125,-1.09375,0.140625,-0.501953125,-0.009765625,1.12109375,-9.4375,0.140625,1.0
4756477,,,,,,,,0.21875,0.1015625,-0.7578125,0.177734375,-0.474609375,-0.01953125,1.2734375,-9.29296875,0.484375,1.0
4756478,,,,,,,,0.40234375,0.06640625,-0.8125,0.193359375,-0.49609375,-0.0078125,1.46484375,-9.32421875,0.4453125,1.0
4756479,,,,,,,,0.43359375,-0.1328125,-0.78125,0.189453125,-0.49609375,0.001953125,1.50390625,-9.51953125,0.484375,1.0
4756480,36.01342816666667,129.31957333333332,87.7444426519774,114.08503021747597,1.1,359.0,,0.3203125,-0.2109375,-0.828125,0.158203125,-0.435546875,0.01953125,1.390625,-9.703125,0.484375,1.0
4756481,,,,,,,,0.08203125,-0.40234375,-0.71875,0.1328125,-0.3359375,0.025390625,1.00390625,-9.94140625,0.59765625,1.0
4756482,,,,,,,,-0.08203125,-0.640625,-0.7265625,0.1015625,-0.328125,0.0390625,0.8515625,-10.0546875,0.59765625,1.0
4756483,,,,,,,,-0.234375,-0.6875,-0.69140625,0.037109375,-0.33984375,0.048828125,0.8515625,-10.0546875,0.5625,1.0
4756484,,,,,,,,-0.38671875,-0.53515625,-0.734375,-0.009765625,-0.353515625,0.0546875,0.62109375,-9.78515625,0.5234375,1.0
4756485,,,,,,,,-0.6171875,-0.33984375,-0.8046875,-0.052734375,-0.35546875,0.064453125,0.39453125,-9.671875,0.4453125,1.0
4756486,,,,,,,,-1.0,-0.1796875,-0.91015625,-0.109375,-0.375,0.078125,-0.06640625,-9.55859375,0.37109375,1.0
4756487,,,,,,,,-1.4140625,-0.140625,-0.8203125,-0.177734375,-0.419921875,0.08203125,-0.3359375,-9.515625,0.4453125,1.0
4756488,,,,,,,,-1.60546875,-0.1796875,-0.58203125,-0.203125,-0.46484375,0.087890625,-0.52734375,-9.55859375,0.67578125,1.0
4756489,,,,,,,,-1.59765625,-0.52734375,-0.50390625,-0.2734375,-0.5625,0.0859375,-0.52734375,-9.8984375,0.71484375,1.0
4756490,36.013428999999995,129.31957333333332,87.74444172805732,114.17749625668264,1.1,358.0,,-1.3671875,-1.51171875,-0.3984375,-0.37109375,-0.70703125,0.09765625,-0.296875,-10.89453125,0.7890625,1.0
4756491,,,,,,,,-0.79296875,-2.15625,-0.10546875,-0.509765625,-0.90234375,0.1171875,0.27734375,-11.546875,1.01953125,1.0
4756492,,,,,,,,0.28125,-3.11328125,0.76953125,-0.55859375,-0.982421875,0.125,1.3515625,-12.5,1.86328125,1.0
4756493,,,,,,,,1.828125,-5.6640625,1.5625,-0.6328125,-1.12890625,0.18359375,2.8828125,-15.0703125,2.515625,1.0
4756494,,,,,,,,2.1328125,-5.6953125,1.66796875,-0.626953125,-1.1328125,0.189453125,3.1875,-15.109375,2.58984375,1.0
4756495,,,,,,,,2.6015625,-1.62890625,1.11328125,-0.181640625,-0.99609375,0.140625,3.6484375,-11.05078125,1.94140625,1.0
4756496,,,,,,,,1.8828125,0.09765625,0.453125,0.294921875,-0.720703125,0.078125,2.921875,-9.3203125,1.2890625,1.0
4756497,,,,,,,,1.30859375,0.1328125,0.33203125,0.365234375,-0.66796875,0.06640625,2.34765625,-9.2890625,1.17578125,1.0
4756498,,,,,,,,-0.203125,-2.203125,1.1484375,0.259765625,-0.7421875,0.07421875,0.8515625,-11.625,2.015625,1.0
4756499,,,,,,,,-0.5390625,-3.19140625,1.76171875,0.150390625,-0.845703125,0.076171875,0.5078125,-12.6171875,2.62890625,1.0
4756500,36.013430166666666,129.31957316666666,87.72941570279308,114.30694856526888,1.1,358.0,0.0,-1.0390625,-4.72265625,3.33203125,-0.37109375,-0.70703125,0.09765625,0.0078125,-14.15234375,4.19921875,1.0
4756501,,,,,,,,-0.15625,-3.7265625,2.24609375,0.580078125,-1.3203125,0.1328125,0.890625,-13.16015625,3.12890625,1.0
4756502,,,,,,,,0.15234375,-2.546875,1.30078125,0.841796875,-1.244140625,0.20703125,1.19921875,-11.96875,2.24609375,1.0
4756503,,,,,,,,0.09765625,-1.20703125,1.078125,0.8671875,-1.048828125,0.326171875,1.12109375,-10.62890625,2.09375,1.0
4756504,,,,,,,,-0.30078125,-0.40234375,1.20703125,0.76953125,-0.97265625,0.4296875,0.69921875,-9.82421875,2.28515625,1.0
4756505,,,,,,,,0.0078125,-0.2578125,0.77734375,0.603515625,-1.173828125,0.5,0.96875,-9.671875,1.94140625,1.0
4756506,,,,,,,,0.58203125,-0.25,0.125,0.509765625,-1.330078125,0.509765625,1.50390625,-9.67578125,1.328125,1.0
4756507,,,,,,,,0.69140625,0.171875,-0.0234375,0.41796875,-1.3828125,0.49609375,1.58203125,-9.25,1.2109375,1.0
4756508,,,,,,,,0.59765625,0.48046875,-0.046875,0.380859375,-1.349609375,0.47265625,1.46484375,-8.9375,1.2109375,1.0
4756509,,,,,,,,0.53125,1.24609375,-0.27734375,0.396484375,-1.298828125,0.455078125,1.3515625,-8.17578125,1.01953125,1.0
4756510,36.01343116666667,129.31957300000002,87.71438986439814,114.41790766588667,1.1,355.0,,0.546875,1.7890625,-0.34765625,0.41015625,-1.275390625,0.439453125,0.0078125,-14.15234375,4.19921875,1.0
4756511,,,,,,,,0.6015625,1.97265625,-0.32421875,0.4296875,-1.259765625,0.431640625,1.390625,-7.44921875,1.01953125,1.0
4756512,,,,,,,,0.78515625,2.81640625,-0.71484375,0.4453125,-1.2734375,0.421875,1.54296875,-6.6015625,0.67578125,1.0
4756513,,,,,,,,0.84765625,2.9609375,-0.78515625,0.4453125,-1.298828125,0.421875,1.58203125,-6.45703125,0.63671875,1.0
4756514,,,,,,,,1.375,3.34375,-1.0234375,0.404296875,-1.333984375,0.419921875,2.078125,-6.07421875,0.4453125,1.0
4756515,,,,,,,,1.65234375,3.421875,-1.11328125,0.392578125,-1.333984375,0.41796875,2.34765625,-5.99609375,0.37109375,1.0
4756516,,,,,,,,1.7421875,3.421875,-1.16796875,0.36328125,-1.34375,0.3984375,2.421875,-5.99609375,0.33203125,1.0
4756517,,,,,,,,2.09765625,2.8828125,-1.5,0.333984375,-1.3203125,0.3828125,2.76953125,-6.53515625,0.0234375,1.0
4756518,,,,,,,,2.1796875,2.80078125,-1.515625,0.318359375,-1.287109375,0.376953125,2.84375,-6.60546875,0.0234375,1.0
4756519,,,,,,,,2.38671875,2.37890625,-1.4921875,0.248046875,-1.173828125,0.3671875,3.03515625,-7.02734375,0.0625,1.0
4756520,36.013431999999995,129.3195726666667,87.68433947621631,114.51037340590229,1.0,350.0,,2.328125,2.30078125,-1.46875,0.185546875,-1.025390625,0.314453125,2.9609375,-7.1015625,0.1015625,1.0
4756521,,,,,,,,2.21875,1.95703125,-1.1328125,0.15625,-0.87890625,0.2734375,2.84375,-7.4453125,0.4453125,1.0
4756522,,,,,,,,2.2265625,1.8046875,-0.98828125,0.1484375,-0.81640625,0.255859375,2.84375,-7.6015625,0.59765625,1.0
4756523,,,,,,,,2.01171875,1.4609375,-0.57421875,0.162109375,-0.689453125,0.228515625,2.61328125,-7.94921875,1.01953125,1.0
4756524,,,,,,,,1.8984375,1.4140625,-0.51171875,0.25,-0.51953125,0.2109375,2.421875,-7.984375,1.09765625,1.0
4756525,,,,,,,,1.76171875,1.2890625,-0.48828125,0.328125,-0.384765625,0.19140625,2.34765625,-8.17578125,1.05859375,1.0
4756526,,,,,,,,1.76171875,1.22265625,-0.58203125,0.337890625,-0.359375,0.1796875,2.30859375,-8.25390625,1.05859375,1.0
4756527,,,,,,,,1.80859375,0.8984375,-0.61328125,0.330078125,-0.322265625,0.166015625,2.38671875,-8.59375,1.01953125,1.0
4756528,,,,,,,,1.859375,0.66796875,-0.72265625,0.330078125,-0.275390625,0.1640625,2.38671875,-8.7890625,1.01953125,1.0
4756529,,,,,,,,1.82421875,0.5859375,-0.69921875,0.330078125,-0.248046875,0.15625,2.34765625,-8.79296875,0.98046875,1.0
4756530,36.013433,129.31957233333333,87.654288902709,114.6213323561914,1.1,348.0,,2.328125,2.30078125,-1.46875,0.185546875,-1.025390625,0.314453125,2.19140625,-8.828125,1.01953125,1.0
4756531,,,,,,,,1.609375,0.4921875,-0.75390625,0.322265625,-0.15625,0.140625,2.1171875,-8.87109375,1.05859375,1.0
4756532,,,,,,,,1.5390625,0.4453125,-0.66796875,0.302734375,-0.138671875,0.123046875,2.078125,-8.90625,1.13671875,1.0
4756533,,,,,,,,1.4609375,0.37890625,-0.64453125,0.287109375,-0.140625,0.123046875,2.0,-8.98046875,1.17578125,1.0
4756534,,,,,,,,1.39453125,0.28515625,-0.59375,0.23046875,-0.14453125,0.10546875,1.92578125,-9.0546875,1.25,1.0
4756535,,,,,,,,1.1328125,0.171875,-0.5,0.185546875,-0.140625,0.09765625,1.65625,-9.171875,1.3671875,1.0
4756536,,,,,,,,0.98046875,0.0859375,-0.59375,0.16015625,-0.17578125,0.083984375,1.50390625,-9.25,1.2890625,1.0
4756537,,,,,,,,1.05859375,-0.02734375,-0.76171875,0.126953125,-0.220703125,0.07421875,1.58203125,-9.359375,1.13671875,1.0
4756538,,,,,,,,1.05859375,-0.21875,-0.91796875,0.09375,-0.248046875,0.0703125,1.58203125,-9.5546875,0.98046875,1.0
4756539,,,,,,,,1.0859375,-0.57421875,-0.9921875,-0.013671875,-0.271484375,0.052734375,1.6171875,-9.8984375,0.90625,1.0
4756540,36.01343383333334,129.31957133333333,87.56413958649425,114.7137974991409,1.2000000000000002,338.0,,0.93359375,-0.609375,-0.87109375,-0.09375,-0.244140625,0.0390625,1.46484375,-9.9375,1.01953125,1.0
4756541,,,,,,,,0.8046875,-0.49609375,-0.69140625,-0.138671875,-0.25,0.013671875,1.3515625,-9.8203125,1.17578125,1.0
4756542,,,,,,,,0.6875,-0.2578125,-0.33203125,-0.171875,-0.248046875,-0.005859375,1.234375,-9.59765625,1.51953125,1.0
4756543,,,,,,,,0.8046875,-0.2578125,-0.1640625,-0.189453125,-0.248046875,-0.021484375,1.3515625,-9.59765625,1.671875,1.0
4756544,,,,,,,,1.24609375,-1.140625,0.3125,-0.228515625,-0.259765625,-0.03125,1.80859375,-10.48046875,2.1328125,1.0
4756545,,,,,,,,1.38671875,-2.43359375,0.50390625,-0.388671875,-0.3671875,-0.021484375,1.96484375,-11.7734375,2.28515625,1.0
4756546,,,,,,,,1.140625,-3.61328125,0.8203125,-0.5859375,-0.47265625,-0.033203125,1.734375,-12.9609375,2.5546875,1.0
4756547,,,,,,,,0.6328125,-3.0390625,1.53125,-0.609375,-0.478515625,-0.078125,1.234375,-12.390625,3.203125,1.0
4756548,,,,,,,,0.38671875,-2.6875,1.671875,-0.498046875,-0.376953125,-0.109375,1.00390625,-12.046875,3.3203125,1.0
4756549,,,,,,,,-0.36328125,-3.78125,1.6953125,-0.390625,-0.2578125,-0.083984375,0.27734375,-13.16015625,3.28125,1.0
4756550,36.01343466666666,129.31957066666666,87.50403973516566,114.8062629404447,1.1,333.0,,-1.48828125,-3.55078125,2.5078125,-0.09375,-0.244140625,0.0390625,-0.83203125,-12.92578125,4.046875,1.0
4756551,,,,,,,,-1.88671875,-1.96484375,3.08984375,-0.3125,-0.302734375,-0.080078125,-1.21484375,-11.3515625,4.58203125,1.0
4756552,,,,,,,,-1.7109375,0.21875,2.9765625,0.244140625,-0.20703125,-0.060546875,-1.0234375,-9.17578125,4.46875,1.0
4756553,,,,,,,,-1.15234375,0.2578125,2.8359375,0.232421875,-0.30078125,-0.01953125,-0.44921875,-9.1328125,4.3515625,1.0
4756554,,,,,,,,0.140625,-0.6640625,2.78515625,0.044921875,-0.41796875,-0.001953125,0.8515625,-10.05859375,4.31640625,1.0
4756555,,,,,,,,1.2734375,-1.0546875,2.37890625,-0.109375,-0.470703125,-0.025390625,2.0,-10.4375,3.89453125,1.0
4756556,,,,,,,,1.2578125,-0.39453125,2.04296875,-0.10546875,-0.42578125,-0.05859375,2.0,-9.78515625,3.55078125,1.0
4756557,,,,,,,,1.12890625,0.06640625,1.59765625,-0.05078125,-0.40234375,-0.109375,1.88671875,-9.3203125,3.08984375,1.0
4756558,,,,,,,,0.67578125,0.109375,1.4140625,-0.1171875,-0.3671875,-0.197265625,1.46484375,-9.29296875,2.8984375,1.0
4756559,,,,,,,,-0.04296875,-0.578125,2.01171875,-0.251953125,-0.318359375,-0.2265625,0.77734375,-9.9765625,3.47265625,1.0
4756560,36.0134355,129.31956966666667,87.41389042445753,114.89872808529762,1.2000000000000002,328.0,,-0.7265625,-0.80859375,2.3125,-0.28515625,-0.3046875,-0.232421875,0.125,-10.203125,3.7421875,1.0
4756561,,,,,,,,-0.8671875,-0.41796875,1.68359375,-0.21484375,-0.349609375,-0.228515625,0.0078125,-9.8203125,3.08984375,1.0
4756562,,,,,,,,-0.703125,0.00390625,1.23828125,-0.134765625,-0.404296875,-0.20703125,0.203125,-9.40234375,2.62890625,1.0
4756563,,,,,,,,-0.64453125,0.38671875,0.90234375,-0.119140625,-0.4140625,-0.193359375,0.27734375,-9.01953125,2.28515625,1.0
4756564,,,,,,,,-0.5234375,0.6171875,0.6875,-0.119140625,-0.3828125,-0.1484375,0.4296875,-8.7890625,2.0546875,1.0
4756565,,,,,,,,-0.46875,0.84765625,0.55078125,-0.123046875,-0.396484375,-0.11328125,0.5078125,-8.55859375,1.90234375,1.0
4756566,,,,,,,,-0.37109375,0.96875,0.44921875,-0.083984375,-0.455078125,-0.091796875,0.62109375,-8.40625,1.7109375,1.0
4756567,,,,,,,,-0.38671875,1.26953125,0.19140625,-0.04296875,-0.49609375,-0.0859375,0.62109375,-8.06640625,1.51953125,1.0
4756568,,,,,,,,-0.39453125,1.34375,0.19921875,-0.0234375,-0.51171875,-0.08203125,0.69921875,-7.90625,1.40234375,1.0
4756569,,,,,,,,-0.30078125,1.61328125,0.0546875,0.017578125,-0.556640625,-0.083984375,0.8125,-7.64453125,1.25,1.0
4756570,36.01343583333333,129.31956883333334,87.33876639580097,114.9357137538741,1.0,322.0,,-0.234375,1.88671875,-0.109375,0.03125,-0.6171875,-0.078125,0.8515625,-7.41015625,1.17578125,1.0
4756571,,,,,,,,-0.2109375,2.07421875,-0.21484375,0.046875,-0.650390625,-0.072265625,0.890625,-7.296875,0.8671875,1.0
4756572,,,,,,,,-0.1875,2.07421875,-0.5234375,0.048828125,-0.65234375,-0.05859375,0.77734375,-7.37109375,0.67578125,1.0
4756573,,,,,,,,-0.5546875,1.91796875,-0.7890625,0.06640625,-0.61328125,-0.037109375,0.46875,-7.5234375,0.5625,1.0
4756574,,,,,,,,-0.79296875,1.84375,-0.71484375,0.07421875,-0.572265625,-0.001953125,0.203125,-7.640625,0.63671875,1.0
4756575,,,,,,,,-1.19140625,1.6796875,-0.59765625,0.099609375,-0.541015625,0.029296875,-0.10546875,-7.79296875,0.75390625,1.0
4756576,,,,,,,,-1.23046875,1.60546875,-0.56640625,0.119140625,-0.541015625,0.046875,-0.10546875,-7.7890625,0.7890625,1.0
4756577,,,,,,,,-1.30859375,1.52734375,-0.60546875,0.17578125,-0.54296875,0.08984375,-0.14453125,-7.8671875,0.63671875,1.0
4756578,,,,,,,,-1.23046875,1.48828125,-0.73828125,0.21484375,-0.5625,0.12890625,-0.06640625,-7.94921875,0.5234375,1.0
4756579,,,,,,,,-1.03125,1.3671875,-0.90625,0.22265625,-0.595703125,0.166015625,0.1640625,-8.0234375,0.484375,1.0
4756580,36.0134365,129.319568,87.263642003798,115.00968584127227,0.9,319.0,,-0.234375,1.88671875,-0.109375,0.2265625,-0.61328125,0.197265625,0.27734375,-8.10546875,0.5234375,1.0
4756581,,,,,,,,-0.71484375,1.21484375,-0.8203125,0.236328125,-0.615234375,0.208984375,0.4296875,-8.171875,0.5234375,1.0
4756582,,,,,,,,-0.671875,1.21484375,-0.875,0.24609375,-0.599609375,0.21875,0.46875,-8.171875,0.59765625,1.0
4756583,,,,,,,,-0.578125,1.3203125,-0.78515625,0.29296875,-0.568359375,0.216796875,0.46875,-7.94921875,0.63671875,1.0
4756584,,,,,,,,-0.609375,1.4375,-0.80859375,0.302734375,-0.5625,0.21484375,0.546875,-7.91015625,0.59765625,1.0
4756585,,,,,,,,-0.515625,1.3984375,-0.87109375,0.3046875,-0.556640625,0.203125,0.546875,-8.0625,0.5234375,1.0
4756586,,,,,,,,-0.38671875,1.16015625,-1.046875,0.26953125,-0.58203125,0.185546875,0.69921875,-8.25390625,0.40625,1.0
4756587,,,,,,,,-0.33984375,1.11328125,-1.1015625,0.212890625,-0.6328125,0.1640625,0.77734375,-8.328125,0.40625,1.0
4756588,,,,,,,,-0.0625,0.9140625,-1.0390625,0.15625,-0.650390625,0.123046875,0.96875,-8.4453125,0.5625,1.0
4756589,,,,,,,,-0.0625,0.9140625,-0.9609375,0.13671875,-0.66796875,0.10546875,1.00390625,-8.671875,0.5625,1.0
4756590,36.01343716666667,129.31956716666667,87.18851761005895,115.0836579291526,1.0,319.0,,-0.234375,1.88671875,-0.109375,0.087890625,-0.673828125,0.072265625,1.04296875,-8.91015625,0.4453125,1.0
4756591,,,,,,,,0.00390625,0.33984375,-0.93359375,0.0078125,-0.708984375,0.013671875,1.08203125,-9.0546875,0.59765625,1.0
4756592,,,,,,,,0.21875,0.140625,-0.80859375,0.001953125,-0.716796875,-0.0078125,1.3515625,-9.29296875,0.71484375,1.0
4756593,,,,,,,,0.2890625,-0.05078125,-0.80078125,-0.021484375,-0.71484375,-0.009765625,1.3515625,-9.3984375,0.71484375,1.0
4756594,,,,,,,,0.35546875,-0.6640625,-0.6796875,-0.080078125,-0.6875,0.001953125,1.42578125,-10.015625,0.828125,1.0
4756595,,,,,,,,0.37890625,-1.0078125,-0.5390625,-0.12890625,-0.630859375,0.0234375,1.46484375,-10.359375,0.9453125,1.0
4756596,,,,,,,,0.41015625,-1.31640625,-0.32421875,-0.142578125,-0.552734375,0.025390625,1.50390625,-10.6640625,1.13671875,1.0
4756597,,,,,,,,0.515625,-1.125,-0.30859375,-0.1171875,-0.4609375,0.0234375,1.6171875,-10.4765625,1.13671875,1.0
4756598,,,,,,,,0.515625,-0.92578125,-0.37890625,-0.10546875,-0.43359375,0.02734375,1.6171875,-10.28125,1.05859375,1.0
4756599,,,,,,,,0.2890625,-0.43359375,-0.59375,-0.078125,-0.33984375,0.01953125,1.390625,-9.78125,0.828125,1.0
4756600,36.013437999999994,129.3195663333333,87.11339303207521,115.17612322339592,1.1,318.0,0.0,0.01171875,-0.2734375,-0.77734375,0.087890625,-0.673828125,0.072265625,1.04296875,-8.91015625,0.4453125,1.0
4756601,,,,,,,,-0.49609375,-0.01171875,-0.71484375,-0.181640625,-0.24609375,0.00390625,0.62109375,-9.36328125,0.67578125,1.0
4756602,,,,,,,,-1.0703125,0.2265625,-0.65234375,-0.23828125,-0.279296875,-0.001953125,0.046875,-9.1328125,0.71484375,1.0
4756603,,,,,,,,-1.3828125,0.03515625,-0.62890625,-0.28125,-0.34765625,-0.0078125,-0.2578125,-9.32421875,0.71484375,1.0
4756604,,,,,,,,-1.61328125,-0.5703125,-0.63671875,-0.33203125,-0.4765625,-0.0078125,-0.48828125,-9.9375,0.67578125,1.0
4756605,,,,,,,,-1.4296875,-2.06640625,-0.703125,-0.46875,-0.6484375,0.001953125,-0.296875,-11.4296875,0.5625,1.0
4756606,,,,,,,,-1.359375,-2.671875,-0.48828125,-0.541015625,-0.740234375,0.01171875,-0.21875,-12.05078125,0.75390625,1.0
4756607,,,,,,,,-0.06640625,-5.15234375,0.921875,-0.716796875,-1.03125,0.05859375,1.08203125,-14.53125,2.0546875,1.0
4756608,,,,,,,,1.7265625,-6.59375,1.890625,-0.759765625,-1.244140625,0.078125,2.8828125,-15.9921875,2.9375,1.0
4756609,,,,,,,,2.90625,-5.703125,2.3984375,-0.654296875,-1.28515625,0.078125,4.0703125,-15.11328125,3.359375,1.0
4756610,36.013438666666666,129.31956566666668,87.05329337649857,115.2500954620774,1.0,318.0,,2.5625,-1.296875,1.39453125,0.044921875,-0.908203125,0.072265625,3.7265625,-10.703125,2.28515625,1.0
4756611,,,,,,,,1.14453125,-0.53125,1.5625,0.4453125,-0.509765625,0.017578125,2.30859375,-9.94140625,2.4765625,1.0
4756612,,,,,,,,0.484375,-0.6484375,1.8828125,0.5078125,-0.443359375,0.00390625,1.65625,-10.0546875,2.8203125,1.0
4756613,,,,,,,,-1.9375,-3.03125,2.6484375,0.509765625,-0.998046875,0.046875,-0.7578125,-12.43359375,3.6640625,1.0
4756614,,,,,,,,-1.74609375,-3.11328125,2.36328125,0.533203125,-1.181640625,0.09375,-0.56640625,-12.5,3.39453125,1.0
4756615,,,,,,,,-1.20703125,-2.5703125,1.703125,0.673828125,-1.34765625,0.212890625,-0.02734375,-11.96875,2.78125,1.0
4756616,,,,,,,,-0.47265625,-1.3515625,1.0078125,0.78515625,-1.28515625,0.37109375,0.890625,-10.12890625,2.015625,1.0
4756617,,,,,,,,-0.2734375,-0.73828125,0.859375,0.76171875,-1.248046875,0.423828125,0.96875,-9.63671875,2.0546875,1.0
4756618,,,,,,,,-0.171875,-0.01171875,0.8828125,0.650390625,-1.2265625,0.525390625,1.00390625,-9.25,2.09375,1.0
4756619,,,,,,,,-0.11328125,0.140625,0.8515625,0.591796875,-1.228515625,0.57421875,1.12109375,-9.2109375,2.09375,1.0
4756620,36.0134395,129.31956466666668,86.96314407248069,115.34256061093559,1.1,316.0,,2.5625,-1.296875,1.39453125,0.044921875,-0.908203125,0.072265625,1.42578125,-9.359375,1.9765625,1.0
4756621,,,,,,,,0.79296875,-0.2421875,0.640625,0.271484375,-1.302734375,0.71875,2.0,-9.82421875,2.09375,1.0
4756622,,,,,,,,1.0078125,-0.43359375,0.7578125,0.220703125,-1.30078125,0.716796875,2.078125,-9.859375,2.1328125,1.0
4756623,,,,,,,,1.1015625,-0.41796875,0.89453125,0.203125,-1.255859375,0.6953125,1.96484375,-9.51953125,2.20703125,1.0
4756624,,,,,,,,1.02734375,0.08984375,0.80859375,0.27734375,-1.166015625,0.642578125,1.80859375,-8.75,1.94140625,1.0
4756625,,,,,,,,0.921875,0.9296875,0.44921875,0.375,-1.087890625,0.595703125,1.7734375,-7.984375,1.59375,1.0
4756626,,,,,,,,0.9453125,1.4296875,0.203125,0.388671875,-1.0546875,0.57421875,1.84765625,-7.68359375,1.51953125,1.0
4756627,,,,,,,,1.15234375,1.97265625,0.05078125,0.384765625,-0.986328125,0.5,1.96484375,-7.14453125,1.40234375,1.0
4756628,,,,,,,,1.23046875,2.73046875,-0.2109375,0.3515625,-0.990234375,0.462890625,1.96484375,-6.60546875,1.13671875,1.0
4756629,,,,,,,,1.25390625,2.80859375,-0.51171875,0.33203125,-0.984375,0.451171875,1.96484375,-6.60546875,0.98046875,1.0
4756630,36.01344016666667,129.31956366666665,86.87299495172621,115.41653255192891,1.1,313.0,,1.0546875,2.84765625,-0.578125,0.044921875,-0.908203125,0.072265625,1.734375,-6.5625,0.9453125,1.0
4756631,,,,,,,,1.24609375,2.73046875,-0.328125,0.181640625,-0.9765625,0.3984375,1.88671875,-6.68359375,1.2109375,1.0
4756632,,,,,,,,1.33203125,2.6171875,-0.3359375,0.189453125,-0.966796875,0.384765625,1.96484375,-6.80078125,1.2109375,1.0
4756633,,,,,,,,1.69921875,2.5390625,-0.46484375,0.2109375,-0.96875,0.359375,2.30859375,-6.875,1.09765625,1.0
4756634,,,,,,,,1.828125,2.33984375,-0.83984375,0.244140625,-0.927734375,0.30859375,2.421875,-7.06640625,0.75390625,1.0
4756635,,,,,,,,1.9609375,2.2265625,-0.93359375,0.220703125,-0.875,0.265625,2.5390625,-7.1796875,0.67578125,1.0
4756636,,,,,,,,1.96875,2.109375,-1.01953125,0.212890625,-0.8359375,0.2421875,2.5390625,-7.30078125,0.59765625,1.0
4756637,,,,,,,,2.015625,1.91015625,-0.98828125,0.181640625,-0.75390625,0.203125,2.578125,-7.48828125,0.63671875,1.0
4756638,,,,,,,,1.8515625,1.53515625,-0.734375,0.162109375,-0.6328125,0.171875,2.421875,-7.87109375,0.90625,1.0
4756639,,,,,,,,1.82421875,1.4140625,-0.62109375,0.16015625,-0.576171875,0.1640625,2.38671875,-7.98828125,1.01953125,1.0
4756640,36.0134405,129.31956266666666,86.78284619943025,115.45351807743778,1.0,309.0,,1.66796875,1.17578125,-0.4140625,0.044921875,-0.908203125,0.072265625,1.734375,-6.5625,0.9453125,1.0
4756641,,,,,,,,1.6015625,1.0625,-0.359375,0.248046875,-0.287109375,0.125,2.15625,-8.33203125,1.328125,1.0
4756642,,,,,,,,1.5703125,0.82421875,-0.34375,0.283203125,-0.236328125,0.119140625,2.1171875,-8.5546875,1.3671875,1.0
4756643,,,,,,,,1.53125,0.77734375,-0.390625,0.294921875,-0.220703125,0.1171875,2.078125,-8.59765625,1.328125,1.0
4756644,,,,,,,,1.453125,0.81640625,-0.5546875,0.30859375,-0.1796875,0.10546875,2.0,-8.5546875,1.2109375,1.0
4756645,,,,,,,,1.42578125,0.80859375,-0.66015625,0.294921875,-0.177734375,0.08984375,1.96484375,-8.5546875,1.13671875,1.0
4756646,,,,,,,,1.5,0.76171875,-0.71484375,0.25390625,-0.181640625,0.083984375,2.0390625,-8.59375,1.09765625,1.0
4756647,,,,,,,,1.625,0.484375,-0.69921875,0.19921875,-0.17578125,0.080078125,2.15625,-8.8671875,1.13671875,1.0
4756648,,,,,,,,1.66015625,0.41015625,-0.59375,0.177734375,-0.173828125,0.078125,2.19140625,-8.9375,1.25,1.0
4756649,,,,,,,,1.69140625,0.09375,-0.4921875,0.130859375,-0.138671875,0.076171875,2.23046875,-9.25,1.3671875,1.0
4756650,36.013440833333334,129.3195615,86.6776727200503,115.49050345632034,1.0,304.0,,1.77734375,-0.09765625,-0.5,0.044921875,-0.908203125,0.072265625,1.734375,-6.5625,0.9453125,1.0
4756651,,,,,,,,1.73828125,-0.2109375,-0.43359375,0.052734375,-0.046875,0.08203125,2.26953125,-9.55859375,1.44140625,1.0
4756652,,,,,,,,1.77734375,-0.2578125,-0.5078125,0.03125,-0.021484375,0.087890625,2.30859375,-9.59765625,1.3671875,1.0
4756653,,,,,,,,1.66796875,-0.44140625,-0.39453125,-0.048828125,0.060546875,0.078125,2.19140625,-9.78125,1.48046875,1.0
4756654,,,,,,,,1.41015625,-0.6328125,-0.5078125,-0.111328125,0.09375,0.076171875,1.92578125,-9.98046875,1.3671875,1.0
4756655,,,,,,,,1.109375,-0.79296875,-0.4921875,-0.166015625,0.0859375,0.083984375,1.6171875,-10.125,1.3671875,1.0
4756656,,,,,,,,0.8046875,-0.94140625,-0.5078125,-0.21875,0.068359375,0.08203125,1.3125,-10.28515625,1.328125,1.0
4756657,,,,,,,,0.390625,-0.94140625,-0.41015625,-0.244140625,0.083984375,0.080078125,0.890625,-10.28125,1.40234375,1.0
4756658,,,,,,,,0.09375,-0.40234375,-0.0859375,-0.244140625,0.12109375,0.1015625,0.5859375,-9.74609375,1.7109375,1.0
4756659,,,,,,,,0.09375,-0.39453125,-0.0703125,-0.26171875,0.12890625,0.12109375,0.62109375,-9.59375,1.86328125,1.0
4756660,36.01344099999999,129.31956033333333,86.57249942078761,115.50899562599912,1.0,297.0,,1.77734375,-0.09765625,-0.5,-0.302734375,0.095703125,0.138671875,1.734375,-6.5625,0.9453125,1.0
4756661,,,,,,,,0.65234375,-1.078125,0.09765625,-0.458984375,-0.0703125,0.173828125,1.234375,-10.89453125,1.51953125,1.0
4756662,,,,,,,,0.8125,-1.875,-0.27734375,-0.65625,-0.2421875,0.1640625,1.12109375,-11.3125,1.44140625,1.0
4756663,,,,,,,,0.40625,-1.69921875,0.27734375,-0.66796875,-0.0625,0.083984375,0.69921875,-11.16796875,2.0546875,1.0
4756664,,,,,,,,-0.0234375,-2.4921875,0.5703125,-0.751953125,-0.009765625,0.091796875,0.23828125,-12.43359375,2.0546875,1.0
4756665,,,,,,,,-0.89453125,-3.75,0.87109375,-0.89453125,-0.048828125,0.095703125,-0.44921875,-13.15625,2.32421875,1.0
4756666,,,,,,,,-2.15234375,-2.6640625,2.25,-0.77734375,0.037109375,0.052734375,-1.71484375,-12.0859375,3.625,1.0
4756667,,,,,,,,-2.45703125,-1.0,2.98046875,-0.41015625,0.103515625,0.0625,-2.01953125,-10.4375,4.27734375,1.0
4756668,,,,,,,,-2.13671875,-0.609375,2.64453125,-0.08203125,-0.0859375,0.11328125,-1.71484375,-10.0546875,3.89453125,1.0
4756669,,,,,,,,-1.015625,-0.953125,2.24609375,-0.1015625,-0.3046875,0.1171875,-0.6015625,-10.40234375,3.47265625,1.0
4756670,36.01344116666667,129.31955883333333,86.43727666191887,115.52748750327449,1.2000000000000002,288.0,,0.0546875,-1.51953125,2.1328125,-0.119140625,-0.37109375,0.08203125,0.46875,-10.96875,3.359375,1.0
4756671,,,,,,,,0.4375,-1.828125,2.4140625,0.0,-0.24609375,0.0,0.8515625,-11.28125,3.625,1.0
4756672,,,,,,,,0.36328125,-1.59765625,2.40625,0.064453125,-0.193359375,-0.025390625,0.77734375,-11.05078125,3.625,1.0
4756673,,,,,,,,-0.07421875,-0.8671875,2.1015625,0.203125,-0.12890625,-0.08203125,0.35546875,-10.32421875,3.3203125,1.0
4756674,,,,,,,,-0.234375,-0.41015625,1.9296875,0.26171875,-0.126953125,-0.115234375,0.203125,-9.859375,3.1640625,1.0
4756675,,,,,,,,-0.4140625,-0.1484375,1.76953125,0.267578125,-0.169921875,-0.181640625,0.046875,-9.59375,3.05078125,1.0
4756676,,,,,,,,-0.49609375,-0.1484375,1.79296875,0.232421875,-0.177734375,-0.197265625,-0.02734375,-9.59375,3.08984375,1.0
4756677,,,,,,,,-0.59765625,-0.41796875,1.77734375,0.173828125,-0.197265625,-0.21484375,-0.10546875,-9.859375,3.08984375,1.0
4756678,,,,,,,,-0.57421875,-0.53125,1.73828125,0.15234375,-0.21875,-0.22265625,-0.06640625,-9.9765625,3.05078125,1.0
4756679,,,,,,,,-0.53125,-0.30859375,1.5234375,0.162109375,-0.248046875,-0.21875,0.0078125,-9.7421875,2.859375,1.0
4756680,36.01344116666667,129.31955766666667,86.33210354559364,115.52748646927485,1.1,285.0,,-0.46875,0.03515625,1.203125,-0.119140625,-0.37109375,0.08203125,0.46875,-10.96875,3.359375,1.0
4756681,,,,,,,,-0.4140625,0.37890625,1.0234375,0.2109375,-0.232421875,-0.21484375,0.1640625,-9.0546875,2.3984375,1.0
4756682,,,,,,,,-0.37109375,0.75390625,0.76953125,0.189453125,-0.2578125,-0.20703125,0.23828125,-8.67578125,2.16796875,1.0
4756683,,,,,,,,-0.38671875,0.953125,0.7265625,0.185546875,-0.28125,-0.1953125,0.23828125,-8.484375,2.1328125,1.0
4756684,,,,,,,,-0.37109375,1.51953125,0.296875,0.171875,-0.33984375,-0.193359375,0.27734375,-7.91015625,1.7109375,1.0
4756685,,,,,,,,-0.44921875,1.859375,0.03515625,0.162109375,-0.40234375,-0.185546875,0.23828125,-7.56640625,1.48046875,1.0
4756686,,,,,,,,-0.47265625,2.05078125,-0.1328125,0.140625,-0.43359375,-0.185546875,0.23828125,-7.37109375,1.328125,1.0
4756687,,,,,,,,-0.45703125,2.1171875,-0.29296875,0.126953125,-0.47265625,-0.173828125,0.27734375,-7.30078125,1.17578125,1.0
4756688,,,,,,,,-0.46484375,2.203125,-0.37890625,0.1171875,-0.482421875,-0.171875,0.27734375,-7.22265625,1.09765625,1.0
4756689,,,,,,,,-0.65625,2.1171875,-0.51171875,0.111328125,-0.482421875,-0.146484375,0.125,-7.296875,0.98046875,1.0
4756690,36.01344133333334,129.3195565,86.22693024816986,115.54597864523716,1.0,282.0,,-0.87109375,2.08203125,-0.59375,0.115234375,-0.482421875,-0.103515625,-0.06640625,-7.328125,0.90625,1.0
4756691,,,,,,,,-1.09375,1.7265625,-0.734375,0.123046875,-0.47265625,-0.064453125,-0.2578125,-7.68359375,0.7890625,1.0
4756692,,,,,,,,-1.1328125,1.61328125,-0.76953125,0.1171875,-0.4765625,-0.046875,-0.296875,-7.79296875,0.75390625,1.0
4756693,,,,,,,,-1.1875,1.22265625,-0.7109375,0.134765625,-0.46484375,0.00390625,-0.3359375,-8.17578125,0.828125,1.0
4756694,,,,,,,,-1.234375,1.0703125,-0.7109375,0.1484375,-0.478515625,0.0234375,-0.375,-8.328125,0.828125,1.0
4756695,,,,,,,,-1.04296875,0.87890625,-0.640625,0.185546875,-0.5,0.052734375,-0.18359375,-8.51953125,0.90625,1.0
4756696,,,,,,,,-1.01171875,0.90625,-0.6640625,0.216796875,-0.5078125,0.078125,-0.14453125,-8.484375,0.90625,1.0
4756697,,,,,,,,-0.97265625,0.90625,-0.671875,0.2265625,-0.51953125,0.0859375,-0.10546875,-8.48828125,0.90625,1.0
4756698,,,,,,,,-0.93359375,1.20703125,-0.734375,0.2734375,-0.513671875,0.11328125,-0.06640625,-8.171875,0.8671875,1.0
4756699,,,,,,,,-0.93359375,1.24609375,-0.75,0.28515625,-0.513671875,0.1171875,-0.06640625,-8.13671875,0.8671875,1.0
4756700,36.0134415,129.3195555,86.13678168163153,115.56447096882633,1.0,281.0,0.0,-0.8125,1.19921875,-0.92578125,0.287109375,-0.53515625,0.123046875,-0.06640625,-7.328125,0.90625,1.0
4756701,,,,,,,,-0.57421875,0.921875,-0.98828125,0.2578125,-0.5625,0.1171875,0.27734375,-8.44921875,0.67578125,1.0
4756702,,,,,,,,-0.3828125,0.73046875,-0.92578125,0.234375,-0.58984375,0.11328125,0.46875,-8.63671875,0.75390625,1.0
4756703,,,,,,,,-0.2734375,0.5703125,-0.8046875,0.248046875,-0.59375,0.095703125,0.5859375,-8.7890625,0.90625,1.0
4756704,,,,,,,,-0.390625,0.453125,-0.74609375,0.25,-0.59765625,0.072265625,0.46875,-8.91015625,0.98046875,1.0
4756705,,,,,,,,-0.3984375,0.37109375,-0.8046875,0.240234375,-0.58984375,0.05078125,0.46875,-8.98046875,0.9453125,1.0
4756706,,,,,,,,-0.4453125,0.4375,-0.66796875,0.2265625,-0.5859375,0.029296875,0.4296875,-8.90625,1.09765625,1.0
4756707,,,,,,,,-0.40625,0.4296875,-0.5703125,0.208984375,-0.583984375,0.009765625,0.46875,-8.90625,1.2109375,1.0
4756708,,,,,,,,-0.34375,0.30859375,-0.5390625,0.18359375,-0.576171875,-0.009765625,0.546875,-9.015625,1.25,1.0
4756709,,,,,,,,-0.3125,-0.07421875,-0.5546875,0.12890625,-0.580078125,-0.017578125,0.5859375,-9.40234375,1.25,1.0
4756710,36.01344166666667,129.31955416666668,86.01658365440643,115.58296299940261,1.1,282.0,,-0.25390625,-0.3046875,-0.4765625,0.287109375,-0.53515625,0.123046875,-0.06640625,-7.328125,0.90625,1.0
4756711,,,,,,,,-0.14453125,-0.65625,-0.4765625,0.017578125,-0.548828125,-0.03125,0.77734375,-9.9765625,1.328125,1.0
4756712,,,,,,,,-0.1171875,-0.734375,-0.4765625,-0.021484375,-0.54296875,-0.037109375,0.8125,-10.05859375,1.328125,1.0
4756713,,,,,,,,0.05859375,-0.7734375,-0.5,-0.076171875,-0.521484375,-0.0390625,1.00390625,-10.09375,1.2890625,1.0
4756714,,,,,,,,0.05078125,-0.6484375,-0.53125,-0.123046875,-0.48046875,-0.037109375,1.00390625,-9.9765625,1.25,1.0
4756715,,,,,,,,-0.19140625,-0.42578125,-0.61328125,-0.193359375,-0.40625,-0.044921875,0.77734375,-9.7421875,1.13671875,1.0
4756716,,,,,,,,-0.31640625,-0.3125,-0.63671875,-0.216796875,-0.38671875,-0.041015625,0.66015625,-9.63671875,1.09765625,1.0
4756717,,,,,,,,-0.74609375,0.109375,-0.69140625,-0.2734375,-0.384765625,-0.033203125,0.23828125,-9.2109375,1.01953125,1.0
4756718,,,,,,,,-1.2109375,0.5,-0.66015625,-0.341796875,-0.412109375,-0.01953125,-0.21875,-8.828125,1.01953125,1.0
4756719,,,,,,,,-1.52734375,0.4296875,-0.59765625,-0.37109375,-0.44140625,-0.0078125,-0.52734375,-8.90625,1.05859375,1.0
4756720,36.01344183333333,129.31955299999998,85.91141035597045,115.60145517863802,1.1,281.0,,-1.734375,-0.59375,-0.6875,-0.484375,-0.55859375,0.017578125,-0.71875,-9.9375,0.90625,1.0
4756721,,,,,,,,-1.3125,-1.66015625,-0.78515625,-0.6015625,-0.689453125,0.048828125,-0.296875,-11.01171875,0.75390625,1.0
4756722,,,,,,,,-0.28515625,-3.18359375,0.1640625,-0.71484375,-0.82421875,0.078125,0.73828125,-12.5390625,1.6328125,1.0
4756723,,,,,,,,0.13671875,-3.67578125,0.6640625,-0.75390625,-0.88671875,0.08203125,1.16015625,-13.0390625,2.09375,1.0
4756724,,,,,,,,1.27734375,-5.0859375,1.8515625,-0.76953125,-1.01953125,0.07421875,2.30859375,-14.4609375,3.1640625,1.0
4756725,,,,,,,,2.609375,-1.7734375,2.125,-0.564453125,-1.025390625,0.033203125,3.6484375,-11.16796875,3.3203125,1.0
4756726,,,,,,,,1.8203125,0.109375,1.671875,0.107421875,-0.720703125,-0.05859375,2.8828125,-9.29296875,2.8203125,1.0
4756727,,,,,,,,0.578125,-0.6171875,1.85546875,0.23828125,-0.646484375,-0.072265625,1.65625,-10.015625,3.01171875,1.0
4756728,,,,,,,,0.15625,-1.3046875,2.0390625,0.23046875,-0.6640625,-0.06640625,1.234375,-10.70703125,3.203125,1.0
4756729,,,,,,,,-0.5859375,-2.6171875,2.5625,0.1796875,-0.791015625,-0.02734375,0.5078125,-12.0078125,3.7421875,1.0
4756730,36.013442166666664,129.31955183333332,85.80623687905718,115.63844056685872,1.1,283.0,,-0.44140625,-2.72265625,2.5078125,-0.484375,-0.55859375,0.017578125,0.66015625,-12.12109375,3.703125,1.0
4756731,,,,,,,,0.1640625,-2.07421875,1.91796875,0.396484375,-1.091796875,0.080078125,1.2734375,-11.46875,3.12890625,1.0
4756732,,,,,,,,0.31640625,-1.54296875,1.65625,0.517578125,-1.0390625,0.162109375,1.42578125,-10.9296875,2.8984375,1.0
4756733,,,,,,,,0.28125,-1.12890625,1.46484375,0.544921875,-0.923828125,0.25,1.390625,-10.5078125,2.74609375,1.0
4756734,,,,,,,,0.1875,-0.51171875,1.30078125,0.509765625,-0.8828125,0.333984375,1.2734375,-9.8984375,2.62890625,1.0
4756735,,,,,,,,0.328125,-0.25,1.1171875,0.419921875,-0.935546875,0.390625,1.390625,-9.63671875,2.4765625,1.0
4756736,,,,,,,,0.41015625,-0.25,1.0234375,0.37890625,-0.984375,0.423828125,1.46484375,-9.63671875,2.3984375,1.0
4756737,,,,,,,,0.671875,-0.43359375,0.76953125,0.306640625,-1.048828125,0.4609375,1.6953125,-9.8203125,2.16796875,1.0
4756738,,,,,,,,0.59765625,-0.28125,0.6328125,0.22265625,-1.05078125,0.46875,1.58203125,-9.671875,2.0546875,1.0
4756739,,,,,,,,0.46484375,0.29296875,0.50390625,0.203125,-1.005859375,0.466796875,1.42578125,-9.09375,1.94140625,1.0
4756740,36.0134425,129.31955033333332,85.6710139429324,115.67542566312554,1.3,283.0,,0.46875,0.83984375,0.2578125,-0.484375,-0.55859375,0.017578125,1.390625,-8.5546875,1.7109375,1.0
4756741,,,,,,,,0.54296875,1.453125,-0.1796875,0.248046875,-0.91015625,0.435546875,1.42578125,-7.94921875,1.2890625,1.0
4756742,,,,,,,,0.71484375,1.91015625,-0.30078125,0.232421875,-0.90625,0.4296875,1.58203125,-7.48828125,1.17578125,1.0
4756743,,,,,,,,1.06640625,2.33984375,-0.40234375,0.14453125,-0.947265625,0.392578125,1.88671875,-7.06640625,1.09765625,1.0
4756744,,,,,,,,1.1953125,2.37890625,-0.37109375,0.13671875,-0.9453125,0.37109375,2.0,-7.02734375,1.13671875,1.0
4756745,,,,,,,,1.296875,2.41796875,-0.45703125,0.16015625,-0.935546875,0.353515625,2.078125,-6.984375,1.05859375,1.0
4756746,,,,,,,,1.46484375,2.33984375,-0.6171875,0.197265625,-0.8984375,0.33984375,2.23046875,-7.0625,0.90625,1.0
4756747,,,,,,,,1.51171875,2.30078125,-0.6640625,0.2109375,-0.876953125,0.33203125,2.26953125,-7.10546875,0.8671875,1.0
4756748,,,,,,,,1.60546875,2.41796875,-0.83203125,0.21484375,-0.849609375,0.3046875,2.34765625,-6.984375,0.71484375,1.0
4756749,,,,,,,,1.65234375,2.45703125,-0.91796875,0.212890625,-0.82421875,0.283203125,2.38671875,-6.94921875,0.63671875,1.0
4756750,36.01344266666667,129.31954916666666,85.56584064872672,115.69391784669403,1.0,282.0,,1.66015625,2.33203125,-0.97265625,-0.484375,-0.55859375,0.017578125,1.390625,-8.5546875,1.7109375,1.0
4756751,,,,,,,,1.66796875,2.21875,-0.91015625,0.21484375,-0.669921875,0.23046875,2.38671875,-7.18359375,0.67578125,1.0
4756752,,,,,,,,1.68359375,2.1015625,-0.84765625,0.21875,-0.5859375,0.2109375,2.38671875,-7.296875,0.75390625,1.0
4756753,,,,,,,,1.60546875,2.06640625,-0.85546875,0.220703125,-0.552734375,0.208984375,2.30859375,-7.33203125,0.75390625,1.0
4756754,,,,,,,,1.53515625,1.98046875,-0.765625,0.240234375,-0.4921875,0.19140625,2.23046875,-7.41015625,0.8671875,1.0
4756755,,,,,,,,1.50390625,1.98046875,-0.67578125,0.255859375,-0.423828125,0.173828125,2.19140625,-7.40625,0.98046875,1.0
4756756,,,,,,,,1.51171875,1.86328125,-0.69921875,0.26953125,-0.361328125,0.1640625,2.19140625,-7.5234375,0.98046875,1.0
4756757,,,,,,,,1.63671875,1.55078125,-0.73046875,0.279296875,-0.28515625,0.162109375,2.30859375,-7.83203125,0.98046875,1.0
4756758,,,,,,,,1.68359375,1.390625,-0.73828125,0.26953125,-0.259765625,0.1640625,2.34765625,-7.984375,0.98046875,1.0
4756759,,,,,,,,1.765625,0.8828125,-0.8359375,0.259765625,-0.23046875,0.16796875,2.421875,-8.484375,0.90625,1.0
4756760,36.0134425,129.31954783333333,85.44564298403479,115.67542346822381,1.1,277.0,,1.859375,0.5703125,-0.875,-0.484375,-0.55859375,0.017578125,2.5,-8.79296875,0.90625,1.0
4756761,,,,,,,,1.828125,0.37890625,-0.77734375,0.232421875,-0.080078125,0.15234375,2.4609375,-8.98046875,1.01953125,1.0
4756762,,,,,,,,1.8046875,0.21875,-0.68359375,0.2265625,-0.009765625,0.142578125,2.421875,-9.13671875,1.13671875,1.0
4756763,,,,,,,,1.8046875,0.1328125,-0.65234375,0.2109375,0.015625,0.146484375,2.421875,-9.2109375,1.17578125,1.0
4756764,,,,,,,,1.77734375,-0.09765625,-0.33203125,0.173828125,0.064453125,0.140625,2.38671875,-9.4375,1.51953125,1.0
4756765,,,,,,,,1.8359375,-0.296875,0.02734375,0.1171875,0.115234375,0.1328125,2.421875,-9.6328125,1.90234375,1.0
4756766,,,,,,,,1.8828125,-0.37109375,0.25,0.095703125,0.138671875,0.13671875,2.4609375,-9.703125,2.1328125,1.0
4756767,,,,,,,,1.8984375,-0.2265625,0.0859375,0.078125,0.16015625,0.14453125,2.4609375,-9.5546875,1.9765625,1.0
4756768,,,,,,,,1.8671875,-0.15234375,0.00390625,0.05859375,0.162109375,0.140625,2.421875,-9.4765625,1.90234375,1.0
4756769,,,,,,,,1.64453125,-0.06640625,-0.49609375,0.017578125,0.162109375,0.1484375,2.19140625,-9.40234375,1.40234375,1.0
4756770,36.013442166666664,129.31954666666667,85.3404702295256,115.63843602979257,1.0,267.0,,1.125,-0.2578125,-0.83984375,-0.484375,-0.55859375,0.017578125,2.5,-8.79296875,0.90625,1.0
4756771,,,,,,,,0.796875,-0.3359375,-0.86328125,-0.181640625,0.16796875,0.181640625,1.3125,-9.67578125,1.01953125,1.0
4756772,,,,,,,,0.3203125,-0.52734375,-0.68359375,-0.287109375,0.189453125,0.189453125,0.8125,-9.86328125,1.17578125,1.0
4756773,,,,,,,,-0.015625,-0.55859375,-0.43359375,-0.369140625,0.197265625,0.193359375,0.46875,-9.90234375,1.40234375,1.0
4756774,,,,,,,,-0.14453125,-1.046875,0.10546875,-0.439453125,0.1953125,0.185546875,0.31640625,-10.3984375,1.90234375,1.0
4756775,,,,,,,,-0.05859375,-2.6875,0.265625,-0.51953125,0.107421875,0.1953125,0.39453125,-12.05078125,2.015625,1.0
4756776,,,,,,,,-0.08984375,-3.3671875,0.3359375,-0.583984375,0.02734375,0.208984375,0.35546875,-12.734375,2.0546875,1.0
4756777,,,,,,,,-0.2890625,-4.34765625,1.2734375,-0.77734375,-0.2421875,0.224609375,0.125,-13.73046875,2.8984375,1.0
4756778,,,,,,,,-1.19921875,-3.765625,2.4921875,-0.681640625,-0.23046875,0.20703125,-0.79296875,-13.15625,4.046875,1.0
4756779,,,,,,,,-2.2890625,-2.9453125,2.265625,-0.404296875,-0.25,0.2578125,-1.90625,-12.35546875,3.7421875,1.0
4756780,36.01344166666667,129.31954533333334,85.22027292248124,115.58295523865775,1.1,258.0,,-2.734375,-1.828125,2.41015625,-0.287109375,-0.373046875,0.275390625,2.5,-8.79296875,0.90625,1.0
4756781,,,,,,,,-2.25,0.01171875,2.15625,-0.11328125,-0.44140625,0.2890625,-1.90625,-9.40234375,3.5859375,1.0
4756782,,,,,,,,-1.734375,0.05859375,1.8203125,-0.009765625,-0.45703125,0.28515625,-1.40625,-9.36328125,3.2421875,1.0
4756783,,,,,,,,-0.640625,-0.78515625,2.12890625,-0.072265625,-0.443359375,0.25390625,-0.3359375,-10.203125,3.55078125,1.0
4756784,,,,,,,,0.05859375,-1.4296875,2.36328125,-0.16015625,-0.4296875,0.208984375,0.35546875,-10.86328125,3.77734375,1.0
4756785,,,,,,,,0.5234375,-1.92578125,2.5703125,-0.1484375,-0.4140625,0.142578125,0.8125,-11.3515625,3.96875,1.0
4756786,,,,,,,,0.6875,-1.88671875,2.6953125,-0.1171875,-0.390625,0.111328125,0.96875,-11.3125,4.0859375,1.0
4756787,,,,,,,,0.33984375,-1.34375,2.671875,0.005859375,-0.318359375,0.0546875,0.62109375,-10.78515625,4.046875,1.0
4756788,,,,,,,,-0.125,-0.76953125,2.46484375,0.12890625,-0.2578125,-0.01171875,0.1640625,-10.20703125,3.85546875,1.0
4756789,,,,,,,,-0.59375,-0.234375,2.37109375,0.1953125,-0.21484375,-0.072265625,-0.296875,-9.67578125,3.77734375,1.0
4756790,36.01344133333334,129.31954433333334,85.13012489790714,115.54596794797993,1.0,255.0,,-0.609375,-0.30859375,2.1875,0.140625,-0.24609375,-0.111328125,-0.296875,-9.74609375,3.625,1.0
4756791,,,,,,,,-0.48828125,-0.6640625,1.796875,0.033203125,-0.294921875,-0.1328125,-0.14453125,-10.09765625,3.2421875,1.0
4756792,,,,,,,,-0.42578125,-0.46484375,1.67578125,0.033203125,-0.28515625,-0.140625,-0.06640625,-9.8984375,3.12890625,1.0
4756793,,,,,,,,-0.43359375,-0.34765625,1.63671875,0.048828125,-0.27734375,-0.138671875,-0.06640625,-9.78125,3.08984375,1.0
4756794,,,,,,,,-0.49609375,0.296875,1.28515625,0.1015625,-0.2578125,-0.14453125,-0.10546875,-9.13671875,2.74609375,1.0
4756795,,,,,,,,-0.55859375,0.6875,1.078125,0.130859375,-0.26171875,-0.1484375,-0.14453125,-8.75390625,2.5546875,1.0
4756796,,,,,,,,-0.6875,1.21484375,0.79296875,0.13671875,-0.2890625,-0.142578125,-0.2578125,-8.2109375,2.28515625,1.0
4756797,,,,,,,,-0.7109375,1.40625,0.5859375,0.123046875,-0.3359375,-0.140625,-0.2578125,-8.0234375,2.09375,1.0
4756798,,,,,,,,-0.71875,1.67578125,0.4609375,0.126953125,-0.359375,-0.1328125,-0.2578125,-7.75390625,1.9765625,1.0
4756799,,,,,,,,-0.62109375,2.01171875,0.21875,0.119140625,-0.3984375,-0.142578125,-0.14453125,-7.41015625,1.75,1.0
4756800,36.01344099999999,129.31954316666668,85.02495214018997,115.50898051135638,1.1,252.0,0.0,-0.53515625,2.203125,0.09375,0.1171875,-0.46875,-0.126953125,-0.02734375,-7.21875,1.6328125,1.0
4756801,,,,,,,,-0.59765625,2.546875,-0.2734375,0.11328125,-0.50390625,-0.115234375,-0.06640625,-6.87890625,1.2890625,1.0
4756802,,,,,,,,-0.8515625,2.5859375,-0.359375,0.091796875,-0.525390625,-0.080078125,-0.296875,-6.83984375,1.2109375,1.0
4756803,,,,,,,,-0.9375,2.5859375,-0.43359375,0.091796875,-0.521484375,-0.076171875,-0.375,-6.83984375,1.13671875,1.0
4756804,,,,,,,,-1.14453125,2.43359375,-0.55859375,0.095703125,-0.52734375,-0.03515625,-0.56640625,-6.984375,1.01953125,1.0
4756805,,,,,,,,-1.2734375,2.42578125,-0.61328125,0.09765625,-0.541015625,-0.00390625,-0.6796875,-6.98828125,0.98046875,1.0
4756806,,,,,,,,-1.38671875,2.265625,-0.6953125,0.09375,-0.564453125,0.03125,-0.79296875,-7.14453125,0.90625,1.0
4756807,,,,,,,,-1.43359375,2.1484375,-0.7734375,0.08984375,-0.58984375,0.0546875,-0.83203125,-7.2578125,0.828125,1.0
4756808,,,,,,,,-1.43359375,1.99609375,-0.7421875,0.083984375,-0.603515625,0.076171875,-0.83203125,-7.41015625,0.8671875,1.0
4756809,,,,,,,,-1.39453125,1.7578125,-0.7890625,0.083984375,-0.630859375,0.109375,-0.79296875,-7.64453125,0.828125,1.0
4756810,36.013440833333334,129.31954233333332,84.94982866166652,115.49048657801151,1.0,251.0,,-1.28125,1.3828125,-0.87109375,0.1171875,-0.46875,-0.126953125,-0.6796875,-8.0234375,0.75390625,1.0
4756811,,,,,,,,-1.08203125,1.0390625,-0.87109375,0.087890625,-0.693359375,0.15234375,-0.48828125,-8.37109375,0.75390625,1.0
4756812,,,,,,,,-0.9765625,1.03125,-0.7265625,0.091796875,-0.720703125,0.158203125,-0.375,-8.3671875,0.90625,1.0
4756813,,,,,,,,-1.04296875,1.2890625,-0.859375,0.134765625,-0.7109375,0.173828125,-0.44921875,-8.1015625,0.7890625,1.0
4756814,,,,,,,,-1.03515625,1.2890625,-0.94140625,0.169921875,-0.673828125,0.166015625,-0.44921875,-8.10546875,0.71484375,1.0
4756815,,,,,,,,-0.8828125,1.17578125,-1.07421875,0.177734375,-0.6640625,0.154296875,-0.296875,-8.2109375,0.59765625,1.0
4756816,,,,,,,,-0.796875,1.12890625,-1.1171875,0.166015625,-0.673828125,0.15234375,-0.21875,-8.25390625,0.5625,1.0
4756817,,,,,,,,-0.4921875,0.8984375,-1.125,0.1484375,-0.7109375,0.1328125,0.0859375,-8.48828125,0.5625,1.0
4756818,,,,,,,,-0.26171875,0.69921875,-1.06640625,0.123046875,-0.73046875,0.1171875,0.31640625,-8.67578125,0.63671875,1.0
4756819,,,,,,,,-0.109375,0.46875,-0.921875,0.095703125,-0.70703125,0.072265625,0.46875,-8.90625,0.7890625,1.0
4756820,36.01344066666666,129.31954133333332,84.85968045442247,115.47199249687682,1.0,252.0,,-0.0390625,0.234375,-0.890625,0.091796875,-0.662109375,0.033203125,0.546875,-9.13671875,0.828125,1.0
4756821,,,,,,,,-0.046875,0.15625,-0.74609375,0.087890625,-0.638671875,-0.001953125,0.546875,-9.2109375,0.98046875,1.0
4756822,,,,,,,,-0.1328125,0.15625,-0.66796875,0.087890625,-0.615234375,-0.021484375,0.46875,-9.2109375,1.05859375,1.0
4756823,,,,,,,,-0.25390625,-0.01171875,-0.62890625,0.08984375,-0.580078125,-0.0625,0.35546875,-9.36328125,1.09765625,1.0
4756824,,,,,,,,-0.421875,-0.203125,-0.59765625,0.08203125,-0.56640625,-0.068359375,0.203125,-9.5546875,1.13671875,1.0
4756825,,,,,,,,-0.59375,-0.703125,-0.63671875,0.052734375,-0.5390625,-0.087890625,0.046875,-10.05859375,1.09765625,1.0
4756826,,,,,,,,-0.65625,-1.16015625,-0.484375,-0.029296875,-0.505859375,-0.099609375,0.0078125,-10.51171875,1.25,1.0
4756827,,,,,,,,-0.5859375,-1.23828125,-0.3984375,-0.064453125,-0.494140625,-0.10546875,0.0859375,-10.58984375,1.328125,1.0
4756828,,,,,,,,-0.38671875,-1.359375,-0.30859375,-0.1015625,-0.458984375,-0.115234375,0.31640625,-10.703125,1.40234375,1.0
4756829,,,,,,,,-0.2421875,-1.0859375,-0.3828125,-0.1171875,-0.447265625,-0.119140625,0.46875,-10.4375,1.328125,1.0
4756830,36.01344033333333,129.31954016666666,84.75450769444768,115.43500506532442,1.1,254.0,,-0.546875,-0.59375,-0.57421875,-0.177734375,-0.341796875,-0.12890625,0.203125,-9.94140625,1.09765625,1.0
4756831,,,,,,,,-1.03125,-0.203125,-0.6953125,-0.265625,-0.310546875,-0.13671875,-0.2578125,-9.5546875,0.9453125,1.0
4756832,,,,,,,,-1.26953125,0.0625,-0.671875,-0.3125,-0.33203125,-0.1328125,-0.48828125,-9.29296875,0.9453125,1.0
4756833,,,,,,,,-1.46875,0.1484375,-0.56640625,-0.390625,-0.3828125,-0.12890625,-0.6796875,-9.21484375,1.01953125,1.0
4756834,,,,,,,,-1.72265625,-0.42578125,-0.75,-0.49609375,-0.44921875,-0.119140625,-0.91015625,-9.78515625,0.7890625,1.0
4756835,,,,,,,,-1.28515625,-2.140625,-0.85546875,-0.7265625,-0.603515625,-0.09765625,-0.44921875,-11.51171875,0.59765625,1.0
4756836,,,,,,,,-1.1015625,-2.515625,-0.546875,-0.8046875,-0.65625,-0.08984375,-0.2578125,-11.890625,0.8671875,1.0
4756837,,,,,,,,-0.23828125,-3.50390625,0.421875,-0.87890625,-0.7890625,-0.08203125,0.62109375,-12.8828125,1.75,1.0
4756838,,,,,,,,0.4296875,-4.75390625,0.8515625,-0.921875,-0.953125,-0.0703125,1.3125,-14.15234375,2.09375,1.0
4756839,,,,,,,,1.37890625,-6.1640625,1.09765625,-0.951171875,-1.01953125,-0.076171875,2.26953125,-15.57421875,2.28515625,1.0
