time,latitude,longitude,enu_x,enu_y,speed,course,ecg,accX,accY,accZ,gyrX,gyrY,gyrZ,eulR,eulP,eulY,validity
4786210,36.01339266666666,129.31953800000002,84.55923710677675,110.14594562837496,1.2000000000000002,233.0,,0.9765625,-1.8984375,1.734375,-0.7265625,0.013671875,-0.177734375,2.4609375,-11.16796875,3.359375,1.0
4786211,,,,,,,,1.0,-1.66796875,1.46484375,0.0078125,0.576171875,-0.248046875,2.5,-10.93359375,3.08984375,1.0
4786212,,,,,,,,0.953125,-1.36328125,1.41015625,0.0546875,0.6640625,-0.2734375,2.4609375,-10.62890625,3.05078125,1.0
4786213,,,,,,,,0.79296875,-1.2109375,1.44140625,0.06640625,0.724609375,-0.296875,2.30859375,-10.48046875,3.08984375,1.0
4786214,,,,,,,,0.31640625,-1.0625,1.4921875,0.076171875,0.84375,-0.33203125,1.84765625,-10.32421875,3.1640625,1.0
4786215,,,,,,,,-0.578125,-0.6875,1.40234375,0.095703125,0.9375,-0.34765625,0.96875,-9.9375,3.08984375,1.0
4786216,,,,,,,,-1.078125,0.0390625,0.734375,0.146484375,0.927734375,-0.35546875,0.5078125,-9.2109375,2.4765625,1.0
4786217,,,,,,,,-1.1953125,0.62890625,0.25,0.125,0.8671875,-0.3515625,0.4296875,-8.59375,2.0546875,1.0
4786218,,,,,,,,-1.23828125,0.828125,0.15625,0.130859375,0.861328125,-0.3515625,0.39453125,-8.40625,1.9765625,1.0
4786219,,,,,,,,-1.140625,1.6640625,-0.28515625,0.119140625,0.814453125,-0.357421875,0.5078125,-7.5625,1.55859375,1.0
4786220,36.013391999999996,129.31953683333333,84.45406463544252,110.0719717844242,1.3,234.0,,-1.05078125,1.88671875,-0.38671875,0.107421875,0.76171875,-0.37890625,0.62109375,-7.328125,1.48046875,1.0
4786221,,,,,,,,-0.95703125,2.0625,-0.48828125,0.0859375,0.712890625,-0.408203125,0.73828125,-7.14453125,1.40234375,1.0
4786222,,,,,,,,-0.828125,2.17578125,-0.6640625,0.052734375,0.67578125,-0.43359375,0.890625,-7.0234375,1.25,1.0
4786223,,,,,,,,-0.8203125,2.08984375,-0.75390625,0.046875,0.65625,-0.44921875,0.9296875,-7.10546875,1.17578125,1.0
4786224,,,,,,,,-0.84375,2.12109375,-0.80859375,0.046875,0.654296875,-0.45703125,0.9296875,-7.0625,1.13671875,1.0
4786225,,,,,,,,-1.14453125,2.0,-0.78515625,0.056640625,0.673828125,-0.4453125,0.66015625,-7.18359375,1.17578125,1.0
4786226,,,,,,,,-1.3828125,2.14453125,-0.87109375,0.06640625,0.677734375,-0.44140625,0.4296875,-7.02734375,1.09765625,1.0
4786227,,,,,,,,-1.56640625,2.13671875,-0.89453125,0.08984375,0.68359375,-0.41015625,0.27734375,-7.0234375,1.09765625,1.0
4786228,,,,,,,,-1.88671875,2.12109375,-1.03515625,0.109375,0.677734375,-0.3671875,-0.02734375,-7.0234375,0.98046875,1.0
4786229,,,,,,,,-2.01953125,2.11328125,-1.1328125,0.140625,0.65625,-0.333984375,-0.14453125,-7.02734375,0.90625,1.0
4786230,36.0133915,129.319536,84.3789414670477,110.01649143896063,1.1,235.0,,-2.1171875,1.9453125,-1.25,0.107421875,0.76171875,-0.37890625,0.62109375,-7.328125,1.48046875,1.0
4786231,,,,,,,,-1.98046875,1.78515625,-1.15625,0.13671875,0.556640625,-0.23828125,-0.06640625,-7.33203125,0.9453125,1.0
4786232,,,,,,,,-1.875,1.69921875,-1.02734375,0.1328125,0.51171875,-0.21484375,0.046875,-7.41015625,1.09765625,1.0
4786233,,,,,,,,-1.8828125,1.62109375,-1.04296875,0.130859375,0.447265625,-0.18359375,0.046875,-7.48828125,1.09765625,1.0
4786234,,,,,,,,-1.8046875,1.4921875,-1.07421875,0.125,0.3984375,-0.166015625,0.125,-7.60546875,1.09765625,1.0
4786235,,,,,,,,-1.734375,1.26171875,-1.16796875,0.12109375,0.33984375,-0.140625,0.203125,-7.83203125,1.01953125,1.0
4786236,,,,,,,,-1.55078125,0.7109375,-1.21484375,0.087890625,0.2734375,-0.12109375,0.39453125,-8.37109375,0.98046875,1.0
4786237,,,,,,,,-1.4296875,0.36328125,-1.14453125,0.072265625,0.216796875,-0.091796875,0.5078125,-8.7109375,1.05859375,1.0
4786238,,,,,,,,-1.19921875,0.05078125,-1.12109375,0.0546875,0.19140625,-0.076171875,0.73828125,-9.015625,1.09765625,1.0
4786239,,,,,,,,-1.1328125,-0.02734375,-0.9765625,0.052734375,0.171875,-0.06640625,0.8125,-9.09375,1.25,1.0
4786240,36.013391,129.3195345,84.24371933695528,109.96101051585035,1.2000000000000002,238.0,,-1.1328125,-0.109375,-0.90625,0.056640625,0.16015625,-0.06640625,0.8125,-9.17578125,1.328125,1.0
4786241,,,,,,,,-1.19921875,-0.5,-0.72265625,0.0078125,0.08203125,-0.060546875,0.73828125,-9.55859375,1.51953125,1.0
4786242,,,,,,,,-1.1328125,-0.65234375,-0.609375,0.005859375,0.068359375,-0.05859375,0.8125,-9.70703125,1.6328125,1.0
4786243,,,,,,,,-1.015625,-0.80859375,-0.578125,-0.005859375,0.029296875,-0.0546875,0.9296875,-9.86328125,1.671875,1.0
4786244,,,,,,,,-0.9765625,-0.73046875,-0.6484375,-0.005859375,0.0234375,-0.05078125,0.96875,-9.78515625,1.59375,1.0
4786245,,,,,,,,-0.83203125,-0.65234375,-0.875,-0.025390625,-0.005859375,-0.052734375,1.12109375,-9.70703125,1.3671875,1.0
4786246,,,,,,,,-0.71875,-0.578125,-0.9140625,-0.056640625,0.001953125,-0.0546875,1.234375,-9.63671875,1.328125,1.0
4786247,,,,,,,,-0.6796875,-0.5390625,-0.8671875,-0.125,0.015625,-0.064453125,1.2734375,-9.59765625,1.3671875,1.0
4786248,,,,,,,,-0.640625,-0.42578125,-0.8984375,-0.16796875,0.03515625,-0.06640625,1.3125,-9.4765625,1.328125,1.0
4786249,,,,,,,,-0.53515625,-0.27734375,-0.953125,-0.2578125,0.0703125,-0.060546875,1.42578125,-9.32421875,1.25,1.0
4786250,36.013390666666666,129.31953333333334,84.13854650790154,109.92402309185698,1.1,240.0,,-1.1328125,-0.109375,-0.90625,-0.349609375,0.103515625,-0.05859375,1.50390625,-9.2890625,1.2109375,1.0
4786251,,,,,,,,-0.296875,-0.0703125,-1.01953125,-0.46484375,0.126953125,-0.048828125,1.7734375,-9.015625,1.17578125,1.0
4786252,,,,,,,,-0.2265625,0.328125,-0.734375,-0.59375,0.15625,-0.029296875,1.50390625,-8.59765625,1.44140625,1.0
4786253,,,,,,,,-0.44921875,0.48046875,-0.63671875,-0.625,0.173828125,-0.017578125,1.3125,-8.75,1.55859375,1.0
4786254,,,,,,,,-0.78515625,-0.078125,-0.421875,-0.689453125,0.20703125,0.005859375,0.8125,-10.51171875,1.78515625,1.0
4786255,,,,,,,,-1.015625,-2.9375,0.36328125,-0.859375,0.05859375,0.04296875,1.12109375,-12.85546875,2.9375,1.0
4786256,,,,,,,,0.1796875,-4.796875,2.39453125,-0.904296875,-0.08203125,0.03515625,2.73046875,-14.34765625,4.58203125,1.0
4786257,,,,,,,,2.4921875,-5.50390625,2.75,-0.900390625,-0.1484375,0.0078125,5.2578125,-14.57421875,4.16015625,1.0
4786258,,,,,,,,3.328125,-5.41796875,2.44140625,-0.892578125,-0.1171875,-0.005859375,6.55859375,-13.12109375,3.81640625,1.0
4786259,,,,,,,,4.8984375,-2.94921875,2.18359375,-0.7421875,0.09765625,-0.046875,6.59765625,-11.28125,3.7421875,1.0
4786260,36.013390333333334,129.319532,84.01834893826981,109.88703552554372,1.1,246.0,,4.01953125,-1.44140625,2.1328125,-0.357421875,0.4296875,-0.109375,5.2578125,-10.44140625,3.6640625,1.0
4786261,,,,,,,,2.63671875,-1.35546875,2.046875,-0.140625,0.5546875,-0.1484375,3.11328125,-11.51171875,3.6640625,1.0
4786262,,,,,,,,-0.05078125,-3.2421875,2.77734375,-0.09765625,0.41015625,-0.171875,1.390625,-12.85546875,4.62109375,1.0
4786263,,,,,,,,-0.82421875,-3.9296875,3.3515625,0.01953125,0.25,-0.1640625,0.8125,-12.96484375,5.00390625,1.0
4786264,,,,,,,,-1.1015625,-3.39453125,3.34375,0.1953125,0.169921875,-0.107421875,1.08203125,-12.1171875,4.546875,1.0
4786265,,,,,,,,-0.6875,-2.359375,2.5546875,0.3671875,0.181640625,0.0,1.54296875,-10.359375,3.39453125,1.0
4786266,,,,,,,,-0.34375,-0.64453125,1.59375,0.427734375,0.296875,0.103515625,1.58203125,-9.40234375,3.01171875,1.0
4786267,,,,,,,,-0.40234375,0.12109375,1.2890625,0.34765625,0.37109375,0.18359375,1.42578125,-8.87109375,2.8203125,1.0
4786268,,,,,,,,-0.5234375,0.3984375,1.05859375,0.1796875,0.3046875,0.236328125,1.42578125,-8.83203125,2.62890625,1.0
4786269,,,,,,,,-0.30859375,0.08984375,0.87890625,-0.013671875,0.16015625,0.267578125,1.96484375,-9.4375,2.58984375,1.0
4786270,36.013389999999994,129.31953083333335,83.91317610839947,109.85004810442089,1.2000000000000002,248.0,,4.01953125,-1.44140625,2.1328125,-0.109375,0.06640625,0.27734375,2.15625,-9.59375,2.515625,1.0
4786271,,,,,,,,0.36328125,-0.359375,0.7578125,-0.130859375,0.083984375,0.275390625,2.0,-9.32421875,2.36328125,1.0
4786272,,,,,,,,0.08984375,0.078125,0.62109375,-0.1015625,0.154296875,0.265625,1.7734375,-8.90625,2.32421875,1.0
4786273,,,,,,,,-0.15625,0.54296875,0.54296875,-0.048828125,0.212890625,0.259765625,1.54296875,-8.40625,2.09375,1.0
4786274,,,,,,,,-0.30859375,1.1640625,0.23828125,-0.01171875,0.244140625,0.25390625,1.42578125,-7.8671875,1.78515625,1.0
4786275,,,,,,,,-0.3125,1.671875,0.0390625,-0.009765625,0.2578125,0.251953125,1.390625,-7.56640625,1.75,1.0
4786276,,,,,,,,-0.3359375,1.75390625,-0.078125,-0.01171875,0.267578125,0.24609375,1.3515625,-7.48828125,1.6328125,1.0
4786277,,,,,,,,-0.23828125,2.21484375,-0.19921875,-0.029296875,0.302734375,0.23828125,1.42578125,-7.0234375,1.51953125,1.0
4786278,,,,,,,,-0.12109375,2.4921875,-0.23828125,-0.03125,0.3515625,0.21484375,1.50390625,-6.76171875,1.48046875,1.0
4786279,,,,,,,,-0.01171875,2.7265625,-0.24609375,-0.037109375,0.369140625,0.19140625,1.58203125,-6.53515625,1.48046875,1.0
4786280,36.01338966666666,129.31952966666668,83.8080032792839,109.81306068357411,1.2000000000000002,250.0,,0.23828125,2.8125,-0.3984375,-0.109375,0.06640625,0.27734375,1.80859375,-6.45703125,1.328125,1.0
4786281,,,,,,,,0.4609375,2.69921875,-0.4453125,-0.013671875,0.400390625,0.15625,2.0,-6.56640625,1.2890625,1.0
4786282,,,,,,,,0.70703125,2.62109375,-0.56640625,-0.005859375,0.3984375,0.125,2.23046875,-6.64453125,1.17578125,1.0
4786283,,,,,,,,0.87890625,2.390625,-0.73046875,0.0,0.41015625,0.0859375,2.38671875,-6.875,1.01953125,1.0
4786284,,,,,,,,0.9296875,2.19921875,-0.9296875,-0.00390625,0.43359375,0.04296875,2.421875,-7.0625,0.828125,1.0
4786285,,,,,,,,0.90234375,1.9765625,-1.00390625,-0.029296875,0.478515625,-0.00390625,2.38671875,-7.296875,0.75390625,1.0
4786286,,,,,,,,0.78515625,1.94140625,-1.08984375,-0.029296875,0.509765625,-0.025390625,2.26953125,-7.328125,0.67578125,1.0
4786287,,,,,,,,0.5234375,1.77734375,-0.9765625,-0.037109375,0.576171875,-0.046875,2.0,-7.484375,0.7890625,1.0
4786288,,,,,,,,0.34765625,1.77734375,-0.984375,-0.0234375,0.654296875,-0.06640625,1.80859375,-7.484375,0.7890625,1.0
4786289,,,,,,,,0.234375,1.81640625,-0.921875,0.00390625,0.708984375,-0.076171875,1.6953125,-7.4453125,0.8671875,1.0
4786290,36.0133895,129.31952850000002,83.70283027102897,109.79456647368507,1.1,252.0,,0.1640625,1.5859375,-0.9765625,0.033203125,0.75,-0.08203125,1.6171875,-7.6796875,0.828125,1.0
4786291,,,,,,,,0.2109375,1.38671875,-1.09765625,0.0390625,0.744140625,-0.083984375,1.65625,-7.87109375,0.71484375,1.0
4786292,,,,,,,,0.2109375,1.15625,-1.19140625,0.041015625,0.732421875,-0.083984375,1.65625,-8.10546875,0.63671875,1.0
4786293,,,,,,,,0.2578125,0.8515625,-1.16015625,0.041015625,0.7265625,-0.087890625,1.6953125,-8.40625,0.67578125,1.0
4786294,,,,,,,,0.2578125,0.57421875,-1.09765625,0.029296875,0.7265625,-0.091796875,1.6953125,-8.671875,0.75390625,1.0
4786295,,,,,,,,0.265625,0.57421875,-1.0625,0.033203125,0.728515625,-0.087890625,1.6953125,-8.67578125,0.7890625,1.0
4786296,,,,,,,,0.3046875,0.4609375,-0.9140625,0.041015625,0.734375,-0.099609375,1.734375,-8.7890625,0.9453125,1.0
4786297,,,,,,,,0.08984375,0.22265625,-0.70703125,0.04296875,0.779296875,-0.091796875,1.50390625,-9.01953125,1.17578125,1.0
4786298,,,,,,,,-0.015625,0.0625,-0.6640625,0.0390625,0.791015625,-0.078125,1.390625,-9.171875,1.25,1.0
4786299,,,,,,,,-0.125,-0.13671875,-0.51953125,0.03515625,0.779296875,-0.078125,1.2734375,-9.359375,1.40234375,1.0
4786300,36.01338916666667,129.3195275,83.61268217689202,109.75757919891625,1.0,249.0,0.0,-0.19140625,-0.13671875,-0.48828125,0.033203125,0.75,-0.08203125,1.6171875,-7.6796875,0.828125,1.0
4786301,,,,,,,,-0.26171875,-0.13671875,-0.42578125,0.009765625,0.763671875,-0.083984375,1.12109375,-9.36328125,1.51953125,1.0
4786302,,,,,,,,-0.29296875,-0.13671875,-0.39453125,-0.03515625,0.73046875,-0.091796875,1.08203125,-9.36328125,1.55859375,1.0
4786303,,,,,,,,-0.16796875,-0.2890625,-0.3671875,-0.09765625,0.646484375,-0.09375,1.19921875,-9.515625,1.59375,1.0
4786304,,,,,,,,0.015625,-0.453125,-0.39453125,-0.166015625,0.55859375,-0.11328125,1.390625,-9.671875,1.55859375,1.0
4786305,,,,,,,,0.28125,-0.40625,-0.1796875,-0.265625,0.46484375,-0.150390625,1.65625,-9.63671875,1.75,1.0
4786306,,,,,,,,0.359375,-0.25390625,-0.09765625,-0.298828125,0.447265625,-0.150390625,1.734375,-9.4765625,1.82421875,1.0
4786307,,,,,,,,0.46484375,-0.13671875,-0.03515625,-0.353515625,0.447265625,-0.169921875,1.84765625,-9.36328125,1.86328125,1.0
4786308,,,,,,,,0.734375,-0.4453125,-0.08984375,-0.404296875,0.455078125,-0.169921875,2.1171875,-9.671875,1.78515625,1.0
4786309,,,,,,,,0.91796875,-1.5390625,-0.2421875,-0.513671875,0.466796875,-0.1484375,2.30859375,-10.78125,1.59375,1.0
4786310,36.01338883333334,129.31952633333333,83.50750934312745,109.72059178170105,1.1,250.0,,0.99609375,-3.37890625,-0.4609375,0.033203125,0.75,-0.08203125,2.38671875,-12.6171875,1.328125,1.0
4786311,,,,,,,,0.94921875,-3.828125,-0.16015625,-0.830078125,0.31640625,-0.09375,2.34765625,-13.078125,1.55859375,1.0
4786312,,,,,,,,0.79296875,-3.66015625,0.52734375,-0.818359375,0.357421875,-0.11328125,2.19140625,-12.92578125,2.16796875,1.0
4786313,,,,,,,,0.671875,-3.8046875,0.98046875,-0.78125,0.453125,-0.123046875,2.078125,-13.08203125,2.58984375,1.0
4786314,,,,,,,,-0.5625,-5.33203125,1.58203125,-0.7421875,0.640625,-0.115234375,0.8515625,-14.61328125,3.12890625,1.0
4786315,,,,,,,,-1.25,-4.7109375,2.640625,-0.732421875,0.552734375,-0.064453125,0.1640625,-14.00390625,4.125,1.0
4786316,,,,,,,,-1.09765625,-1.35546875,2.12109375,-0.126953125,0.48828125,-0.08984375,0.31640625,-10.66796875,3.55078125,1.0
4786317,,,,,,,,-0.8984375,0.015625,0.9921875,0.181640625,0.552734375,-0.0546875,0.5078125,-9.2890625,2.4375,1.0
4786318,,,,,,,,-0.9765625,-0.09765625,0.9453125,0.15625,0.611328125,-0.021484375,0.4296875,-9.40234375,2.3984375,1.0
4786319,,,,,,,,-0.27734375,-1.8203125,1.46875,-0.0703125,0.71484375,0.05078125,1.12109375,-11.12890625,2.9375,1.0
4786320,36.013388666666664,129.31952516666666,83.40233633333541,109.70209757389952,1.1,251.0,,0.359375,-2.46484375,1.62890625,0.033203125,0.75,-0.08203125,1.734375,-11.77734375,3.08984375,1.0
4786321,,,,,,,,0.87890625,-2.5703125,1.51171875,-0.0390625,0.69921875,-0.0078125,2.23046875,-11.890625,2.97265625,1.0
4786322,,,,,,,,0.87890625,-2.41796875,1.4375,0.025390625,0.71875,-0.01953125,2.23046875,-11.73828125,2.8984375,1.0
4786323,,,,,,,,0.4296875,-1.5390625,1.26171875,0.169921875,0.8125,-0.0625,1.7734375,-10.859375,2.74609375,1.0
4786324,,,,,,,,-0.21484375,-0.85546875,1.45703125,0.271484375,0.986328125,-0.12890625,1.12109375,-10.16796875,2.97265625,1.0
4786325,,,,,,,,-1.21875,-0.39453125,1.82421875,0.302734375,1.107421875,-0.1953125,0.125,-9.703125,3.39453125,1.0
4786326,,,,,,,,-1.48828125,-0.25,1.80859375,0.314453125,1.107421875,-0.220703125,-0.14453125,-9.5546875,3.39453125,1.0
4786327,,,,,,,,-1.75390625,-0.14453125,1.53125,0.30078125,0.982421875,-0.24609375,-0.41015625,-9.44140625,3.1640625,1.0
4786328,,,,,,,,-1.76953125,0.15625,0.61328125,0.24609375,0.765625,-0.265625,-0.41015625,-9.13671875,2.32421875,1.0
4786329,,,,,,,,-1.7421875,0.33984375,0.55859375,0.220703125,0.76171875,-0.26171875,-0.375,-8.9375,2.28515625,1.0
4786330,36.0133885,129.319524,83.29716332249691,109.68360336874808,1.2000000000000002,254.0,,-1.56640625,0.953125,0.28125,0.033203125,0.75,-0.08203125,-0.18359375,-8.33203125,2.0546875,1.0
4786331,,,,,,,,-1.34375,1.6328125,-0.0546875,0.20703125,0.7890625,-0.232421875,0.046875,-7.640625,1.75,1.0
4786332,,,,,,,,-1.08203125,2.16015625,-0.39453125,0.185546875,0.77734375,-0.2421875,0.31640625,-7.1015625,1.44140625,1.0
4786333,,,,,,,,-1.00390625,2.23828125,-0.484375,0.173828125,0.755859375,-0.255859375,0.39453125,-7.02734375,1.3671875,1.0
4786334,,,,,,,,-0.8671875,2.46875,-0.69921875,0.140625,0.71484375,-0.279296875,0.546875,-6.796875,1.17578125,1.0
4786335,,,,,,,,-0.73046875,2.56640625,-0.84765625,0.095703125,0.666015625,-0.3046875,0.69921875,-6.6796875,1.05859375,1.0
4786336,,,,,,,,-0.77734375,2.328125,-0.91015625,0.068359375,0.6484375,-0.32421875,0.66015625,-6.9140625,1.01953125,1.0
4786337,,,,,,,,-1.18359375,1.87109375,-0.91796875,0.05859375,0.640625,-0.3203125,0.27734375,-7.37109375,1.01953125,1.0
4786338,,,,,,,,-1.390625,1.82421875,-0.85546875,0.044921875,0.64453125,-0.298828125,0.0859375,-7.40625,1.09765625,1.0
4786339,,,,,,,,-1.66796875,1.6328125,-0.80078125,0.05859375,0.64453125,-0.275390625,-0.18359375,-7.6015625,1.17578125,1.0
4786340,36.0133885,129.31952316666667,83.22203961970317,109.68360265650851,1.1,256.0,,-1.60546875,1.35546875,-0.81640625,0.099609375,0.6328125,-0.236328125,-0.10546875,-7.8671875,1.17578125,1.0
4786341,,,,,,,,-1.453125,1.15625,-0.87109375,0.111328125,0.59765625,-0.20703125,0.046875,-8.06640625,1.13671875,1.0
4786342,,,,,,,,-1.34375,1.08203125,-0.8203125,0.09375,0.56640625,-0.18359375,0.1640625,-8.1328125,1.2109375,1.0
4786343,,,,,,,,-1.23046875,0.91796875,-0.6796875,0.08984375,0.552734375,-0.1640625,0.27734375,-8.2890625,1.3671875,1.0
4786344,,,,,,,,-1.390625,0.98828125,-0.58203125,0.111328125,0.5390625,-0.154296875,0.125,-8.21484375,1.48046875,1.0
4786345,,,,,,,,-1.69140625,1.25,-0.84375,0.173828125,0.52734375,-0.142578125,-0.18359375,-7.9453125,1.25,1.0
4786346,,,,,,,,-1.8828125,1.2109375,-1.08984375,0.1953125,0.498046875,-0.140625,-0.375,-7.98828125,1.01953125,1.0
4786347,,,,,,,,-1.91796875,1.00390625,-1.2734375,0.17578125,0.44140625,-0.138671875,-0.41015625,-8.17578125,0.8671875,1.0
4786348,,,,,,,,-1.8828125,0.62109375,-1.2109375,0.107421875,0.384765625,-0.12109375,-0.375,-8.5546875,0.9453125,1.0
4786349,,,,,,,,-1.7265625,0.3828125,-1.19921875,0.033203125,0.322265625,-0.107421875,-0.21875,-8.79296875,0.98046875,1.0
4786350,36.013388666666664,129.31952199999998,83.11686625621957,109.70209486825408,1.0,261.0,,-1.3828125,0.3046875,-1.08984375,0.009765625,0.28125,-0.103515625,0.125,-8.87109375,1.09765625,1.0
4786351,,,,,,,,-1.12109375,0.296875,-1.01171875,-0.0078125,0.255859375,-0.125,0.39453125,-8.8671875,1.17578125,1.0
4786352,,,,,,,,-1.078125,0.2578125,-0.9765625,-0.0234375,0.24609375,-0.12890625,0.4296875,-8.91015625,1.2109375,1.0
4786353,,,,,,,,-1.12109375,0.14453125,-0.8203125,-0.0390625,0.23828125,-0.1484375,0.39453125,-9.01953125,1.3671875,1.0
4786354,,,,,,,,-1.0859375,0.06640625,-0.8203125,-0.056640625,0.228515625,-0.154296875,0.4296875,-9.09765625,1.3671875,1.0
4786355,,,,,,,,-1.25390625,-0.015625,-0.77734375,-0.0625,0.22265625,-0.18359375,0.27734375,-9.17578125,1.40234375,1.0
4786356,,,,,,,,-1.4609375,-0.3984375,-0.73828125,-0.09375,0.21484375,-0.193359375,0.0859375,-9.5546875,1.44140625,1.0
4786357,,,,,,,,-1.421875,-0.515625,-0.68359375,-0.119140625,0.205078125,-0.201171875,0.125,-9.671875,1.48046875,1.0
4786358,,,,,,,,-1.09375,-0.9375,-0.828125,-0.1796875,0.181640625,-0.19140625,0.46875,-10.09375,1.328125,1.0
4786359,,,,,,,,-0.91015625,-0.97265625,-0.8125,-0.265625,0.16015625,-0.17578125,0.66015625,-10.12890625,1.328125,1.0
4786360,36.01338883333334,129.31952099999998,83.02671763590428,109.72058722461117,1.0,267.0,,-0.1875,-0.9375,-0.90625,-0.353515625,0.16796875,-0.15625,1.390625,-10.09765625,1.2109375,1.0
4786361,,,,,,,,0.4140625,-0.7734375,-1.03515625,-0.46484375,0.2734375,-0.138671875,2.0,-9.94140625,1.01953125,1.0
4786362,,,,,,,,0.71484375,-0.52734375,-1.0703125,-0.521484375,0.380859375,-0.119140625,2.30859375,-9.70703125,0.9453125,1.0
4786363,,,,,,,,0.71484375,-0.4140625,-1.0859375,-0.544921875,0.431640625,-0.123046875,2.30859375,-9.59765625,0.90625,1.0
4786364,,,,,,,,0.453125,-0.17578125,-0.93359375,-0.587890625,0.50390625,-0.111328125,2.0390625,-9.359375,1.01953125,1.0
4786365,,,,,,,,-0.234375,-0.12890625,-0.953125,-0.5859375,0.546875,-0.11328125,1.3515625,-9.32421875,0.9453125,1.0
4786366,,,,,,,,-0.58203125,-0.421875,-0.67578125,-0.615234375,0.54296875,-0.12109375,1.00390625,-9.6328125,1.17578125,1.0
4786367,,,,,,,,-0.83984375,-1.21875,-0.546875,-0.6796875,0.494140625,-0.123046875,0.73828125,-10.4375,1.25,1.0
4786368,,,,,,,,-0.95703125,-1.90625,-0.3984375,-0.74609375,0.431640625,-0.11328125,0.62109375,-11.12890625,1.3671875,1.0
4786369,,,,,,,,-0.53515625,-1.85546875,0.390625,-0.8515625,0.29296875,-0.083984375,1.04296875,-11.08984375,2.09375,1.0
4786370,36.01338916666667,129.31951966666665,82.90651936115717,109.75757250587822,1.1,274.0,,0.125,-1.73046875,0.73828125,-0.353515625,0.16796875,-0.15625,1.6953125,-10.97265625,2.36328125,1.0
4786371,,,,,,,,0.61328125,-2.3671875,0.8359375,-0.73828125,0.26953125,-0.01953125,2.19140625,-11.625,2.3984375,1.0
4786372,,,,,,,,1.3515625,-4.12109375,0.953125,-0.818359375,0.3359375,0.0546875,2.921875,-13.3828125,2.4375,1.0
4786373,,,,,,,,2.6015625,-3.8671875,2.17578125,-0.92578125,0.455078125,0.06640625,4.1484375,-13.16015625,3.55078125,1.0
4786374,,,,,,,,2.80859375,-2.6640625,2.7421875,-0.607421875,0.564453125,0.013671875,4.33984375,-11.96875,4.046875,1.0
4786375,,,,,,,,1.4375,-2.38671875,3.00390625,-0.189453125,0.708984375,-0.046875,2.9609375,-11.69921875,4.27734375,1.0
4786376,,,,,,,,0.87109375,-2.38671875,3.04296875,-0.046875,0.75,-0.08203125,2.38671875,-11.69921875,4.31640625,1.0
4786377,,,,,,,,-0.51953125,-2.6171875,3.1328125,0.1640625,0.71875,-0.140625,1.00390625,-11.9296875,4.4296875,1.0
4786378,,,,,,,,-0.9765625,-2.2734375,2.703125,0.361328125,0.552734375,-0.12109375,0.546875,-11.5859375,4.046875,1.0
4786379,,,,,,,,-0.9765625,-1.62890625,2.1953125,0.435546875,0.53515625,-0.0546875,0.546875,-10.9296875,3.5859375,1.0
4786380,36.0133895,129.31951833333332,82.7863210869693,109.79455778895387,1.1,278.0,,-0.85546875,-0.71875,1.5,0.423828125,0.60546875,0.02734375,0.66015625,-10.01953125,2.9375,1.0
4786381,,,,,,,,-0.80078125,-0.296875,1.375,0.310546875,0.6640625,0.10546875,0.69921875,-9.59375,2.859375,1.0
4786382,,,,,,,,-0.75390625,-0.02734375,1.12109375,0.23828125,0.666015625,0.138671875,0.73828125,-9.3203125,2.62890625,1.0
4786383,,,,,,,,-0.578125,0.0078125,0.90625,0.0703125,0.61328125,0.197265625,0.890625,-9.29296875,2.4375,1.0
4786384,,,,,,,,-0.22265625,-0.328125,0.66796875,-0.076171875,0.5390625,0.228515625,1.19921875,-9.63671875,2.20703125,1.0
4786385,,,,,,,,-0.17578125,-0.28125,0.5703125,-0.1953125,0.482421875,0.23828125,1.19921875,-9.59765625,2.09375,1.0
4786386,,,,,,,,-0.32421875,-0.00390625,0.5390625,-0.193359375,0.4921875,0.23046875,1.04296875,-9.32421875,2.0546875,1.0
4786387,,,,,,,,-0.4453125,0.34765625,0.5,-0.1171875,0.513671875,0.205078125,0.890625,-8.9765625,2.015625,1.0
4786388,,,,,,,,-0.56640625,0.81640625,0.26953125,-0.02734375,0.537109375,0.173828125,0.73828125,-8.51953125,1.78515625,1.0
4786389,,,,,,,,-0.6953125,1.20703125,0.0703125,0.017578125,0.529296875,0.14453125,0.5859375,-8.1328125,1.59375,1.0
4786390,36.01338966666666,129.31951733333332,82.69617246881887,109.81305014703133,1.1,280.0,,-0.765625,1.89453125,-0.2890625,0.05078125,0.572265625,0.119140625,0.46875,-7.4453125,1.25,1.0
4786391,,,,,,,,-0.55078125,2.40234375,-0.45703125,0.0703125,0.599609375,0.12109375,0.66015625,-6.94921875,1.09765625,1.0
4786392,,,,,,,,-0.42578125,2.4375,-0.42578125,0.078125,0.609375,0.115234375,0.77734375,-6.91796875,1.13671875,1.0
4786393,,,,,,,,0.01953125,2.70703125,-0.59765625,0.083984375,0.619140625,0.1015625,1.19921875,-6.64453125,0.98046875,1.0
4786394,,,,,,,,0.2265625,2.5546875,-0.6484375,0.0703125,0.619140625,0.076171875,1.390625,-6.80078125,0.9453125,1.0
4786395,,,,,,,,0.39453125,2.36328125,-0.703125,0.056640625,0.62890625,0.068359375,1.54296875,-6.98828125,0.90625,1.0
4786396,,,,,,,,0.44921875,2.28515625,-0.671875,0.04296875,0.634765625,0.05859375,1.58203125,-7.06640625,0.9453125,1.0
4786397,,,,,,,,0.5078125,2.171875,-0.64453125,0.03125,0.640625,0.033203125,1.6171875,-7.18359375,0.98046875,1.0
4786398,,,,,,,,0.48046875,2.1015625,-0.54296875,0.041015625,0.658203125,0.00390625,1.58203125,-7.26171875,1.09765625,1.0
4786399,,,,,,,,0.44921875,2.0546875,-0.54296875,0.03515625,0.6640625,-0.017578125,1.54296875,-7.296875,1.09765625,1.0
4786400,36.013389999999994,129.31951616666666,82.59099893655386,109.85003557425651,1.1,283.0,0.0,0.41796875,1.94140625,-0.64453125,0.05078125,0.572265625,0.119140625,0.46875,-7.4453125,1.25,1.0
4786401,,,,,,,,0.35546875,1.703125,-0.7265625,0.048828125,0.65625,-0.076171875,1.42578125,-7.64453125,0.9453125,1.0
4786402,,,,,,,,0.28125,1.58984375,-0.734375,0.029296875,0.681640625,-0.091796875,1.3515625,-7.75,0.9453125,1.0
4786403,,,,,,,,0.2421875,1.3984375,-0.7890625,0.03515625,0.708984375,-0.1015625,1.3125,-7.9453125,0.90625,1.0
4786404,,,,,,,,0.203125,1.16796875,-0.7578125,0.044921875,0.716796875,-0.1015625,1.2734375,-8.17578125,0.9453125,1.0
4786405,,,,,,,,0.2578125,1.0078125,-0.8046875,0.05078125,0.72265625,-0.10546875,1.3125,-8.328125,0.90625,1.0
4786406,,,,,,,,0.2578125,0.96875,-0.8125,0.056640625,0.7265625,-0.111328125,1.3125,-8.3671875,0.90625,1.0
4786407,,,,,,,,0.21875,0.69140625,-0.8671875,0.068359375,0.7265625,-0.115234375,1.2734375,-8.63671875,0.8671875,1.0
4786408,,,,,,,,0.21875,0.5703125,-0.8125,0.06640625,0.736328125,-0.111328125,1.2734375,-8.75,0.9453125,1.0
4786409,,,,,,,,0.14453125,0.60546875,-0.70703125,0.044921875,0.73828125,-0.10546875,1.19921875,-8.71484375,1.05859375,1.0
4786410,36.01339016666667,129.3195151666667,82.50085032325475,109.86852793608239,1.0,283.0,,-0.03515625,0.59765625,-0.5703125,0.05078125,0.572265625,0.119140625,1.00390625,-8.7109375,1.2109375,1.0
4786411,,,,,,,,-0.26171875,0.5625,-0.5390625,0.052734375,0.751953125,-0.09375,0.77734375,-8.75,1.25,1.0
4786412,,,,,,,,-0.4453125,0.5625,-0.5859375,0.05859375,0.73046875,-0.08203125,0.5859375,-8.75,1.2109375,1.0
4786413,,,,,,,,-0.515625,0.5625,-0.6015625,0.03125,0.671875,-0.064453125,0.5078125,-8.75,1.2109375,1.0
4786414,,,,,,,,-0.546875,0.40625,-0.5703125,0.021484375,0.65625,-0.056640625,0.46875,-8.90625,1.25,1.0
4786415,,,,,,,,-0.578125,0.24609375,-0.5703125,-0.017578125,0.6171875,-0.03515625,0.4296875,-9.0546875,1.25,1.0
4786416,,,,,,,,-0.5390625,0.1328125,-0.5390625,-0.04296875,0.58984375,-0.01953125,0.46875,-9.17578125,1.2890625,1.0
4786417,,,,,,,,-0.40625,-0.328125,-0.453125,-0.115234375,0.53515625,0.001953125,0.5859375,-9.6328125,1.3671875,1.0
4786418,,,,,,,,-0.28515625,-0.6328125,-0.33203125,-0.1953125,0.478515625,0.015625,0.69921875,-9.9375,1.48046875,1.0
4786419,,,,,,,,-0.15625,-0.78125,-0.25390625,-0.263671875,0.3515625,0.001953125,0.8125,-10.09375,1.51953125,1.0
4786420,36.013390666666666,129.31951416666666,82.41070135744097,109.92400671290468,1.0,285.0,,0.05078125,-0.3125,-0.4140625,-0.27734375,0.29296875,-0.0234375,1.00390625,-9.6328125,1.328125,1.0
4786421,,,,,,,,0.3984375,0.0703125,-0.4296875,-0.326171875,0.3203125,-0.013671875,1.3515625,-9.25,1.2890625,1.0
4786422,,,,,,,,0.671875,-0.06640625,-0.3515625,-0.44921875,0.380859375,-0.00390625,1.6171875,-9.3984375,1.328125,1.0
4786423,,,,,,,,0.91015625,-1.16796875,-0.15234375,-0.638671875,0.46484375,0.0078125,1.84765625,-10.5078125,1.48046875,1.0
4786424,,,,,,,,1.02734375,-1.74609375,-0.12109375,-0.732421875,0.484375,0.001953125,1.96484375,-11.0859375,1.48046875,1.0
4786425,,,,,,,,1.1171875,-2.6953125,-0.1640625,-0.888671875,0.419921875,-0.009765625,2.0390625,-12.05078125,1.3671875,1.0
4786426,,,,,,,,1.1171875,-1.4921875,0.2265625,-0.869140625,0.33984375,-0.056640625,2.0390625,-10.86328125,1.671875,1.0
4786427,,,,,,,,0.66015625,-0.75390625,0.3046875,-0.791015625,0.3671875,-0.095703125,1.58203125,-10.12890625,1.7109375,1.0
4786428,,,,,,,,0.3125,-1.4375,0.58984375,-0.650390625,0.64453125,-0.14453125,1.00390625,-11.6953125,2.0546875,1.0
4786429,,,,,,,,0.07421875,-2.31640625,0.734375,-0.73828125,0.6484375,-0.123046875,0.46875,-13.58203125,2.0546875,1.0
4786430,36.01339133333333,129.31951316666667,82.32055222117151,109.99797870028212,1.1,288.0,,0.05078125,-0.3125,-0.4140625,-0.27734375,0.29296875,-0.0234375,0.31640625,-14.0390625,2.8984375,1.0
4786431,,,,,,,,-0.70703125,-3.98046875,1.98828125,-0.63671875,0.4296875,-0.1484375,0.1640625,-12.58203125,3.203125,1.0
4786432,,,,,,,,-0.8671875,-2.40234375,1.8515625,-0.08984375,0.66796875,-0.16796875,0.0078125,-10.6640625,2.3984375,1.0
4786433,,,,,,,,-1.10546875,-1.13671875,1.29296875,0.107421875,0.873046875,-0.14453125,-0.14453125,-10.86328125,2.36328125,1.0
4786434,,,,,,,,-0.73046875,-2.32421875,1.91796875,-0.04296875,0.9453125,-0.09375,0.66015625,-12.234375,3.3203125,1.0
4786435,,,,,,,,0.12109375,-3.20703125,2.37890625,-0.16015625,0.923828125,-0.072265625,1.50390625,-12.73828125,3.55078125,1.0
4786436,,,,,,,,0.54296875,-3.3125,2.45703125,-0.109375,0.94140625,-0.08984375,2.078125,-12.5390625,3.43359375,1.0
4786437,,,,,,,,1.15625,-2.77734375,2.30078125,0.125,1.080078125,-0.158203125,2.0,-11.734375,3.28125,1.0
4786438,,,,,,,,0.7734375,-1.859375,2.046875,0.3359375,1.208984375,-0.24609375,1.16015625,-10.4765625,2.97265625,1.0
4786439,,,,,,,,-0.15625,-0.79296875,1.703125,0.44921875,1.240234375,-0.349609375,0.546875,-10.01953125,2.78125,1.0
4786440,36.01339183333334,129.31951216666667,82.23040325935814,110.0534574819704,1.1,289.0,,0.05078125,-0.3125,-0.4140625,-0.27734375,0.29296875,-0.0234375,-0.02734375,-9.8203125,2.70703125,1.0
4786441,,,,,,,,-1.19140625,-0.38671875,1.35546875,0.318359375,1.0625,-0.419921875,-0.3359375,-9.8203125,2.58984375,1.0
4786442,,,,,,,,-1.359375,-0.43359375,1.30078125,0.234375,0.990234375,-0.40625,-0.48828125,-9.67578125,2.20703125,1.0
4786443,,,,,,,,-1.65625,-0.2421875,0.7890625,0.203125,0.9921875,-0.369140625,-0.6015625,-9.515625,1.94140625,1.0
4786444,,,,,,,,-1.65234375,0.44140625,0.08984375,0.1484375,1.0703125,-0.27734375,-0.10546875,-8.4453125,1.3671875,1.0
4786445,,,,,,,,-1.09375,1.12109375,-0.109375,0.125,1.072265625,-0.24609375,0.125,-8.06640625,1.328125,1.0
4786446,,,,,,,,-0.90625,1.46484375,-0.125,0.115234375,1.064453125,-0.23828125,0.203125,-7.91015625,1.328125,1.0
4786447,,,,,,,,-0.87109375,1.96484375,-0.30078125,0.11328125,1.046875,-0.2578125,0.23828125,-7.41015625,1.17578125,1.0
4786448,,,,,,,,-0.9609375,2.15625,-0.40234375,0.134765625,1.001953125,-0.26953125,0.1640625,-7.22265625,1.09765625,1.0
4786449,,,,,,,,-1.0390625,2.2265625,-0.45703125,0.13671875,0.98046875,-0.283203125,0.0859375,-7.14453125,1.05859375,1.0
4786450,36.01339216666667,129.31951083333334,82.11020499248487,110.09044277386464,1.2000000000000002,290.0,,-1.32421875,2.37109375,-0.57421875,0.169921875,0.931640625,-0.294921875,-0.18359375,-6.984375,0.98046875,1.0
4786451,,,,,,,,-1.60546875,2.37109375,-0.6796875,0.18359375,0.892578125,-0.30078125,-0.44921875,-6.984375,0.90625,1.0
4786452,,,,,,,,-1.8125,2.29296875,-0.703125,0.16796875,0.828125,-0.291015625,-0.640625,-7.06640625,0.90625,1.0
4786453,,,,,,,,-1.8515625,2.32421875,-0.71875,0.1640625,0.806640625,-0.28125,-0.6796875,-7.0234375,0.90625,1.0
4786454,,,,,,,,-1.97265625,2.0859375,-0.8515625,0.185546875,0.771484375,-0.263671875,-0.79296875,-7.2578125,0.7890625,1.0
4786455,,,,,,,,-2.05859375,2.00390625,-0.95703125,0.1875,0.736328125,-0.234375,-0.87109375,-7.328125,0.71484375,1.0
4786456,,,,,,,,-2.265625,1.609375,-0.95703125,0.15234375,0.67578125,-0.1796875,-1.0625,-7.72265625,0.75390625,1.0
4786457,,,,,,,,-2.2265625,1.3359375,-0.90625,0.13671875,0.6171875,-0.150390625,-1.0234375,-7.984375,0.828125,1.0
4786458,,,,,,,,-2.1796875,1.296875,-0.9140625,0.130859375,0.568359375,-0.140625,-0.984375,-8.02734375,0.828125,1.0
4786459,,,,,,,,-1.99609375,1.17578125,-0.73828125,0.12890625,0.4921875,-0.12890625,-0.79296875,-8.1328125,1.01953125,1.0
4786460,36.013392833333334,129.31951016666665,82.05010533946768,110.16441504447285,1.0,296.0,,-1.8046875,1.2109375,-0.68359375,0.169921875,0.931640625,-0.294921875,-0.18359375,-6.984375,0.98046875,1.0
4786461,,,,,,,,-1.61328125,1.17578125,-0.78515625,0.18359375,0.365234375,-0.107421875,-0.41015625,-8.1328125,1.01953125,1.0
4786462,,,,,,,,-1.4609375,1.01171875,-0.72265625,0.197265625,0.357421875,-0.103515625,-0.2578125,-8.29296875,1.09765625,1.0
4786463,,,,,,,,-1.453125,0.8515625,-0.66796875,0.201171875,0.35546875,-0.09375,-0.2578125,-8.44921875,1.17578125,1.0
4786464,,,,,,,,-1.4921875,0.58203125,-0.71484375,0.19921875,0.35546875,-0.09375,-0.296875,-8.7109375,1.13671875,1.0
4786465,,,,,,,,-1.5390625,0.1640625,-0.6640625,0.19921875,0.34765625,-0.09765625,-0.3359375,-9.1328125,1.2109375,1.0
4786466,,,,,,,,-1.53125,-0.04296875,-0.5703125,0.203125,0.3203125,-0.1015625,-0.3359375,-9.3203125,1.328125,1.0
4786467,,,,,,,,-1.5,-0.05078125,-0.51953125,0.208984375,0.29296875,-0.109375,-0.296875,-9.32421875,1.40234375,1.0
4786468,,,,,,,,-1.453125,-0.0234375,-0.42578125,0.2109375,0.263671875,-0.115234375,-0.2578125,-9.2890625,1.51953125,1.0
4786469,,,,,,,,-1.4609375,-0.0234375,-0.39453125,0.212890625,0.255859375,-0.126953125,-0.2578125,-9.2890625,1.55859375,1.0
4786470,36.013393666666666,129.31950933333334,81.97498077761264,110.25688038365175,1.0,303.0,,-1.62890625,-0.11328125,-0.44921875,0.16796875,0.20703125,-0.171875,-0.41015625,-9.36328125,1.55859375,1.0
4786471,,,,,,,,-1.40234375,-0.12109375,-0.45703125,0.119140625,0.166015625,-0.18359375,-0.18359375,-9.36328125,1.55859375,1.0
4786472,,,,,,,,-1.1484375,-0.2734375,-0.50390625,0.048828125,0.142578125,-0.1953125,0.0859375,-9.51953125,1.51953125,1.0
4786473,,,,,,,,-0.93359375,-0.3203125,-0.6640625,-0.083984375,0.142578125,-0.203125,0.31640625,-9.5546875,1.3671875,1.0
4786474,,,,,,,,-0.75,-0.3984375,-0.87890625,-0.189453125,0.162109375,-0.201171875,0.5078125,-9.63671875,1.13671875,1.0
4786475,,,,,,,,-0.53515625,-0.2734375,-1.1328125,-0.3046875,0.197265625,-0.2109375,0.73828125,-9.51953125,0.8671875,1.0
4786476,,,,,,,,-0.3515625,-0.16015625,-1.09375,-0.419921875,0.2421875,-0.21484375,0.9296875,-9.3984375,0.8671875,1.0
4786477,,,,,,,,0.015625,-0.19140625,-0.86328125,-0.52734375,0.28125,-0.212890625,1.3125,-9.4375,1.05859375,1.0
4786478,,,,,,,,0.19921875,-0.48828125,-0.578125,-0.64453125,0.341796875,-0.212890625,1.50390625,-9.74609375,1.2890625,1.0
4786479,,,,,,,,0.421875,-1.5546875,-0.36328125,-0.72265625,0.40625,-0.212890625,1.734375,-10.8203125,1.44140625,1.0
4786480,36.01339466666666,129.3195085,81.89985604602244,110.36783893228545,1.1,311.0,,0.64453125,-2.54296875,-0.0703125,0.16796875,0.20703125,-0.171875,1.96484375,-11.8125,1.671875,1.0
4786481,,,,,,,,1.05078125,-3.4140625,0.53515625,-0.880859375,0.4765625,-0.23046875,2.38671875,-12.69921875,2.20703125,1.0
4786482,,,,,,,,2.0078125,-4.2734375,1.6875,-0.91015625,0.470703125,-0.220703125,3.34375,-13.578125,3.28125,1.0
4786483,,,,,,,,2.57421875,-4.42578125,1.92578125,-0.884765625,0.4921875,-0.220703125,3.91796875,-13.73046875,3.47265625,1.0
4786484,,,,,,,,2.90234375,-3.56640625,1.84375,-0.7734375,0.63671875,-0.216796875,4.26171875,-12.88671875,3.3203125,1.0
4786485,,,,,,,,2.3515625,-1.0703125,1.7890625,-0.40234375,0.98828125,-0.25390625,3.7265625,-10.40234375,3.203125,1.0
4786486,,,,,,,,1.125,-0.03515625,2.21875,-0.1015625,1.23046875,-0.294921875,2.5,-9.36328125,3.625,1.0
4786487,,,,,,,,-1.45703125,-1.23046875,3.23828125,0.001953125,1.234375,-0.296875,-0.06640625,-10.546875,4.66015625,1.0
4786488,,,,,,,,-1.95703125,-1.61328125,3.375,0.01953125,1.12109375,-0.28515625,-0.56640625,-10.9296875,4.8125,1.0
4786489,,,,,,,,-2.35546875,-1.99609375,2.9375,0.10546875,0.85546875,-0.255859375,-0.94921875,-11.3125,4.390625,1.0
4786490,36.0133955,129.31950783333332,81.83975622264906,110.46030441293313,1.1,318.0,,-1.7890625,-1.8828125,2.109375,0.16796875,0.20703125,-0.171875,-0.375,-11.203125,3.5859375,1.0
4786491,,,,,,,,-0.37890625,-1.69921875,1.6640625,0.1015625,0.484375,-0.173828125,1.04296875,-11.0078125,3.1640625,1.0
4786492,,,,,,,,-0.1015625,-1.62109375,1.8125,0.01171875,0.46875,-0.140625,1.3125,-10.9296875,3.3203125,1.0
4786493,,,,,,,,0.08984375,-1.61328125,2.27734375,-0.19921875,0.533203125,-0.009765625,1.50390625,-10.93359375,3.77734375,1.0
4786494,,,,,,,,-0.4375,-1.61328125,1.98046875,-0.23828125,0.5859375,0.08203125,0.96875,-10.9296875,3.47265625,1.0
4786495,,,,,,,,-0.53125,-1.4453125,1.6875,-0.2421875,0.6015625,0.138671875,0.8515625,-10.78125,3.1640625,1.0
4786496,,,,,,,,-0.4765625,-1.4453125,1.57421875,-0.251953125,0.5703125,0.158203125,0.890625,-10.78515625,3.05078125,1.0
4786497,,,,,,,,-0.20703125,-1.515625,1.52734375,-0.2734375,0.455078125,0.212890625,1.12109375,-10.86328125,2.97265625,1.0
4786498,,,,,,,,-0.13671875,-1.078125,1.31640625,-0.21484375,0.431640625,0.203125,1.16015625,-10.4375,2.74609375,1.0
4786499,,,,,,,,-0.16796875,-0.84765625,1.24609375,-0.16796875,0.439453125,0.1953125,1.12109375,-10.20703125,2.66796875,1.0
4786500,36.0133965,129.31950700000002,81.76463149387904,110.57126296219553,1.2000000000000002,319.0,0.0,-0.7109375,0.43359375,0.51953125,0.16796875,0.20703125,-0.171875,-0.375,-11.203125,3.5859375,1.0
4786501,,,,,,,,-1.0859375,1.703125,0.01953125,0.04296875,0.501953125,0.224609375,0.0859375,-7.6796875,1.48046875,1.0
4786502,,,,,,,,-1.0,1.97265625,-0.05859375,0.037109375,0.509765625,0.232421875,0.1640625,-7.41015625,1.40234375,1.0
4786503,,,,,,,,-0.89453125,2.27734375,-0.1015625,0.03125,0.509765625,0.2421875,0.23828125,-7.1015625,1.3671875,1.0
4786504,,,,,,,,-0.73828125,2.75390625,-0.37890625,0.0390625,0.509765625,0.244140625,0.35546875,-6.64453125,1.09765625,1.0
4786505,,,,,,,,-0.5859375,2.984375,-0.39453125,0.025390625,0.498046875,0.228515625,0.46875,-6.41796875,1.09765625,1.0
4786506,,,,,,,,-0.5,3.05859375,-0.47265625,0.017578125,0.498046875,0.208984375,0.546875,-6.33984375,1.01953125,1.0
4786507,,,,,,,,-0.125,3.21484375,-0.36328125,-0.00390625,0.466796875,0.189453125,0.890625,-6.18359375,1.13671875,1.0
4786508,,,,,,,,0.2421875,3.25390625,-0.25,-0.015625,0.4453125,0.158203125,1.234375,-6.140625,1.25,1.0
4786509,,,,,,,,0.3671875,3.21484375,-0.32421875,-0.01171875,0.439453125,0.142578125,1.3515625,-6.18359375,1.17578125,1.0
4786510,36.013397166666664,129.31950633333332,81.70453184722274,110.64523523597424,1.0,321.0,,0.4296875,3.06640625,-0.21875,0.00390625,0.447265625,0.09375,1.390625,-6.33984375,1.2890625,1.0
4786511,,,,,,,,0.4453125,2.76171875,-0.42578125,0.029296875,0.46484375,0.046875,1.390625,-6.64453125,1.09765625,1.0
4786512,,,,,,,,0.53515625,2.53125,-0.34765625,0.064453125,0.486328125,0.00390625,1.46484375,-6.875,1.17578125,1.0
4786513,,,,,,,,0.50390625,2.4921875,-0.328125,0.078125,0.521484375,-0.0703125,1.390625,-6.91796875,1.2109375,1.0
4786514,,,,,,,,0.46875,2.37109375,-0.45703125,0.111328125,0.55859375,-0.11328125,1.3515625,-7.14453125,1.05859375,1.0
4786515,,,,,,,,0.4296875,1.98828125,-0.59765625,0.1171875,0.595703125,-0.142578125,1.3515625,-7.40625,0.98046875,1.0
4786516,,,,,,,,0.421875,1.703125,-0.71875,0.109375,0.609375,-0.16015625,1.3515625,-7.68359375,0.8671875,1.0
4786517,,,,,,,,0.421875,1.3984375,-0.85546875,0.080078125,0.615234375,-0.181640625,1.3515625,-7.984375,0.75390625,1.0
4786518,,,,,,,,0.3828125,0.890625,-0.85546875,0.044921875,0.634765625,-0.203125,1.3125,-8.48828125,0.75390625,1.0
4786519,,,,,,,,0.2890625,0.546875,-0.6796875,0.01953125,0.6796875,-0.21484375,1.234375,-8.828125,0.9453125,1.0
4786520,36.01339816666667,129.31950566666669,81.64443186057117,110.7561939271003,1.1,326.0,,0.16796875,0.43359375,-0.53515625,0.021484375,0.720703125,-0.224609375,1.390625,-6.33984375,1.2890625,1.0
4786521,,,,,,,,0.0078125,0.234375,-0.3125,0.021484375,0.751953125,-0.232421875,0.96875,-9.1328125,1.328125,1.0
4786522,,,,,,,,0.0078125,-0.03515625,-0.40625,0.017578125,0.744140625,-0.224609375,0.96875,-9.40234375,1.25,1.0
4786523,,,,,,,,0.0078125,-0.11328125,-0.48046875,0.017578125,0.734375,-0.216796875,0.96875,-9.4765625,1.17578125,1.0
4786524,,,,,,,,-0.1171875,-0.04296875,-0.48828125,0.001953125,0.658203125,-0.203125,0.8515625,-9.40234375,1.17578125,1.0
4786525,,,,,,,,-0.24609375,0.02734375,-0.65234375,0.005859375,0.630859375,-0.19140625,0.73828125,-9.3203125,1.01953125,1.0
4786526,,,,,,,,-0.4765625,0.1015625,-0.734375,0.01953125,0.62109375,-0.173828125,0.5078125,-9.25390625,0.9453125,1.0
4786527,,,,,,,,-0.59765625,-0.01171875,-0.66796875,0.005859375,0.609375,-0.15234375,0.39453125,-9.36328125,1.01953125,1.0
4786528,,,,,,,,-0.5703125,-0.09765625,-0.62890625,-0.01953125,0.595703125,-0.14453125,0.4296875,-9.44140625,1.05859375,1.0
4786529,,,,,,,,-0.484375,-0.328125,-0.4765625,-0.1015625,0.53125,-0.119140625,0.5078125,-9.67578125,1.2109375,1.0
4786530,36.013399,129.31950483333333,81.5693073058318,110.84865926821902,1.1,329.0,,-0.140625,-0.6328125,-0.0859375,0.021484375,0.720703125,-0.224609375,1.390625,-6.33984375,1.2890625,1.0
4786531,,,,,,,,0.12890625,-0.44140625,0.0546875,-0.267578125,0.384765625,-0.087890625,1.12109375,-9.78515625,1.7109375,1.0
4786532,,,,,,,,0.20703125,-0.2421875,-0.046875,-0.275390625,0.35546875,-0.083984375,1.19921875,-9.59765625,1.59375,1.0
4786533,,,,,,,,0.78125,0.25390625,-0.50390625,-0.330078125,0.3125,-0.060546875,1.7734375,-9.09375,1.09765625,1.0
4786534,,,,,,,,1.1640625,0.33984375,-0.51171875,-0.435546875,0.33984375,-0.048828125,2.15625,-9.015625,1.05859375,1.0
4786535,,,,,,,,1.59375,-0.76171875,-0.07421875,-0.681640625,0.447265625,-0.0234375,2.578125,-10.125,1.40234375,1.0
4786536,,,,,,,,1.5546875,-1.21484375,-0.1171875,-0.736328125,0.478515625,-0.009765625,2.5390625,-10.5859375,1.328125,1.0
4786537,,,,,,,,1.64453125,-2.85546875,-0.27734375,-0.830078125,0.48046875,0.013671875,2.61328125,-12.234375,1.09765625,1.0
4786538,,,,,,,,1.609375,-3.15234375,-0.23828125,-0.86328125,0.470703125,0.01953125,2.578125,-12.5390625,1.09765625,1.0
4786539,,,,,,,,1.39453125,-3.09765625,0.60546875,-0.875,0.705078125,-0.029296875,2.34765625,-12.50390625,1.82421875,1.0
4786540,36.01339983333333,129.31950433333336,81.52423223240967,110.94112489144527,1.0,331.0,,0.7421875,-3.0625,1.328125,-0.8515625,0.876953125,-0.05078125,1.6953125,-12.46875,2.515625,1.0
4786541,,,,,,,,0.17578125,-4.00390625,1.75,-0.8203125,1.140625,-0.02734375,1.12109375,-13.421875,2.859375,1.0
4786542,,,,,,,,-1.03515625,-5.6796875,2.00390625,-0.841796875,1.05859375,0.015625,-0.10546875,-15.11328125,3.05078125,1.0
4786543,,,,,,,,-1.74609375,-2.1015625,3.62109375,-0.4375,0.865234375,-0.017578125,-0.83203125,-11.55078125,4.58203125,1.0
4786544,,,,,,,,-1.546875,-0.875,2.671875,0.001953125,0.771484375,-0.015625,-0.640625,-10.3203125,3.625,1.0
4786545,,,,,,,,-0.92578125,-0.5703125,1.1328125,0.05859375,0.71484375,-0.001953125,-0.02734375,-10.01953125,2.09375,1.0
4786546,,,,,,,,-0.62109375,-0.72265625,1.31640625,-0.0234375,0.7109375,0.00390625,0.27734375,-10.16796875,2.28515625,1.0
4786547,,,,,,,,0.22265625,-1.21484375,1.8125,-0.1875,0.765625,-0.013671875,1.12109375,-10.6640625,2.78125,1.0
4786548,,,,,,,,1.265625,-2.01171875,2.25,-0.21875,0.861328125,-0.05859375,2.15625,-11.47265625,3.203125,1.0
4786549,,,,,,,,1.50390625,-2.203125,2.14453125,-0.130859375,0.8984375,-0.091796875,2.38671875,-11.66796875,3.08984375,1.0
4786550,36.01340066666667,129.3195035,81.44910768072036,111.03359023567316,1.1,330.0,,1.1953125,-1.8203125,1.6015625,0.001953125,0.939453125,-0.1171875,2.078125,-11.28515625,2.5546875,1.0
4786551,,,,,,,,0.53515625,-1.3203125,1.46875,0.095703125,1.044921875,-0.1640625,1.08203125,-10.51171875,2.4375,1.0
4786552,,,,,,,,-0.3046875,-0.8671875,1.5,0.123046875,1.123046875,-0.201171875,0.5859375,-10.3203125,2.4765625,1.0
4786553,,,,,,,,-1.34765625,-0.515625,1.9375,0.123046875,1.259765625,-0.23046875,-0.44921875,-9.98046875,2.9375,1.0
4786554,,,,,,,,-1.35546875,-0.515625,1.921875,0.119140625,1.271484375,-0.232421875,-0.640625,-9.94140625,2.97265625,1.0
4786555,,,,,,,,-1.6328125,-0.44921875,1.58203125,0.126953125,1.09375,-0.2109375,-0.71875,-9.90234375,2.62890625,1.0
4786556,,,,,,,,-1.44921875,-0.32421875,1.046875,0.142578125,0.93359375,-0.18359375,-0.52734375,-9.78515625,2.1328125,1.0
4786557,,,,,,,,-1.41796875,0.09765625,0.69140625,0.162109375,0.91796875,-0.17578125,-0.48828125,-9.36328125,1.78515625,1.0
4786558,,,,,,,,-1.265625,0.703125,0.4921875,0.171875,0.88671875,-0.13671875,-0.3359375,-8.75,1.6328125,1.0
4786559,,,,,,,,-1.234375,0.89453125,0.46875,0.171875,0.84375,-0.138671875,-0.296875,-8.5546875,1.6328125,1.0
4786560,36.0134015,129.31950266666666,81.37398313080139,111.12605558004195,1.2000000000000002,329.0,,-1.04296875,1.46875,0.33203125,0.173828125,0.791015625,-0.150390625,-0.10546875,-7.984375,1.51953125,1.0
4786561,,,,,,,,-1.00390625,1.8046875,0.30078125,0.1640625,0.736328125,-0.1796875,-0.06640625,-7.640625,1.51953125,1.0
4786562,,,,,,,,-0.9375,2.1875,0.17578125,0.17578125,0.70703125,-0.189453125,0.0078125,-7.2578125,1.40234375,1.0
4786563,,,,,,,,-0.90625,2.2265625,0.19140625,0.208984375,0.654296875,-0.2109375,-0.02734375,-7.02734375,1.328125,1.0
4786564,,,,,,,,-0.9609375,2.48828125,-0.0703125,0.208984375,0.60546875,-0.216796875,-0.02734375,-6.875,1.2109375,1.0
4786565,,,,,,,,-1.04296875,2.5234375,-0.17578125,0.220703125,0.572265625,-0.220703125,-0.21875,-6.875,1.01953125,1.0
4786566,,,,,,,,-1.203125,2.5546875,-0.30859375,0.212890625,0.5625,-0.216796875,-0.296875,-6.8359375,0.98046875,1.0
4786567,,,,,,,,-1.41015625,2.47265625,-0.4609375,0.19140625,0.541015625,-0.18359375,-0.52734375,-7.02734375,0.90625,1.0
4786568,,,,,,,,-1.57421875,2.203125,-0.4453125,0.173828125,0.54296875,-0.16015625,-0.6015625,-7.30078125,1.05859375,1.0
4786569,,,,,,,,-1.609375,2.1171875,-0.34765625,0.171875,0.529296875,-0.142578125,-0.52734375,-7.41015625,1.05859375,1.0
4786570,36.013402166666665,129.31950216666667,81.32890823183536,111.2000279956957,1.0,330.0,,-1.04296875,1.46875,0.33203125,0.173828125,0.791015625,-0.150390625,-0.375,-7.68359375,1.05859375,1.0
4786571,,,,,,,,-1.3046875,1.6875,-0.39453125,0.17578125,0.455078125,-0.09375,-0.2578125,-7.75,0.98046875,1.0
4786572,,,,,,,,-1.2734375,1.65234375,-0.48046875,0.171875,0.431640625,-0.087890625,-0.2578125,-7.75390625,1.01953125,1.0
4786573,,,,,,,,-1.2265625,1.57421875,-0.44140625,0.1640625,0.400390625,-0.068359375,-0.2578125,-7.83203125,1.05859375,1.0
4786574,,,,,,,,-1.3828125,1.48828125,-0.53515625,0.16796875,0.380859375,-0.05859375,-0.48828125,-7.91015625,1.01953125,1.0
4786575,,,,,,,,-1.53515625,1.48828125,-0.55859375,0.166015625,0.35546875,-0.05078125,-0.48828125,-7.94921875,0.98046875,1.0
4786576,,,,,,,,-1.48828125,1.4453125,-0.57421875,0.166015625,0.328125,-0.03125,-0.44921875,-7.9453125,0.98046875,1.0
4786577,,,,,,,,-1.3671875,1.2890625,-0.625,0.142578125,0.30078125,-0.025390625,-0.296875,-8.25390625,0.8671875,1.0
4786578,,,,,,,,-1.12890625,0.9765625,-0.6953125,0.09375,0.26171875,-0.021484375,-0.02734375,-8.4453125,0.9453125,1.0
4786579,,,,,,,,-1.01171875,0.9375,-0.65625,0.087890625,0.2421875,-0.021484375,0.125,-8.484375,1.01953125,1.0
4786580,36.01340316666666,129.31950166666667,81.28383298874662,111.31098682736274,1.0,337.0,,-0.8125,0.81640625,-0.56640625,0.068359375,0.2109375,-0.04296875,0.31640625,-8.59765625,1.05859375,1.0
4786581,,,,,,,,-0.66015625,0.77734375,-0.49609375,0.052734375,0.208984375,-0.060546875,0.31640625,-8.59765625,1.05859375,1.0
4786582,,,,,,,,-0.58203125,0.73046875,-0.54296875,0.041015625,0.216796875,-0.083984375,0.39453125,-8.63671875,1.09765625,1.0
4786583,,,,,,,,-0.58203125,0.73046875,-0.62109375,0.033203125,0.22265625,-0.095703125,0.39453125,-8.6328125,1.01953125,1.0
4786584,,,,,,,,-0.515625,0.69140625,-0.62890625,0.01953125,0.23828125,-0.11328125,0.46875,-8.67578125,1.01953125,1.0
4786585,,,,,,,,-0.515625,0.53125,-0.63671875,-0.05078125,0.255859375,-0.140625,0.46875,-8.828125,1.01953125,1.0
4786586,,,,,,,,-0.4453125,0.1875,-0.62890625,-0.123046875,0.2578125,-0.146484375,0.546875,-9.171875,1.01953125,1.0
4786587,,,,,,,,-0.37890625,-0.2421875,-0.61328125,-0.189453125,0.275390625,-0.140625,0.62109375,-9.59375,1.01953125,1.0
4786588,,,,,,,,-0.33984375,-0.35546875,-0.56640625,-0.240234375,0.28515625,-0.146484375,0.66015625,-9.70703125,1.05859375,1.0
4786589,,,,,,,,-0.34765625,-0.65625,-0.54296875,-0.318359375,0.3046875,-0.12890625,0.66015625,-10.01953125,1.05859375,1.0
4786590,36.01340416666667,129.3195015,81.26880722438483,111.421945938469,1.0,344.0,,-0.27734375,-0.84765625,-0.44140625,0.068359375,0.2109375,-0.04296875,0.73828125,-10.203125,1.13671875,1.0
4786591,,,,,,,,-0.73828125,-0.52734375,-0.34765625,-0.447265625,0.505859375,-0.123046875,0.27734375,-9.8984375,1.13671875,1.0
4786592,,,,,,,,-1.04296875,-0.2578125,-0.2109375,-0.451171875,0.5234375,-0.123046875,-0.02734375,-9.6328125,1.25,1.0
4786593,,,,,,,,-1.58203125,-0.171875,-0.140625,-0.4609375,0.513671875,-0.125,-0.56640625,-9.5546875,1.2890625,1.0
4786594,,,,,,,,-1.734375,-0.25,-0.046875,-0.466796875,0.498046875,-0.123046875,-0.71875,-9.6328125,1.3671875,1.0
4786595,,,,,,,,-1.97265625,-0.9296875,0.02734375,-0.51171875,0.41796875,-0.1171875,-0.94921875,-10.32421875,1.40234375,1.0
4786596,,,,,,,,-1.50390625,-2.15625,-0.109375,-0.580078125,0.29296875,-0.11328125,-0.48828125,-11.546875,1.2109375,1.0
4786597,,,,,,,,-1.234375,-2.5,0.03125,-0.634765625,0.2109375,-0.107421875,-0.21875,-11.890625,1.328125,1.0
4786598,,,,,,,,-0.67578125,-2.80078125,0.58984375,-0.728515625,0.064453125,-0.09375,0.35546875,-12.19921875,1.82421875,1.0
4786599,,,,,,,,-0.29296875,-2.90625,1.01171875,-0.759765625,-0.00390625,-0.091796875,0.73828125,-12.31640625,2.20703125,1.0
4786600,36.013405166666665,129.3195015,81.2688061977156,111.53290518637833,1.1,351.0,0.0,0.9609375,-3.859375,1.4609375,0.068359375,0.2109375,-0.04296875,0.73828125,-10.203125,1.13671875,1.0
4786601,,,,,,,,2.87109375,-3.7734375,1.99609375,-0.806640625,-0.0390625,-0.099609375,3.91796875,-13.1953125,3.01171875,1.0
4786602,,,,,,,,3.24609375,-1.390625,2.58984375,-0.462890625,0.228515625,-0.15234375,4.30078125,-10.8203125,3.51171875,1.0
4786603,,,,,,,,1.30859375,-1.61328125,2.53515625,-0.044921875,0.578125,-0.23046875,2.38671875,-11.05078125,3.43359375,1.0
4786604,,,,,,,,0.2265625,-2.6484375,2.7578125,0.025390625,0.529296875,-0.2421875,1.3125,-12.0859375,3.6640625,1.0
4786605,,,,,,,,-0.2578125,-4.0703125,2.86328125,0.111328125,0.380859375,-0.23046875,0.8515625,-13.50390625,3.77734375,1.0
4786606,,,,,,,,-0.12109375,-4.03515625,2.8046875,0.2109375,0.265625,-0.171875,1.00390625,-13.46484375,3.7421875,1.0
4786607,,,,,,,,0.21875,-3.16015625,2.46484375,0.330078125,0.296875,-0.1171875,1.3515625,-12.58203125,3.43359375,1.0
4786608,,,,,,,,0.140625,-1.50390625,1.96484375,0.439453125,0.451171875,-0.03125,1.2734375,-10.93359375,2.97265625,1.0
4786609,,,,,,,,-0.234375,-0.59375,1.69140625,0.470703125,0.634765625,0.044921875,0.890625,-10.015625,2.74609375,1.0
4786610,36.01340616666666,129.3195015,81.26880517167078,111.6438644360876,1.1,355.0,,-0.6796875,0.1328125,1.28125,0.068359375,0.2109375,-0.04296875,0.4296875,-9.2890625,2.3984375,1.0
4786611,,,,,,,,-0.65625,0.09765625,1.04296875,0.322265625,0.6015625,0.1484375,0.4296875,-9.32421875,2.20703125,1.0
4786612,,,,,,,,-0.5703125,-0.01953125,1.03515625,0.24609375,0.53515625,0.158203125,0.5078125,-9.4375,2.20703125,1.0
4786613,,,,,,,,-0.35546875,-0.05859375,1.16796875,0.10546875,0.443359375,0.15625,0.69921875,-9.48046875,2.36328125,1.0
4786614,,,,,,,,-0.37890625,0.01953125,1.1953125,0.080078125,0.42578125,0.15234375,0.66015625,-9.3984375,2.3984375,1.0
4786615,,,,,,,,-0.5078125,0.48828125,1.13671875,0.095703125,0.455078125,0.12890625,0.5078125,-8.9375,2.36328125,1.0
4786616,,,,,,,,-0.5234375,0.9765625,0.94921875,0.203125,0.54296875,0.083984375,0.46875,-8.44921875,2.20703125,1.0
4786617,,,,,,,,-0.5546875,1.29296875,0.8671875,0.23046875,0.57421875,0.07421875,0.4296875,-8.13671875,2.1328125,1.0
4786618,,,,,,,,-0.61328125,2.25,0.48828125,0.25390625,0.60546875,0.05078125,0.35546875,-7.1796875,1.78515625,1.0
4786619,,,,,,,,-0.4921875,2.6328125,0.16796875,0.25390625,0.62109375,0.05078125,0.46875,-6.796875,1.48046875,1.0
4786620,36.01340716666667,129.319501,81.2237299339583,111.75482326816865,1.0,352.0,,-0.359375,2.890625,-0.0703125,0.177734375,0.6484375,0.013671875,0.4296875,-9.2890625,2.3984375,1.0
4786621,,,,,,,,0.0390625,3.08203125,-0.1328125,0.123046875,0.666015625,-0.009765625,0.96875,-6.3359375,1.25,1.0
4786622,,,,,,,,0.19921875,3.08203125,-0.1875,0.06640625,0.66015625,-0.0390625,1.12109375,-6.3359375,1.2109375,1.0
4786623,,,,,,,,0.3984375,3.08203125,-0.1953125,0.046875,0.6796875,-0.056640625,1.3125,-6.3359375,1.2109375,1.0
4786624,,,,,,,,0.59765625,2.5859375,-0.41796875,0.0703125,0.7734375,-0.08984375,1.50390625,-6.8359375,1.01953125,1.0
4786625,,,,,,,,0.60546875,2.34765625,-0.515625,0.072265625,0.826171875,-0.119140625,1.50390625,-7.06640625,0.9453125,1.0
4786626,,,,,,,,0.4921875,2.1171875,-0.5703125,0.060546875,0.859375,-0.146484375,1.390625,-7.296875,0.90625,1.0
4786627,,,,,,,,0.3359375,1.92578125,-0.5859375,0.044921875,0.896484375,-0.171875,1.234375,-7.484375,0.90625,1.0
4786628,,,,,,,,0.26171875,1.765625,-0.671875,0.044921875,0.91796875,-0.171875,1.16015625,-7.64453125,0.828125,1.0
4786629,,,,,,,,0.14453125,1.375,-0.6875,0.02734375,0.94140625,-0.18359375,1.04296875,-8.0234375,0.828125,1.0
4786630,36.013408,129.31950116666667,81.23875381534123,111.84728944861621,1.0,356.0,,0.0625,1.22265625,-0.6953125,-0.013671875,0.919921875,-0.17578125,0.96875,-8.17578125,0.828125,1.0
4786631,,,,,,,,-0.0859375,1.18359375,-0.625,-0.015625,0.904296875,-0.1640625,0.8125,-8.2109375,0.90625,1.0
4786632,,,,,,,,-0.19921875,1.0703125,-0.6328125,-0.015625,0.87890625,-0.158203125,0.69921875,-8.33203125,0.90625,1.0
4786633,,,,,,,,-0.27734375,0.8984375,-0.6796875,-0.00390625,0.833984375,-0.15234375,0.62109375,-8.484375,0.8671875,1.0
4786634,,,,,,,,-0.359375,0.71484375,-0.80078125,-0.015625,0.771484375,-0.150390625,0.546875,-8.67578125,0.75390625,1.0
4786635,,,,,,,,-0.4765625,0.6328125,-0.84765625,-0.0234375,0.70703125,-0.126953125,0.4296875,-8.75,0.71484375,1.0
4786636,,,,,,,,-0.54296875,0.59375,-0.84765625,-0.025390625,0.681640625,-0.119140625,0.35546875,-8.7890625,0.71484375,1.0
4786637,,,,,,,,-0.62109375,0.5546875,-0.89453125,-0.02734375,0.64453125,-0.10546875,0.27734375,-8.828125,0.67578125,1.0
4786638,,,,,,,,-0.66015625,0.31640625,-0.78125,-0.029296875,0.607421875,-0.080078125,0.23828125,-9.05859375,0.7890625,1.0
4786639,,,,,,,,-0.58203125,0.01171875,-0.671875,-0.03515625,0.57421875,-0.0546875,0.31640625,-9.359375,0.90625,1.0
4786640,36.013409,129.31950116666667,81.23875278956054,111.95824869803894,1.0,359.0,,-0.48828125,-0.1796875,-0.55859375,-0.013671875,0.919921875,-0.17578125,0.96875,-8.17578125,0.828125,1.0
4786641,,,,,,,,-0.328125,-0.33203125,-0.40234375,-0.03515625,0.50390625,-0.013671875,0.546875,-9.703125,1.17578125,1.0
4786642,,,,,,,,-0.25390625,-0.37109375,-0.40234375,-0.025390625,0.498046875,-0.0078125,0.62109375,-9.74609375,1.17578125,1.0
4786643,,,,,,,,-0.12890625,-0.44140625,-0.375,0.0,0.478515625,-0.005859375,0.73828125,-9.8203125,1.2109375,1.0
4786644,,,,,,,,0.18359375,-0.76171875,-0.265625,-0.0078125,0.44140625,-0.0078125,1.04296875,-10.12890625,1.328125,1.0
4786645,,,,,,,,0.27734375,-0.953125,-0.19140625,-0.046875,0.42578125,-0.017578125,1.12109375,-10.3203125,1.40234375,1.0
4786646,,,,,,,,0.390625,-1.1015625,-0.07421875,-0.06640625,0.41796875,-0.025390625,1.234375,-10.48046875,1.51953125,1.0
4786647,,,,,,,,0.5546875,-1.4453125,0.0859375,-0.09375,0.396484375,-0.046875,1.390625,-10.8203125,1.671875,1.0
4786648,,,,,,,,0.66796875,-1.3671875,0.20703125,-0.123046875,0.369140625,-0.0703125,1.50390625,-10.74609375,1.78515625,1.0
4786649,,,,,,,,0.70703125,-1.25390625,0.24609375,-0.130859375,0.376953125,-0.078125,1.54296875,-10.625,1.82421875,1.0
4786650,36.01341016666667,129.31950116666667,81.2387515925385,112.08770115460567,1.1,2.0,,0.7890625,-0.9453125,0.03125,-0.013671875,0.919921875,-0.17578125,0.96875,-8.17578125,0.828125,1.0
4786651,,,,,,,,0.9375,-3.3828125,0.1015625,-0.521484375,0.3984375,-0.115234375,1.7734375,-12.77734375,1.59375,1.0
4786652,,,,,,,,0.69921875,-3.23046875,0.625,-0.568359375,0.375,-0.123046875,1.54296875,-12.6171875,2.09375,1.0
4786653,,,,,,,,0.0,-1.4609375,1.20703125,-0.50390625,0.416015625,-0.15234375,0.8515625,-10.86328125,2.62890625,1.0
4786654,,,,,,,,-0.23046875,-1.078125,1.0703125,-0.39453125,0.5,-0.17578125,0.62109375,-10.4765625,2.4765625,1.0
4786655,,,,,,,,-0.50390625,-0.953125,0.79296875,-0.3125,0.623046875,-0.140625,0.27734375,-10.74609375,2.24609375,1.0
4786656,,,,,,,,-0.55078125,-1.71875,1.01171875,-0.4609375,0.5234375,-0.130859375,0.39453125,-11.5078125,2.3984375,1.0
4786657,,,,,,,,-0.47265625,-2.1015625,1.0625,-0.509765625,0.466796875,-0.12109375,0.66015625,-11.9296875,2.28515625,1.0
4786658,,,,,,,,-0.16796875,-2.40234375,1.140625,-0.5625,0.3828125,-0.1171875,0.62109375,-11.08984375,2.62890625,1.0
4786659,,,,,,,,-0.24609375,-1.67578125,1.36328125,-0.5,0.416015625,-0.134765625,0.5078125,-10.66796875,2.62890625,1.0
4786660,36.013411,129.31950116666667,81.23875073724778,112.18016719673295,1.1,4.0,,-0.60546875,-0.48046875,1.49609375,-0.18359375,0.69921875,-0.1484375,0.125,-9.63671875,2.78125,1.0
4786661,,,,,,,,-0.8359375,-0.0859375,1.578125,-0.09765625,0.83203125,-0.130859375,0.046875,-9.59375,2.8984375,1.0
4786662,,,,,,,,-0.84375,-0.171875,1.703125,-0.083984375,0.8671875,-0.119140625,0.0859375,-9.8203125,2.97265625,1.0
4786663,,,,,,,,-0.421875,-1.07421875,2.0,-0.099609375,0.861328125,-0.103515625,0.69921875,-10.86328125,3.2421875,1.0
4786664,,,,,,,,0.078125,-1.65234375,2.15625,-0.103515625,0.8671875,-0.1171875,1.3515625,-11.43359375,3.6640625,1.0
4786665,,,,,,,,0.61328125,-2.03515625,2.57421875,0.08203125,0.998046875,-0.169921875,1.50390625,-11.2421875,3.7421875,1.0
4786666,,,,,,,,0.62109375,-1.8125,2.53125,0.15234375,1.037109375,-0.1953125,1.19921875,-10.5859375,3.51171875,1.0
4786667,,,,,,,,0.078125,-0.81640625,2.1171875,0.27734375,1.09375,-0.259765625,0.4296875,-9.74609375,3.1640625,1.0
4786668,,,,,,,,-0.7734375,-0.125,1.890625,0.30859375,1.107421875,-0.298828125,-0.375,-9.3203125,3.12890625,1.0
4786669,,,,,,,,-1.28125,0.09765625,1.83203125,0.26171875,1.0625,-0.3046875,-0.56640625,-9.21484375,3.12890625,1.0
4786670,36.013412,129.31950116666667,81.23874971114114,112.29112644544547,1.1,3.0,,-0.60546875,-0.48046875,1.49609375,-0.18359375,0.69921875,-0.1484375,-0.83203125,-9.01953125,2.70703125,1.0
4786671,,,,,,,,-1.73828125,0.546875,1.015625,0.1953125,0.91796875,-0.25390625,-0.640625,-8.79296875,2.1328125,1.0
4786672,,,,,,,,-1.5859375,0.625,0.734375,0.16015625,0.896484375,-0.248046875,-0.56640625,-8.7109375,2.0546875,1.0
4786673,,,,,,,,-1.40234375,0.73828125,0.59375,0.1015625,0.896484375,-0.205078125,-0.375,-8.5546875,2.015625,1.0
4786674,,,,,,,,-1.328125,0.85546875,0.578125,0.083984375,0.8984375,-0.19140625,-0.14453125,-8.40625,1.9765625,1.0
4786675,,,,,,,,-0.98828125,1.15234375,0.5546875,0.09375,0.892578125,-0.1640625,0.0078125,-7.828125,1.82421875,1.0
4786676,,,,,,,,-0.98828125,1.99609375,0.0859375,0.119140625,0.857421875,-0.181640625,-0.18359375,-7.18359375,1.328125,1.0
4786677,,,,,,,,-1.14453125,2.2265625,-0.1875,0.123046875,0.830078125,-0.197265625,-0.296875,-7.10546875,1.2890625,1.0
4786678,,,,,,,,-1.45703125,2.33203125,-0.296875,0.111328125,0.791015625,-0.19921875,-0.52734375,-7.1015625,1.25,1.0
4786679,,,,,,,,-1.49609375,2.29296875,-0.3125,0.109375,0.765625,-0.203125,-0.640625,-7.10546875,1.2109375,1.0
4786680,36.013412833333334,129.31950116666667,81.23874885572002,112.38359248608333,1.0,3.0,,-0.60546875,-0.48046875,1.49609375,-0.18359375,0.69921875,-0.1484375,-0.83203125,-7.26171875,1.09765625,1.0
4786681,,,,,,,,-1.84765625,2.09375,-0.45703125,0.10546875,0.677734375,-0.1953125,-0.91015625,-7.3671875,1.13671875,1.0
4786682,,,,,,,,-1.93359375,1.97265625,-0.51953125,0.11328125,0.638671875,-0.185546875,-0.984375,-7.4453125,1.09765625,1.0
4786683,,,,,,,,-2.0078125,1.84765625,-0.61328125,0.11328125,0.58984375,-0.1640625,-0.984375,-7.6796875,1.01953125,1.0
4786684,,,,,,,,-2.015625,1.58203125,-0.63671875,0.111328125,0.5390625,-0.13671875,-1.0625,-7.83203125,1.05859375,1.0
4786685,,,,,,,,-2.015625,1.58203125,-0.57421875,0.103515625,0.48828125,-0.103515625,-0.984375,-7.828125,1.01953125,1.0
4786686,,,,,,,,-1.93359375,1.45703125,-0.66796875,0.1171875,0.451171875,-0.0703125,-0.87109375,-7.9453125,1.01953125,1.0
4786687,,,,,,,,-1.77734375,1.3046875,-0.72265625,0.109375,0.400390625,-0.048828125,-0.71875,-8.06640625,1.01953125,1.0
4786688,,,,,,,,-1.50390625,1.2578125,-0.70703125,0.1015625,0.337890625,-0.021484375,-0.52734375,-8.0234375,1.05859375,1.0
4786689,,,,,,,,-1.37890625,1.2890625,-0.68359375,0.115234375,0.328125,-0.017578125,-0.3359375,-8.0625,0.9453125,1.0
4786690,36.013413666666665,129.31950133333333,81.25377273691073,112.47605866630474,1.0,9.0,,-1.21875,1.25,-0.8046875,0.103515625,0.31640625,-0.017578125,-0.2578125,-8.2109375,0.8671875,1.0
4786691,,,,,,,,-1.2109375,1.05078125,-0.859375,0.06640625,0.3046875,-0.00390625,-0.21875,-8.51953125,0.90625,1.0
4786692,,,,,,,,-1.12109375,0.70703125,-0.9140625,0.033203125,0.298828125,-0.001953125,-0.18359375,-8.7109375,0.8671875,1.0
4786693,,,,,,,,-1.00390625,0.59375,-0.953125,0.015625,0.28125,0.005859375,0.046875,-8.79296875,0.7890625,1.0
4786694,,,,,,,,-0.8359375,0.515625,-1.0,0.001953125,0.27734375,-0.00390625,0.125,-8.91015625,0.75390625,1.0
4786695,,,,,,,,-0.7890625,0.35546875,-1.08203125,-0.005859375,0.283203125,-0.009765625,0.0078125,-9.09765625,0.75390625,1.0
4786696,,,,,,,,-0.90625,0.23828125,-1.04296875,-0.015625,0.28125,-0.017578125,-0.06640625,-9.1328125,0.75390625,1.0
4786697,,,,,,,,-1.08984375,0.125,-1.0078125,-0.013671875,0.2890625,-0.013671875,-0.296875,-9.25390625,0.8671875,1.0
4786698,,,,,,,,-1.30859375,-0.06640625,-0.77734375,0.00390625,0.287109375,-0.01953125,-0.48828125,-9.515625,1.09765625,1.0
4786699,,,,,,,,-1.33203125,-0.6796875,-0.59375,0.015625,0.259765625,-0.01171875,-0.44921875,-10.015625,1.2109375,1.0
4786700,36.013414499999996,129.3195015,81.26879661715108,112.56852484589932,1.0,18.0,0.0,-1.1796875,-0.80078125,-0.40234375,0.103515625,0.31640625,-0.017578125,-0.296875,-10.125,1.40234375,1.0
4786701,,,,,,,,-1.01953125,-0.765625,-0.37109375,0.052734375,0.234375,-0.009765625,-0.14453125,-10.09765625,1.44140625,1.0
4786702,,,,,,,,-0.859375,-0.6875,-0.37890625,0.060546875,0.23828125,-0.009765625,0.0078125,-10.015625,1.44140625,1.0
4786703,,,,,,,,-0.6953125,-0.609375,-0.4921875,0.001953125,0.21484375,-0.015625,0.1640625,-9.9375,1.328125,1.0
4786704,,,,,,,,-0.60546875,-0.609375,-0.64453125,-0.0546875,0.20703125,-0.03125,0.23828125,-9.9375,1.17578125,1.0
4786705,,,,,,,,-0.48828125,-0.6171875,-0.76171875,-0.12890625,0.2109375,-0.048828125,0.35546875,-9.94140625,1.05859375,1.0
4786706,,,,,,,,-0.53515625,-0.65625,-0.79296875,-0.169921875,0.216796875,-0.05859375,0.31640625,-9.98046875,1.01953125,1.0
4786707,,,,,,,,-0.640625,-0.7265625,-0.69140625,-0.263671875,0.220703125,-0.064453125,0.203125,-10.0546875,1.09765625,1.0
4786708,,,,,,,,-0.98828125,-0.6875,-0.36328125,-0.337890625,0.234375,-0.076171875,-0.14453125,-10.01953125,1.40234375,1.0
4786709,,,,,,,,-1.515625,-0.640625,-0.1015625,-0.3671875,0.240234375,-0.087890625,-0.6796875,-9.98046875,1.6328125,1.0
4786710,36.013415499999994,129.319502,81.31386979966878,112.67948451164014,1.1,25.0,,-1.90625,-1.0546875,0.08984375,-0.384765625,0.208984375,-0.103515625,-1.0625,-10.40234375,1.78515625,1.0
4786711,,,,,,,,-1.4921875,-1.66015625,-0.23828125,-0.482421875,0.03125,-0.107421875,-0.640625,-11.0078125,1.40234375,1.0
4786712,,,,,,,,-0.84375,-1.3515625,0.0546875,-0.533203125,-0.05078125,-0.099609375,0.0078125,-10.703125,1.671875,1.0
4786713,,,,,,,,-0.046875,-0.5703125,0.70703125,-0.5703125,-0.123046875,-0.064453125,0.8125,-9.9375,2.24609375,1.0
4786714,,,,,,,,0.03125,-1.51953125,1.10546875,-0.53125,-0.0859375,-0.03515625,0.890625,-10.89453125,2.58984375,1.0
4786715,,,,,,,,0.875,-3.4296875,1.31640625,-0.62109375,-0.0703125,-0.02734375,1.734375,-12.8125,2.74609375,1.0
4786716,,,,,,,,1.48828125,-3.7265625,1.61328125,-0.689453125,-0.115234375,-0.02734375,2.34765625,-13.1171875,3.01171875,1.0
4786717,,,,,,,,3.1328125,-3.4140625,2.83203125,-0.73046875,-0.228515625,-0.03515625,3.9921875,-12.8125,4.16015625,1.0
4786718,,,,,,,,3.2421875,-2.75390625,3.49609375,-0.3359375,-0.076171875,-0.060546875,4.109375,-12.16015625,4.73828125,1.0
4786719,,,,,,,,2.4375,-2.171875,3.76171875,-0.171875,0.044921875,-0.08203125,3.3046875,-11.5859375,5.00390625,1.0
4786720,36.01341633333333,129.3195025,81.35894314907056,112.77195097094243,1.1,31.0,,0.55078125,-1.828125,3.80078125,0.134765625,0.244140625,-0.111328125,1.42578125,-11.24609375,5.04296875,1.0
4786721,,,,,,,,-0.671875,-1.875,3.43359375,0.353515625,0.2578125,-0.126953125,0.203125,-11.28515625,4.69921875,1.0
4786722,,,,,,,,-0.91015625,-1.91015625,2.85546875,0.427734375,0.123046875,-0.115234375,-0.02734375,-11.3125,4.16015625,1.0
4786723,,,,,,,,-0.65234375,-1.4609375,2.08203125,0.40234375,0.0078125,-0.068359375,0.23828125,-10.859375,3.43359375,1.0
4786724,,,,,,,,-0.3828125,-1.15234375,1.78125,0.3359375,-0.005859375,0.00390625,0.5078125,-10.55078125,3.1640625,1.0
4786725,,,,,,,,-0.2890625,-0.42578125,1.46875,0.19140625,0.091796875,0.1171875,0.5859375,-9.82421875,2.8984375,1.0
4786726,,,,,,,,-0.28125,-0.234375,1.3828125,0.15234375,0.126953125,0.158203125,0.5859375,-9.6328125,2.8203125,1.0
4786727,,,,,,,,-0.10546875,-0.1171875,0.9921875,0.04296875,0.177734375,0.216796875,0.73828125,-9.51953125,2.4375,1.0
4786728,,,,,,,,0.03125,-0.30859375,0.91796875,-0.07421875,0.16796875,0.240234375,0.8515625,-9.70703125,2.36328125,1.0
4786729,,,,,,,,-0.01171875,-0.1875,0.9921875,-0.1640625,0.138671875,0.248046875,0.77734375,-9.59375,2.4375,1.0
