time,latitude,longitude,enu_x,enu_y,speed,course,ecg,accX,accY,accZ,gyrX,gyrY,gyrZ,eulR,eulP,eulY,validity
4226280,36.01350216666666,129.31965283333332,94.91115173787408,122.29608924303135,4.3,226.0,,7.6015625,-14.90234375,3.53515625,0.0,0.861328125,0.572265625,6.4140625,-25.54296875,8.50390625,1.0
4226281,,,,,,,,6.5859375,-17.73828125,5.3359375,-0.193359375,-1.41796875,0.28515625,4.5390625,-22.66796875,7.46875,1.0
4226282,,,,,,,,3.2578125,-9.25,1.3203125,-0.412109375,-0.427734375,-2.435546875,2.7734375,-17.76953125,5.015625,1.0
4226283,,,,,,,,2.62890625,-7.546875,-0.15625,-0.19140625,-0.58984375,-3.455078125,2.23828125,-16.078125,3.5234375,1.0
4226284,,,,,,,,-0.42578125,-4.84375,-2.80859375,-1.37890625,-0.125,-2.701171875,-0.51953125,-13.3984375,0.83984375,1.0
4226285,,,,,,,,-2.30859375,-3.27734375,-1.30859375,-3.146484375,-0.39453125,0.73828125,-2.16796875,-11.94140625,2.10546875,1.0
4226286,,,,,,,,-3.41015625,-2.6953125,-0.20703125,-3.361328125,-0.77734375,1.521484375,-3.35546875,-11.484375,2.91015625,1.0
4226287,,,,,,,,-4.08203125,-1.56640625,-0.48046875,-2.63671875,-1.14453125,0.3203125,-4.08203125,-10.4453125,2.37109375,1.0
4226288,,,,,,,,-4.6015625,-0.30859375,-0.5234375,-2.4609375,-1.3984375,-0.19140625,-4.578125,-9.22265625,2.21875,1.0
4226289,,,,,,,,-6.0,5.6328125,-0.9765625,-2.755859375,-1.859375,0.119140625,-5.8828125,-3.3984375,1.4140625,1.0
4226290,36.01349966666667,129.31964950000003,94.61066034194462,122.01868787548234,4.0,227.0,,-6.11328125,8.421875,-1.40625,-2.71875,-1.9765625,0.837890625,6.4140625,-25.54296875,8.50390625,1.0
4226291,,,,,,,,-5.34765625,11.6953125,-2.59765625,-2.3359375,-1.955078125,0.91796875,-5.265625,2.5390625,-0.69140625,1.0
4226292,,,,,,,,-4.88671875,12.23046875,-2.9609375,-2.41015625,-1.599609375,0.3828125,-4.84375,2.99609375,-1.3828125,1.0
4226293,,,,,,,,-4.41796875,11.265625,-3.0,-2.525390625,-1.271484375,0.146484375,-4.38671875,2.0,-1.6484375,1.0
4226294,,,,,,,,-4.42578125,10.41796875,-2.875,-2.4375,-1.00390625,0.0,-4.3828125,1.12109375,-1.765625,1.0
4226295,,,,,,,,-4.47265625,8.1875,-2.65625,-2.24609375,-0.826171875,0.015625,-4.421875,-1.140625,-1.765625,1.0
4226296,,,,,,,,-4.328125,7.5,-2.5625,-2.083984375,-0.77734375,0.0546875,-4.27734375,-1.828125,-1.765625,1.0
4226297,,,,,,,,-2.52734375,6.25,-1.953125,-1.634765625,-0.755859375,0.130859375,-2.47265625,-3.09375,-1.34375,1.0
4226298,,,,,,,,-0.08984375,7.29296875,-0.70703125,-1.08984375,-0.728515625,0.267578125,-0.05859375,-2.0546875,-0.23046875,1.0
4226299,,,,,,,,0.68359375,7.90625,-0.36328125,-0.806640625,-0.685546875,0.34375,0.70703125,-1.4453125,0.07421875,1.0
4226300,36.0134975,129.319646,94.29514380550641,121.77827277210133,3.9000000000000004,229.0,0.0,1.640625,9.015625,0.3828125,-2.71875,-1.9765625,0.837890625,6.4140625,-25.54296875,8.50390625,1.0
4226301,,,,,,,,1.14453125,10.85546875,0.3828125,0.185546875,-0.630859375,0.55859375,1.08984375,1.50390625,0.765625,1.0
4226302,,,,,,,,0.2890625,11.7265625,-0.25390625,0.55859375,-0.6640625,0.611328125,0.171875,2.38671875,0.15234375,1.0
4226303,,,,,,,,-0.2265625,12.140625,-0.5546875,0.74609375,-0.677734375,0.599609375,-0.3671875,2.80859375,-0.1171875,1.0
4226304,,,,,,,,-1.390625,12.47265625,-1.63671875,0.953125,-0.791015625,0.337890625,-1.59375,3.1484375,-1.07421875,1.0
4226305,,,,,,,,-2.0546875,8.6484375,-1.640625,-0.091796875,-0.71484375,-0.3984375,-2.24609375,-0.640625,-0.9609375,1.0
4226306,,,,,,,,-2.1875,6.34765625,-0.7734375,-0.283203125,-0.572265625,-0.654296875,-2.3203125,-2.9375,-0.1171875,1.0
4226307,,,,,,,,-2.44140625,4.50390625,0.3984375,-0.18359375,-0.44921875,-0.767578125,-2.51171875,-4.77734375,1.03125,1.0
4226308,,,,,,,,-3.0546875,3.30859375,1.78515625,-0.07421875,-0.388671875,-0.76953125,-3.0859375,-5.9609375,2.41015625,1.0
4226309,,,,,,,,-6.19140625,-9.3125,8.03125,0.283203125,-0.2890625,-0.68359375,-3.9296875,-24.0859375,9.3828125,1.0
4226310,36.013495166666665,129.319642,93.93455328828294,121.51936399031567,4.2,230.0,,1.640625,9.015625,0.3828125,0.466796875,-0.24609375,-0.62109375,18.90234375,-53.85546875,23.6328125,1.0
4226311,,,,,,,,22.80859375,-53.52734375,26.8828125,0.591796875,-0.177734375,-0.5625,18.94140625,-60.59765625,25.08984375,1.0
4226312,,,,,,,,18.75390625,-51.3515625,24.37109375,0.611328125,-0.109375,-0.556640625,12.54296875,-42.8125,20.1875,1.0
4226313,,,,,,,,5.484375,-7.99609375,8.03515625,0.53125,0.041015625,-0.556640625,3.578125,-14.24609375,6.1640625,1.0
4226314,,,,,,,,-0.625,-7.91015625,2.1953125,1.02734375,0.212890625,-0.376953125,-0.328125,-17.1484375,3.0234375,1.0
4226315,,,,,,,,-7.46875,-12.36328125,8.109375,1.83984375,0.359375,1.0859375,-7.1484375,-21.59765625,9.0390625,1.0
4226316,,,,,,,,-6.6328125,-14.1328125,8.13671875,1.072265625,0.814453125,1.888671875,-6.34375,-23.36328125,9.15234375,1.0
4226317,,,,,,,,-0.68359375,-11.7578125,5.69921875,-0.87890625,0.8359375,1.025390625,-0.55859375,-20.98828125,6.81640625,1.0
4226318,,,,,,,,0.9375,-7.0,3.32421875,0.72265625,0.52734375,-2.486328125,0.9765625,-16.23828125,4.40234375,1.0
4226319,,,,,,,,1.27734375,-4.31640625,0.78125,0.716796875,0.30859375,-4.109375,1.39453125,-13.55078125,1.875,1.0
4226320,36.01349283333333,129.3196386666667,93.63406163984587,121.2604558634447,4.1000000000000005,229.0,,1.66796875,-5.21484375,-0.2109375,0.466796875,-0.24609375,-0.62109375,18.90234375,-53.85546875,23.6328125,1.0
4226321,,,,,,,,2.453125,-5.8125,1.83984375,2.37109375,0.822265625,0.275390625,3.1953125,-15.0078125,3.21484375,1.0
4226322,,,,,,,,2.703125,-1.1015625,2.42578125,3.01953125,1.29296875,0.939453125,3.3515625,-10.2578125,4.09765625,1.0
4226323,,,,,,,,2.93359375,0.4375,1.68359375,2.431640625,1.3828125,0.224609375,3.50390625,-8.69140625,3.59765625,1.0
4226324,,,,,,,,3.578125,5.12109375,-0.51171875,1.94140625,1.470703125,0.064453125,4.1171875,-3.97265625,1.60546875,1.0
4226325,,,,,,,,2.69921875,9.40625,-4.31640625,1.9140625,1.775390625,1.240234375,3.04296875,0.390625,-1.80078125,1.0
4226326,,,,,,,,2.87890625,10.15625,-4.97265625,1.40234375,1.51171875,0.94140625,3.00390625,1.1953125,-2.22265625,1.0
4226327,,,,,,,,2.7890625,10.80859375,-5.375,1.49609375,1.2421875,0.494140625,2.81640625,1.88671875,-2.4921875,1.0
4226328,,,,,,,,2.8203125,10.8984375,-5.55078125,1.587890625,1.1171875,0.3515625,2.81640625,2.0,-2.60546875,1.0
4226329,,,,,,,,2.69140625,10.96875,-6.28125,1.62109375,0.865234375,0.330078125,2.62109375,2.1171875,-3.18359375,1.0
4226330,36.013490833333336,129.31963499999998,93.30352012930919,121.03853384572704,3.9000000000000004,233.0,,2.5625,9.7265625,-6.61328125,0.466796875,-0.24609375,-0.62109375,2.4296875,0.9296875,-3.3671875,1.0
4226331,,,,,,,,1.171875,7.2734375,-4.7734375,1.625,0.560546875,1.1171875,0.859375,-1.41015625,-1.2265625,1.0
4226332,,,,,,,,0.5,7.140625,-4.2109375,0.880859375,0.521484375,1.10546875,0.015625,-1.4453125,-0.5,1.0
4226333,,,,,,,,-0.34765625,7.9609375,-3.4921875,0.228515625,0.51171875,0.978515625,-0.9375,-0.6015625,0.265625,1.0
4226334,,,,,,,,-0.64453125,9.0625,-2.88671875,-0.091796875,0.4921875,0.896484375,-1.28125,0.5078125,0.87890625,1.0
4226335,,,,,,,,-1.1328125,10.328125,-1.69140625,-0.673828125,0.43359375,0.71875,-1.859375,1.7734375,2.02734375,1.0
4226336,,,,,,,,-0.796875,10.41796875,-1.97265625,-0.9140625,0.427734375,0.642578125,-1.5546875,1.84765625,1.72265625,1.0
4226337,,,,,,,,-0.11328125,10.86328125,-2.63671875,-1.234375,0.4453125,0.4609375,-0.94140625,2.265625,0.95703125,1.0
4226338,,,,,,,,0.25390625,11.1171875,-3.1484375,-1.30078125,0.46484375,0.33203125,-0.59765625,2.50390625,0.3828125,1.0
4226339,,,,,,,,1.2734375,11.1875,-4.02734375,-1.30859375,0.509765625,-0.03125,0.3984375,2.54296875,-0.61328125,1.0
4226340,36.0134885,129.31963183333335,93.01805316703803,120.77962589954981,4.0,230.0,,2.109375,10.34375,-3.91796875,-1.20703125,0.470703125,-0.46484375,1.2421875,1.66015625,-0.61328125,1.0
4226341,,,,,,,,2.9140625,8.61328125,-2.66796875,-1.001953125,0.41015625,-0.833984375,2.08984375,-0.10546875,0.53515625,1.0
4226342,,,,,,,,3.41015625,5.13671875,-1.09765625,-0.794921875,0.40625,-0.994140625,2.62109375,-3.5859375,2.06640625,1.0
4226343,,,,,,,,3.421875,-10.2109375,2.06640625,-0.208984375,0.376953125,-1.251953125,2.7734375,-18.953125,5.16796875,1.0
4226344,,,,,,,,3.18359375,-20.1640625,5.03125,-0.162109375,0.36328125,-1.205078125,2.58203125,-28.91796875,8.1171875,1.0
4226345,,,,,,,,-7.8203125,-45.09375,15.8125,-0.26171875,0.328125,-0.935546875,-8.3359375,-53.8515625,18.8828125,1.0
4226346,,,,,,,,-23.38671875,-38.48828125,18.10546875,-0.50390625,0.333984375,-0.58203125,-23.84765625,-47.26171875,21.14453125,1.0
4226347,,,,,,,,-13.60546875,-23.3125,11.81640625,-0.671875,0.330078125,-0.40234375,-14.04296875,-32.09765625,14.82421875,1.0
4226348,,,,,,,,5.2734375,-1.75,-1.33203125,-1.19140625,0.3046875,-0.1015625,4.84375,-10.5625,1.60546875,1.0
4226349,,,,,,,,10.828125,-4.68359375,-2.109375,-1.521484375,0.34375,0.0078125,10.3984375,-13.51171875,0.765625,1.0
4226350,36.01348599999999,129.31962783333333,92.65746276668827,120.50222396166753,4.4,228.0,,4.47265625,-10.21484375,1.6875,-0.1328125,-1.099609375,0.42578125,3.88671875,-19.140625,4.25,1.0
4226351,,,,,,,,3.09765625,-7.73828125,0.828125,0.11328125,-0.3046875,-3.845703125,1.89453125,-14.6953125,2.2578125,1.0
4226352,,,,,,,,2.22265625,-5.74609375,-0.2890625,-0.0546875,-0.384765625,-4.2265625,1.12890625,-13.28515625,1.1484375,1.0
4226353,,,,,,,,-1.79296875,-3.08203125,-2.33984375,-1.826171875,-0.0625,-1.392578125,-1.74609375,-12.05859375,0.19140625,1.0
4226354,,,,,,,,-2.21484375,-2.3828125,-1.18359375,-2.953125,-0.54296875,1.708984375,-2.05078125,-11.41015625,1.18359375,1.0
4226355,,,,,,,,-3.4375,-1.27734375,-0.72265625,-2.74609375,-0.96484375,1.228515625,-3.390625,-10.37109375,1.37890625,1.0
4226356,,,,,,,,-4.11328125,-1.09375,-1.07421875,-2.375,-1.171875,0.521484375,-4.12109375,-10.22265625,0.91796875,1.0
4226357,,,,,,,,-6.2578125,1.20703125,-1.859375,-2.130859375,-1.505859375,-0.248046875,-6.265625,-7.99609375,-0.1953125,1.0
4226358,,,,,,,,-7.171875,5.3046875,-1.9296875,-2.453125,-1.830078125,0.232421875,-7.15234375,-3.9375,-0.4609375,1.0
4226359,,,,,,,,-6.77734375,8.125,-1.109375,-2.62109375,-1.974609375,0.638671875,-6.76171875,-1.140625,0.2265625,1.0
4226360,36.013483666666666,129.31962466666667,92.3719957637188,120.24331603735095,3.9000000000000004,229.0,,-5.22265625,11.375,-0.18359375,-0.1328125,-1.099609375,0.42578125,-5.26953125,2.078125,0.91796875,1.0
4226361,,,,,,,,-3.97265625,11.765625,-0.078125,-2.359375,-1.576171875,0.490234375,-4.1171875,2.421875,0.609375,1.0
4226362,,,,,,,,-2.578125,10.96875,-0.54296875,-2.427734375,-1.38671875,0.47265625,-2.74609375,1.6171875,0.03515625,1.0
4226363,,,,,,,,-1.625,8.7265625,-1.27734375,-2.392578125,-0.861328125,0.66015625,-1.86328125,-0.640625,-1.03515625,1.0
4226364,,,,,,,,-1.39453125,8.08203125,-1.3671875,-2.109375,-0.671875,0.75,-1.703125,-1.29296875,-1.34375,1.0
4226365,,,,,,,,-1.1796875,7.0703125,-1.27734375,-1.607421875,-0.6015625,0.642578125,-1.5546875,-2.29296875,-1.41796875,1.0
4226366,,,,,,,,-0.80078125,6.9921875,-0.86328125,-1.30078125,-0.607421875,0.546875,-1.20703125,-2.37109375,-1.07421875,1.0
4226367,,,,,,,,-0.37109375,7.63671875,-0.05078125,-0.654296875,-0.52734375,0.40625,-0.82421875,-1.7109375,-0.34765625,1.0
4226368,,,,,,,,-0.1484375,8.08984375,0.171875,-0.09765625,-0.412109375,0.3515625,-0.6328125,-1.25,-0.15625,1.0
4226369,,,,,,,,-0.1015625,10.50390625,0.37890625,0.439453125,-0.353515625,0.330078125,-0.6328125,1.16015625,0.07421875,1.0
4226370,36.0134815,129.31962116666668,92.05647910634843,120.00290101584264,4.0,230.0,,-0.15625,11.03125,0.33203125,0.775390625,-0.2890625,0.37109375,-0.7109375,1.6953125,0.07421875,1.0
4226371,,,,,,,,-0.76171875,12.21875,0.015625,0.89453125,-0.267578125,0.39453125,-1.36328125,2.8828125,-0.15625,1.0
4226372,,,,,,,,-1.265625,12.59375,-0.13671875,0.705078125,-0.376953125,0.220703125,-1.8984375,3.26953125,-0.23046875,1.0
4226373,,,,,,,,-1.609375,11.4296875,0.2734375,0.30078125,-0.482421875,-0.2109375,-2.24609375,2.1171875,0.2265625,1.0
4226374,,,,,,,,-1.80078125,10.04296875,0.71875,-0.029296875,-0.49609375,-0.65234375,-2.39453125,0.73828125,0.6875,1.0
4226375,,,,,,,,-2.33203125,8.00390625,2.3828125,-0.3125,-0.44921875,-1.05078125,-2.85546875,-1.29296875,2.3359375,1.0
4226376,,,,,,,,-3.53515625,3.30078125,4.92578125,-0.4609375,-0.40625,-1.208984375,-4.00390625,-6.00390625,4.86328125,1.0
4226377,,,,,,,,-3.76953125,-5.55859375,7.30859375,-0.630859375,-0.32421875,-1.38671875,-4.12109375,-14.85546875,7.19921875,1.0
4226378,,,,,,,,10.39453125,-45.90234375,23.26171875,-0.572265625,-0.240234375,-1.31640625,10.16796875,-55.19140625,23.09765625,1.0
4226379,,,,,,,,12.8125,-41.3046875,19.5390625,-0.220703125,-0.181640625,-1.080078125,12.6953125,-50.59765625,19.34375,1.0
4226380,36.01347916666667,129.31961733333335,91.71091317626215,119.74399248391705,4.3,229.0,,-0.71875,-4.828125,8.5,0.775390625,-0.2890625,0.37109375,-0.75,-14.125,8.3125,1.0
4226381,,,,,,,,-3.0859375,-2.9609375,3.875,1.076171875,-0.0390625,-0.259765625,-3.046875,-12.25390625,3.7890625,1.0
4226382,,,,,,,,-4.58203125,-9.1953125,4.08203125,1.548828125,-0.05859375,0.048828125,-4.54296875,-18.49609375,4.05859375,1.0
4226383,,,,,,,,-2.78125,-16.28125,8.4296875,1.798828125,-0.154296875,1.017578125,-2.78125,-25.578125,8.578125,1.0
4226384,,,,,,,,-0.48046875,-16.90234375,6.95703125,0.966796875,0.37890625,1.1953125,-0.59765625,-26.1875,7.23828125,1.0
4226385,,,,,,,,1.99609375,-10.8828125,4.03515625,0.638671875,0.119140625,-0.953125,1.85546875,-20.18359375,4.40234375,1.0
4226386,,,,,,,,2.484375,-7.00390625,2.7421875,0.470703125,0.150390625,-2.779296875,2.4296875,-16.3046875,3.140625,1.0
4226387,,,,,,,,2.3125,-5.3671875,2.25390625,1.634765625,0.228515625,-2.912109375,2.7734375,-14.66796875,2.79296875,1.0
4226388,,,,,,,,2.0625,-4.25390625,2.0703125,3.19921875,1.205078125,0.99609375,2.5078125,-13.51171875,3.140625,1.0
4226389,,,,,,,,2.22265625,-2.81640625,1.30078125,2.8671875,1.3515625,0.54296875,2.62109375,-12.0546875,2.52734375,1.0
4226390,36.01347716666667,129.3196133333333,91.35032211267993,119.52207022564704,4.2,232.0,,2.828125,-0.76953125,-0.10546875,2.341796875,1.501953125,-0.095703125,3.1953125,-9.984375,1.37890625,1.0
4226391,,,,,,,,3.54296875,3.7890625,-1.58984375,2.408203125,1.65234375,0.11328125,3.88671875,-5.39453125,0.11328125,1.0
4226392,,,,,,,,3.71875,4.73046875,-1.875,2.50390625,1.736328125,0.380859375,4.0390625,-4.4296875,-0.0390625,1.0
4226393,,,,,,,,3.61328125,6.26171875,-2.37890625,2.4765625,1.830078125,0.84375,3.84375,-2.86328125,-0.30859375,1.0
4226394,,,,,,,,3.6328125,7.9765625,-2.94140625,2.271484375,1.791015625,0.9609375,3.73828125,-1.1015625,-0.65234375,1.0
4226395,,,,,,,,2.6171875,10.12109375,-4.328125,2.048828125,1.51171875,0.79296875,2.55078125,1.12109375,-1.7265625,1.0
4226396,,,,,,,,2.42578125,10.609375,-4.859375,2.07421875,1.28125,0.8359375,2.234375,1.65625,-2.0703125,1.0
4226397,,,,,,,,1.921875,10.1953125,-5.62109375,2.01171875,1.0625,0.94140625,1.625,1.3125,-2.640625,1.0
4226398,,,,,,,,1.88671875,9.16796875,-5.953125,1.990234375,0.869140625,1.0,1.47265625,0.35546875,-2.796875,1.0
4226399,,,,,,,,2.2109375,8.03125,-5.88671875,2.05078125,0.791015625,0.994140625,1.7421875,-0.7578125,-2.640625,1.0
4226400,36.01347483333333,129.31960966666665,91.01978086663232,119.26316187645574,3.9000000000000004,234.0,0.0,2.7578125,6.6875,-4.8984375,1.96484375,0.7265625,0.912109375,2.12890625,-1.984375,-1.3828125,1.0
4226401,,,,,,,,1.9296875,7.34765625,-3.24609375,1.509765625,0.771484375,0.81640625,1.203125,-1.25390625,0.41796875,1.0
4226402,,,,,,,,1.25,7.921875,-2.703125,1.197265625,0.75390625,0.763671875,0.4765625,-0.640625,1.03515625,1.0
4226403,,,,,,,,0.8828125,8.6015625,-2.53515625,0.576171875,0.71875,0.626953125,0.015625,0.0859375,1.26171875,1.0
4226404,,,,,,,,0.83984375,9.12109375,-2.671875,0.330078125,0.67578125,0.541015625,-0.05859375,0.62109375,1.1484375,1.0
4226405,,,,,,,,0.9921875,10.72265625,-2.94140625,-0.091796875,0.537109375,0.32421875,0.015625,2.23046875,0.87890625,1.0
4226406,,,,,,,,1.1640625,12.43359375,-4.03515625,-0.1796875,0.419921875,0.046875,0.1328125,3.953125,-0.23046875,1.0
4226407,,,,,,,,1.96875,11.3984375,-3.69921875,-0.302734375,0.427734375,-0.349609375,0.9375,2.921875,0.07421875,1.0
4226408,,,,,,,,2.43359375,10.33203125,-3.24609375,-0.291015625,0.423828125,-0.751953125,1.43359375,1.84765625,0.49609375,1.0
4226409,,,,,,,,2.671875,9.8046875,-3.0546875,-0.251953125,0.40625,-0.888671875,1.703125,1.3125,0.6875,1.0
4226410,36.0134725,129.319606,90.68923960113788,119.00425354102505,4.3,231.0,,3.640625,6.36328125,-1.828125,-0.20703125,0.326171875,-0.970703125,2.7734375,-2.13671875,1.875,1.0
4226411,,,,,,,,3.92578125,-2.5234375,0.1796875,-0.17578125,0.29296875,-0.771484375,3.12109375,-11.0234375,3.8671875,1.0
4226412,,,,,,,,4.26171875,-16.0,2.76171875,-0.19140625,0.310546875,-0.4609375,3.50390625,-24.51171875,6.43359375,1.0
4226413,,,,,,,,-11.30859375,-51.73828125,16.95703125,-0.2734375,0.33984375,-0.154296875,-12.05078125,-60.24609375,20.60546875,1.0
4226414,,,,,,,,-20.30078125,-29.390625,16.76171875,-0.529296875,0.3515625,0.06640625,-21.05078125,-37.91796875,20.37890625,1.0
4226415,,,,,,,,-5.0703125,-8.453125,3.9453125,-0.869140625,0.33203125,0.27734375,-5.84375,-17.0,7.5078125,1.0
4226416,,,,,,,,4.453125,-0.5078125,-1.15234375,-1.095703125,0.322265625,0.39453125,3.65625,-9.0703125,2.37109375,1.0
4226417,,,,,,,,16.19921875,-10.08203125,-4.8046875,-1.2578125,0.4921875,0.75390625,15.33984375,-18.6796875,-1.3828125,1.0
4226418,,,,,,,,12.5546875,-14.734375,-0.80078125,-0.91015625,0.76953125,1.15234375,11.5859375,-23.36328125,2.52734375,1.0
4226419,,,,,,,,5.9140625,-15.0234375,2.73828125,-0.1640625,-0.626953125,1.1015625,4.84375,-23.6640625,6.01171875,1.0
4226420,36.01346983333334,129.31960216666667,90.34367397194013,118.70835864641938,4.5,229.0,,2.7578125,-11.60546875,2.203125,-0.20703125,0.326171875,-0.970703125,1.6640625,-20.25,5.4765625,1.0
4226421,,,,,,,,1.328125,-6.18359375,-2.39453125,0.474609375,0.052734375,-3.50390625,0.3984375,-14.85546875,0.87890625,1.0
4226422,,,,,,,,0.5546875,-4.94921875,-3.4921875,0.267578125,-0.021484375,-4.052734375,-0.2109375,-13.62890625,-0.1953125,1.0
4226423,,,,,,,,-1.55859375,-3.12890625,-4.20703125,-3.0234375,0.005859375,0.373046875,-2.01171875,-11.90234375,-1.07421875,1.0
4226424,,,,,,,,-2.28125,-1.96484375,-2.234375,-3.640625,-0.349609375,1.705078125,-2.78125,-10.79296875,0.765625,1.0
4226425,,,,,,,,-3.81640625,-0.4453125,-0.85546875,-2.919921875,-1.029296875,0.9609375,-4.50390625,-9.4140625,1.68359375,1.0
4226426,,,,,,,,-5.203125,3.1875,-1.48046875,-2.162109375,-1.390625,-0.228515625,-5.88671875,-5.8515625,0.83984375,1.0
4226427,,,,,,,,-5.2265625,3.2109375,-1.39453125,-2.15234375,-1.615234375,-0.34765625,-5.88671875,-4.55078125,0.45703125,1.0
4226428,,,,,,,,-4.46875,9.171875,-3.35546875,-2.5703125,-2.0,0.8046875,-5.08203125,0.0078125,-1.53515625,1.0
4226429,,,,,,,,-3.71875,10.23828125,-3.359375,-2.513671875,-1.94140625,0.919921875,-4.35546875,1.04296875,-1.6484375,1.0
4226430,36.01346733333333,129.31959933333334,90.08825648508213,118.43095789669627,3.7,228.0,,-3.37109375,11.07421875,-3.2265625,-0.20703125,0.326171875,-0.970703125,-4.04296875,1.84765625,-1.7265625,1.0
4226431,,,,,,,,-2.4609375,11.14453125,-2.41015625,-2.328125,-1.53125,0.40625,-3.1640625,1.88671875,-1.11328125,1.0
4226432,,,,,,,,-2.4140625,10.96875,-2.26953125,-2.32421875,-1.384765625,0.314453125,-3.12890625,1.6953125,-1.07421875,1.0
4226433,,,,,,,,-2.88671875,8.78515625,-2.01953125,-2.078125,-1.095703125,0.25390625,-3.62109375,-0.52734375,-1.11328125,1.0
4226434,,,,,,,,-3.0546875,7.078125,-1.70703125,-1.908203125,-1.017578125,0.400390625,-3.81640625,-2.25,-0.99609375,1.0
4226435,,,,,,,,-2.75,6.2265625,-1.484375,-1.666015625,-0.984375,0.630859375,-3.55078125,-3.09375,-0.921875,1.0
4226436,,,,,,,,-2.48828125,6.1953125,-1.3671875,-1.52734375,-0.9609375,0.716796875,-3.31640625,-3.1328125,-0.8828125,1.0
4226437,,,,,,,,-1.421875,7.64453125,-0.75,-0.853515625,-0.86328125,0.875,-2.359375,-1.67578125,-0.421875,1.0
4226438,,,,,,,,-0.71484375,8.85546875,-0.703125,-0.333984375,-0.78125,0.923828125,-1.7421875,-0.44921875,-0.421875,1.0
4226439,,,,,,,,-0.4453125,9.58203125,-0.7421875,-0.08984375,-0.720703125,0.916015625,-1.515625,0.27734375,-0.4609375,1.0
4226440,36.013465,129.31959583333335,89.77273988967941,118.172049748868,4.0,228.0,,1.41796875,12.73046875,-0.125,0.60546875,-0.48046875,0.52734375,0.20703125,3.45703125,0.2265625,1.0
4226441,,,,,,,,1.25,12.37890625,-0.0234375,0.58203125,-0.51953125,0.060546875,0.015625,3.109375,0.3828125,1.0
4226442,,,,,,,,1.14453125,11.94921875,-0.046875,0.5,-0.521484375,-0.232421875,-0.09765625,2.69140625,0.3828125,1.0
4226443,,,,,,,,0.859375,10.8359375,0.02734375,0.33984375,-0.4609375,-0.791015625,-0.328125,1.578125,0.49609375,1.0
4226444,,,,,,,,0.375,8.42578125,0.28515625,0.26171875,-0.40234375,-1.1328125,-0.7109375,-0.83203125,0.80078125,1.0
4226445,,,,,,,,-0.1875,5.4375,1.7578125,0.2578125,-0.388671875,-1.251953125,-1.171875,-3.82421875,2.296875,1.0
4226446,,,,,,,,-0.33203125,2.9453125,2.74609375,0.23046875,-0.37890625,-1.251953125,-1.24609375,-6.3125,3.29296875,1.0
4226447,,,,,,,,1.09765625,-11.1953125,6.75390625,0.0625,-0.345703125,-1.134765625,0.28515625,-20.4453125,7.31640625,1.0
4226448,,,,,,,,13.4140625,-45.78125,22.75,0.138671875,-0.23046875,-0.8125,12.734375,-55.0390625,23.328125,1.0
4226449,,,,,,,,15.75,-42.1796875,20.82421875,0.27734375,-0.1953125,-0.728515625,15.109375,-51.4375,21.41015625,1.0
4226450,36.01346266666667,129.3195915,89.38209963581468,117.91314084875293,4.4,231.0,,-1.46484375,-1.265625,4.96484375,0.689453125,-0.06640625,-0.685546875,-3.0078125,-9.91015625,3.0625,1.0
4226451,,,,,,,,-4.02734375,-3.71875,0.2578125,1.0546875,-0.087890625,-0.375,-4.16015625,-21.71484375,1.53125,1.0
4226452,,,,,,,,-3.70703125,-12.4609375,0.7421875,1.005859375,-0.150390625,0.0859375,-3.0078125,-25.234375,4.48046875,1.0
4226453,,,,,,,,-1.734375,-19.31640625,5.98046875,0.5,0.1953125,0.71875,-1.4375,-30.98046875,7.8515625,1.0
4226454,,,,,,,,-0.03515625,-20.0546875,5.85546875,0.583984375,0.392578125,-0.521484375,-0.13671875,-26.19140625,5.4765625,1.0
4226455,,,,,,,,0.859375,-13.46484375,3.38671875,0.30078125,0.142578125,-3.216796875,1.3203125,-16.65234375,2.3359375,1.0
4226456,,,,,,,,2.11328125,-5.51953125,0.26953125,0.826171875,0.197265625,-3.609375,1.77734375,-14.7734375,1.26171875,1.0
4226457,,,,,,,,2.32421875,-4.6015625,-0.62109375,2.28125,0.28515625,-1.376953125,2.9296875,-14.43359375,0.41796875,1.0
4226458,,,,,,,,2.95703125,-5.86328125,0.55078125,3.384765625,1.12109375,1.4296875,3.1953125,-14.46875,2.83203125,1.0
4226459,,,,,,,,3.2265625,-5.2734375,1.23046875,3.08984375,1.2265625,0.990234375,3.42578125,-13.74609375,2.7578125,1.0
4226460,36.01346066666667,129.31958783333332,89.05155789434826,117.69121899056435,4.1000000000000005,232.0,,4.6484375,-1.1328125,-0.24609375,0.689453125,-0.06640625,-0.685546875,-3.0078125,-9.91015625,3.0625,1.0
4226461,,,,,,,,5.21484375,4.55859375,-2.94921875,2.685546875,1.857421875,0.6953125,5.03515625,-4.43359375,-0.34765625,1.0
4226462,,,,,,,,4.92578125,6.10546875,-3.578125,2.5390625,1.916015625,1.126953125,4.6875,-2.86328125,-0.8828125,1.0
4226463,,,,,,,,3.828125,8.15625,-5.21484375,2.0234375,1.806640625,1.07421875,3.3515625,-0.71875,-2.22265625,1.0
4226464,,,,,,,,3.52734375,8.921875,-5.5546875,1.921875,1.6953125,0.880859375,2.9609375,0.0859375,-2.453125,1.0
4226465,,,,,,,,2.6640625,10.66796875,-5.42578125,1.84375,1.400390625,0.595703125,2.0078125,1.88671875,-2.1796875,1.0
4226466,,,,,,,,2.3359375,10.7421875,-5.8984375,1.8046875,1.24609375,0.55859375,1.625,2.0,-2.57421875,1.0
4226467,,,,,,,,2.39453125,9.39453125,-7.08984375,1.51953125,0.837890625,0.748046875,1.51171875,0.77734375,-3.48828125,1.0
4226468,,,,,,,,2.48046875,6.71875,-6.76171875,1.421875,0.759765625,0.73828125,1.55078125,-1.8671875,-3.1015625,1.0
4226469,,,,,,,,1.9140625,4.87890625,-4.4609375,1.220703125,0.6015625,0.7109375,0.8203125,-3.58984375,-0.578125,1.0
4226470,36.013458166666666,129.319584,88.70599197375259,117.41381736880257,4.0,233.0,,1.08203125,5.88671875,-2.859375,1.009765625,0.58984375,0.673828125,-0.05859375,-2.55859375,1.0703125,1.0
4226471,,,,,,,,0.453125,7.10546875,-1.3125,0.63671875,0.58203125,0.533203125,-0.75,-1.29296875,2.68359375,1.0
4226472,,,,,,,,0.2578125,8.3828125,-0.6171875,0.30078125,0.548828125,0.51171875,-1.015625,0.0078125,3.40625,1.0
4226473,,,,,,,,1.17578125,11.3125,-2.9140625,-0.263671875,0.294921875,0.51953125,-0.17578125,2.96484375,1.109375,1.0
4226474,,,,,,,,1.33203125,12.7734375,-4.90625,-0.642578125,0.1484375,0.201171875,-0.05859375,4.4140625,-0.921875,1.0
4226475,,,,,,,,1.40625,12.56640625,-5.37890625,-0.607421875,0.17578125,-0.365234375,0.015625,4.18359375,-1.45703125,1.0
4226476,,,,,,,,1.8828125,11.734375,-5.1953125,-0.435546875,0.220703125,-0.69921875,0.515625,3.34375,-1.3046875,1.0
4226477,,,,,,,,2.68359375,10.1015625,-4.56640625,0.03515625,0.271484375,-1.302734375,1.39453125,1.69921875,-0.69140625,1.0
4226478,,,,,,,,3.3359375,8.21484375,-3.77734375,0.30859375,0.298828125,-1.677734375,2.1640625,-0.18359375,0.11328125,1.0
4226479,,,,,,,,3.578125,6.8828125,-3.2109375,0.275390625,0.275390625,-1.7109375,2.47265625,-1.5234375,0.6875,1.0
4226480,36.01345533333333,129.31958016666667,88.36042640042912,117.09942934492113,4.4,230.0,,4.1484375,-7.75,0.14453125,0.09765625,0.23828125,-1.322265625,3.234375,-16.16015625,4.05859375,1.0
4226481,,,,,,,,3.6015625,-27.6015625,6.16015625,-0.017578125,0.310546875,-0.791015625,2.7734375,-36.00390625,10.07421875,1.0
4226482,,,,,,,,-22.0625,-47.58984375,21.6875,-0.21484375,0.373046875,-0.36328125,-22.8515625,-55.9921875,25.5859375,1.0
4226483,,,,,,,,-5.17578125,-15.93359375,5.96875,-0.4375,0.34375,-0.080078125,-5.95703125,-24.3515625,9.84375,1.0
4226484,,,,,,,,0.4375,-2.078125,0.62109375,-0.7421875,0.392578125,0.072265625,-0.3671875,-10.5234375,4.44140625,1.0
4226485,,,,,,,,11.37890625,-6.0703125,-5.20703125,-1.046875,0.65234375,0.1015625,10.55078125,-14.55078125,-1.45703125,1.0
4226486,,,,,,,,10.8203125,-9.9921875,-4.28125,-1.041015625,0.880859375,0.13671875,9.9765625,-18.49609375,-0.578125,1.0
4226487,,,,,,,,6.8359375,-18.08203125,3.54296875,-0.689453125,0.640625,0.162109375,5.953125,-26.61328125,7.16015625,1.0
4226488,,,,,,,,3.40625,-14.765625,4.625,-0.775390625,-1.177734375,0.357421875,2.5078125,-23.3203125,8.1953125,1.0
4226489,,,,,,,,2.5390625,-9.046875,0.75,-0.533203125,-0.560546875,-2.30078125,1.7421875,-17.65234375,4.25,1.0
4226490,36.013452666666666,129.31957683333334,88.05993480284404,116.80353499421514,4.4,227.0,,4.1484375,-7.75,0.14453125,0.09765625,0.23828125,-1.322265625,0.5546875,-12.70703125,-0.8828125,1.0
4226491,,,,,,,,-1.13671875,-2.37890625,-4.1640625,-2.912109375,-0.599609375,0.3359375,-1.28515625,-11.09765625,-0.84375,1.0
4226492,,,,,,,,-1.57421875,-1.98046875,-3.265625,-3.283203125,-0.859375,1.80859375,-1.74609375,-10.75390625,-0.078125,1.0
4226493,,,,,,,,-4.13671875,-1.41015625,-1.88671875,-2.8359375,-1.314453125,1.083984375,-4.50390625,-10.328125,0.87890625,1.0
4226494,,,,,,,,-4.7578125,-0.26953125,-1.8515625,-2.419921875,-1.734375,-0.1796875,-5.1171875,-9.2578125,0.6875,1.0
4226495,,,,,,,,-5.5078125,5.234375,-2.09375,-2.693359375,-2.025390625,0.095703125,-5.80859375,-3.8203125,0.2265625,1.0
4226496,,,,,,,,-5.5,6.69140625,-2.125,-2.931640625,-2.166015625,1.037109375,-5.8046875,-2.44140625,-0.078125,1.0
4226497,,,,,,,,-5.0,10.03125,-2.6484375,-2.59375,-2.119140625,1.494140625,-5.38671875,0.8515625,-0.84375,1.0
4226498,,,,,,,,-4.76953125,10.3984375,-2.5859375,-2.447265625,-2.02734375,1.470703125,-5.19140625,1.1953125,-0.8828125,1.0
4226499,,,,,,,,-4.21875,11.04296875,-2.52734375,-2.373046875,-1.5703125,1.095703125,-4.5390625,1.42578125,-0.99609375,1.0
4226500,36.01345,129.31957316666666,87.72939372505337,116.50764035384621,4.0,229.0,0.0,-3.94140625,9.50390625,-2.30859375,-2.4453125,-1.17578125,0.8671875,-4.42578125,-0.640625,-0.99609375,1.0
4226501,,,,,,,,-4.16796875,6.05859375,-1.71875,-2.349609375,-0.859375,0.58203125,-4.8828125,-3.24609375,-0.8828125,1.0
4226502,,,,,,,,-3.53125,4.3046875,-1.6953125,-2.29296875,-0.787109375,0.525390625,-4.2734375,-5.01171875,-0.9609375,1.0
4226503,,,,,,,,-2.44921875,4.234375,-1.26171875,-2.05859375,-0.693359375,0.513671875,-3.23828125,-5.08984375,-0.73046875,1.0
4226504,,,,,,,,-0.52734375,6.45703125,-0.90625,-1.552734375,-0.66015625,0.576171875,-1.36328125,-2.86328125,-0.5390625,1.0
4226505,,,,,,,,0.5703125,8.41796875,-0.89453125,-0.814453125,-0.61328125,0.697265625,-0.328125,-0.90625,-0.65234375,1.0
4226506,,,,,,,,1.29296875,10.546875,-1.1796875,-0.396484375,-0.54296875,0.740234375,0.36328125,1.234375,-0.9609375,1.0
4226507,,,,,,,,1.62890625,12.03515625,-1.6171875,0.44921875,-0.396484375,0.7734375,0.62890625,2.7265625,-1.3828125,1.0
4226508,,,,,,,,1.234375,13.8203125,-1.9140625,1.3359375,-0.19140625,0.66015625,0.171875,4.53515625,-1.609375,1.0
4226509,,,,,,,,0.96484375,13.96484375,-1.80859375,1.69140625,-0.169921875,0.544921875,-0.13671875,4.68359375,-1.41796875,1.0
4226510,36.01344766666667,129.31956966666667,87.413876990675,116.24873229229966,4.1000000000000005,229.0,,-0.24609375,13.01953125,-1.1640625,1.70703125,-0.453125,-0.4140625,-1.36328125,3.76171875,-0.5390625,1.0
4226511,,,,,,,,-0.59765625,11.3671875,-0.74609375,1.234375,-0.5625,-1.21484375,-1.62890625,2.1171875,0.03515625,1.0
4226512,,,,,,,,-0.72265625,10.78515625,-0.5546875,0.68359375,-0.51171875,-1.7265625,-1.62890625,1.54296875,0.3046875,1.0
4226513,,,,,,,,-0.51171875,7.84375,0.2109375,0.154296875,-0.435546875,-1.87109375,-1.24609375,-1.41015625,1.109375,1.0
4226514,,,,,,,,-0.26171875,1.94140625,2.87109375,-0.33203125,-0.349609375,-1.71875,-0.82421875,-7.30859375,3.75390625,1.0
4226515,,,,,,,,2.0625,-17.01953125,7.08984375,-0.470703125,-0.2578125,-1.462890625,1.6640625,-26.265625,7.92578125,1.0
4226516,,,,,,,,4.87109375,-28.05859375,10.29296875,-0.18359375,-0.181640625,-1.169921875,4.57421875,-37.30078125,11.10546875,1.0
4226517,,,,,,,,21.16796875,-51.2265625,28.7578125,0.25390625,-0.138671875,-0.9140625,20.97265625,-60.4765625,29.5703125,1.0
4226518,,,,,,,,7.7265625,-22.2734375,15.390625,0.59375,-0.1015625,-0.74609375,7.6015625,-31.515625,16.2421875,1.0
4226519,,,,,,,,1.17578125,-5.0,5.23828125,0.6875,-0.0625,-0.69140625,1.08984375,-14.2421875,6.12890625,1.0
4226520,36.01344533333334,129.3195655,87.03826131645074,115.98982364693379,4.4,230.0,,-7.3984375,-10.21484375,1.3125,0.828125,0.24609375,0.3828125,-7.4140625,-19.4453125,2.3359375,1.0
4226521,,,,,,,,-3.0234375,-18.4609375,8.15234375,0.23828125,0.599609375,2.08984375,-3.1640625,-27.69140625,9.23046875,1.0
4226522,,,,,,,,-1.9609375,-17.3125,6.87890625,-0.169921875,0.994140625,2.421875,-2.203125,-26.5390625,7.96484375,1.0
4226523,,,,,,,,-0.3046875,-12.17578125,3.46875,0.1484375,0.337890625,-0.638671875,-0.671875,-21.3984375,4.5546875,1.0
4226524,,,,,,,,1.9453125,-5.03515625,0.296875,0.599609375,-0.205078125,-4.490234375,2.046875,-14.2734375,1.4140625,1.0
4226525,,,,,,,,2.8359375,-5.10546875,0.53125,3.296875,0.59375,0.375,3.234375,-14.31640625,1.9140625,1.0
4226526,,,,,,,,3.18359375,-4.73828125,1.4375,3.625,0.91796875,1.013671875,3.54296875,-13.9296875,2.984375,1.0
4226527,,,,,,,,3.4296875,-2.91796875,1.41796875,2.958984375,1.248046875,0.240234375,3.6953125,-12.0546875,3.29296875,1.0
4226528,,,,,,,,3.87109375,1.41015625,0.078125,2.033203125,1.541015625,-0.791015625,4.15234375,-7.6875,2.1796875,1.0
4226529,,,,,,,,4.26953125,3.91796875,-1.4296875,1.927734375,1.591796875,-0.783203125,4.57421875,-5.15625,0.765625,1.0
4226530,36.013442833333336,129.3195615,86.67767053011464,115.71242195587175,4.2,231.0,,4.43359375,5.8984375,-2.74609375,0.828125,0.24609375,0.3828125,-7.4140625,-19.4453125,2.3359375,1.0
4226531,,,,,,,,4.35546875,8.3828125,-3.81640625,2.58203125,1.865234375,0.857421875,4.5703125,-0.6015625,-1.19140625,1.0
4226532,,,,,,,,3.62109375,9.94921875,-3.9765625,2.435546875,1.828125,0.990234375,3.765625,1.00390625,-1.2265625,1.0
4226533,,,,,,,,2.875,10.921875,-4.34375,2.044921875,1.615234375,0.78515625,2.890625,2.0390625,-1.3828125,1.0
4226534,,,,,,,,2.5,11.3203125,-4.50390625,1.98046875,1.474609375,0.619140625,2.47265625,2.4609375,-1.45703125,1.0
4226535,,,,,,,,1.7421875,11.6484375,-4.9921875,2.0859375,1.251953125,0.38671875,1.625,2.84375,-1.765625,1.0
4226536,,,,,,,,1.7734375,10.765625,-5.67578125,2.177734375,0.986328125,0.48046875,1.5859375,2.0390625,-2.2578125,1.0
4226537,,,,,,,,2.04296875,10.0390625,-5.88671875,2.140625,0.880859375,0.619140625,1.81640625,1.3515625,-2.375,1.0
4226538,,,,,,,,4.4609375,3.8359375,-5.56640625,1.818359375,0.666015625,1.078125,4.078125,-4.7421875,-1.80078125,1.0
4226539,,,,,,,,4.44140625,3.15234375,-5.07421875,1.26171875,0.625,1.140625,3.88671875,-5.3125,-1.11328125,1.0
4226540,36.01344033333333,129.31955766666667,86.33210445440056,115.43502042756103,4.2,232.0,,1.328125,6.5234375,-2.5703125,0.568359375,0.623046875,0.94921875,0.5546875,-1.8671875,1.53125,1.0
4226541,,,,,,,,-0.1875,9.77734375,-2.44921875,0.267578125,0.53515625,0.87890625,-1.0546875,1.42578125,1.68359375,1.0
4226542,,,,,,,,-0.6015625,10.65234375,-2.49609375,0.15625,0.48046875,0.833984375,-1.515625,2.30859375,1.64453125,1.0
4226543,,,,,,,,-0.90625,13.01171875,-2.95703125,-0.1015625,0.384765625,0.693359375,-1.8984375,4.6796875,1.18359375,1.0
4226544,,,,,,,,-0.30859375,13.82421875,-3.84375,-0.5,0.357421875,0.3671875,-1.36328125,5.48828125,0.265625,1.0
4226545,,,,,,,,1.0859375,13.37890625,-4.77734375,-0.890625,0.400390625,-0.26171875,0.015625,5.0234375,-0.73046875,1.0
4226546,,,,,,,,1.609375,12.7890625,-4.64453125,-1.041015625,0.42578125,-0.64453125,0.5546875,4.4140625,-0.65234375,1.0
4226547,,,,,,,,2.84765625,10.33984375,-3.9375,-1.169921875,0.451171875,-1.310546875,1.85546875,1.92578125,-0.0390625,1.0
4226548,,,,,,,,4.4296875,3.4765625,-0.42578125,-0.87109375,0.443359375,-1.765625,3.6171875,-5.0078125,3.33203125,1.0
4226549,,,,,,,,4.859375,-0.30078125,0.67578125,-0.64453125,0.435546875,-1.75,4.1171875,-8.80078125,4.40234375,1.0
4226550,36.0134375,129.31955366666668,85.97151398741184,115.12063235077383,4.6000000000000005,229.0,,-9.953125,-50.91796875,16.20703125,-0.220703125,0.34375,-1.078125,-10.515625,-59.4375,19.87890625,1.0
4226551,,,,,,,,-26.55859375,-55.00390625,16.69140625,-0.32421875,0.314453125,-0.376953125,-27.06640625,-63.5390625,20.33984375,1.0
4226552,,,,,,,,-15.06640625,-21.1796875,11.0078125,-0.474609375,0.302734375,-0.0546875,-15.57421875,-29.71875,14.6328125,1.0
4226553,,,,,,,,8.5859375,-1.1328125,-1.7265625,-1.25,0.326171875,0.5078125,8.0234375,-9.72265625,1.796875,1.0
4226554,,,,,,,,14.70703125,-7.8984375,-4.08203125,-1.85546875,0.486328125,0.748046875,14.07421875,-16.5390625,-0.69140625,1.0
4226555,,,,,,,,8.96484375,-14.6484375,1.24609375,-0.7265625,0.26171875,1.17578125,8.17578125,-23.359375,4.44140625,1.0
4226556,,,,,,,,5.45703125,-13.390625,2.1875,0.654296875,-1.1796875,0.390625,4.61328125,-22.09375,5.3984375,1.0
4226557,,,,,,,,2.67578125,-10.74609375,1.16796875,-0.23046875,-0.82421875,-0.658203125,1.85546875,-19.4453125,4.40234375,1.0
4226558,,,,,,,,-0.09765625,-7.4296875,-0.9140625,-0.525390625,-0.216796875,-4.146484375,-0.51953125,-16.19921875,2.2578125,1.0
4226559,,,,,,,,-2.421875,-5.15234375,-2.30078125,-1.177734375,-0.212890625,-3.611328125,-2.703125,-13.9296875,0.83984375,1.0
4226560,36.01343516666667,129.31955033333332,85.6710218786597,114.8617244990661,4.3,228.0,,-3.046875,-3.15234375,-1.84375,-0.220703125,0.34375,-1.078125,-10.515625,-59.4375,19.87890625,1.0
4226561,,,,,,,,-3.90234375,0.92578125,-1.01171875,-3.38671875,-1.10546875,2.107421875,-4.12109375,-8.03125,1.64453125,1.0
4226562,,,,,,,,-4.0234375,1.203125,-0.79296875,-3.1015625,-1.359375,1.736328125,-4.3125,-7.8046875,1.72265625,1.0
4226563,,,,,,,,-5.046875,3.33203125,-1.43359375,-2.49609375,-1.5234375,0.158203125,-5.3828125,-5.734375,0.83984375,1.0
4226564,,,,,,,,-5.8671875,5.7109375,-1.9375,-2.451171875,-1.650390625,-0.34765625,-6.19140625,-3.3984375,0.2265625,1.0
4226565,,,,,,,,-5.92578125,9.14453125,-2.484375,-2.708984375,-2.0390625,-0.29296875,-6.1484375,-0.02734375,-0.578125,1.0
4226566,,,,,,,,-5.79296875,10.9609375,-2.33984375,-2.82421875,-2.23046875,0.3203125,-5.99609375,1.734375,-0.65234375,1.0
4226567,,,,,,,,-5.6484375,11.7890625,-2.09375,-2.64453125,-2.19140625,0.494140625,-5.84375,2.5390625,-0.5390625,1.0
4226568,,,,,,,,-4.69140625,12.76953125,-1.38671875,-2.3359375,-1.7109375,0.314453125,-4.92578125,3.45703125,-0.26953125,1.0
4226569,,,,,,,,-4.22265625,11.17578125,-1.515625,-2.396484375,-1.607421875,0.279296875,-4.46484375,1.84765625,-0.5,1.0
4226570,36.013433,129.31954583333334,85.2653564499318,114.62130884452458,4.3,233.0,,-4.20703125,6.87890625,-1.31640625,-2.177734375,-1.091796875,0.671875,-4.5,-2.48046875,-0.73046875,1.0
4226571,,,,,,,,-3.21484375,4.359375,-0.9375,-1.83203125,-0.912109375,0.900390625,-3.58203125,-5.0078125,-0.5390625,1.0
4226572,,,,,,,,-1.8203125,4.58984375,-0.51171875,-1.37890625,-0.791015625,0.982421875,-2.28125,-4.77734375,-0.26953125,1.0
4226573,,,,,,,,-0.5,6.2734375,-0.41015625,-0.87109375,-0.734375,0.98828125,-1.0546875,-3.09765625,-0.26953125,1.0
4226574,,,,,,,,0.28125,9.40625,-0.6328125,-0.306640625,-0.630859375,1.05078125,-0.3671875,0.046875,-0.5390625,1.0
4226575,,,,,,,,0.99609375,12.33984375,-1.0078125,0.3671875,-0.5625,1.10546875,0.24609375,2.9921875,-0.921875,1.0
4226576,,,,,,,,1.18359375,13.09765625,-1.0546875,1.166015625,-0.408203125,1.107421875,0.32421875,3.7578125,-0.8828125,1.0
4226577,,,,,,,,0.34765625,14.33984375,-0.57421875,1.787109375,-0.3125,0.869140625,-0.59765625,5.02734375,-0.26953125,1.0
4226578,,,,,,,,-0.46875,14.01953125,-0.82421875,1.771484375,-0.44140625,0.1953125,-1.4765625,4.71875,-0.34765625,1.0
4226579,,,,,,,,-0.38671875,12.73828125,-1.24609375,1.3515625,-0.51171875,-0.736328125,-1.36328125,3.45703125,-0.61328125,1.0
4226580,36.013430666666665,129.31954183333335,84.9047653754125,114.36240043567136,4.4,233.0,,0.078125,11.08203125,-1.546875,0.8671875,-0.494140625,-1.392578125,-0.7890625,1.8046875,-0.8046875,1.0
4226581,,,,,,,,0.3984375,8.25,-1.83203125,0.37890625,-0.435546875,-1.61328125,-0.328125,-1.0234375,-1.03515625,1.0
4226582,,,,,,,,0.59765625,6.02734375,-1.41796875,0.08203125,-0.41015625,-1.58203125,-0.05859375,-3.24609375,-0.61328125,1.0
4226583,,,,,,,,0.65625,3.765625,0.2734375,-0.1640625,-0.37890625,-1.310546875,0.1328125,-5.51171875,1.0703125,1.0
4226584,,,,,,,,-0.6328125,-1.3359375,6.01953125,0.244140625,-0.275390625,-0.9453125,-1.0546875,-10.60546875,6.81640625,1.0
4226585,,,,,,,,1.5546875,-17.671875,9.56640625,0.837890625,-0.138671875,-0.568359375,1.203125,-26.92578125,10.41796875,1.0
4226586,,,,,,,,6.62890625,-27.828125,12.8671875,1.099609375,-0.09765625,-0.392578125,6.30078125,-37.07421875,13.75,1.0
4226587,,,,,,,,19.7734375,-57.87890625,24.42578125,1.421875,-0.087890625,-0.15234375,19.4765625,-67.1015625,25.43359375,1.0
4226588,,,,,,,,1.9453125,-2.890625,3.0390625,0.93359375,0.125,-0.134765625,1.6640625,-12.09375,4.2890625,1.0
4226589,,,,,,,,-3.46484375,-9.55859375,-2.32421875,0.650390625,0.193359375,-0.171875,-3.73828125,-18.76171875,-1.03515625,1.0
4226590,36.0134285,129.31953800000002,84.55919883391631,114.12198539630431,4.5,232.0,,-5.53125,-13.3671875,5.06640625,0.8671875,-0.494140625,-1.392578125,-0.7890625,1.8046875,-0.8046875,1.0
4226591,,,,,,,,-4.12890625,-17.43359375,8.3671875,0.4921875,0.712890625,1.765625,-4.50390625,-26.609375,9.8046875,1.0
4226592,,,,,,,,-1.3203125,-12.84375,3.00390625,-0.52734375,0.759765625,0.76171875,-1.859375,-22.015625,4.44140625,1.0
4226593,,,,,,,,-0.15625,-8.01171875,0.46875,0.791015625,0.302734375,-2.65625,-0.6328125,-17.1875,1.9140625,1.0
4226594,,,,,,,,2.125,-4.515625,-1.9609375,1.220703125,-0.068359375,-4.607421875,2.0078125,-13.703125,-0.421875,1.0
4226595,,,,,,,,3.26171875,-4.1953125,-1.71484375,2.708984375,0.46875,-1.162109375,3.42578125,-13.36328125,-0.00390625,1.0
4226596,,,,,,,,4.14453125,-3.453125,0.16796875,3.392578125,0.6796875,0.740234375,4.30859375,-12.59375,2.02734375,1.0
4226597,,,,,,,,4.390625,-0.4140625,0.7421875,3.154296875,1.384765625,0.271484375,4.3828125,-9.45703125,3.1015625,1.0
4226598,,,,,,,,5.04296875,3.4375,-1.515625,2.2734375,1.53515625,-0.83203125,5.03515625,-5.546875,1.0703125,1.0
4226599,,,,,,,,5.1640625,6.1875,-3.671875,2.24609375,1.716796875,-0.45703125,5.1875,-2.75,-0.8828125,1.0
4226600,36.01342616666667,129.31953433333334,84.22865718263112,113.86307730503128,4.2,232.0,0.0,5.15234375,6.5390625,-4.6484375,0.8671875,-0.494140625,-1.392578125,-0.7890625,1.8046875,-0.8046875,1.0
4226601,,,,,,,,4.9921875,7.08984375,-5.07421875,2.029296875,1.9140625,1.337890625,4.8046875,-1.71484375,-1.87890625,1.0
4226602,,,,,,,,4.50390625,7.671875,-5.390625,1.857421875,1.80859375,1.314453125,4.2265625,-1.1015625,-2.109375,1.0
4226603,,,,,,,,4.2421875,8.390625,-5.80859375,1.892578125,1.275390625,0.69140625,3.6953125,-0.2578125,-2.22265625,1.0
4226604,,,,,,,,4.41796875,8.12109375,-6.00390625,1.9140625,1.046875,0.888671875,3.76953125,-0.44921875,-2.26171875,1.0
4226605,,,,,,,,4.5,6.89453125,-6.66015625,1.744140625,0.88671875,1.189453125,3.73828125,-1.59765625,-2.76171875,1.0
4226606,,,,,,,,4.41015625,5.47265625,-6.5234375,1.5390625,0.759765625,1.3828125,3.5,-2.94140625,-2.4921875,1.0
4226607,,,,,,,,3.4453125,5.55859375,-5.734375,1.326171875,0.73046875,1.40625,2.46875,-2.8203125,-1.6484375,1.0
4226608,,,,,,,,2.0234375,6.68359375,-4.625,0.779296875,0.751953125,1.33203125,0.8984375,-1.63671875,-0.4609375,1.0
4226609,,,,,,,,0.3984375,8.49609375,-3.73046875,0.482421875,0.7890625,1.26171875,-0.7890625,0.19921875,0.45703125,1.0
4226610,36.01342366666667,129.31953083333335,83.91314042437374,113.58567616122637,4.1000000000000005,232.0,,-0.5703125,9.9296875,-3.26171875,0.8671875,-0.494140625,-1.392578125,-0.7890625,1.8046875,-0.8046875,1.0
4226611,,,,,,,,-0.87109375,11.609375,-3.22265625,-1.296875,0.5625,0.40234375,-2.39453125,3.30859375,0.80078125,1.0
4226612,,,,,,,,0.25390625,11.87109375,-3.76953125,-1.646484375,0.53515625,0.1640625,-1.28515625,3.53125,0.19140625,1.0
4226613,,,,,,,,1.640625,11.328125,-4.1015625,-2.005859375,0.513671875,-0.875,0.1328125,2.84375,-0.5,1.0
4226614,,,,,,,,2.18359375,10.05078125,-3.90625,-1.4140625,0.505859375,-1.1875,0.74609375,1.5,-0.4609375,1.0
4226615,,,,,,,,2.51171875,8.6015625,-3.16015625,-0.755859375,0.451171875,-1.28125,1.16796875,0.0078125,0.19140625,1.0
4226616,,,,,,,,2.80078125,7.546875,-2.39453125,-0.50390625,0.40234375,-1.27734375,1.5078125,-1.0625,0.91796875,1.0
4226617,,,,,,,,4.890625,-4.0078125,0.40234375,-0.328125,0.279296875,-1.126953125,3.6953125,-12.6328125,3.67578125,1.0
4226618,,,,,,,,4.07421875,-17.66015625,-0.86328125,-0.443359375,0.173828125,-0.91015625,2.96484375,-26.30859375,2.37109375,1.0
4226619,,,,,,,,-7.30078125,-40.48828125,7.8515625,-0.55078125,0.134765625,-0.791015625,-8.37109375,-49.13671875,11.0703125,1.0
4226620,36.013420833333335,129.319527,83.5675745270278,113.27128832620633,4.5,229.0,,-27.9140625,-51.33203125,17.0703125,0.8671875,-0.494140625,-1.392578125,-0.7890625,1.8046875,-0.8046875,1.0
4226621,,,,,,,,-12.62109375,-14.01953125,8.3984375,-1.263671875,0.078125,-0.2890625,-13.58203125,-22.7421875,11.4140625,1.0
4226622,,,,,,,,-7.49609375,-6.6015625,3.625,-1.421875,0.07421875,-0.263671875,-8.44921875,-15.3515625,6.5859375,1.0
4226623,,,,,,,,9.265625,-5.6640625,-5.80859375,-1.75,0.177734375,-0.240234375,8.328125,-14.46875,-2.98828125,1.0
4226624,,,,,,,,14.1796875,-9.87109375,-3.81640625,-1.517578125,0.6875,0.30859375,13.234375,-18.72265625,-1.15234375,1.0
4226625,,,,,,,,5.8046875,-13.48828125,3.82421875,0.337890625,-1.0546875,1.029296875,4.765625,-22.359375,6.39453125,1.0
4226626,,,,,,,,2.390625,-7.55078125,1.19921875,-0.94140625,-0.48828125,-0.94140625,1.359375,-16.421875,3.75390625,1.0
4226627,,,,,,,,1.35546875,-3.91796875,-1.56640625,-0.35546875,0.095703125,-4.005859375,0.74609375,-12.859375,0.91796875,1.0
4226628,,,,,,,,-0.95703125,-0.95703125,-3.7734375,-1.92578125,0.005859375,-0.873046875,-1.32421875,-9.94921875,-1.3828125,1.0
4226629,,,,,,,,-1.609375,0.0,-3.77734375,-2.828125,-0.244140625,0.89453125,-1.9765625,-9.03125,-1.49609375,1.0
4226630,36.013418333333334,129.3195235,83.2520577291253,112.9938872075112,4.3,228.0,,-3.7734375,1.55859375,-1.90625,-3.36328125,-1.041015625,1.1640625,-4.3125,-7.57421875,-0.078125,1.0
4226631,,,,,,,,-5.3671875,2.140625,-0.76171875,-2.470703125,-1.38671875,-0.26953125,-5.921875,-7.0390625,0.80078125,1.0
4226632,,,,,,,,-5.62109375,2.9296875,-0.7421875,-2.28125,-1.552734375,-0.609375,-6.15234375,-6.2734375,0.7265625,1.0
4226633,,,,,,,,-5.69921875,4.8828125,-1.0234375,-2.419921875,-1.8671875,-0.248046875,-6.1484375,-4.359375,0.2265625,1.0
4226634,,,,,,,,-5.3984375,6.43359375,-1.6953125,-2.466796875,-2.0,0.19921875,-5.84765625,-2.82421875,-0.5390625,1.0
4226635,,,,,,,,-4.984375,7.3359375,-2.05078125,-2.205078125,-2.015625,1.0,-5.46484375,-1.9453125,-1.11328125,1.0
4226636,,,,,,,,-4.69921875,7.62109375,-1.2890625,-1.8671875,-1.759765625,1.3203125,-5.26953125,-1.67578125,-0.5390625,1.0
4226637,,,,,,,,-4.53125,7.5078125,-0.93359375,-1.806640625,-1.611328125,1.29296875,-5.15625,-1.7890625,-0.26953125,1.0
4226638,,,,,,,,-3.8515625,6.71875,0.06640625,-1.939453125,-1.27734375,0.986328125,-4.58203125,-2.59375,0.57421875,1.0
4226639,,,,,,,,-3.58984375,6.41015625,0.28125,-2.134765625,-0.890625,0.66796875,-4.38671875,-2.90234375,0.609375,1.0
4226640,36.01341566666667,129.31952,82.93654108350795,112.69799289147525,4.2,229.0,,-1.69921875,7.7421875,-1.265625,-2.091796875,-0.6640625,0.443359375,-2.5859375,-1.5625,-1.34375,1.0
4226641,,,,,,,,0.01953125,9.796875,-1.453125,-1.232421875,-0.59765625,0.529296875,-0.94140625,0.5078125,-1.76953125,1.0
4226642,,,,,,,,0.54296875,11.3671875,-1.3359375,-0.818359375,-0.537109375,0.5078125,-0.44140625,2.08203125,-1.6875,1.0
4226643,,,,,,,,0.2421875,12.6171875,-1.03515625,0.1875,-0.4453125,0.357421875,-0.7890625,3.34375,-1.41796875,1.0
4226644,,,,,,,,0.11328125,13.15234375,-0.87890625,1.404296875,-0.41796875,0.08203125,-0.94140625,3.87890625,-1.19140625,1.0
4226645,,,,,,,,-0.19921875,13.7265625,-0.046875,2.384765625,-0.435546875,-0.1953125,-1.24609375,4.45703125,-0.15625,1.0
4226646,,,,,,,,-0.5390625,11.87890625,0.1484375,2.318359375,-0.509765625,-0.419921875,-1.5546875,2.61328125,0.265625,1.0
4226647,,,,,,,,-0.546875,11.87890625,0.0703125,1.6328125,-0.513671875,-0.7109375,-1.59375,1.734375,0.49609375,1.0
4226648,,,,,,,,-0.9921875,9.07421875,0.6796875,0.91796875,-0.51953125,-0.94921875,-2.55078125,-2.2890625,2.5625,1.0
4226649,,,,,,,,-1.65234375,6.9609375,2.16796875,0.615234375,-0.537109375,-1.0078125,-3.46875,-3.97265625,4.98046875,1.0
4226650,36.0134135,129.319516,82.57594968528103,112.45757778650552,4.4,230.0,,-4.12890625,-4.1484375,7.14453125,-0.021484375,-0.443359375,-0.970703125,-0.2109375,-23.01171875,10.72265625,1.0
4226651,,,,,,,,0.453125,-13.76953125,10.23828125,0.23828125,-0.376953125,-0.857421875,21.35546875,-58.828125,19.57421875,1.0
4226652,,,,,,,,19.53125,-47.3671875,24.71875,0.623046875,-0.220703125,-0.5625,4.61328125,-22.78125,11.3359375,1.0
4226653,,,,,,,,5.05078125,-13.53515625,10.75,0.6953125,-0.185546875,-0.564453125,1.81640625,-16.234375,7.8125,1.0
4226654,,,,,,,,-4.11328125,-3.07421875,2.3671875,1.388671875,-0.181640625,-0.744140625,-8.2578125,-14.51171875,1.98828125,1.0
4226655,,,,,,,,-7.90625,-5.2578125,1.26953125,1.8515625,-0.33984375,-0.607421875,-8.52734375,-16.265625,2.94921875,1.0
4226656,,,,,,,,-8.20703125,-7.02734375,2.16015625,1.91015625,-0.517578125,-0.1796875,-7.98828125,-18.03515625,3.8671875,1.0
4226657,,,,,,,,-4.3359375,-13.90234375,3.93359375,-0.359375,0.798828125,0.94140625,-3.58203125,-24.73828125,4.9765625,1.0
4226658,,,,,,,,-3.21484375,-15.50390625,3.953125,-0.779296875,0.529296875,0.421875,-1.5546875,-23.36328125,5.24609375,1.0
4226659,,,,,,,,-0.21484375,-10.78125,3.7421875,0.064453125,-0.162109375,-4.494140625,-0.48046875,-18.4140625,3.98046875,1.0
4226660,36.01341133333334,129.319512,82.2153582692815,112.21716269909088,4.5,231.0,,-4.12890625,-4.1484375,7.14453125,0.6015625,-0.30859375,-4.552734375,-0.2109375,-23.01171875,10.72265625,1.0
4226661,,,,,,,,-0.1796875,-6.67578125,1.06640625,2.306640625,0.060546875,-1.74609375,0.58984375,-14.69921875,1.453125,1.0
4226662,,,,,,,,0.546875,-4.96875,0.52734375,2.99609375,0.392578125,-0.177734375,0.9375,-14.20703125,1.64453125,1.0
4226663,,,,,,,,1.203125,-3.51171875,0.7421875,3.30859375,0.921875,0.9921875,1.5859375,-12.70703125,2.296875,1.0
4226664,,,,,,,,2.875,-0.49609375,0.68359375,2.791015625,1.123046875,0.66796875,3.15625,-9.640625,2.52734375,1.0
4226665,,,,,,,,4.1953125,3.05859375,-0.36328125,2.25390625,1.400390625,-0.013671875,4.421875,-6.04296875,1.72265625,1.0
4226666,,,,,,,,4.36328125,4.0,-1.078125,2.21875,1.501953125,-0.140625,4.57421875,-5.08984375,1.109375,1.0
4226667,,,,,,,,5.015625,5.484375,-2.64453125,2.369140625,1.81640625,0.455078125,5.61328125,-2.3671875,-1.45703125,1.0
4226668,,,,,,,,4.8203125,10.01171875,-4.70703125,2.033203125,1.685546875,0.68359375,4.8046875,1.08203125,-1.87890625,1.0
4226669,,,,,,,,4.5234375,10.671875,-4.83203125,1.951171875,1.578125,0.57421875,4.4609375,1.7734375,-1.91796875,1.0
4226670,36.01340883333333,129.31950933333334,81.97496507383396,111.93976232795512,3.7,229.0,,3.98828125,11.00390625,-5.2109375,0.6015625,-0.30859375,-4.552734375,-0.2109375,-23.01171875,10.72265625,1.0
4226671,,,,,,,,4.203125,10.23828125,-6.2578125,2.234375,0.962890625,0.412109375,3.9609375,1.50390625,-2.875,1.0
4226672,,,,,,,,4.2734375,8.7109375,-7.1953125,2.248046875,0.8671875,0.521484375,4.0,0.0078125,-3.71875,1.0
4226673,,,,,,,,4.16796875,6.7890625,-8.03125,2.19921875,0.646484375,0.81640625,3.80859375,-1.828125,-4.3671875,1.0
4226674,,,,,,,,3.98828125,4.02734375,-7.75390625,1.986328125,0.474609375,0.939453125,3.54296875,-4.51171875,-3.91015625,1.0
4226675,,,,,,,,1.7890625,4.48828125,-5.87890625,1.763671875,0.45703125,0.88671875,1.2421875,-3.96875,-1.87890625,1.0
4226676,,,,,,,,0.6796875,5.14453125,-5.22265625,1.61328125,0.498046875,0.81640625,0.09375,-3.28515625,-1.15234375,1.0
4226677,,,,,,,,-1.08203125,6.8671875,-3.9609375,1.2109375,0.56640625,0.607421875,-1.74609375,-1.484375,0.2265625,1.0
4226678,,,,,,,,-2.75,10.15234375,-2.0546875,0.08203125,0.529296875,0.388671875,-3.51171875,1.84765625,2.21875,1.0
4226679,,,,,,,,-2.43359375,12.23046875,-1.2421875,-1.068359375,0.439453125,0.2265625,-3.23828125,3.9140625,2.984375,1.0
4226680,36.013406333333336,129.31950583333335,81.65944817787725,111.66236126762561,4.1000000000000005,229.0,,-0.80078125,12.9140625,-2.86328125,0.6015625,-0.30859375,-4.552734375,-0.2109375,-23.01171875,10.72265625,1.0
4226681,,,,,,,,1.86328125,13.06640625,-4.2578125,-2.216796875,0.3828125,-0.400390625,1.05078125,4.5625,-0.4609375,1.0
4226682,,,,,,,,3.12890625,11.64453125,-4.125,-1.638671875,0.451171875,-0.779296875,2.35546875,3.0703125,-0.5,1.0
4226683,,,,,,,,3.2578125,10.90234375,-3.94921875,-1.28515625,0.453125,-0.97265625,2.5078125,2.30859375,-0.38671875,1.0
4226684,,,,,,,,3.078125,8.59765625,-3.27734375,-0.046875,0.388671875,-1.451171875,2.47265625,-0.02734375,0.19140625,1.0
4226685,,,,,,,,5.0234375,5.0546875,-0.55078125,0.71875,0.326171875,-1.587890625,4.54296875,-3.5546875,2.94921875,1.0
4226686,,,,,,,,2.828125,-6.62109375,2.328125,0.732421875,0.251953125,-1.396484375,2.46875,-15.1953125,5.8984375,1.0
4226687,,,,,,,,-0.1328125,-25.98828125,8.1171875,-0.111328125,0.244140625,-0.646484375,-0.3671875,-34.54296875,11.71875,1.0
4226688,,,,,,,,-18.46484375,-49.31640625,20.921875,-0.380859375,0.263671875,-0.404296875,-18.67578125,-57.87109375,24.515625,1.0
4226689,,,,,,,,-26.48046875,-51.66796875,16.33203125,-0.865234375,0.26171875,-0.0703125,-26.68359375,-60.2421875,19.87890625,1.0
4226690,36.013403499999995,129.31950166666667,81.2838326465556,111.34797324362133,4.6000000000000005,228.0,,-0.5390625,-3.671875,3.06640625,-1.3515625,0.25390625,0.072265625,-0.75,-12.29296875,6.51171875,1.0
4226691,,,,,,,,10.43359375,-5.4453125,-4.45703125,-2.552734375,0.33203125,0.0390625,13.1171875,-17.26953125,-2.22265625,1.0
4226692,,,,,,,,13.3515625,-8.5390625,-5.40234375,-2.28125,0.6015625,0.26171875,12.62109375,-20.4453125,-0.1171875,1.0
4226693,,,,,,,,9.21484375,-16.0703125,2.66796875,-1.01953125,0.13671875,0.12890625,7.296875,-25.6171875,7.734375,1.0
4226694,,,,,,,,5.8125,-14.95703125,5.265625,1.412109375,-1.5,0.0703125,4.61328125,-21.171875,7.19921875,1.0
4226695,,,,,,,,4.171875,-9.78125,2.890625,-0.103515625,-0.521484375,-2.71484375,3.42578125,-14.43359375,2.06640625,1.0
4226696,,,,,,,,3.53515625,-5.63671875,-0.98046875,-0.173828125,-0.396484375,-3.572265625,2.8515625,-13.55078125,-0.00390625,1.0
4226697,,,,,,,,1.58984375,-4.35546875,-4.359375,-2.060546875,-0.244140625,-1.51953125,0.36328125,-13.125,-1.49609375,1.0
4226698,,,,,,,,-1.56640625,-3.48828125,-2.5390625,-3.681640625,-0.71484375,1.857421875,-1.9765625,-11.06640625,1.4140625,1.0
4226699,,,,,,,,-2.9921875,-1.08203125,-0.2578125,-3.72265625,-0.990234375,2.19921875,-2.78125,-10.0625,2.2578125,1.0
4226700,36.013401333333334,129.3194985,80.99836484244277,111.10755890037687,4.1000000000000005,229.0,0.0,-5.65234375,2.66796875,-0.79296875,-2.0546875,-1.693359375,-0.23046875,-5.57421875,-6.46484375,1.22265625,1.0
4226701,,,,,,,,-6.17578125,5.40234375,-1.80859375,-2.07421875,-1.8359375,-0.32421875,-6.0703125,-3.74609375,0.11328125,1.0
4226702,,,,,,,,-6.3359375,8.140625,-2.9765625,-2.400390625,-2.25,0.451171875,-6.1875,-1.0625,-1.265625,1.0
4226703,,,,,,,,-6.015625,10.60546875,-3.17578125,-2.435546875,-2.349609375,0.919921875,-5.8828125,1.38671875,-1.57421875,1.0
4226704,,,,,,,,-5.41015625,12.33203125,-2.703125,-2.052734375,-2.21484375,1.29296875,-5.0,3.37890625,-0.9609375,1.0
4226705,,,,,,,,-4.90234375,12.69140625,-1.99609375,-1.900390625,-2.083984375,1.142578125,-4.88671875,3.41796875,-0.69140625,1.0
4226706,,,,,,,,-4.48046875,12.171875,-1.65625,-1.857421875,-1.9140625,0.86328125,-4.5,2.8828125,-0.4609375,1.0
4226707,,,,,,,,-4.05859375,11.21484375,-1.17578125,-1.978515625,-1.369140625,0.224609375,-4.1171875,1.88671875,-0.23046875,1.0
4226708,,,,,,,,-3.65234375,8.171875,-1.09375,-2.029296875,-0.845703125,0.30078125,-3.73828125,-1.1796875,-0.421875,1.0
4226709,,,,,,,,-2.9375,4.88671875,-1.1953125,-1.80859375,-0.552734375,0.69921875,-3.0859375,-4.47265625,-0.8046875,1.0
4226710,36.01339883333333,129.31949500000002,80.68284788329757,110.83015787469202,4.1000000000000005,229.0,,-2.0546875,5.203125,-0.90234375,-1.3203125,-0.53125,0.859375,-2.28125,-4.1640625,-0.65234375,1.0
4226711,,,,,,,,-1.125,7.0,-0.34375,-0.654296875,-0.412109375,0.96875,-1.4375,-2.37109375,-0.1953125,1.0
4226712,,,,,,,,-0.10546875,9.66796875,-0.3203125,0.130859375,-0.2421875,1.033203125,-0.515625,0.31640625,-0.1953125,1.0
4226713,,,,,,,,0.06640625,11.4609375,-0.6015625,0.884765625,-0.119140625,0.93359375,-0.44140625,2.1171875,-0.421875,1.0
4226714,,,,,,,,0.3828125,13.75,-0.7890625,1.412109375,-0.0703125,0.796875,-0.2109375,4.41796875,-0.5,1.0
4226715,,,,,,,,0.2890625,14.5,-0.515625,1.703125,-0.087890625,0.607421875,-0.3671875,5.1796875,-0.078125,1.0
4226716,,,,,,,,-0.14453125,14.1875,-0.43359375,1.61328125,-0.19140625,0.38671875,-0.82421875,4.87890625,0.07421875,1.0
4226717,,,,,,,,-0.29296875,12.515625,-0.56640625,1.09765625,-0.33984375,-0.25,-0.98046875,3.2265625,0.07421875,1.0
4226718,,,,,,,,-0.4140625,10.9765625,-0.71484375,0.65625,-0.275390625,-0.865234375,-1.0546875,1.69921875,-0.00390625,1.0
4226719,,,,,,,,-0.69921875,6.83203125,-0.33984375,0.302734375,-0.21875,-1.1875,-1.24609375,-2.4375,0.41796875,1.0
4226720,36.0133965,129.31949116666667,80.33728125496712,110.57124979332968,4.3,231.0,,-0.97265625,2.33984375,2.10546875,-1.3203125,-0.53125,0.859375,-1.40234375,-6.921875,2.87109375,1.0
4226721,,,,,,,,-2.51953125,-16.734375,9.4453125,-0.244140625,-0.248046875,-1.009765625,-2.85546875,-26.00390625,10.1875,1.0
4226722,,,,,,,,4.89453125,-37.4296875,14.9296875,-0.083984375,-0.244140625,-0.875,4.61328125,-46.6875,15.6640625,1.0
4226723,,,,,,,,24.953125,-60.98828125,29.359375,0.412109375,-0.201171875,-0.568359375,24.7265625,-70.24609375,30.109375,1.0
4226724,,,,,,,,3.4921875,-14.30078125,10.6328125,0.91796875,-0.189453125,-0.306640625,3.3125,-23.546875,11.453125,1.0
4226725,,,,,,,,-0.9375,-1.23828125,3.671875,1.171875,-0.125,-0.142578125,-1.09375,-10.48828125,4.59375,1.0
4226726,,,,,,,,-2.9296875,-1.4375,-0.25,1.099609375,-0.064453125,-0.111328125,-3.0859375,-10.6796875,0.7265625,1.0
4226727,,,,,,,,-6.1171875,-9.78515625,0.19140625,0.88671875,-0.0234375,0.03125,-6.265625,-19.0234375,1.26171875,1.0
4226728,,,,,,,,-2.453125,-15.51953125,5.63671875,0.96484375,0.4140625,2.25390625,-2.7421875,-24.73828125,6.85546875,1.0
4226729,,,,,,,,-1.4609375,-15.83203125,5.4140625,0.396484375,1.080078125,2.373046875,-1.859375,-25.0390625,6.6640625,1.0
4226730,36.01339433333333,129.31948716666665,79.97668969789564,110.33083479586574,4.4,231.0,,1.1015625,-7.19921875,-0.50390625,-1.3203125,-0.53125,0.859375,0.9765625,-16.42578125,0.80078125,1.0
4226731,,,,,,,,1.84375,-6.6328125,-1.26171875,1.921875,0.048828125,-2.806640625,2.0859375,-15.85546875,0.15234375,1.0
4226732,,,,,,,,3.17578125,-4.73828125,0.31640625,3.546875,0.970703125,1.9296875,3.38671875,-13.89453125,2.14453125,1.0
4226733,,,,,,,,3.5,-3.5078125,0.6875,3.384765625,1.10546875,1.7109375,3.6171875,-12.63671875,2.6796875,1.0
4226734,,,,,,,,4.546875,-0.8125,0.46875,2.724609375,1.255859375,0.50390625,4.5390625,-9.87890625,2.7578125,1.0
4226735,,,,,,,,5.48046875,5.203125,-2.5546875,2.42578125,1.37890625,0.0390625,5.41796875,-3.8203125,-0.0390625,1.0
4226736,,,,,,,,5.8515625,7.8046875,-5.01953125,2.625,1.640625,0.48828125,5.7265625,-1.140625,-2.26171875,1.0
4226737,,,,,,,,5.9296875,9.08203125,-5.75390625,2.603515625,1.810546875,1.01953125,5.6875,0.19921875,-2.76171875,1.0
4226738,,,,,,,,5.68359375,9.93359375,-5.77734375,2.404296875,1.7734375,1.056640625,5.37890625,1.08203125,-2.68359375,1.0
4226739,,,,,,,,5.359375,11.15625,-5.12109375,1.943359375,1.51953125,0.658203125,4.92578125,2.3828125,-1.83984375,1.0
4226740,36.013391999999996,129.31948366666666,79.66117251349158,110.07192701501828,4.1000000000000005,233.0,,5.64453125,9.6171875,-5.79296875,2.1171875,1.052734375,-0.064453125,5.11328125,0.9296875,-2.26171875,1.0
4226741,,,,,,,,5.97265625,5.65234375,-7.73828125,2.224609375,0.787109375,0.314453125,5.375,-2.86328125,-3.83203125,1.0
4226742,,,,,,,,5.58984375,3.91796875,-8.0234375,2.1875,0.736328125,0.560546875,4.953125,-4.55078125,-4.0234375,1.0
4226743,,,,,,,,3.76171875,4.4375,-6.96484375,1.62109375,0.61328125,0.9765625,3.00390625,-3.8984375,-2.72265625,1.0
4226744,,,,,,,,2.63671875,5.39453125,-6.078125,1.33984375,0.62109375,0.9609375,1.81640625,-2.8984375,-1.765625,1.0
4226745,,,,,,,,-0.83203125,8.6328125,-4.125,0.83203125,0.654296875,0.779296875,-1.7421875,0.390625,0.265625,1.0
4226746,,,,,,,,-1.55859375,9.5703125,-3.71875,0.591796875,0.681640625,0.6796875,-2.5078125,1.3515625,0.6875,1.0
4226747,,,,,,,,-2.90625,11.8515625,-2.70703125,-0.09765625,0.701171875,0.45703125,-3.93359375,3.6484375,1.72265625,1.0
4226748,,,,,,,,-3.01171875,12.328125,-2.4921875,-1.115234375,0.640625,0.201171875,-4.08203125,4.11328125,1.875,1.0
4226749,,,,,,,,-2.328125,13.26953125,-2.55078125,-2.19140625,0.5390625,-0.03515625,-3.4296875,4.98828125,1.68359375,1.0
4226750,36.0133895,129.31948,79.3306307345125,109.79452590275281,4.2,232.0,,-0.4375,13.2578125,-4.24609375,-2.796875,0.46484375,-0.279296875,-1.5546875,4.87890625,-0.23046875,1.0
4226751,,,,,,,,0.6875,12.59375,-4.6953125,-2.689453125,0.513671875,-0.58203125,-0.40625,4.109375,-0.921875,1.0
4226752,,,,,,,,1.05078125,12.1015625,-4.69921875,-2.455078125,0.5390625,-0.71875,-0.01953125,3.5703125,-1.03515625,1.0
4226753,,,,,,,,1.76171875,9.8046875,-3.9296875,-1.8359375,0.515625,-0.953125,0.74609375,1.19921875,-0.4609375,1.0
4226754,,,,,,,,1.8046875,8.83984375,-3.59375,-1.4453125,0.470703125,-1.037109375,0.82421875,0.19921875,-0.1953125,1.0
4226755,,,,,,,,2.01171875,5.2734375,-1.52734375,-0.623046875,0.421875,-1.130859375,1.12890625,-3.40234375,1.76171875,1.0
4226756,,,,,,,,4.65234375,-3.29296875,2.05859375,0.048828125,0.375,-1.083984375,3.88671875,-11.98046875,5.32421875,1.0
4226757,,,,,,,,1.31640625,-24.0234375,8.00390625,-0.0078125,0.34765625,-0.994140625,0.58984375,-32.70703125,11.26171875,1.0
4226758,,,,,,,,-23.765625,-48.01953125,16.25390625,-0.685546875,0.271484375,-0.47265625,-24.3828125,-56.72265625,19.45703125,1.0
4226759,,,,,,,,-19.609375,-34.21484375,12.68359375,-0.87109375,0.234375,-0.3984375,-20.2109375,-42.9296875,15.85546875,1.0
4226760,36.01338666666666,129.31947616666667,78.98506452630872,109.48013824919292,4.6000000000000005,228.0,,-1.59765625,-3.5,-0.55078125,-2.796875,0.46484375,-0.279296875,-2.16796875,-12.25,2.52734375,1.0
4226761,,,,,,,,7.453125,-10.01171875,-2.54296875,-1.552734375,0.146484375,-0.47265625,6.9140625,-18.796875,0.41796875,1.0
4226762,,,,,,,,12.0703125,-18.078125,5.57421875,-1.72265625,0.490234375,0.02734375,11.546875,-26.921875,8.38671875,1.0
4226763,,,,,,,,9.19140625,-19.26953125,5.21484375,-0.4140625,-0.244140625,0.33203125,8.63671875,-28.140625,7.92578125,1.0
4226764,,,,,,,,6.0859375,-14.3203125,1.8515625,0.57421875,-0.98828125,-0.716796875,5.5703125,-23.203125,4.59375,1.0
4226765,,,,,,,,1.8515625,-5.01953125,-1.671875,-0.607421875,-0.228515625,-3.46484375,1.625,-13.93359375,1.03125,1.0
4226766,,,,,,,,-1.35546875,-2.890625,-1.15625,-0.8125,-0.06640625,-2.33203125,-1.28515625,-11.828125,1.4921875,1.0
4226767,,,,,,,,-2.87890625,-0.95703125,0.09765625,-3.068359375,-0.669921875,1.826171875,-2.81640625,-9.984375,2.48828125,1.0
4226768,,,,,,,,-3.13671875,-0.92578125,-0.32421875,-3.033203125,-1.193359375,0.9296875,-3.19921875,-10.02734375,1.76171875,1.0
4226769,,,,,,,,-5.25390625,0.8984375,-1.79296875,-2.337890625,-1.525390625,-0.3203125,-5.30859375,-8.26953125,0.07421875,1.0
4226770,36.0133845,129.31947316666668,78.71462134003032,109.23972411707454,4.0,228.0,,-6.08984375,3.24609375,-1.98828125,-2.796875,0.46484375,-0.279296875,-2.16796875,-12.25,2.52734375,1.0
4226771,,,,,,,,-6.2578125,9.8046875,-1.42578125,-2.435546875,-2.1953125,0.984375,-6.265625,0.5078125,-0.26953125,1.0
4226772,,,,,,,,-5.375,10.85546875,-0.84765625,-2.23046875,-2.12890625,0.9140625,-5.42578125,1.54296875,0.19140625,1.0
4226773,,,,,,,,-4.65234375,12.265625,-0.61328125,-2.029296875,-1.8046875,0.59375,-4.765625,2.921875,0.15234375,1.0
4226774,,,,,,,,-3.296875,11.015625,-1.17578125,-2.0078125,-1.3984375,0.66796875,-3.47265625,1.65625,-0.61328125,1.0
4226775,,,,,,,,-2.7734375,8.11328125,-1.53515625,-1.970703125,-1.013671875,0.7890625,-3.0078125,-1.25390625,-1.15234375,1.0
4226776,,,,,,,,-2.8515625,7.0390625,-1.41015625,-1.943359375,-0.8828125,0.833984375,-3.12890625,-2.328125,-1.11328125,1.0
4226777,,,,,,,,-3.046875,5.39453125,-0.86328125,-1.7109375,-0.66015625,0.81640625,-3.390625,-3.96875,-0.73046875,1.0
4226778,,,,,,,,-2.328125,5.203125,-0.453125,-1.228515625,-0.67578125,0.689453125,-2.7421875,-4.1640625,-0.4609375,1.0
4226779,,,,,,,,-2.01953125,5.66015625,-0.24609375,-0.884765625,-0.6796875,0.619140625,-2.47265625,-3.70703125,-0.30859375,1.0
4226780,36.013381833333334,129.31946950000003,78.38407966498005,108.9438298314769,4.1000000000000005,229.0,,-0.515625,9.4765625,0.14453125,0.119140625,-0.447265625,0.630859375,-1.0546875,0.125,0.03515625,1.0
4226781,,,,,,,,-0.25390625,11.92578125,-0.421875,0.603515625,-0.310546875,0.7578125,-0.86328125,2.5703125,-0.5,1.0
4226782,,,,,,,,-0.25390625,13.17578125,-0.96875,1.08203125,-0.17578125,0.82421875,-0.94140625,3.8359375,-0.9609375,1.0
4226783,,,,,,,,-0.203125,14.2265625,-1.40234375,1.587890625,-0.3046875,0.29296875,-1.015625,4.9140625,-1.11328125,1.0
4226784,,,,,,,,-0.07421875,13.375,-1.51171875,1.37890625,-0.38671875,-0.08203125,-0.90234375,4.0703125,-1.15234375,1.0
4226785,,,,,,,,0.0703125,11.7578125,-1.49609375,0.919921875,-0.373046875,-0.82421875,-0.7109375,2.4609375,-1.03515625,1.0
4226786,,,,,,,,0.21484375,9.99609375,-1.16015625,0.6953125,-0.353515625,-1.09765625,-0.51953125,0.69921875,-0.65234375,1.0
4226787,,,,,,,,0.328125,6.51171875,-0.6328125,0.328125,-0.275390625,-1.37109375,-0.2890625,-2.78515625,-0.078125,1.0
4226788,,,,,,,,0.34375,5.0078125,-0.34375,0.201171875,-0.23828125,-1.384765625,-0.2109375,-4.28515625,0.2265625,1.0
4226789,,,,,,,,1.01171875,-3.20703125,1.05859375,0.205078125,-0.23046875,-1.068359375,0.62890625,-12.4765625,1.64453125,1.0
4226790,36.013379666666665,129.31946566666664,78.03851272764373,108.70341504940599,4.3,230.0,,2.0078125,-9.52734375,2.26953125,0.119140625,-0.447265625,0.630859375,-1.0546875,0.125,0.03515625,1.0
4226791,,,,,,,,3.125,-41.13671875,14.55078125,0.765625,-0.201171875,-0.466796875,2.8515625,-50.40234375,15.20703125,1.0
4226792,,,,,,,,17.65234375,-53.12890625,38.0625,1.126953125,-0.185546875,-0.16796875,11.96875,-44.50390625,29.953125,1.0
4226793,,,,,,,,2.6328125,-12.73046875,8.8671875,1.345703125,-0.19140625,-0.052734375,2.390625,-21.9765625,9.7265625,1.0
4226794,,,,,,,,-3.2421875,3.046875,-1.8359375,1.232421875,-0.154296875,-0.158203125,-3.46875,-6.1953125,-0.84375,1.0
4226795,,,,,,,,-7.13671875,-4.8984375,-2.734375,0.798828125,-0.130859375,-0.396484375,-7.33984375,-14.12890625,-1.6484375,1.0
4226796,,,,,,,,-4.25390625,-13.5859375,3.66015625,-0.15625,-0.298828125,0.013671875,-4.42578125,-22.82421875,4.78515625,1.0
4226797,,,,,,,,1.4453125,-17.83984375,8.28125,-0.0234375,0.640625,1.291015625,1.203125,-27.0703125,9.3828125,1.0
4226798,,,,,,,,3.98828125,-11.3671875,4.09765625,0.50390625,0.099609375,-3.166015625,3.76953125,-20.6015625,5.24609375,1.0
4226799,,,,,,,,2.52734375,-6.6171875,1.4375,0.8828125,-0.150390625,-5.4609375,2.73828125,-15.85546875,2.640625,1.0
4226800,36.013377500000004,129.31946150000002,77.66289629312843,108.46300001458016,4.5,231.0,0.0,2.01953125,-3.58984375,-2.0703125,3.18359375,0.841796875,0.890625,2.73828125,-12.74609375,-0.4609375,1.0
4226801,,,,,,,,3.87890625,0.0703125,0.57421875,2.728515625,1.357421875,0.828125,4.26953125,-8.99609375,2.79296875,1.0
4226802,,,,,,,,4.26171875,1.28125,-0.0078125,2.384765625,1.48828125,0.162109375,4.61328125,-7.765625,2.3359375,1.0
4226803,,,,,,,,4.1328125,3.140625,-2.1640625,2.21875,1.498046875,-0.306640625,4.4609375,-5.85546875,0.3828125,1.0
4226804,,,,,,,,4.1796875,4.87890625,-3.546875,2.33203125,1.5859375,-0.11328125,4.5,-4.08984375,-0.8828125,1.0
4226805,,,,,,,,3.8671875,6.65625,-4.80859375,2.474609375,1.802734375,0.654296875,4.1171875,-2.25,-1.91796875,1.0
4226806,,,,,,,,3.73828125,7.421875,-5.1484375,2.330078125,1.8046875,1.025390625,3.92578125,-1.4453125,-2.1484375,1.0
4226807,,,,,,,,3.6640625,8.4375,-5.640625,1.974609375,1.62890625,1.353515625,3.69921875,-0.375,-2.453125,1.0
4226808,,,,,,,,3.6328125,8.67578125,-6.00390625,1.859375,1.509765625,1.275390625,3.578125,-0.10546875,-2.72265625,1.0
4226809,,,,,,,,3.6015625,7.00390625,-6.4765625,1.931640625,1.23046875,0.76953125,3.3515625,-1.67578125,-2.953125,1.0
4226810,36.01337516666667,129.319458,77.34737896866459,108.20409231815029,4.0,233.0,,2.55859375,4.48046875,-6.953125,2.0859375,1.03515625,0.736328125,2.19921875,-4.125,-3.2578125,1.0
4226811,,,,,,,,2.484375,3.58203125,-6.69140625,2.107421875,0.802734375,1.03515625,1.96875,-4.89453125,-2.72265625,1.0
4226812,,,,,,,,1.890625,4.1171875,-5.55078125,2.05078125,0.765625,1.126953125,1.3203125,-4.3203125,-1.49609375,1.0
4226813,,,,,,,,1.1796875,5.640625,-4.13671875,1.701171875,0.744140625,1.1640625,0.4765625,-2.71484375,0.07421875,1.0
4226814,,,,,,,,0.53125,8.48046875,-2.359375,0.970703125,0.69140625,1.03515625,-0.2890625,0.19921875,1.95703125,1.0
4226815,,,,,,,,0.5546875,10.55859375,-2.33203125,0.244140625,0.61328125,0.80859375,-0.3671875,2.3046875,2.02734375,1.0
4226816,,,,,,,,0.86328125,11.96875,-2.67578125,-0.111328125,0.591796875,0.65234375,-0.09765625,3.7265625,1.68359375,1.0
4226817,,,,,,,,2.05078125,14.45703125,-3.65625,-1.296875,0.5,-0.013671875,1.01171875,6.171875,0.609375,1.0
4226818,,,,,,,,2.03515625,15.69921875,-3.828125,-1.630859375,0.40625,-0.56640625,1.01171875,7.359375,0.3046875,1.0
4226819,,,,,,,,1.63671875,15.5,-4.06640625,-1.525390625,0.38671875,-0.841796875,0.62890625,7.13671875,-0.00390625,1.0
4226820,36.013372499999996,129.31945433333334,77.01683721085197,107.90819808335976,4.2,231.0,,0.9765625,13.6015625,-4.98828125,2.0859375,1.03515625,0.736328125,0.0546875,5.18359375,-1.03515625,1.0
4226821,,,,,,,,1.47265625,10.1484375,-4.12890625,-0.2890625,0.37109375,-1.859375,0.66796875,1.6953125,-0.23046875,1.0
4226822,,,,,,,,1.921875,8.81640625,-3.578125,-0.0703125,0.328125,-2.0234375,1.203125,0.35546875,0.3046875,1.0
4226823,,,,,,,,3.94140625,3.0703125,-0.3984375,-0.052734375,0.2421875,-2.119140625,3.38671875,-5.39453125,3.484375,1.0
4226824,,,,,,,,4.65234375,-5.49609375,1.85546875,-0.681640625,0.171875,-1.81640625,4.26953125,-13.96875,5.70703125,1.0
4226825,,,,,,,,-0.94140625,-34.46484375,11.625,-0.896484375,0.212890625,-1.14453125,-1.20703125,-42.97265625,15.3984375,1.0
4226826,,,,,,,,-8.91015625,-45.6328125,15.9921875,-0.810546875,0.25390625,-0.7421875,-9.13671875,-54.16015625,19.7265625,1.0
4226827,,,,,,,,-26.55859375,-51.6328125,17.73046875,-0.615234375,0.28515625,0.029296875,-26.76171875,-60.171875,21.41015625,1.0
4226828,,,,,,,,-8.40625,-11.76953125,6.71484375,-0.708984375,0.30078125,0.5234375,-8.640625,-20.33203125,10.33984375,1.0
4226829,,,,,,,,-2.890625,-5.234375,2.87890625,-0.904296875,0.298828125,0.654296875,-3.1640625,-13.8203125,6.47265625,1.0
4226830,36.01336983333333,129.31945033333335,76.65624594010542,107.61230360092397,4.6000000000000005,228.0,,5.4375,-17.3671875,4.1015625,-0.31640625,-0.0234375,0.8515625,4.8828125,-26.08203125,7.3515625,1.0
4226831,,,,,,,,4.00390625,-14.76953125,3.52734375,0.53515625,-1.287109375,-0.43359375,3.46484375,-23.47265625,6.81640625,1.0
4226832,,,,,,,,3.375,-12.80859375,2.515625,-0.193359375,-0.8359375,-1.388671875,2.890625,-21.515625,5.8203125,1.0
4226833,,,,,,,,2.328125,-8.609375,-0.35546875,-0.07421875,-0.513671875,-3.90234375,0.5546875,-14.2734375,1.33984375,1.0
4226834,,,,,,,,-0.46875,-4.265625,-1.90234375,-2.693359375,-0.05078125,-0.9375,-2.28125,-10.64453125,1.64453125,1.0
4226835,,,,,,,,-3.01171875,-1.328125,-0.74609375,-3.703125,-0.896484375,1.734375,-3.125,-10.14453125,2.52734375,1.0
4226836,,,,,,,,-3.2109375,-1.1875,-0.19140625,-3.11328125,-1.033203125,1.357421875,-4.12109375,-9.5234375,2.296875,1.0
4226837,,,,,,,,-4.578125,0.16796875,-0.609375,-2.25390625,-1.3671875,0.048828125,-4.96484375,-7.765625,1.33984375,1.0
4226838,,,,,,,,-5.75390625,4.20703125,-1.625,-2.326171875,-1.798828125,-0.34765625,-5.84765625,-3.5546875,-0.1171875,1.0
4226839,,,,,,,,-5.90625,5.578125,-2.2578125,-2.54296875,-1.958984375,-0.09375,-5.953125,-2.13671875,-0.5390625,1.0
4226840,36.013367333333335,129.319447,76.35575346046758,107.33490286339602,4.0,229.0,,5.4375,-17.3671875,4.1015625,-2.5859375,-2.10546875,0.564453125,-6.19140625,1.16015625,-1.03515625,1.0
4226841,,,,,,,,-5.8515625,12.35546875,-2.69921875,-2.40234375,-2.064453125,0.734375,-5.76953125,3.11328125,-1.03515625,1.0
4226842,,,,,,,,-5.09375,12.05859375,-1.5703125,-2.18359375,-1.359375,0.3828125,-5.078125,2.73046875,-0.421875,1.0
4226843,,,,,,,,-4.578125,10.73046875,-1.66796875,-2.259765625,-1.185546875,0.337890625,-4.58203125,1.38671875,-0.61328125,1.0
4226844,,,,,,,,-4.35546875,8.83203125,-1.43359375,-2.388671875,-0.888671875,0.37109375,-4.38671875,-0.52734375,-0.61328125,1.0
4226845,,,,,,,,-3.78125,5.40234375,-1.015625,-2.37109375,-0.681640625,0.580078125,-3.8515625,-3.97265625,-0.421875,1.0
4226846,,,,,,,,-3.453125,5.25390625,-0.89453125,-2.28125,-0.6015625,0.67578125,-3.546875,-4.125,-0.38671875,1.0
4226847,,,,,,,,-3.0,5.30078125,-0.71484375,-2.109375,-0.578125,0.783203125,-3.125,-4.0859375,-0.30859375,1.0
4226848,,,,,,,,-1.765625,6.4140625,-0.7265625,-1.53515625,-0.5859375,0.904296875,-1.9765625,-2.9765625,-0.5,1.0
4226849,,,,,,,,-0.90234375,7.75390625,-0.50390625,-0.78515625,-0.50390625,0.984375,-1.20703125,-1.63671875,-0.38671875,1.0
4226850,36.013364833333334,129.3194435,76.04023621927458,107.05750200454223,4.0,229.0,,0.37109375,10.12109375,-0.28125,-2.5859375,-2.10546875,0.564453125,-0.01953125,0.73828125,-0.1953125,1.0
4226851,,,,,,,,0.359375,12.59375,-1.23046875,1.23828125,-0.1953125,1.021484375,-0.25,3.2265625,-1.03515625,1.0
4226852,,,,,,,,-0.20703125,12.6953125,-1.33203125,1.517578125,-0.14453125,0.87109375,-0.86328125,3.34765625,-1.07421875,1.0
4226853,,,,,,,,-0.7265625,11.98828125,-1.15234375,1.767578125,-0.2109375,0.423828125,-1.4375,2.6484375,-0.73046875,1.0
4226854,,,,,,,,-1.01953125,11.20703125,-0.765625,1.376953125,-0.392578125,-0.2109375,-1.74609375,1.88671875,-0.1953125,1.0
4226855,,,,,,,,-1.32421875,10.15625,-0.24609375,0.921875,-0.453125,-0.796875,-2.0078125,0.8515625,0.41796875,1.0
4226856,,,,,,,,-1.34375,8.65625,-0.0546875,0.611328125,-0.46875,-1.111328125,-1.9375,-0.640625,0.6875,1.0
4226857,,,,,,,,-1.453125,6.2734375,0.2890625,0.28125,-0.41796875,-1.150390625,-1.9375,-3.01953125,1.0703125,1.0
4226858,,,,,,,,-3.19140625,0.55859375,6.43359375,0.166015625,-0.30078125,-0.955078125,-3.58203125,-8.71875,7.23828125,1.0
4226859,,,,,,,,-3.69921875,-4.9609375,8.30078125,0.19921875,-0.26171875,-0.82421875,-4.04296875,-14.2421875,9.11328125,1.0
4226860,36.01336233333333,129.31943950000002,75.67964472140268,106.78010076970321,4.3,230.0,,12.2578125,-34.89453125,12.77734375,0.50390625,-0.1875,-0.474609375,12.0078125,-44.15625,13.63671875,1.0
4226861,,,,,,,,11.7109375,-50.68359375,22.47265625,1.1015625,-0.021484375,-0.39453125,11.5078125,-59.94140625,23.44140625,1.0
4226862,,,,,,,,0.6640625,-15.6015625,9.69921875,1.2109375,0.021484375,-0.4140625,0.4765625,-24.8515625,10.72265625,1.0
4226863,,,,,,,,-2.2109375,-4.38671875,1.5390625,1.216796875,0.14453125,-0.4453125,-2.359375,-13.62890625,2.6796875,1.0
4226864,,,,,,,,-4.73828125,-11.2578125,0.86328125,1.814453125,0.234375,-0.26171875,-4.84765625,-20.48828125,2.14453125,1.0
4226865,,,,,,,,-4.1875,-14.4609375,3.96875,2.068359375,0.359375,1.482421875,-4.3515625,-23.66796875,5.4375,1.0
4226866,,,,,,,,-2.8671875,-15.2421875,4.03515625,1.373046875,1.009765625,2.25390625,-3.125,-24.43359375,5.58984375,1.0
4226867,,,,,,,,0.109375,-11.0,1.421875,0.53125,0.34375,-0.787109375,-0.3671875,-20.18359375,3.0234375,1.0
4226868,,,,,,,,1.62109375,-6.5078125,-1.67578125,1.71484375,0.123046875,-4.41015625,1.39453125,-15.69921875,0.03515625,1.0
4226869,,,,,,,,2.0546875,-5.8828125,-2.734375,2.322265625,0.095703125,-4.22265625,2.046875,-15.046875,-0.921875,1.0
4226870,36.013360166666665,129.31943583333333,75.34910237545462,106.53968622349329,4.2,230.0,,3.56640625,-5.0078125,-2.37890625,3.529296875,0.662109375,-0.52734375,3.76953125,-14.125,-0.30859375,1.0
4226871,,,,,,,,3.97265625,-4.01171875,-1.76171875,3.69921875,0.8671875,0.98828125,4.15234375,-13.0859375,0.49609375,1.0
4226872,,,,,,,,5.37890625,-0.59765625,-0.3203125,3.248046875,1.3125,1.248046875,5.41796875,-9.60546875,2.2578125,1.0
4226873,,,,,,,,5.7109375,0.6328125,-0.5859375,2.634765625,1.419921875,0.193359375,5.6484375,-8.3046875,2.2578125,1.0
4226874,,,,,,,,4.5390625,6.953125,-4.703125,2.83203125,1.767578125,0.39453125,4.3828125,-1.828125,-1.3828125,1.0
4226875,,,,,,,,3.5703125,9.35546875,-6.78125,2.7578125,1.83984375,0.787109375,3.35546875,0.62109375,-3.3359375,1.0
4226876,,,,,,,,3.5234375,9.5859375,-7.265625,2.306640625,1.671875,1.212890625,3.15625,0.9296875,-3.60546875,1.0
4226877,,,,,,,,3.14453125,8.9609375,-6.94140625,1.888671875,1.34765625,0.97265625,2.62109375,0.390625,-3.1015625,1.0
4226878,,,,,,,,3.23828125,8.43359375,-6.96484375,1.810546875,1.001953125,0.44140625,2.62109375,-0.06640625,-2.98828125,1.0
4226879,,,,,,,,4.0234375,5.015625,-6.6328125,1.916015625,0.681640625,0.109375,3.3515625,-3.40234375,-2.4921875,1.0
4226880,36.01335766666667,129.31943166666667,74.97348608626714,106.26228488999408,4.1000000000000005,233.0,,4.0546875,4.015625,-6.59765625,3.529296875,0.662109375,-0.52734375,3.3515625,-4.3203125,-2.30078125,1.0
4226881,,,,,,,,3.45703125,2.61328125,-5.90234375,2.20703125,0.53515625,0.59765625,2.69921875,-5.6171875,-1.41796875,1.0
4226882,,,,,,,,2.84375,3.1015625,-5.140625,1.994140625,0.552734375,0.806640625,2.046875,-5.08984375,-0.578125,1.0
4226883,,,,,,,,1.4140625,5.58984375,-3.39453125,1.240234375,0.513671875,1.080078125,0.515625,-2.51953125,1.30078125,1.0
4226884,,,,,,,,0.91796875,7.71875,-3.07421875,0.431640625,0.43359375,1.107421875,-0.09765625,-0.3359375,1.6796875,1.0
4226885,,,,,,,,0.4375,12.109375,-3.640625,-0.330078125,0.3515625,0.896484375,-0.671875,4.0703125,1.109375,1.0
4226886,,,,,,,,0.7890625,13.95703125,-4.8203125,-1.080078125,0.20703125,0.30859375,-0.40625,5.8671875,-0.15625,1.0
4226887,,,,,,,,1.7421875,15.55859375,-6.234375,-1.2578125,0.16796875,-0.572265625,0.5546875,7.3984375,-1.7265625,1.0
4226888,,,,,,,,1.9453125,14.00390625,-6.1328125,-0.90625,0.201171875,-1.26171875,0.8203125,5.7890625,-1.7265625,1.0
4226889,,,,,,,,2.0390625,13.03125,-6.0546875,-0.685546875,0.193359375,-1.55859375,0.9765625,4.796875,-1.6875,1.0
4226890,36.013355000000004,129.31942816666665,74.65796891999399,105.96639087346844,4.4,229.0,,2.1640625,9.76953125,-4.97265625,3.529296875,0.662109375,-0.52734375,1.2421875,1.50390625,-0.65234375,1.0
4226891,,,,,,,,2.8359375,6.67578125,-3.3203125,0.013671875,0.166015625,-2.189453125,2.08984375,-1.59765625,0.9921875,1.0
4226892,,,,,,,,5.16015625,1.43359375,-0.16796875,-0.111328125,0.15625,-1.931640625,4.57421875,-6.84375,4.13671875,1.0
4226893,,,,,,,,5.5859375,-14.21875,5.34765625,-0.478515625,0.146484375,-1.275390625,5.1484375,-22.515625,9.61328125,1.0
4226894,,,,,,,,-0.3828125,-35.984375,13.30078125,-0.609375,0.23828125,-0.13671875,-0.75,-44.31640625,17.50390625,1.0
4226895,,,,,,,,-30.28515625,-40.328125,11.640625,-0.853515625,0.232421875,0.322265625,-30.66796875,-48.6796875,15.78125,1.0
4226896,,,,,,,,-8.8984375,-12.96875,5.828125,-1.181640625,0.22265625,0.43359375,-9.328125,-21.37109375,9.8828125,1.0
4226897,,,,,,,,2.0859375,-1.07421875,0.3828125,-1.6015625,0.240234375,0.33203125,1.625,-9.5234375,4.328125,1.0
4226898,,,,,,,,14.9140625,-14.296875,-2.48828125,-2.19921875,0.6953125,0.537109375,14.3828125,-22.859375,1.18359375,1.0
4226899,,,,,,,,9.54296875,-19.24609375,1.90625,-0.888671875,0.01953125,0.556640625,8.94140625,-27.87890625,5.4375,1.0
4226900,36.01335266666667,129.31942433333333,74.31240192440693,105.70748303091065,4.5,229.0,0.0,6.6953125,-14.04296875,3.8359375,0.86328125,-1.4609375,-0.365234375,6.109375,-22.66796875,7.390625,1.0
4226901,,,,,,,,2.6015625,-7.0625,-1.2890625,-0.037109375,-0.39453125,-2.466796875,2.1640625,-15.69921875,2.296875,1.0
4226902,,,,,,,,1.5390625,-6.3984375,-3.08984375,0.18359375,-0.353515625,-3.4921875,1.2421875,-15.046875,0.49609375,1.0
4226903,,,,,,,,-1.9609375,-4.765625,-3.72265625,-3.123046875,-0.0078125,-0.283203125,-1.8984375,-13.4765625,-0.26953125,1.0
4226904,,,,,,,,-2.85546875,-1.96484375,-2.171875,-4.134765625,-0.33984375,1.619140625,-2.81640625,-10.75,1.109375,1.0
4226905,,,,,,,,-3.44921875,-1.44140625,-0.59375,-4.109375,-1.015625,2.337890625,-3.58203125,-10.3671875,2.296875,1.0
4226906,,,,,,,,-6.22265625,2.55859375,-2.09765625,-2.9921875,-1.30078125,0.515625,-6.45703125,-6.4609375,0.49609375,1.0
4226907,,,,,,,,-7.17578125,7.15625,-3.26171875,-2.591796875,-1.79296875,-0.126953125,-7.33984375,-1.984375,-1.03515625,1.0
4226908,,,,,,,,-6.61328125,11.3125,-3.01171875,-2.765625,-2.125,0.78515625,-6.76171875,2.1171875,-1.03515625,1.0
4226909,,,,,,,,-6.29296875,12.64453125,-2.58203125,-2.658203125,-2.171875,1.017578125,-6.453125,3.41796875,-0.73046875,1.0
4226910,36.013349833333336,129.319421,74.01190961972019,105.3930959574983,4.1000000000000005,228.0,,-5.47265625,13.7734375,-1.8046875,0.86328125,-1.4609375,-0.365234375,6.109375,-22.66796875,7.390625,1.0
4226911,,,,,,,,-4.4375,13.7265625,-1.5859375,-2.509765625,-1.708984375,0.451171875,-4.69921875,4.4140625,-0.1953125,1.0
4226912,,,,,,,,-3.96875,13.0234375,-1.7265625,-2.54296875,-1.5234375,0.333984375,-4.234375,3.6875,-0.4609375,1.0
4226913,,,,,,,,-3.07421875,9.40625,-2.65625,-2.5546875,-1.130859375,0.37109375,-3.3515625,0.046875,-1.609375,1.0
4226914,,,,,,,,-3.36328125,6.3984375,-2.5625,-2.4921875,-0.982421875,0.4765625,-3.66015625,-2.9765625,-1.6484375,1.0
4226915,,,,,,,,-3.77734375,3.890625,-1.58984375,-2.130859375,-0.712890625,0.880859375,-4.16015625,-5.5078125,-0.99609375,1.0
4226916,,,,,,,,-2.76171875,2.671875,-0.21484375,-1.626953125,-0.666015625,0.998046875,-3.23828125,-6.734375,0.19140625,1.0
4226917,,,,,,,,-2.28515625,3.2421875,0.11328125,-1.310546875,-0.625,0.990234375,-2.81640625,-6.15625,0.45703125,1.0
4226918,,,,,,,,2.0234375,11.5,-0.99609375,0.283203125,-0.34375,1.3046875,1.2421875,2.12109375,-0.76953125,1.0
4226919,,,,,,,,2.2109375,12.44921875,-1.125,0.50390625,-0.330078125,1.404296875,1.359375,3.07421875,-0.8828125,1.0
4226920,36.01334733333333,129.3194175,73.69639223440853,105.1156951837273,4.1000000000000005,229.0,,2.2734375,13.99609375,-1.28125,0.86328125,-1.4609375,-0.365234375,6.109375,-22.66796875,7.390625,1.0
4226921,,,,,,,,0.875,14.8828125,-1.60546875,1.72265625,-0.33203125,0.4375,-0.25,5.56640625,-1.11328125,1.0
4226922,,,,,,,,-0.3203125,13.64453125,-1.73828125,1.66796875,-0.4375,-0.517578125,-1.4375,4.3359375,-1.07421875,1.0
4226923,,,,,,,,-0.7890625,11.71875,-1.39453125,0.873046875,-0.515625,-1.326171875,-1.8203125,2.42578125,-0.61328125,1.0
4226924,,,,,,,,-1.015625,8.80859375,-0.76171875,-0.10546875,-0.486328125,-1.845703125,-1.86328125,-1.59765625,0.19140625,1.0
4226925,,,,,,,,-1.1484375,5.0546875,-0.1796875,-0.5625,-0.46484375,-1.69140625,-2.08984375,-5.734375,1.26171875,1.0
4226926,,,,,,,,-1.45703125,3.57421875,0.45703125,-0.66796875,-0.44140625,-1.517578125,-2.55078125,-7.6875,2.48828125,1.0
4226927,,,,,,,,-3.015625,-7.87890625,6.91796875,-0.509765625,-0.36328125,-1.052734375,-3.5078125,-17.19140625,7.66015625,1.0
4226928,,,,,,,,3.86328125,-33.3125,14.43359375,0.046875,-0.30078125,-0.515625,3.46484375,-42.62890625,15.12890625,1.0
4226929,,,,,,,,15.9453125,-50.0625,25.48828125,0.564453125,-0.232421875,-0.158203125,15.609375,-59.37109375,26.19921875,1.0
4226930,36.013344999999994,129.3194135,73.33580042907462,104.85678725425144,4.4,230.0,,3.01953125,-7.38671875,6.52734375,0.806640625,-0.125,-0.109375,2.69921875,-16.69140625,7.31640625,1.0
4226931,,,,,,,,-2.97265625,-5.2421875,0.2109375,0.654296875,0.013671875,-0.259765625,-3.27734375,-14.546875,1.0703125,1.0
4226932,,,,,,,,-4.40625,-7.12890625,-0.31640625,0.564453125,0.09375,-0.361328125,-4.6953125,-16.421875,0.57421875,1.0
4226933,,,,,,,,-5.1171875,-13.80078125,4.31640625,1.01953125,0.197265625,-0.234375,-5.3828125,-23.0859375,5.28515625,1.0
4226934,,,,,,,,-3.83984375,-15.6875,5.125,0.388671875,0.580078125,1.27734375,-4.16015625,-24.97265625,6.1640625,1.0
4226935,,,,,,,,-0.375,-13.265625,2.95703125,0.216796875,0.3515625,0.34375,-0.7890625,-22.5546875,4.01953125,1.0
4226936,,,,,,,,1.90234375,-8.0859375,1.1953125,0.81640625,0.13671875,-4.6953125,1.81640625,-17.3828125,2.3359375,1.0
4226937,,,,,,,,2.375,-6.359375,1.1015625,1.373046875,0.169921875,-4.40625,2.5078125,-15.65625,2.296875,1.0
4226938,,,,,,,,1.6796875,-4.66796875,0.68359375,2.70703125,0.7265625,-1.033203125,2.0859375,-13.9296875,2.06640625,1.0
4226939,,,,,,,,1.6328125,-3.16015625,0.22265625,3.037109375,0.998046875,0.416015625,2.046875,-12.3984375,1.76171875,1.0
4226940,36.01334266666667,129.3194095,72.97520860174119,104.5978793400055,4.3,231.0,,2.35546875,-0.07421875,-1.45703125,0.806640625,-0.125,-0.109375,2.69921875,-16.69140625,7.31640625,1.0
4226941,,,,,,,,3.67578125,2.0546875,-2.93359375,2.556640625,1.49609375,-0.0078125,3.88671875,-7.078125,-0.73046875,1.0
4226942,,,,,,,,5.0234375,3.83203125,-3.28125,2.5859375,1.529296875,0.05078125,5.2265625,-5.2734375,-0.9609375,1.0
4226943,,,,,,,,5.83203125,5.5859375,-3.140625,2.638671875,1.775390625,0.6875,5.91796875,-3.4375,-0.4609375,1.0
4226944,,,,,,,,5.10546875,7.1640625,-3.7578125,2.484375,1.794921875,0.787109375,5.0703125,-1.7890625,-0.84375,1.0
4226945,,,,,,,,3.30078125,7.82421875,-5.94921875,2.4375,1.369140625,0.71875,3.04296875,-0.98828125,-2.60546875,1.0
4226946,,,,,,,,2.8046875,7.12890625,-6.390625,2.380859375,1.126953125,1.08203125,2.4296875,-1.59765625,-2.8359375,1.0
4226947,,,,,,,,2.6015625,6.55078125,-6.5234375,2.263671875,0.9921875,1.23828125,2.1640625,-2.13671875,-2.87890625,1.0
4226948,,,,,,,,2.2890625,4.55078125,-6.20703125,1.998046875,0.73828125,1.328125,1.703125,-4.05078125,-2.37890625,1.0
4226949,,,,,,,,2.23046875,3.96484375,-5.87109375,1.80859375,0.5625,1.146484375,1.51171875,-4.546875,-1.87890625,1.0
4226950,36.01334033333333,129.31940566666665,72.629641500538,104.33897156410112,4.2,233.0,,1.11328125,4.80859375,-4.05859375,1.576171875,0.5859375,0.9140625,2.69921875,-16.69140625,7.31640625,1.0
4226951,,,,,,,,0.73828125,7.39453125,-3.203125,1.029296875,0.587890625,0.787109375,-0.17578125,-0.98828125,1.03125,1.0
4226952,,,,,,,,0.94140625,9.40234375,-3.5390625,0.677734375,0.54296875,0.7421875,-0.01953125,1.0390625,0.7265625,1.0
4226953,,,,,,,,1.81640625,14.296875,-4.49609375,-0.83984375,0.287109375,0.205078125,0.70703125,5.94921875,-0.26953125,1.0
4226954,,,,,,,,2.16796875,15.65625,-4.52734375,-0.89453125,0.2578125,0.00390625,1.05078125,7.2890625,-0.34765625,1.0
4226955,,,,,,,,1.8828125,15.5703125,-4.41796875,-0.537109375,0.2734375,-0.517578125,0.78125,7.171875,-0.30859375,1.0
4226956,,,,,,,,1.67578125,12.59765625,-4.39453125,-0.0234375,0.337890625,-1.146484375,0.62890625,4.1796875,-0.30859375,1.0
4226957,,,,,,,,1.73828125,11.48828125,-4.31640625,0.123046875,0.3359375,-1.427734375,0.74609375,3.07421875,-0.23046875,1.0
4226958,,,,,,,,2.26171875,9.41796875,-3.7890625,0.177734375,0.322265625,-1.822265625,1.390625,1.00390625,0.3046875,1.0
4226959,,,,,,,,2.65234375,8.33984375,-3.484375,0.123046875,0.310546875,-1.892578125,1.8515625,-0.06640625,0.609375,1.0
4226960,36.013337666666665,129.319402,72.29909943595734,104.0430775094739,4.5,230.0,,4.15234375,4.36328125,-0.7265625,1.576171875,0.5859375,0.9140625,2.69921875,-16.69140625,7.31640625,1.0
4226961,,,,,,,,4.1328125,-7.0,1.49609375,-0.53515625,0.232421875,-1.4140625,3.6171875,-15.4296875,5.55078125,1.0
4226962,,,,,,,,1.05859375,-26.48046875,6.87109375,-0.654296875,0.228515625,-0.74609375,0.62890625,-34.92578125,10.87890625,1.0
4226963,,,,,,,,-17.390625,-60.89453125,20.4453125,-0.55078125,0.23046875,-0.0703125,-17.796875,-69.359375,24.3984375,1.0
4226964,,,,,,,,-8.1640625,-16.91796875,9.90625,-0.560546875,0.19140625,0.40234375,-8.6015625,-25.421875,13.7890625,1.0
4226965,,,,,,,,0.9609375,-2.33984375,3.2265625,-0.93359375,0.189453125,0.4609375,0.4765625,-10.87109375,7.046875,1.0
4226966,,,,,,,,9.02734375,-0.36328125,-3.515625,-1.228515625,0.216796875,0.396484375,8.51953125,-8.9140625,0.265625,1.0
4226967,,,,,,,,12.24609375,-7.32421875,-4.85546875,-1.203125,0.478515625,0.40234375,11.69921875,-15.921875,-1.19140625,1.0
4226968,,,,,,,,9.7421875,-13.8125,-0.65234375,0.19921875,0.359375,0.630859375,9.1328125,-22.4375,2.94921875,1.0
4226969,,,,,,,,7.9453125,-14.44921875,2.984375,0.8671875,-0.71875,0.30078125,7.296875,-23.046875,6.6640625,1.0
4226970,36.01333533333333,129.31939816666667,71.95353229563398,103.78416976061821,4.5,229.0,,-0.18359375,-7.35546875,-1.7265625,-0.734375,-0.341796875,-4.015625,-0.55859375,-16.0,1.9140625,1.0
4226971,,,,,,,,-1.0703125,-4.80859375,-2.98828125,-1.998046875,-0.583984375,-2.921875,-1.09375,-13.5078125,0.53515625,1.0
4226972,,,,,,,,-1.1484375,-3.421875,-3.1953125,-2.869140625,-0.54296875,-0.830078125,-1.09375,-12.171875,0.2265625,1.0
4226973,,,,,,,,-2.17578125,-0.43359375,-3.75390625,-2.990234375,-1.033203125,2.228515625,-2.16796875,-9.30078125,-0.61328125,1.0
4226974,,,,,,,,-2.73828125,-0.1171875,-4.20703125,-2.767578125,-1.140625,2.572265625,-2.81640625,-9.03515625,-1.19140625,1.0
4226975,,,,,,,,-4.96484375,4.8125,-2.87890625,-2.552734375,-1.537109375,0.740234375,-5.265625,-4.2421875,-0.30859375,1.0
4226976,,,,,,,,-5.046875,8.63671875,-1.79296875,-2.77734375,-1.953125,0.783203125,-5.38671875,-0.52734375,0.41796875,1.0
4226977,,,,,,,,-5.0703125,9.38671875,-2.05078125,-2.74609375,-1.986328125,0.865234375,-5.42578125,0.19921875,0.03515625,1.0
4226978,,,,,,,,-4.81640625,11.0390625,-2.37890625,-2.529296875,-1.7265625,0.96875,-5.2265625,1.7734375,-0.65234375,1.0
4226979,,,,,,,,-4.85546875,11.25390625,-2.4609375,-2.48828125,-1.580078125,1.080078125,-5.3046875,1.96484375,-0.84375,1.0
4226980,36.01333316666667,129.31939466666665,71.6380144842983,103.54375547778399,4.2,231.0,,-4.9140625,11.51171875,-2.16015625,-2.400390625,-1.248046875,1.4453125,-0.55859375,-16.0,1.9140625,1.0
4226981,,,,,,,,-4.12890625,8.93359375,-1.2890625,-2.322265625,-0.9921875,1.591796875,-4.8046875,-0.41015625,-0.1171875,1.0
4226982,,,,,,,,-3.76171875,7.40625,-1.1484375,-2.208984375,-0.900390625,1.505859375,-4.50390625,-1.9453125,-0.078125,1.0
4226983,,,,,,,,-2.30859375,4.05078125,-1.05078125,-1.8203125,-0.6328125,1.04296875,-3.27734375,-5.31640625,-0.34765625,1.0
4226984,,,,,,,,-0.078125,5.8125,-1.578125,-1.6640625,-0.595703125,1.03125,-1.09375,-3.55859375,-0.9609375,1.0
4226985,,,,,,,,0.8359375,7.72265625,-1.828125,-0.8203125,-0.494140625,1.193359375,-0.328125,-1.6328125,-1.3828125,1.0
4226986,,,,,,,,1.03125,10.83984375,-1.94140625,0.052734375,-0.310546875,1.208984375,-0.25,1.50390625,-1.53125,1.0
4226987,,,,,,,,1.0078125,11.55859375,-1.91796875,0.552734375,-0.263671875,1.1484375,-0.328125,2.2265625,-1.49609375,1.0
4226988,,,,,,,,0.83984375,13.8359375,-1.55078125,1.57421875,-0.20703125,0.93359375,-0.59765625,4.53125,-1.03515625,1.0
4226989,,,,,,,,0.421875,14.546875,-1.1015625,1.806640625,-0.234375,0.685546875,-1.0546875,5.2578125,-0.5,1.0
4226990,36.0133305,129.31939066666666,71.2774228529994,103.2478612173166,4.4,231.0,,0.0625,14.29296875,-0.76953125,-2.400390625,-1.248046875,1.4453125,-1.4375,5.02734375,-0.00390625,1.0
4226991,,,,,,,,0.15234375,12.25390625,-0.46484375,0.943359375,-0.388671875,-1.13671875,-1.28515625,2.99609375,0.41796875,1.0
4226992,,,,,,,,0.203125,10.4609375,-0.6171875,0.513671875,-0.3828125,-1.482421875,-1.171875,1.19921875,0.3046875,1.0
4226993,,,,,,,,0.27734375,8.515625,-0.59375,-0.1484375,-0.326171875,-1.8359375,-0.94140625,-0.7578125,0.34375,1.0
4226994,,,,,,,,-0.0546875,5.92578125,-0.6015625,-0.560546875,-0.3359375,-1.8125,-1.09375,-3.359375,0.3046875,1.0
4226995,,,,,,,,-1.16015625,4.06640625,1.52734375,-0.662109375,-0.353515625,-1.474609375,-2.05078125,-5.234375,2.37109375,1.0
4226996,,,,,,,,-3.63671875,0.46484375,7.0390625,-0.525390625,-0.349609375,-1.21875,-4.46484375,-8.8359375,7.8515625,1.0
4226997,,,,,,,,-2.95703125,-6.20703125,4.6015625,0.349609375,-0.314453125,-0.51953125,-3.66015625,-15.50390625,5.3984375,1.0
4226998,,,,,,,,9.8046875,-29.1171875,7.49609375,0.8203125,-0.30078125,-0.28125,9.1328125,-38.41796875,8.34765625,1.0
4226999,,,,,,,,16.80078125,-41.390625,10.828125,0.931640625,-0.265625,-0.25,16.14453125,-50.67578125,11.71875,1.0
4227000,36.013328,129.31938666666667,70.91683104836954,102.97046017996477,4.5,230.0,0.0,-2.1640625,-11.2578125,-0.109375,0.740234375,0.01171875,-0.849609375,-2.703125,-20.52734375,0.9921875,1.0
4227001,,,,,,,,-5.359375,-12.8359375,0.73046875,2.021484375,0.13671875,-0.63671875,-5.765625,-22.09765625,2.02734375,1.0
4227002,,,,,,,,-6.3359375,-13.578125,2.60546875,1.56640625,0.287109375,-0.05078125,-6.7265625,-22.8203125,3.98046875,1.0
4227003,,,,,,,,-3.98046875,-14.61328125,3.671875,-0.470703125,0.67578125,0.83203125,-4.42578125,-23.8515625,5.09375,1.0
4227004,,,,,,,,0.48828125,-10.046875,0.8515625,-0.083984375,0.205078125,0.06640625,-0.01953125,-19.296875,2.21875,1.0
4227005,,,,,,,,2.34375,-8.36328125,1.43359375,1.28125,0.146484375,-3.517578125,2.0078125,-17.609375,2.87109375,1.0
4227006,,,,,,,,2.671875,-6.859375,1.625,1.77734375,0.138671875,-3.744140625,2.5078125,-16.1171875,3.140625,1.0
4227007,,,,,,,,2.7890625,-5.4375,0.71484375,2.94921875,0.720703125,-1.09765625,2.8515625,-14.66796875,2.44921875,1.0
4227008,,,,,,,,3.6484375,-0.81640625,-1.94140625,3.099609375,1.25390625,0.607421875,3.6953125,-9.98828125,0.07421875,1.0
4227009,,,,,,,,4.17578125,0.80859375,-2.578125,2.88671875,1.404296875,0.490234375,4.19140625,-8.3359375,-0.421875,1.0
4227010,36.01332583333333,129.31938266666666,70.55623892192507,102.73004557273333,4.3,232.0,,5.7421875,4.859375,-3.4609375,0.740234375,0.01171875,-0.849609375,5.69140625,-4.203125,-0.9609375,1.0
4227011,,,,,,,,5.90234375,6.796875,-3.46484375,2.455078125,1.568359375,0.2890625,5.80078125,-2.2109375,-0.73046875,1.0
4227012,,,,,,,,5.828125,6.91796875,-3.4140625,2.46875,1.609375,0.3828125,5.6875,-2.05859375,-0.578125,1.0
4227013,,,,,,,,2.796875,8.65234375,-6.0625,2.462890625,1.365234375,0.30859375,2.5078125,-0.18359375,-2.796875,1.0
4227014,,,,,,,,2.60546875,8.4609375,-6.328125,2.455078125,1.25390625,0.39453125,2.27734375,-0.3359375,-2.95703125,1.0
4227015,,,,,,,,2.61328125,7.49609375,-6.7578125,2.34375,1.03515625,0.771484375,2.19921875,-1.21484375,-3.18359375,1.0
4227016,,,,,,,,2.71875,5.453125,-7.1484375,1.744140625,0.669921875,1.10546875,2.125,-3.1328125,-3.30078125,1.0
4227017,,,,,,,,2.6875,3.8125,-6.26171875,1.564453125,0.58203125,1.07421875,2.046875,-4.74609375,-2.33984375,1.0
4227018,,,,,,,,1.76171875,3.359375,-4.0859375,1.48046875,0.546875,0.962890625,1.01171875,-5.12890625,-0.0390625,1.0
4227019,,,,,,,,1.50390625,3.71875,-3.484375,1.466796875,0.568359375,0.9453125,0.70703125,-4.7421875,0.609375,1.0
4227020,36.01332333333333,129.31937916666666,70.24072133445267,102.45264492528668,4.2,232.0,,0.96875,5.80859375,-2.51953125,0.90625,0.541015625,1.01953125,0.015625,-2.5546875,1.72265625,1.0
4227021,,,,,,,,1.109375,9.5625,-3.44921875,0.369140625,0.494140625,1.09765625,0.0546875,1.23828125,0.83984375,1.0
4227022,,,,,,,,1.28125,10.62109375,-3.87109375,0.072265625,0.458984375,1.107421875,0.171875,2.3046875,0.41796875,1.0
4227023,,,,,,,,3.12890625,14.859375,-5.20703125,-0.67578125,0.341796875,0.294921875,1.81640625,6.5234375,-1.03515625,1.0
4227024,,,,,,,,2.5625,14.55859375,-4.6796875,-0.466796875,0.3359375,-0.115234375,1.2421875,6.21484375,-0.5390625,1.0
4227025,,,,,,,,1.796875,12.3515625,-3.8515625,0.044921875,0.31640625,-1.060546875,0.515625,3.99609375,0.265625,1.0
4227026,,,,,,,,1.83984375,10.58203125,-3.33203125,0.33984375,0.291015625,-1.837890625,0.66796875,2.23046875,0.80078125,1.0
4227027,,,,,,,,1.953125,9.9765625,-3.18359375,0.369140625,0.2890625,-2.05859375,0.859375,1.62109375,0.95703125,1.0
4227028,,,,,,,,2.625,8.0625,-3.0859375,0.177734375,0.271484375,-2.13671875,1.70703125,-0.296875,1.0703125,1.0
4227029,,,,,,,,2.8515625,7.5625,-3.0078125,-0.046875,0.26953125,-1.990234375,2.0078125,-0.796875,1.1484375,1.0
4227030,36.0133205,129.3193755,69.91017926562529,102.13825775277073,4.5,229.0,,3.74609375,6.3984375,-2.2890625,0.90625,0.541015625,1.01953125,0.015625,-2.5546875,1.72265625,1.0
4227031,,,,,,,,5.890625,2.1328125,0.04296875,-0.75390625,0.27734375,-0.544921875,5.265625,-6.2734375,4.09765625,1.0
4227032,,,,,,,,3.1640625,-15.08984375,1.90625,-0.6328125,0.3046875,-0.00390625,2.546875,-23.51171875,5.8984375,1.0
4227033,,,,,,,,-5.59375,-46.33203125,12.5703125,-0.59375,0.306640625,0.119140625,-6.2265625,-54.76953125,16.5078125,1.0
4227034,,,,,,,,-23.9375,-34.46484375,15.9296875,-0.763671875,0.291015625,0.03515625,-24.578125,-42.9296875,19.8046875,1.0
4227035,,,,,,,,-2.69921875,-6.859375,3.12109375,-1.287109375,0.197265625,-0.0625,-3.35546875,-15.39453125,6.85546875,1.0
4227036,,,,,,,,10.90234375,-3.578125,-5.11328125,-1.9453125,0.154296875,0.0078125,10.24609375,-12.17578125,-1.49609375,1.0
4227037,,,,,,,,13.72265625,-11.4921875,-0.20703125,-1.044921875,0.5703125,0.673828125,13.00390625,-20.18359375,3.17578125,1.0
4227038,,,,,,,,7.96875,-11.921875,1.359375,1.181640625,-0.41796875,0.7265625,7.1796875,-20.6015625,4.75,1.0
4227039,,,,,,,,4.484375,-8.734375,-0.57421875,-1.734375,0.087890625,-2.59375,2.5078125,-15.50390625,1.8359375,1.0
4227040,36.01331783333333,129.319372,69.59466177801269,101.84236392060656,4.4,227.0,,3.74609375,6.3984375,-2.2890625,-0.41796875,-0.208984375,-4.0078125,-0.44140625,-13.40234375,-0.15625,1.0
4227041,,,,,,,,-1.01171875,-4.171875,-3.2890625,-2.416015625,-0.38671875,-0.505859375,-1.62890625,-12.3203125,0.265625,1.0
4227042,,,,,,,,-1.7421875,-2.1796875,-2.46484375,-3.470703125,-0.623046875,1.580078125,-1.8984375,-11.06640625,0.53515625,1.0
4227043,,,,,,,,-3.46875,1.03515625,-2.47265625,-2.875,-1.224609375,1.8984375,-3.890625,-7.9921875,0.07421875,1.0
4227044,,,,,,,,-5.0546875,4.18359375,-3.33984375,-2.28515625,-1.58203125,0.201171875,-5.54296875,-4.93359375,-1.11328125,1.0
4227045,,,,,,,,-5.68359375,7.80859375,-3.375,-2.857421875,-1.90625,0.474609375,-6.1484375,-1.37109375,-1.3828125,1.0
4227046,,,,,,,,-5.703125,9.14453125,-3.2109375,-2.978515625,-1.982421875,0.716796875,-6.1875,-0.06640625,-1.34375,1.0
4227047,,,,,,,,-5.3671875,11.640625,-2.453125,-2.74609375,-1.916015625,0.8671875,-5.8828125,2.3828125,-0.84375,1.0
4227048,,,,,,,,-5.01171875,12.33203125,-1.796875,-2.494140625,-1.654296875,0.640625,-5.57421875,3.03515625,-0.421875,1.0
4227049,,,,,,,,-4.8828125,12.42578125,-1.64453125,-2.478515625,-1.482421875,0.52734375,-5.46484375,3.11328125,-0.38671875,1.0
4227050,36.0133155,129.31936883333336,69.30919349389502,101.5834567526344,4.0,228.0,,-3.71875,9.55078125,-1.4609375,-2.5,-1.01171875,0.62890625,-4.35546875,0.19921875,-0.5390625,1.0
4227051,,,,,,,,-3.484375,5.546875,-1.0390625,-2.2734375,-0.533203125,1.0390625,-4.2734375,-3.8203125,-0.578125,1.0
4227052,,,,,,,,-2.83203125,4.6640625,-0.7890625,-2.099609375,-0.513671875,1.06640625,-3.66015625,-4.70703125,-0.421875,1.0
4227053,,,,,,,,-1.95703125,5.5078125,-0.41796875,-1.638671875,-0.529296875,1.087890625,-2.89453125,-3.86328125,-0.23046875,1.0
4227054,,,,,,,,-0.67578125,7.17578125,-0.41015625,-0.9765625,-0.494140625,1.119140625,-1.70703125,-2.171875,-0.34765625,1.0
4227055,,,,,,,,0.20703125,9.1171875,-0.546875,-0.19921875,-0.326171875,1.1953125,-0.94140625,-0.21875,-0.5390625,1.0
4227056,,,,,,,,0.5390625,10.02734375,-0.73828125,0.18359375,-0.25,1.22265625,-0.671875,0.69921875,-0.73046875,1.0
4227057,,,,,,,,1.3359375,12.30078125,-1.3671875,0.8515625,-0.087890625,1.19921875,0.015625,2.99609375,-1.3046875,1.0
4227058,,,,,,,,1.78515625,14.1953125,-1.5390625,1.380859375,-0.072265625,0.953125,0.36328125,4.91796875,-1.3828125,1.0
4227059,,,,,,,,1.82421875,14.4609375,-1.68359375,1.412109375,-0.173828125,0.666015625,0.36328125,5.1796875,-1.45703125,1.0
4227060,36.01331266666667,129.31936499999998,68.96362659907855,101.26906949937867,4.3,228.0,,1.31640625,13.44921875,-1.79296875,-2.5,-1.01171875,0.62890625,-0.17578125,4.1796875,-1.45703125,1.0
4227061,,,,,,,,0.796875,10.953125,-1.21484375,0.9921875,-0.427734375,-1.05078125,-0.6328125,1.69921875,-0.76953125,1.0
4227062,,,,,,,,0.40234375,10.1875,-0.87890625,0.771484375,-0.431640625,-1.57421875,-0.90234375,0.93359375,-0.34765625,1.0
4227063,,,,,,,,-0.359375,6.96875,0.1328125,0.609375,-0.404296875,-1.76171875,-1.515625,-2.29296875,0.7265625,1.0
4227064,,,,,,,,-2.67578125,-1.55859375,4.63671875,0.462890625,-0.400390625,-1.62890625,-3.66015625,-10.828125,5.28515625,1.0
4227065,,,,,,,,-2.5390625,-5.84765625,5.33203125,0.216796875,-0.259765625,-0.765625,-0.17578125,-26.8828125,7.734375,1.0
4227066,,,,,,,,0.58984375,-17.6171875,7.0390625,0.283203125,-0.201171875,-0.529296875,10.97265625,-48.9453125,11.48828125,1.0
4227067,,,,,,,,23.4296875,-55.15625,23.0078125,0.5546875,-0.146484375,-0.23046875,22.734375,-64.421875,23.75,1.0
4227068,,,,,,,,3.875,-12.453125,8.4921875,0.794921875,-0.103515625,-0.25,3.1953125,-21.7109375,9.3046875,1.0
4227069,,,,,,,,-0.19921875,-5.2109375,4.09765625,0.875,-0.0625,-0.36328125,-0.86328125,-14.47265625,4.94140625,1.0
4227070,36.013310000000004,129.319361,68.60303478503144,100.97317535009871,4.6000000000000005,228.0,,-6.0078125,-7.625,-5.24609375,-2.5,-1.01171875,0.62890625,-6.609375,-16.88671875,-4.29296875,1.0
4227071,,,,,,,,-6.75390625,-13.53515625,0.3515625,1.740234375,-0.267578125,-0.35546875,-7.30078125,-22.78125,1.453125,1.0
4227072,,,,,,,,-4.4609375,-17.9140625,6.2578125,1.32421875,-0.02734375,0.103515625,-5.0,-27.15234375,7.4296875,1.0
4227073,,,,,,,,0.6328125,-9.79296875,1.90625,-0.193359375,0.359375,0.02734375,0.015625,-19.0234375,3.140625,1.0
4227074,,,,,,,,0.21484375,-5.75,-0.578125,0.27734375,0.091796875,-4.423828125,-0.05859375,-15.01171875,0.6484375,1.0
4227075,,,,,,,,2.17578125,-3.640625,-2.54296875,2.328125,0.294921875,-2.333984375,2.23828125,-12.8984375,-1.19140625,1.0
4227076,,,,,,,,3.75390625,-2.84765625,-0.68359375,3.853515625,0.69921875,1.240234375,3.84765625,-12.05859375,0.95703125,1.0
4227077,,,,,,,,4.3984375,-1.3359375,0.859375,3.9140625,0.9375,1.515625,4.421875,-10.5234375,2.6796875,1.0
4227078,,,,,,,,4.921875,0.28515625,0.64453125,2.974609375,1.166015625,0.1640625,4.84375,-8.83984375,2.79296875,1.0
4227079,,,,,,,,5.3125,2.24609375,-0.453125,2.373046875,1.2578125,-0.62890625,5.2265625,-6.84765625,1.8359375,1.0
4227080,36.01330766666667,129.31935766666666,68.30254168474758,100.71426809794586,4.2,229.0,,5.42578125,5.6328125,-2.765625,2.37890625,1.517578125,-0.7109375,5.41796875,-3.3984375,-0.1953125,1.0
4227081,,,,,,,,5.6953125,7.78125,-5.15234375,2.708984375,1.802734375,0.935546875,5.61328125,-1.140625,-2.22265625,1.0
4227082,,,,,,,,5.58203125,8.6328125,-6.12890625,2.109375,1.68359375,1.16015625,5.33984375,-0.21875,-2.98828125,1.0
4227083,,,,,,,,5.3046875,5.48046875,-6.81640625,1.703125,1.359375,0.58984375,4.8828125,-3.28515625,-3.44921875,1.0
4227084,,,,,,,,4.921875,4.57421875,-7.1640625,1.96875,1.0234375,0.40625,4.42578125,-4.12890625,-3.640625,1.0
4227085,,,,,,,,3.71875,2.66796875,-7.07421875,2.2421875,0.771484375,0.52734375,3.15625,-5.96484375,-3.37109375,1.0
4227086,,,,,,,,2.58203125,2.52734375,-6.12890625,2.49609375,0.642578125,0.78515625,1.93359375,-6.00390625,-2.22265625,1.0
4227087,,,,,,,,1.85546875,3.17578125,-5.6484375,2.41796875,0.619140625,0.890625,1.16796875,-5.3125,-1.6484375,1.0
4227088,,,,,,,,-0.296875,5.91015625,-3.60546875,1.83984375,0.666015625,0.962890625,-1.09375,-2.48046875,0.57421875,1.0
4227089,,,,,,,,-0.47265625,6.70703125,-2.98828125,1.38671875,0.66015625,0.92578125,-1.32421875,-1.63671875,1.26171875,1.0
4227090,36.01330533333333,129.31935383333334,67.95697429561227,100.45536050672939,4.1000000000000005,231.0,,-0.890625,11.484375,-2.23046875,-0.5,0.40234375,0.583984375,-1.8984375,3.19140625,2.06640625,1.0
4227091,,,,,,,,0.92578125,15.9140625,-4.76171875,-1.615234375,0.2265625,0.05859375,-0.13671875,7.5546875,-0.61328125,1.0
4227092,,,,,,,,1.26953125,16.453125,-5.12109375,-1.76953125,0.19921875,-0.19921875,0.20703125,8.0546875,-1.03515625,1.0
4227093,,,,,,,,1.76953125,16.74609375,-5.2734375,-1.6171875,0.23828125,-0.744140625,0.74609375,8.28125,-1.34375,1.0
4227094,,,,,,,,2.2265625,15.65625,-5.1953125,-1.0625,0.296875,-1.345703125,1.28125,7.13671875,-1.3828125,1.0
4227095,,,,,,,,2.58984375,11.98046875,-4.5859375,-0.373046875,0.275390625,-1.826171875,1.77734375,3.4140625,-0.84375,1.0
4227096,,,,,,,,3.1171875,7.33984375,-2.92578125,0.23828125,0.2578125,-2.08203125,2.47265625,-1.21484375,0.80078125,1.0
4227097,,,,,,,,3.65234375,5.30859375,-1.90625,0.416015625,0.20703125,-2.103515625,3.08203125,-3.24609375,1.8359375,1.0
4227098,,,,,,,,6.0078125,-4.9296875,2.0625,0.16796875,0.091796875,-1.87109375,5.609375,-13.4765625,5.8203125,1.0
4227099,,,,,,,,4.58984375,-10.453125,2.66796875,-0.1171875,0.048828125,-1.599609375,4.26953125,-18.99609375,6.43359375,1.0
4227100,36.0133025,129.31935049999998,67.65648158108391,100.1409736538071,4.4,227.0,0.0,-7.43359375,-40.62890625,15.2734375,-0.5,0.40234375,0.583984375,-7.64453125,-49.17578125,19.0,1.0
4227101,,,,,,,,-22.98046875,-53.6328125,19.83984375,-0.615234375,0.11328125,-0.01171875,-23.16015625,-62.20703125,23.51953125,1.0
4227102,,,,,,,,-10.54296875,-15.63671875,7.94921875,-0.900390625,0.099609375,0.544921875,-10.74609375,-24.234375,11.56640625,1.0
4227103,,,,,,,,-0.67578125,-4.421875,1.1875,-1.37890625,0.1015625,0.76953125,4.0390625,-13.05859375,2.2578125,1.0
4227104,,,,,,,,14.48828125,-8.7265625,-3.22265625,-1.998046875,0.244140625,0.806640625,14.15234375,-17.42578125,0.15234375,1.0
4227105,,,,,,,,9.74609375,-14.8203125,3.66015625,-1.943359375,0.54296875,0.880859375,9.32421875,-23.5859375,6.85546875,1.0
4227106,,,,,,,,7.375,-16.0234375,4.375,-1.26171875,0.056640625,0.560546875,6.9140625,-24.81640625,7.5078125,1.0
4227107,,,,,,,,2.0625,-13.03515625,2.19140625,1.22265625,-1.23046875,-0.470703125,1.625,-21.82421875,5.32421875,1.0
4227108,,,,,,,,0.7421875,-9.24609375,1.03125,-0.521484375,-0.73046875,-2.05078125,0.4375,-18.03125,4.2109375,1.0
4227109,,,,,,,,0.29296875,-5.99609375,-0.8359375,-0.47265625,-0.458984375,-3.818359375,0.28515625,-14.8125,2.296875,1.0
4227110,36.01330016666667,129.31934733333335,67.37101318401469,99.88206654957186,4.2,226.0,,-2.1796875,-2.1640625,0.0859375,-3.04296875,-0.359375,0.0,-1.859375,-11.06640625,3.0234375,1.0
4227111,,,,,,,,-3.734375,-0.98828125,0.4453125,-3.912109375,-0.998046875,1.326171875,-3.46875,-9.98828125,3.0625,1.0
4227112,,,,,,,,-5.01171875,2.23828125,-0.9921875,-2.205078125,-1.572265625,-0.314453125,-4.76953125,-6.92578125,1.0703125,1.0
4227113,,,,,,,,-5.3125,3.640625,-1.3515625,-2.169921875,-1.76953125,-0.298828125,-5.0390625,-5.55078125,0.609375,1.0
4227114,,,,,,,,-5.4296875,7.375,-2.77734375,-2.421875,-2.14453125,0.39453125,-5.1171875,-1.8671875,-1.03515625,1.0
4227115,,,,,,,,-5.421875,9.734375,-3.0078125,-2.4140625,-2.1875,0.73828125,-5.12109375,0.46875,-1.3828125,1.0
4227116,,,,,,,,-5.3203125,10.32421875,-2.8203125,-2.291015625,-2.16796875,0.90234375,-5.0390625,1.04296875,-1.3046875,1.0
4227117,,,,,,,,-5.19921875,12.08984375,-2.05859375,-2.115234375,-2.00390625,0.7109375,-4.9609375,2.76953125,-0.76953125,1.0
4227118,,,,,,,,-4.98828125,12.6796875,-1.58984375,-2.099609375,-1.876953125,0.486328125,-4.765625,3.34375,-0.38671875,1.0
4227119,,,,,,,,-3.7109375,10.96875,-1.17578125,-2.255859375,-1.216796875,0.19140625,-3.5078125,1.578125,-0.38671875,1.0
4227120,36.0132975,129.31934383333333,67.05549553064083,99.58617280988895,4.1000000000000005,228.0,,-3.76953125,8.94921875,-1.40625,-2.2890625,-0.93359375,0.35546875,-3.578125,-0.44921875,-0.84375,1.0
4227121,,,,,,,,-3.80078125,6.2734375,-1.03515625,-2.248046875,-0.75390625,0.681640625,-3.66015625,-3.1328125,-0.69140625,1.0
4227122,,,,,,,,-3.33984375,5.8984375,-0.78125,-2.154296875,-0.669921875,0.822265625,-3.23828125,-3.515625,-0.5390625,1.0
4227123,,,,,,,,-2.06640625,6.55078125,-0.078125,-1.744140625,-0.517578125,0.974609375,-2.05078125,-2.859375,-0.0390625,1.0
4227124,,,,,,,,-0.9375,8.07421875,0.5078125,-0.587890625,-0.3515625,0.951171875,-1.0546875,-1.33203125,0.3828125,1.0
4227125,,,,,,,,0.3046875,10.56640625,0.1015625,0.138671875,-0.228515625,0.97265625,0.09375,1.15625,-0.0390625,1.0
4227126,,,,,,,,0.58984375,11.9453125,-0.328125,0.423828125,-0.171875,0.990234375,0.32421875,2.54296875,-0.4609375,1.0
4227127,,,,,,,,0.73046875,13.421875,-0.390625,1.0390625,-0.033203125,0.94140625,0.32421875,4.03515625,-0.421875,1.0
4227128,,,,,,,,0.15625,13.63671875,-0.38671875,1.349609375,-0.09765625,0.7578125,-0.328125,4.26171875,-0.30859375,1.0
4227129,,,,,,,,-1.078125,12.2578125,-0.44921875,1.296875,-0.197265625,0.55078125,-1.59375,2.8828125,-0.30859375,1.0
4227130,36.013295,129.31934033333334,66.7399777174609,99.30877228838355,4.1000000000000005,228.0,,-1.359375,10.83203125,-0.55859375,-2.2890625,-0.93359375,0.35546875,-3.578125,-0.44921875,-0.84375,1.0
4227131,,,,,,,,-1.5,8.3203125,-0.20703125,0.505859375,-0.353515625,-0.82421875,-1.9765625,-1.0234375,0.15234375,1.0
4227132,,,,,,,,-1.76953125,5.3984375,0.15234375,0.041015625,-0.3671875,-0.89453125,-2.16796875,-3.9375,0.53515625,1.0
4227133,,,,,,,,-2.19921875,4.2890625,0.50390625,-0.158203125,-0.34765625,-0.83984375,-2.55078125,-5.05078125,0.87890625,1.0
4227134,,,,,,,,-6.51171875,-0.8125,7.3828125,-0.259765625,-0.306640625,-0.59765625,-6.80078125,-10.140625,7.734375,1.0
4227135,,,,,,,,-7.05078125,-8.7890625,5.20703125,0.03125,-0.23046875,-0.28125,-7.30078125,-18.109375,5.55078125,1.0
4227136,,,,,,,,1.40234375,-19.41015625,3.578125,0.43359375,-0.20703125,-0.037109375,1.16796875,-28.71875,3.9453125,1.0
4227137,,,,,,,,23.58984375,-54.3515625,17.359375,0.71875,-0.2109375,0.025390625,23.34765625,-63.65625,17.7734375,1.0
4227138,,,,,,,,8.87890625,-36.35546875,22.22265625,0.814453125,-0.212890625,-0.01171875,8.63671875,-45.6484375,22.67578125,1.0
4227139,,,,,,,,1.1640625,-13.984375,6.16015625,0.875,-0.08203125,-0.2734375,0.9375,-23.28515625,6.73828125,1.0
4227140,36.013292666666665,129.31933683333332,66.42445974414561,99.04986498798756,4.2,228.0,,-5.03515625,-7.78515625,-0.50390625,-2.2890625,-0.93359375,0.35546875,-3.578125,-0.44921875,-0.84375,1.0
4227141,,,,,,,,-6.046875,-11.44140625,1.23828125,2.53125,-0.259765625,0.44140625,-6.2265625,-20.7109375,2.14453125,1.0
4227142,,,,,,,,-2.453125,-11.6484375,1.6015625,1.462890625,0.572265625,1.607421875,-2.7421875,-20.91015625,2.71875,1.0
4227143,,,,,,,,-1.26171875,-10.96484375,1.67578125,0.376953125,0.99609375,1.896484375,-1.62890625,-20.2109375,2.83203125,1.0
4227144,,,,,,,,0.35546875,-7.90234375,1.31640625,0.634765625,0.375,-0.03515625,-0.13671875,-17.1484375,2.48828125,1.0
4227145,,,,,,,,2.046875,-5.14453125,-0.00390625,1.205078125,-0.015625,-3.90625,1.7421875,-14.390625,1.26171875,1.0
4227146,,,,,,,,5.66796875,-2.5078125,-1.21484375,3.451171875,0.681640625,-0.076171875,5.87890625,-11.71484375,0.49609375,1.0
4227147,,,,,,,,6.23046875,-0.34375,-0.88671875,3.111328125,1.224609375,0.77734375,6.30078125,-9.453125,1.30078125,1.0
4227148,,,,,,,,6.18359375,2.3828125,-0.875,2.716796875,1.17578125,0.306640625,6.22265625,-6.6953125,1.453125,1.0
4227149,,,,,,,,5.140625,4.3203125,-2.08984375,2.443359375,1.265625,-0.23828125,5.1484375,-4.703125,0.45703125,1.0
4227150,36.013290500000004,129.31933316666667,66.09391685428274,98.80945079271744,4.0,231.0,,4.4765625,6.59375,-5.12890625,2.6328125,1.458984375,0.11328125,4.4609375,-2.3671875,-2.33984375,1.0
4227151,,,,,,,,4.140625,7.328125,-7.0,2.431640625,1.53125,0.814453125,4.04296875,-1.5625,-3.984375,1.0
4227152,,,,,,,,2.98046875,7.19921875,-7.16015625,1.88671875,1.126953125,0.92578125,2.69921875,-1.59765625,-3.87109375,1.0
4227153,,,,,,,,1.3515625,6.26171875,-4.875,1.921875,0.708984375,0.28125,0.9375,-2.4375,-1.34375,1.0
4227154,,,,,,,,1.58984375,5.8671875,-2.94140625,2.640625,0.583984375,0.203125,1.12890625,-2.7109375,0.87890625,1.0
4227155,,,,,,,,2.37109375,5.65234375,-1.66796875,2.45703125,0.47265625,0.58203125,1.85546875,-2.82421875,2.37109375,1.0
4227156,,,,,,,,2.83203125,5.78125,-1.22265625,2.041015625,0.4296875,0.79296875,2.27734375,-2.6328125,2.91015625,1.0
4227157,,,,,,,,3.72265625,7.7109375,-0.95703125,0.9140625,0.37890625,1.06640625,3.08203125,-0.640625,3.29296875,1.0
4227158,,,,,,,,2.8203125,9.984375,-1.6484375,-0.189453125,0.3359375,1.03125,2.0859375,1.65625,2.64453125,1.0
4227159,,,,,,,,0.4609375,13.82421875,-3.73828125,-0.822265625,0.24609375,0.796875,-0.3671875,5.484375,0.49609375,1.0
4227160,36.01328783333334,129.3193295,65.76337436110994,98.5135569860582,4.2,231.0,,-0.6640625,15.85546875,-5.765625,-0.853515625,0.193359375,0.388671875,-1.5546875,7.4765625,-1.609375,1.0
4227161,,,,,,,,-0.640625,16.26171875,-6.80859375,-0.23046875,0.099609375,-0.640625,-1.515625,7.859375,-2.72265625,1.0
4227162,,,,,,,,-0.13671875,15.49609375,-6.45703125,-0.25,0.09765625,-1.05859375,-0.98046875,7.09765625,-2.37890625,1.0
4227163,,,,,,,,0.58984375,12.76171875,-4.8359375,-0.54296875,0.138671875,-1.708984375,-0.13671875,4.33984375,-0.8046875,1.0
4227164,,,,,,,,1.76953125,9.7421875,-3.86328125,-0.609375,0.1875,-1.8671875,1.12890625,1.31640625,0.15234375,1.0
4227165,,,,,,,,2.875,6.96875,-2.9609375,-0.501953125,0.3203125,-1.83984375,2.39453125,-1.484375,0.9921875,1.0
4227166,,,,,,,,3.40234375,5.7890625,-2.3671875,-0.353515625,0.380859375,-1.68359375,2.96484375,-2.671875,1.5703125,1.0
4227167,,,,,,,,5.40234375,1.0859375,0.48046875,-0.00390625,0.4609375,-1.15234375,5.07421875,-7.38671875,4.40234375,1.0
4227168,,,,,,,,5.859375,-1.796875,0.87109375,0.091796875,0.4609375,-0.810546875,5.5703125,-10.2578125,4.78515625,1.0
4227169,,,,,,,,4.2734375,-19.125,3.78515625,-0.0625,0.3828125,0.140625,4.0,-27.5703125,7.69921875,1.0
4227170,36.013285333333336,129.31932616666666,65.46288122933737,98.2361566245365,4.3,229.0,,2.2578125,-32.5703125,7.57421875,-0.853515625,0.193359375,0.388671875,1.96875,-41.015625,11.48828125,1.0
4227171,,,,,,,,-20.75390625,-55.44140625,17.3203125,-0.107421875,0.41796875,0.501953125,-21.08984375,-63.8828125,21.21875,1.0
4227172,,,,,,,,-8.9453125,-14.828125,7.0390625,-0.337890625,0.380859375,0.4765625,-9.328125,-23.28515625,10.9140625,1.0
4227173,,,,,,,,5.02734375,-3.02734375,-3.4296875,-1.322265625,0.396484375,0.30078125,4.57421875,-11.51953125,0.34375,1.0
4227174,,,,,,,,16.8125,-11.82421875,-3.12890625,-1.28515625,0.76171875,0.53125,16.296875,-20.3671875,0.53515625,1.0
4227175,,,,,,,,11.3515625,-15.69140625,1.5546875,-0.267578125,0.5625,0.203125,10.78125,-24.2734375,5.1328125,1.0
4227176,,,,,,,,7.12890625,-13.9765625,-0.625,0.634765625,-0.642578125,-0.3515625,6.56640625,-22.5546875,2.984375,1.0
4227177,,,,,,,,3.96875,-7.0390625,-2.1328125,-0.14453125,-0.326171875,-3.43359375,3.65625,-15.65625,1.453125,1.0
4227178,,,,,,,,-1.1484375,-5.80859375,-2.40234375,-0.17578125,-0.244140625,-3.21484375,-1.1328125,-14.4296875,1.18359375,1.0
4227179,,,,,,,,-3.265625,-5.9765625,-1.9609375,-2.8671875,0.03515625,0.548828125,-3.125,-14.6640625,1.4921875,1.0
4227180,36.013283,129.31932283333333,65.16238794021194,97.97724948099199,4.1000000000000005,228.0,,-4.6484375,-2.515625,-1.92578125,-0.853515625,0.193359375,0.388671875,-4.6171875,-11.33203125,1.22265625,1.0
4227181,,,,,,,,-5.78125,-0.30078125,-2.41015625,-2.779296875,-0.75390625,0.71484375,-5.84375,-9.21875,0.41796875,1.0
4227182,,,,,,,,-6.71484375,2.15234375,-2.58203125,-2.326171875,-1.26171875,-0.208984375,-6.76171875,-6.84375,0.03515625,1.0
4227183,,,,,,,,-6.89453125,4.63671875,-2.42578125,-2.494140625,-1.455078125,-0.25,-6.91796875,-4.39453125,0.07421875,1.0
4227184,,,,,,,,-6.44140625,7.38671875,-2.296875,-2.8125,-1.7109375,0.26953125,-6.4140625,-1.71484375,-0.0390625,1.0
4227185,,,,,,,,-5.4375,10.71484375,-1.42578125,-2.642578125,-1.662109375,0.60546875,-5.42578125,1.54296875,0.57421875,1.0
4227186,,,,,,,,-4.1796875,12.69921875,-1.19921875,-2.322265625,-1.36328125,0.345703125,-4.19921875,3.45703125,0.45703125,1.0
4227187,,,,,,,,-3.64453125,12.203125,-1.40234375,-2.48046875,-1.05078125,0.201171875,-3.66015625,2.921875,0.03515625,1.0
4227188,,,,,,,,-3.53125,11.53515625,-1.58984375,-2.546875,-0.892578125,0.2421875,-3.55078125,2.23046875,-0.26953125,1.0
4227189,,,,,,,,-3.53515625,9.64453125,-2.08203125,-2.421875,-0.546875,0.408203125,-3.578125,0.31640625,-0.99609375,1.0
4227190,36.0132805,129.3193193333333,64.84687000697491,97.69984902919084,4.1000000000000005,229.0,,-3.59765625,7.0078125,-1.79296875,-1.6640625,-0.294921875,0.607421875,-3.734375,-2.3671875,-1.11328125,1.0
4227191,,,,,,,,-2.59375,7.31640625,-0.89453125,-1.201171875,-0.240234375,0.51953125,-2.78125,-2.05859375,-0.34765625,1.0
4227192,,,,,,,,-1.43359375,7.66796875,-0.4921875,-0.705078125,-0.12109375,0.46875,-1.66796875,-1.7109375,-0.0390625,1.0
4227193,,,,,,,,-0.875,7.9765625,-0.5,-0.41796875,-0.078125,0.470703125,-1.1328125,-1.40625,-0.078125,1.0
4227194,,,,,,,,0.328125,9.453125,-0.63671875,0.1171875,0.017578125,0.5625,0.015625,0.0859375,-0.2265625,1.0
4227195,,,,,,,,0.7734375,10.9453125,-0.74609375,0.458984375,0.037109375,0.62890625,0.3984375,1.58203125,-0.30859375,1.0
4227196,,,,,,,,0.70703125,11.890625,-0.44140625,0.640625,-0.0625,0.595703125,0.28515625,2.5390625,0.03515625,1.0
4227197,,,,,,,,-0.06640625,12.140625,-0.2265625,0.73046875,-0.3515625,0.279296875,-0.55859375,2.80859375,0.34375,1.0
4227198,,,,,,,,-0.32421875,11.90234375,-0.19140625,0.708984375,-0.40625,0.09765625,-0.82421875,2.57421875,0.41796875,1.0
4227199,,,,,,,,-0.6796875,10.77734375,-0.09765625,0.654296875,-0.4453125,-0.2421875,-1.171875,1.4609375,0.57421875,1.0
4227200,36.013278,129.31931566666665,64.51632729709655,97.42244847866036,4.2,229.0,0.0,-0.84765625,9.23828125,0.06640625,0.271484375,-0.423828125,-0.60546875,-1.28125,-0.06640625,0.80078125,1.0
4227201,,,,,,,,-1.30078125,7.53515625,0.0234375,-0.08203125,-0.404296875,-0.72265625,-1.66796875,-1.75390625,0.765625,1.0
4227202,,,,,,,,-2.7890625,4.43359375,1.9609375,-0.27734375,-0.41796875,-0.748046875,-3.0859375,-4.8515625,2.6796875,1.0
4227203,,,,,,,,-4.390625,2.12890625,5.03125,-0.271484375,-0.419921875,-0.724609375,-4.65625,-7.1484375,5.7421875,1.0
4227204,,,,,,,,-5.37890625,-11.5859375,7.203125,-0.076171875,-0.41015625,-0.65625,-5.57421875,-20.8671875,7.890625,1.0
4227205,,,,,,,,13.3359375,-38.79296875,11.0234375,0.2578125,-0.419921875,-0.580078125,13.1953125,-48.06640625,11.71875,1.0
4227206,,,,,,,,20.64453125,-53.90234375,23.3984375,0.5859375,-0.3984375,-0.546875,20.55078125,-63.16015625,24.1328125,1.0
4227207,,,,,,,,3.80859375,-11.609375,7.515625,0.787109375,-0.33203125,-0.564453125,3.76953125,-20.87109375,8.3125,1.0
4227208,,,,,,,,0.33203125,-6.25390625,4.21875,0.791015625,-0.2578125,-0.580078125,0.32421875,-15.50390625,5.0546875,1.0
4227209,,,,,,,,-3.515625,-8.859375,0.5390625,0.869140625,-0.11328125,-0.544921875,-3.46875,-18.109375,1.453125,1.0
4227210,36.01327583333333,129.319312,64.18578429349982,97.1820343551407,4.2,229.0,,-5.78515625,-13.25,4.58203125,1.853515625,-0.076171875,0.87109375,-1.28125,-0.06640625,0.80078125,1.0
4227211,,,,,,,,-3.26953125,-15.13671875,4.04296875,0.45703125,0.73828125,1.6875,-3.35546875,-24.35546875,5.28515625,1.0
4227212,,,,,,,,0.51171875,-10.69921875,1.5078125,-0.17578125,0.400390625,1.115234375,0.36328125,-19.90625,2.7578125,1.0
4227213,,,,,,,,2.9765625,-6.5546875,1.01171875,1.4296875,-0.140625,-4.06640625,3.1953125,-15.77734375,2.37109375,1.0
4227214,,,,,,,,2.3828125,-6.1328125,1.125,2.689453125,0.537109375,-1.54296875,2.890625,-15.3125,2.6796875,1.0
4227215,,,,,,,,1.80859375,-3.9140625,0.3515625,2.970703125,0.99609375,0.853515625,2.31640625,-13.0546875,2.1796875,1.0
4227216,,,,,,,,1.91796875,-1.73828125,-0.5234375,2.66015625,1.3515625,0.7578125,2.31640625,-10.83203125,1.5703125,1.0
4227217,,,,,,,,2.1875,-0.49609375,-0.98828125,2.470703125,1.40625,0.4296875,2.546875,-9.5625,1.22265625,1.0
4227218,,,,,,,,4.01171875,4.51953125,-3.3515625,2.431640625,1.501953125,0.53515625,4.26953125,-4.46875,-0.8046875,1.0
4227219,,,,,,,,4.2578125,5.453125,-4.046875,2.4296875,1.583984375,0.810546875,4.46484375,-3.515625,-1.3828125,1.0
4227220,36.01327366666667,129.31930866666667,63.88529079853821,96.94162046427057,4.0,231.0,,4.375,7.65234375,-4.6328125,2.203125,1.6953125,1.064453125,-1.28125,-0.06640625,0.80078125,1.0
4227221,,,,,,,,4.4453125,8.59375,-5.01953125,1.943359375,1.57421875,0.9609375,4.38671875,-0.2578125,-1.95703125,1.0
4227222,,,,,,,,4.41796875,8.60546875,-5.2578125,1.869140625,1.36328125,0.833984375,4.2265625,-0.18359375,-2.03125,1.0
4227223,,,,,,,,4.55859375,7.77734375,-5.921875,1.9453125,1.12890625,0.859375,4.265625,-0.94921875,-2.53125,1.0
4227224,,,,,,,,4.796875,6.0703125,-6.66015625,1.861328125,0.927734375,1.078125,4.3828125,-2.59375,-3.10546875,1.0
4227225,,,,,,,,4.39453125,4.0,-6.8828125,1.748046875,0.771484375,1.36328125,3.84765625,-4.5859375,-3.1796875,1.0
4227226,,,,,,,,4.234375,3.546875,-6.80078125,1.697265625,0.6875,1.435546875,3.6171875,-5.0078125,-3.02734375,1.0
4227227,,,,,,,,2.796875,4.1953125,-5.671875,1.572265625,0.591796875,1.4375,1.96875,-4.2421875,-1.6875,1.0
4227228,,,,,,,,1.26171875,5.92578125,-4.71484375,1.193359375,0.619140625,1.33984375,0.28515625,-2.4375,-0.61328125,1.0
4227229,,,,,,,,-0.17578125,7.93359375,-3.7890625,0.908203125,0.62109375,1.27734375,-1.203125,-0.41015625,0.34375,1.0
4227230,36.013271333333336,129.31930533333335,63.58479741931502,96.68271337426674,3.9000000000000004,232.0,,-1.18359375,11.2265625,-3.36328125,-0.251953125,0.466796875,0.978515625,-2.39453125,2.92578125,0.80078125,1.0
4227231,,,,,,,,-1.23828125,13.140625,-3.3046875,-1.712890625,0.31640625,0.21875,-2.55078125,4.80078125,0.7265625,1.0
4227232,,,,,,,,-0.86328125,14.4453125,-3.1640625,-2.28125,0.255859375,-0.44921875,-2.16796875,6.0234375,0.6875,1.0
4227233,,,,,,,,1.3359375,13.23828125,-3.71875,-1.94921875,0.306640625,-1.28125,0.1328125,4.6796875,-0.15625,1.0
