time,latitude,longitude,enu_x,enu_y,speed,course,ecg,accX,accY,accZ,gyrX,gyrY,gyrZ,eulR,eulP,eulY,validity
4234530,36.0130355,129.31891066666668,28.006241836776837,70.51463940430018,3.5,47.0,,-12.17578125,-47.32421875,8.5390625,-0.73046875,0.115234375,0.111328125,-13.66015625,-52.3125,12.984375,1.0
4234531,,,,,,,,-0.89453125,-10.6953125,5.13671875,-0.80078125,0.0703125,0.337890625,-2.39453125,-15.73828125,9.53515625,1.0
4234532,,,,,,,,12.41015625,-7.30859375,-5.85546875,-0.833984375,0.04296875,0.513671875,10.89453125,-12.3984375,-1.49609375,1.0
4234533,,,,,,,,14.984375,-10.2265625,-6.63671875,-0.83984375,0.048828125,0.58203125,13.4609375,-15.3515625,-2.30078125,1.0
4234534,,,,,,,,11.80078125,-17.53515625,1.82421875,-0.318359375,0.0859375,0.64453125,10.24609375,-22.70703125,6.12890625,1.0
4234535,,,,,,,,9.140625,-21.703125,2.40234375,1.548828125,-0.58984375,0.205078125,7.5625,-26.84375,6.77734375,1.0
4234536,,,,,,,,4.7734375,-16.1953125,-0.6015625,-0.900390625,-0.482421875,-1.935546875,3.2734375,-21.37109375,3.7890625,1.0
4234537,,,,,,,,1.7109375,-13.44921875,-1.53515625,-0.1953125,-0.341796875,-3.63671875,-0.7109375,-17.5703125,2.91015625,1.0
4234538,,,,,,,,0.4921875,-12.25390625,-1.45703125,-1.24609375,-0.326171875,-1.8359375,-1.4765625,-16.46484375,2.94921875,1.0
4234539,,,,,,,,-1.1328125,-8.6953125,-1.92578125,-3.255859375,-0.48046875,1.68359375,-2.28125,-12.94140625,1.953125,1.0
4234540,36.01303716666666,129.31891316666668,28.23161335997321,70.69957219531369,3.3000000000000003,48.0,,-12.17578125,-47.32421875,8.5390625,-0.73046875,0.115234375,0.111328125,-3.8515625,-9.41796875,0.7265625,1.0
4234541,,,,,,,,-3.8515625,-2.9453125,-3.01171875,-2.32421875,-1.134765625,-0.265625,-5.30859375,-8.33984375,1.1484375,1.0
4234542,,,,,,,,-4.19921875,-2.51953125,-2.703125,-2.724609375,-1.2578125,-0.333984375,-5.57421875,-7.6875,1.18359375,1.0
4234543,,,,,,,,-4.5,0.90625,-2.875,-3.46875,-1.51953125,-0.107421875,-5.50390625,-5.125,0.7265625,1.0
4234544,,,,,,,,-3.94921875,4.46484375,-3.5234375,-3.244140625,-1.560546875,-0.001953125,-4.88671875,-1.71484375,-0.1171875,1.0
4234545,,,,,,,,-3.3828125,7.890625,-3.91796875,-2.8203125,-1.443359375,0.224609375,-4.27734375,1.578125,-0.69140625,1.0
4234546,,,,,,,,-3.3671875,7.91015625,-3.5859375,-2.693359375,-1.3984375,0.408203125,-4.23828125,1.54296875,-0.4609375,1.0
4234547,,,,,,,,-2.984375,10.26953125,-3.16796875,-2.447265625,-1.03125,0.818359375,-3.85546875,3.76171875,-0.26953125,1.0
4234548,,,,,,,,-3.078125,9.32421875,-3.38671875,-2.341796875,-0.791015625,0.7265625,-3.96875,2.73046875,-0.65234375,1.0
4234549,,,,,,,,-3.10546875,8.3984375,-3.6171875,-2.3359375,-0.673828125,0.59765625,-4.0,1.7734375,-0.9609375,1.0
4234550,36.01303933333334,129.31891533333334,28.42693507774932,70.93998451800009,3.6,44.0,,-3.58984375,3.3046875,-3.3359375,-2.220703125,-0.482421875,0.251953125,-4.50390625,-3.4375,-0.921875,1.0
4234551,,,,,,,,-1.7109375,3.078125,-1.90625,-1.509765625,-0.376953125,0.2265625,-2.625,-3.78125,0.2265625,1.0
4234552,,,,,,,,-0.44140625,4.44140625,-1.4765625,-1.193359375,-0.31640625,0.25,-1.36328125,-2.44140625,0.609375,1.0
4234553,,,,,,,,0.9453125,6.921875,-1.6328125,-0.646484375,-0.248046875,0.318359375,0.015625,0.0078125,0.3828125,1.0
4234554,,,,,,,,1.0703125,7.70703125,-1.609375,-0.45703125,-0.216796875,0.39453125,0.1328125,0.7734375,0.3828125,1.0
4234555,,,,,,,,0.734375,9.4921875,-1.1796875,-0.021484375,-0.1640625,0.72265625,-0.25,2.54296875,0.765625,1.0
4234556,,,,,,,,0.359375,10.41015625,-0.33984375,0.166015625,-0.1640625,0.689453125,-0.671875,3.453125,1.60546875,1.0
4234557,,,,,,,,-0.4296875,11.25390625,-0.64453125,0.22265625,-0.21875,0.513671875,-1.4765625,4.30078125,1.30078125,1.0
4234558,,,,,,,,-0.4609375,11.17578125,-1.12109375,0.337890625,-0.408203125,-0.3671875,-1.59375,3.61328125,-0.1171875,1.0
4234559,,,,,,,,-0.546875,10.5703125,-2.078125,0.3203125,-0.455078125,-0.638671875,-1.5546875,3.03125,-0.30859375,1.0
4234560,36.01304116666667,129.31891833333333,28.69738093987562,71.14341067462375,3.5,48.0,,-0.83984375,8.86328125,-1.79296875,0.21484375,-0.4921875,-1.1328125,-2.16796875,0.5859375,1.30078125,1.0
4234561,,,,,,,,-1.65234375,6.6953125,0.15234375,0.15625,-0.458984375,-1.158203125,-2.93359375,-1.40625,3.25390625,1.0
4234562,,,,,,,,-3.8828125,2.60546875,4.74609375,0.1640625,-0.421875,-0.984375,-5.19140625,-7.0390625,7.54296875,1.0
4234563,,,,,,,,-4.45703125,-0.03125,5.54296875,0.23046875,-0.419921875,-0.8515625,-5.0,-10.484375,6.28125,1.0
4234564,,,,,,,,-0.96484375,-12.20703125,3.27734375,0.3671875,-0.4296875,-0.533203125,1.47265625,-26.65234375,6.12890625,1.0
4234565,,,,,,,,6.6484375,-28.44921875,4.6796875,0.46875,-0.43359375,-0.16796875,19.1328125,-60.55859375,20.64453125,1.0
4234566,,,,,,,,19.45703125,-57.20703125,25.83203125,0.671875,-0.408203125,0.14453125,10.93359375,-47.453125,28.23046875,1.0
4234567,,,,,,,,7.53515625,-22.1171875,17.09765625,1.03125,-0.361328125,0.3515625,1.3203125,-15.578125,5.55078125,1.0
4234568,,,,,,,,1.9140625,-8.56640625,3.38671875,1.318359375,-0.314453125,0.416015625,-2.01171875,-12.703125,3.90625,1.0
4234569,,,,,,,,-7.44140625,-10.54296875,1.47265625,2.0625,-0.2578125,0.755859375,-8.06640625,-17.53125,3.75390625,1.0
4234570,36.013043,129.318921,28.93777717787215,71.34683674164141,3.2,51.0,,-5.33203125,-12.10546875,1.796875,0.21484375,-0.4921875,-1.1328125,-2.16796875,0.5859375,1.30078125,1.0
4234571,,,,,,,,0.0390625,-14.796875,1.8828125,-0.5078125,0.548828125,1.3046875,-0.75,-21.75390625,4.328125,1.0
4234572,,,,,,,,1.50390625,-12.734375,0.44140625,-0.0625,0.462890625,0.26171875,0.62890625,-19.72265625,2.83203125,1.0
4234573,,,,,,,,3.9921875,-8.7265625,-0.9375,0.91796875,0.193359375,-3.767578125,3.234375,-15.734375,1.4921875,1.0
4234574,,,,,,,,5.19921875,-8.98046875,-0.3203125,1.55078125,-0.0234375,-3.376953125,4.73046875,-16.0,2.1796875,1.0
4234575,,,,,,,,3.9375,-10.58203125,1.08203125,3.54296875,0.509765625,-0.38671875,3.578125,-17.5703125,3.75390625,1.0
4234576,,,,,,,,2.70703125,-8.140625,1.13671875,3.435546875,0.927734375,0.65625,2.31640625,-15.05078125,4.05859375,1.0
4234577,,,,,,,,2.29296875,-3.91015625,-0.890625,2.26953125,1.08203125,0.17578125,1.85546875,-10.75,2.21875,1.0
4234578,,,,,,,,2.41015625,-0.92578125,-2.67578125,1.974609375,1.376953125,0.0390625,1.93359375,-7.7265625,0.57421875,1.0
4234579,,,,,,,,2.671875,1.43359375,-4.41796875,2.126953125,1.548828125,0.59765625,2.125,-5.3125,-1.03515625,1.0
4234580,36.01304433333333,129.318922,29.0279255278622,71.49478269447998,2.9000000000000004,48.0,,3.23046875,4.18359375,-5.15625,0.21484375,-0.4921875,-1.1328125,2.58203125,-2.51953125,-1.6484375,1.0
4234581,,,,,,,,3.95703125,6.703125,-4.29296875,1.80078125,1.619140625,0.7109375,3.12109375,0.0859375,-0.61328125,1.0
4234582,,,,,,,,3.97265625,7.32421875,-4.35546875,1.810546875,1.505859375,0.453125,3.08203125,0.73828125,-0.61328125,1.0
4234583,,,,,,,,3.875,8.46484375,-4.60546875,1.939453125,1.2890625,0.0625,2.9296875,1.92578125,-0.76953125,1.0
4234584,,,,,,,,3.8046875,8.6015625,-4.8828125,1.970703125,1.10546875,0.0546875,2.8125,2.1171875,-0.921875,1.0
4234585,,,,,,,,4.3359375,8.125,-6.08984375,1.677734375,0.71875,0.6953125,3.234375,1.7734375,-1.91796875,1.0
4234586,,,,,,,,6.0078125,5.41796875,-7.33203125,1.341796875,0.564453125,0.7421875,4.84765625,-0.87109375,-3.06640625,1.0
4234587,,,,,,,,6.65234375,3.5234375,-7.82421875,1.1640625,0.525390625,0.65234375,5.453125,-2.75,-3.52734375,1.0
4234588,,,,,,,,5.75,2.8359375,-7.265625,0.919921875,0.513671875,0.42578125,4.5,-3.3984375,-2.9140625,1.0
4234589,,,,,,,,4.76953125,3.2421875,-6.40625,0.88671875,0.517578125,0.322265625,3.50390625,-2.9765625,-2.03125,1.0
4234590,36.013046333333335,129.31892483333334,29.28334649467105,71.7167020273517,3.5,46.0,,1.96484375,4.51171875,-4.23828125,0.21484375,-0.4921875,-1.1328125,0.66796875,-1.671875,0.19140625,1.0
4234591,,,,,,,,0.1953125,5.4140625,-2.671875,1.009765625,0.515625,0.099609375,-1.1328125,-0.71875,1.8359375,1.0
4234592,,,,,,,,-2.0859375,6.89453125,0.37109375,0.958984375,0.513671875,0.099609375,-3.4296875,0.77734375,4.8984375,1.0
4234593,,,,,,,,-2.41015625,8.9375,-0.6640625,0.5,0.443359375,0.130859375,-3.77734375,2.84375,3.91015625,1.0
4234594,,,,,,,,-0.36328125,10.5859375,-3.796875,-0.513671875,0.375,0.134765625,-1.74609375,4.4921875,0.765625,1.0
4234595,,,,,,,,1.109375,11.0625,-4.84765625,-1.490234375,0.380859375,0.00390625,-0.2890625,4.9140625,-0.34765625,1.0
4234596,,,,,,,,2.11328125,10.87890625,-5.28125,-1.759765625,0.4140625,-0.1171875,0.70703125,4.6796875,-0.84375,1.0
4234597,,,,,,,,2.7109375,9.171875,-4.4140625,-1.7578125,0.439453125,-0.640625,1.3203125,2.84375,-0.15625,1.0
4234598,,,,,,,,2.328125,4.1484375,-1.3984375,-0.791015625,0.4296875,-1.130859375,0.9765625,-2.25,2.76171875,1.0
4234599,,,,,,,,2.01953125,0.76171875,-1.57421875,-0.21484375,0.419921875,-1.34765625,0.70703125,-5.65625,2.56640625,1.0
4234600,36.01304883333333,129.31892816666667,29.5838416766926,71.99410114102687,3.8000000000000003,47.0,0.0,-5.32421875,-36.78515625,17.9921875,0.23046875,0.11328125,-1.279296875,-6.45703125,-43.23828125,22.140625,1.0
4234601,,,,,,,,-6.765625,-40.82421875,3.2734375,-0.09765625,0.08203125,-0.875,-7.8359375,-47.30078125,7.4296875,1.0
4234602,,,,,,,,-5.01171875,-14.0546875,3.15234375,-0.62109375,0.048828125,-0.2890625,-6.03515625,-20.56640625,7.27734375,1.0
4234603,,,,,,,,3.69921875,-6.34375,-0.96875,-1.10546875,0.04296875,0.529296875,2.66015625,-12.8984375,3.1015625,1.0
4234604,,,,,,,,15.00390625,-13.515625,-1.16796875,-0.84375,0.1484375,2.17578125,13.84765625,-20.140625,2.79296875,1.0
4234605,,,,,,,,9.90234375,-18.77734375,1.66015625,1.49609375,-0.2421875,1.958984375,8.59765625,-25.3828125,5.62890625,1.0
4234606,,,,,,,,3.26171875,-18.8046875,2.9140625,1.29296875,-0.724609375,-0.28125,1.93359375,-25.35546875,7.0078125,1.0
4234607,,,,,,,,2.68359375,-10.87109375,-1.29296875,-1.201171875,-0.62890625,-2.51953125,1.47265625,-17.45703125,2.79296875,1.0
4234608,,,,,,,,2.25,-8.82421875,-1.96484375,-0.705078125,-0.2734375,-3.359375,1.28125,-15.5,2.06640625,1.0
4234609,,,,,,,,0.20703125,-7.0390625,-1.57421875,-2.271484375,-0.236328125,-0.638671875,-0.59765625,-13.82421875,2.37109375,1.0
4234610,36.01305083333333,129.31893116666666,29.854287417408607,72.21602054122835,3.6,49.0,,-0.9921875,-6.23046875,-1.08984375,-3.615234375,-0.7265625,1.458984375,-1.859375,-13.203125,2.52734375,1.0
4234611,,,,,,,,-3.14453125,-2.95703125,-1.74609375,-2.87109375,-1.130859375,0.59375,-4.04296875,-10.0625,1.64453125,1.0
4234612,,,,,,,,-4.08984375,1.55859375,-2.375,-2.3671875,-1.7109375,-0.0078125,-4.92578125,-5.6953125,0.765625,1.0
4234613,,,,,,,,-4.234375,2.9453125,-2.75,-2.55078125,-1.8046875,0.16015625,-5.0390625,-4.359375,0.3046875,1.0
4234614,,,,,,,,-4.11328125,6.14453125,-3.3671875,-2.697265625,-1.916015625,0.521484375,-4.88671875,-1.25390625,-0.5,1.0
4234615,,,,,,,,-4.00390625,6.95703125,-3.51171875,-2.62109375,-1.91015625,0.603515625,-4.76953125,-0.48828125,-0.73046875,1.0
4234616,,,,,,,,-3.74609375,8.64453125,-3.6484375,-2.529296875,-1.849609375,0.626953125,-4.50390625,1.16015625,-0.9609375,1.0
4234617,,,,,,,,-3.6015625,10.40625,-2.80859375,-2.462890625,-1.640625,0.55859375,-4.35546875,2.84375,-0.30859375,1.0
4234618,,,,,,,,-3.515625,10.63671875,-2.5703125,-2.47265625,-1.48046875,0.513671875,-4.2734375,3.03515625,-0.15625,1.0
4234619,,,,,,,,-3.2109375,10.66796875,-2.54296875,-2.48828125,-1.15625,0.41796875,-3.97265625,2.99609375,-0.30859375,1.0
4234620,36.013053,129.31893283333332,30.004534644782304,72.45643274525361,3.7,43.0,,-2.7890625,9.51171875,-3.4296875,-3.615234375,-0.7265625,1.458984375,-1.859375,-13.203125,2.52734375,1.0
4234621,,,,,,,,-2.43359375,6.92578125,-3.74609375,-2.4296875,-0.78125,0.279296875,-3.19921875,-0.83203125,-1.80078125,1.0
4234622,,,,,,,,-2.55078125,4.6484375,-3.54296875,-2.318359375,-0.626953125,0.263671875,-3.31640625,-3.171875,-1.80078125,1.0
4234623,,,,,,,,-2.2734375,2.54296875,-2.9609375,-2.0703125,-0.568359375,0.30078125,-3.046875,-5.31640625,-1.3828125,1.0
4234624,,,,,,,,-0.6171875,5.01953125,-0.9609375,-1.025390625,-0.45703125,0.41015625,-1.4375,-2.90234375,0.34375,1.0
4234625,,,,,,,,-0.09765625,6.69140625,-0.6328125,-0.560546875,-0.423828125,0.47265625,-0.94140625,-1.25,0.609375,1.0
4234626,,,,,,,,0.1328125,7.609375,-0.5234375,-0.0859375,-0.41015625,0.7265625,-0.75390625,-0.3359375,0.6875,1.0
4234627,,,,,,,,0.546875,10.015625,-0.53125,0.55859375,-0.314453125,1.001953125,-0.40625,2.078125,0.6875,1.0
4234628,,,,,,,,0.85546875,12.0390625,-0.70703125,0.93359375,-0.224609375,1.052734375,-0.17578125,4.109375,0.57421875,1.0
4234629,,,,,,,,0.51953125,13.625,-0.6875,0.669921875,-0.30859375,0.330078125,-0.59765625,5.71875,0.6875,1.0
4234630,36.01305516666666,129.3189363333333,30.320054710090105,72.69684552050512,3.7,47.0,,0.046875,13.203125,-1.71484375,-3.615234375,-0.7265625,1.458984375,-1.859375,-13.203125,2.52734375,1.0
4234631,,,,,,,,-0.140625,11.29296875,-1.75390625,-0.005859375,-0.39453125,-1.04296875,-1.171875,3.37890625,-0.34765625,1.0
4234632,,,,,,,,-0.8828125,9.01171875,0.0546875,-0.060546875,-0.400390625,-1.44921875,-1.8203125,1.08203125,1.453125,1.0
4234633,,,,,,,,-1.984375,6.72265625,1.94140625,-0.095703125,-0.400390625,-1.669921875,-2.78125,-1.21484375,3.328125,1.0
4234634,,,,,,,,-4.3359375,-0.46484375,4.71484375,0.013671875,-0.408203125,-1.638671875,-5.0,-8.4140625,6.08984375,1.0
4234635,,,,,,,,-3.0078125,-12.75390625,5.01953125,0.16796875,-0.353515625,-1.259765625,-3.546875,-20.7109375,6.39453125,1.0
4234636,,,,,,,,-1.51171875,-21.44921875,4.3671875,0.23828125,-0.3515625,-0.935546875,-2.01171875,-29.41015625,5.7421875,1.0
4234637,,,,,,,,24.51171875,-54.125,22.37890625,0.423828125,-0.408203125,-0.302734375,24.07421875,-62.0859375,23.78515625,1.0
4234638,,,,,,,,11.2890625,-31.640625,24.08203125,0.779296875,-0.36328125,0.166015625,10.859375,-39.60546875,25.55078125,1.0
4234639,,,,,,,,-0.6171875,-8.65625,5.5,1.142578125,-0.28515625,0.21484375,-1.0546875,-16.6171875,7.046875,1.0
4234640,36.01305716666666,129.3189395,30.605525215679435,72.918764996143,3.5,50.0,,-8.75390625,-4.7265625,1.12890625,1.705078125,-0.32421875,0.595703125,-9.21484375,-12.67578125,2.79296875,1.0
4234641,,,,,,,,-8.046875,-7.890625,0.31640625,1.578125,-0.439453125,1.056640625,-8.5625,-15.8125,2.10546875,1.0
4234642,,,,,,,,-4.421875,-13.7265625,1.5234375,0.31640625,0.767578125,0.5859375,-5.0,-21.63671875,3.40625,1.0
4234643,,,,,,,,-0.70703125,-16.8984375,3.953125,-0.7578125,1.2265625,0.6171875,-1.32421875,-24.8125,5.8203125,1.0
4234644,,,,,,,,3.66015625,-13.65234375,5.02734375,-0.1875,0.546875,-1.830078125,3.04296875,-21.59375,6.85546875,1.0
4234645,,,,,,,,3.62890625,-9.94140625,0.8671875,1.3203125,0.052734375,-4.1328125,3.46484375,-17.9140625,2.71875,1.0
4234646,,,,,,,,2.5,-9.28515625,-0.72265625,3.69140625,0.255859375,-1.251953125,2.546875,-17.23046875,1.33984375,1.0
4234647,,,,,,,,2.26171875,-8.203125,-0.25390625,3.490234375,0.689453125,0.646484375,2.31640625,-16.08203125,2.10546875,1.0
4234648,,,,,,,,2.375,-6.3515625,0.38671875,2.99609375,0.87890625,0.939453125,2.390625,-14.20703125,2.87109375,1.0
4234649,,,,,,,,3.0078125,-3.1875,-0.515625,2.455078125,1.189453125,0.7265625,2.9296875,-10.98828125,2.1796875,1.0
4234650,36.01305883333334,129.31894150000002,30.78582221583774,73.10369769807143,3.2,49.0,,3.90625,1.30078125,-3.73046875,2.271484375,1.5546875,0.236328125,3.734375,-6.42578125,-0.76953125,1.0
4234651,,,,,,,,4.703125,6.26953125,-4.44140625,2.33984375,1.646484375,0.92578125,4.34765625,-1.33203125,-1.11328125,1.0
4234652,,,,,,,,4.34765625,7.9609375,-4.18359375,2.15625,1.59375,0.96484375,3.92578125,0.390625,-0.76953125,1.0
4234653,,,,,,,,2.89453125,9.125,-4.9375,1.8828125,1.42578125,0.828125,2.35546875,1.6171875,-1.3828125,1.0
4234654,,,,,,,,2.7109375,8.94921875,-5.3515625,1.865234375,1.3125,0.716796875,2.125,1.46484375,-1.7265625,1.0
4234655,,,,,,,,2.19140625,8.54296875,-5.74609375,1.978515625,0.923828125,0.609375,1.47265625,1.16015625,-1.9140625,1.0
4234656,,,,,,,,2.14453125,8.35546875,-5.77734375,1.998046875,0.810546875,0.703125,1.39453125,1.00390625,-1.87890625,1.0
4234657,,,,,,,,2.890625,6.9765625,-6.33984375,1.8671875,0.611328125,0.916015625,2.046875,-0.296875,-2.296875,1.0
4234658,,,,,,,,3.12109375,6.4375,-6.6328125,1.630859375,0.5390625,0.96484375,2.23828125,-0.796875,-2.53125,1.0
4234659,,,,,,,,4.3203125,3.3828125,-6.02734375,0.873046875,0.51171875,0.890625,3.3125,-3.78515625,-1.80078125,1.0
4234660,36.01306066666667,129.31894433333335,31.041243153783043,73.30712387565227,3.5,48.0,,4.3203125,3.34375,-5.81640625,0.791015625,0.60546875,0.818359375,3.234375,-3.78515625,-1.53515625,1.0
4234661,,,,,,,,3.36328125,4.109375,-4.66796875,0.830078125,0.56640625,0.75,2.19921875,-2.98046875,-0.34765625,1.0
4234662,,,,,,,,2.28515625,5.2578125,-3.96484375,0.90234375,0.548828125,0.673828125,1.05078125,-1.79296875,0.41796875,1.0
4234663,,,,,,,,1.47265625,6.4296875,-3.640625,0.873046875,0.537109375,0.63671875,0.20703125,-0.6015625,0.765625,1.0
4234664,,,,,,,,1.0390625,7.96875,-3.49609375,0.626953125,0.482421875,0.53125,-0.2890625,0.97265625,0.95703125,1.0
4234665,,,,,,,,0.46484375,10.51171875,-2.9453125,0.185546875,0.40625,0.345703125,-0.90234375,3.53125,1.53125,1.0
4234666,,,,,,,,0.3828125,12.203125,-3.0,-0.251953125,0.373046875,-0.205078125,-1.015625,5.22265625,1.453125,1.0
4234667,,,,,,,,2.12109375,11.73046875,-3.78125,-0.341796875,0.408203125,-0.607421875,0.74609375,4.71875,0.6484375,1.0
4234668,,,,,,,,2.83203125,11.390625,-3.83984375,-0.365234375,0.42578125,-0.794921875,1.47265625,4.375,0.57421875,1.0
4234669,,,,,,,,3.55078125,10.58984375,-3.6484375,-0.4453125,0.470703125,-1.125,2.23828125,3.53125,0.7265625,1.0
4234670,36.01306316666667,129.31894833333334,31.401837435138553,73.58452326367731,3.8000000000000003,50.0,,4.0,7.515625,-2.140625,0.791015625,0.60546875,0.818359375,2.7734375,0.4296875,2.1796875,1.0
4234671,,,,,,,,3.07421875,3.54296875,-2.0234375,-0.5703125,0.41015625,-1.53515625,1.93359375,-3.58984375,2.2578125,1.0
4234672,,,,,,,,-0.0078125,-15.87890625,3.953125,-0.208984375,0.3515625,-1.474609375,-1.0546875,-23.046875,8.1953125,1.0
4234673,,,,,,,,-3.12890625,-28.8671875,10.2421875,-0.0703125,0.341796875,-1.359375,-4.12109375,-36.04296875,14.4765625,1.0
4234674,,,,,,,,-14.0390625,-58.98828125,19.71484375,-0.169921875,0.29296875,-0.9453125,-14.9609375,-66.1796875,23.94140625,1.0
4234675,,,,,,,,-0.44921875,-8.90625,-0.328125,-1.044921875,0.203125,0.015625,-1.32421875,-16.15625,3.828125,1.0
4234676,,,,,,,,13.3046875,-9.46484375,-7.3046875,-1.572265625,0.15625,1.1953125,12.3515625,-16.8046875,-3.296875,1.0
4234677,,,,,,,,18.0859375,-11.09375,-2.4765625,-1.11328125,0.23828125,1.55859375,17.0234375,-18.4921875,1.4140625,1.0
4234678,,,,,,,,15.57421875,-12.765625,0.078125,-0.025390625,0.1015625,1.666015625,14.45703125,-20.18359375,3.9453125,1.0
4234679,,,,,,,,5.6484375,-14.7421875,2.7265625,2.40234375,-0.673828125,1.48046875,4.421875,-22.09765625,6.703125,1.0
4234680,36.01306533333333,129.31895116666666,31.657258212336025,73.82493587280194,3.5,50.0,,1.9375,-11.86328125,-0.1171875,-1.041015625,-0.2890625,-2.705078125,0.78125,-19.22265625,3.90625,1.0
4234681,,,,,,,,0.0625,-7.37890625,-3.3671875,-0.2734375,-0.1875,-4.08203125,-0.7890625,-14.81640625,0.609375,1.0
4234682,,,,,,,,-0.890625,-4.5703125,-1.953125,-3.240234375,-0.533203125,0.2265625,-1.4765625,-12.1328125,1.875,1.0
4234683,,,,,,,,-2.59765625,-1.81640625,-1.16015625,-4.240234375,-0.962890625,1.517578125,-3.23828125,-9.52734375,2.37109375,1.0
4234684,,,,,,,,-3.78515625,-0.7109375,-2.01171875,-3.41796875,-1.005859375,0.57421875,-4.46484375,-8.5703125,1.22265625,1.0
4234685,,,,,,,,-5.08203125,1.50390625,-3.01171875,-2.587890625,-1.28515625,-0.197265625,-5.73046875,-6.4609375,-0.00390625,1.0
4234686,,,,,,,,-5.48828125,3.7265625,-3.75,-2.609375,-1.50390625,-0.18359375,-6.109375,-4.28125,-0.84375,1.0
4234687,,,,,,,,-5.45703125,6.00390625,-3.87890625,-2.89453125,-1.73046875,0.3046875,-6.03515625,-2.09765625,-1.19140625,1.0
4234688,,,,,,,,-5.3515625,9.33984375,-3.14453125,-2.8203125,-1.68359375,0.634765625,-5.92578125,1.16015625,-0.69140625,1.0
4234689,,,,,,,,-4.9609375,10.52734375,-2.15234375,-2.80859375,-1.537109375,0.482421875,-5.54296875,2.26953125,0.07421875,1.0
4234690,36.013067500000005,129.3189536666667,31.882629375092854,74.06534838123895,3.8000000000000003,47.0,,-3.80859375,12.61328125,-1.71484375,-2.96484375,-1.060546875,0.46875,-4.3828125,4.22265625,0.03515625,1.0
4234691,,,,,,,,-3.234375,10.5234375,-2.25390625,-2.841796875,-0.767578125,0.71875,-3.85546875,2.078125,-0.76953125,1.0
4234692,,,,,,,,-3.2109375,9.50390625,-2.44921875,-2.7265625,-0.69140625,0.841796875,-3.85546875,1.04296875,-1.07421875,1.0
4234693,,,,,,,,-3.79296875,5.4453125,-2.46875,-2.44921875,-0.578125,0.98046875,-4.5,-3.0546875,-1.3046875,1.0
4234694,,,,,,,,-3.68359375,4.6171875,-2.1953125,-1.931640625,-0.486328125,0.9765625,-4.46484375,-3.8984375,-1.2265625,1.0
4234695,,,,,,,,-2.49609375,3.5234375,-1.2890625,-1.244140625,-0.416015625,0.875,-3.35546875,-5.01171875,-0.4609375,1.0
4234696,,,,,,,,-1.4609375,4.328125,-0.78515625,-0.888671875,-0.37890625,0.818359375,-2.359375,-4.20703125,-0.00390625,1.0
4234697,,,,,,,,0.90234375,6.3125,-0.421875,-0.224609375,-0.341796875,0.740234375,-0.05859375,-2.21484375,0.3046875,1.0
4234698,,,,,,,,1.62890625,7.0859375,-0.3828125,0.0703125,-0.3125,0.72265625,0.62890625,-1.44921875,0.34375,1.0
4234699,,,,,,,,3.01171875,9.21484375,-0.57421875,0.6484375,-0.20703125,0.720703125,1.93359375,0.69921875,0.19140625,1.0
4234700,36.01306983333333,129.31895683333332,32.16809965893828,74.32425432176947,3.9000000000000004,46.0,0.0,3.33984375,11.046875,-1.015625,0.734375,-0.125,0.693359375,2.19921875,2.54296875,-0.1953125,1.0
4234701,,,,,,,,3.1953125,11.796875,-1.10546875,0.693359375,-0.201171875,0.4375,2.0078125,3.30859375,-0.23046875,1.0
4234702,,,,,,,,1.71875,11.85546875,-0.5390625,0.654296875,-0.33203125,-0.0078125,0.515625,3.375,0.3828125,1.0
4234703,,,,,,,,1.09765625,11.46484375,-0.34375,0.67578125,-0.3671875,-0.23828125,-0.09765625,2.99609375,0.609375,1.0
4234704,,,,,,,,-0.671875,9.8203125,0.0625,0.76953125,-0.4375,-0.62890625,-1.82421875,1.3515625,1.0703125,1.0
4234705,,,,,,,,-2.23046875,8.25,0.98828125,0.798828125,-0.455078125,-0.87890625,-3.3125,-0.21875,2.06640625,1.0
4234706,,,,,,,,-5.91796875,3.8046875,5.25390625,0.58984375,-0.4140625,-1.013671875,-6.91796875,-4.6640625,6.39453125,1.0
4234707,,,,,,,,-5.97265625,-1.94140625,2.97265625,0.123046875,-0.373046875,-0.98046875,-6.87890625,-10.40625,4.13671875,1.0
4234708,,,,,,,,-3.59765625,-11.73828125,3.5234375,-0.31640625,-0.31640625,-0.861328125,-4.42578125,-20.2109375,4.671875,1.0
4234709,,,,,,,,13.875,-44.53125,8.83984375,-0.298828125,-0.267578125,-0.708984375,13.1171875,-53.01171875,9.95703125,1.0
4234710,36.013072,129.31896033333334,32.48361959800626,74.56466717708898,3.6,50.0,,8.57421875,-37.19921875,22.9140625,0.734375,-0.125,0.693359375,2.19921875,2.54296875,-0.1953125,1.0
4234711,,,,,,,,0.796875,-12.3671875,4.43359375,0.458984375,-0.140625,-0.28515625,0.1328125,-20.8671875,5.55078125,1.0
4234712,,,,,,,,-2.7734375,-9.49609375,2.375,0.93359375,-0.1015625,-0.146484375,-3.4296875,-17.9921875,3.5234375,1.0
4234713,,,,,,,,-6.13671875,-10.61328125,1.55859375,1.962890625,-0.205078125,0.435546875,-6.80078125,-19.1015625,2.83203125,1.0
4234714,,,,,,,,-4.796875,-13.41015625,1.80859375,1.587890625,0.068359375,0.587890625,-5.5390625,-21.86328125,3.33203125,1.0
4234715,,,,,,,,-1.57421875,-13.5625,1.8046875,-0.22265625,0.560546875,1.041015625,-2.39453125,-22.01953125,3.3671875,1.0
4234716,,,,,,,,0.984375,-10.34765625,1.53125,0.609375,0.33203125,0.462890625,0.1328125,-18.796875,3.1015625,1.0
4234717,,,,,,,,4.46484375,-8.69140625,0.2890625,1.375,0.251953125,-3.9453125,3.76953125,-17.15234375,1.953125,1.0
4234718,,,,,,,,5.32421875,-9.2578125,0.8359375,2.19140625,0.076171875,-4.119140625,4.99609375,-17.73046875,2.640625,1.0
4234719,,,,,,,,4.87109375,-9.3515625,1.33984375,2.69140625,0.375,-2.8515625,4.69140625,-17.8046875,3.25390625,1.0
4234720,36.013073999999996,129.3189635,32.76908998855109,74.78658672214064,3.6,51.0,,2.74609375,-3.4609375,-0.05078125,2.609375,1.283203125,-0.083984375,2.62109375,-11.79296875,2.48828125,1.0
4234721,,,,,,,,2.953125,0.78125,-3.47265625,2.572265625,1.357421875,-0.25390625,2.8125,-7.5,-0.73046875,1.0
4234722,,,,,,,,3.734375,2.66015625,-4.5,2.63671875,1.4453125,-0.052734375,3.578125,-5.58203125,-1.6484375,1.0
4234723,,,,,,,,4.3828125,5.75390625,-3.703125,2.400390625,1.5859375,0.666015625,4.1171875,-2.40234375,-0.5390625,1.0
4234724,,,,,,,,4.45703125,7.66796875,-2.953125,2.1875,1.591796875,0.5859375,4.1484375,-0.44921875,0.3046875,1.0
4234725,,,,,,,,4.58203125,8.8671875,-2.96484375,1.98828125,1.375,0.05859375,4.1171875,1.42578125,0.2265625,1.0
4234726,,,,,,,,4.31640625,10.23828125,-4.00390625,2.0703125,1.1796875,0.07421875,3.4609375,3.41796875,-1.34375,1.0
4234727,,,,,,,,3.8828125,12.12109375,-5.890625,1.8984375,0.9609375,0.814453125,3.3125,4.26171875,-1.9921875,1.0
4234728,,,,,,,,4.10546875,10.45703125,-7.16796875,1.23046875,0.611328125,1.05078125,3.38671875,2.69140625,-3.10546875,1.0
4234729,,,,,,,,4.5078125,9.20703125,-7.328125,1.064453125,0.548828125,0.927734375,3.734375,1.46484375,-3.21875,1.0
4234730,36.013076,129.31896633333332,33.02451076262081,75.00850616476703,4.0,49.0,,5.7734375,4.3046875,-7.515625,2.609375,1.283203125,-0.083984375,2.62109375,-11.79296875,2.48828125,1.0
4234731,,,,,,,,5.12109375,2.265625,-7.046875,1.033203125,0.427734375,0.390625,4.23046875,-5.39453125,-2.796875,1.0
4234732,,,,,,,,2.69921875,3.19921875,-5.90625,1.005859375,0.423828125,0.3671875,1.77734375,-4.4296875,-1.609375,1.0
4234733,,,,,,,,-1.17578125,5.19140625,-3.328125,0.72265625,0.400390625,0.359375,-2.12890625,-2.3984375,1.03125,1.0
4234734,,,,,,,,-2.30859375,5.83203125,-2.26171875,0.484375,0.384765625,0.384765625,-3.27734375,-1.75390625,2.10546875,1.0
4234735,,,,,,,,-4.4375,7.6171875,0.86328125,0.064453125,0.419921875,0.513671875,-5.4609375,0.046875,5.24609375,1.0
4234736,,,,,,,,-3.2734375,10.34765625,-2.37890625,-0.34375,0.388671875,0.68359375,-4.3515625,2.76953125,1.98828125,1.0
4234737,,,,,,,,-2.328125,11.28125,-3.35546875,-0.90625,0.333984375,0.74609375,-3.46875,3.69140625,0.95703125,1.0
4234738,,,,,,,,0.33984375,12.890625,-5.25390625,-1.541015625,0.3828125,0.509765625,-0.86328125,5.26171875,-1.03515625,1.0
4234739,,,,,,,,1.58984375,12.921875,-5.72265625,-1.8203125,0.4453125,0.27734375,0.36328125,5.2578125,-1.57421875,1.0
4234740,36.013078666666665,129.31896999999998,33.35505524048014,75.30439872853465,4.0,49.0,,2.29296875,11.4296875,-5.71875,2.609375,1.283203125,-0.083984375,1.05078125,3.69140625,-1.7265625,1.0
4234741,,,,,,,,2.67578125,9.27734375,-4.61328125,-1.3046875,0.55078125,-1.078125,1.46875,1.46484375,-0.76953125,1.0
4234742,,,,,,,,2.8203125,6.7421875,-2.0,-0.599609375,0.541015625,-1.462890625,1.6640625,-1.1015625,1.796875,1.0
4234743,,,,,,,,3.77734375,2.92578125,-0.53515625,0.388671875,0.458984375,-1.904296875,2.73828125,-4.9296875,3.25390625,1.0
4234744,,,,,,,,1.6953125,-17.1171875,6.67578125,0.279296875,0.287109375,-1.673828125,0.859375,-24.97265625,10.49609375,1.0
4234745,,,,,,,,-6.14453125,-41.5859375,18.6953125,-0.1015625,0.21875,-1.2109375,-6.87890625,-49.4453125,22.5234375,1.0
4234746,,,,,,,,-10.48046875,-51.953125,7.8984375,-0.3203125,0.19140625,-0.90234375,-11.16796875,-59.828125,11.71875,1.0
4234747,,,,,,,,-9.140625,-32.8515625,8.59765625,-0.783203125,0.107421875,0.220703125,-3.1640625,-16.9609375,8.73046875,1.0
4234748,,,,,,,,1.1796875,-5.99609375,1.296875,-0.7265625,0.01171875,0.810546875,3.6953125,-14.12890625,0.6875,1.0
4234749,,,,,,,,4.3828125,-6.1796875,-3.0,-0.810546875,-0.033203125,1.021484375,6.03125,-15.1953125,-1.80078125,1.0
4234750,36.01308100000001,129.31897283333333,33.610475847451234,75.56330460405155,3.7,49.0,,9.84765625,-15.54296875,2.41796875,1.087890625,-0.244140625,1.322265625,4.921875,-24.51171875,7.27734375,1.0
4234751,,,,,,,,2.6953125,-11.97265625,0.96875,-1.548828125,-0.22265625,-1.8125,0.66796875,-18.11328125,3.33203125,1.0
4234752,,,,,,,,0.20703125,-7.88671875,-1.83203125,-1.390625,-0.17578125,-3.99609375,-1.015625,-15.46484375,1.4140625,1.0
4234753,,,,,,,,-0.3828125,-7.37890625,-2.078125,-1.439453125,-0.447265625,-3.34765625,-1.32421875,-14.66796875,1.5703125,1.0
4234754,,,,,,,,-0.98828125,-5.6875,-1.5703125,-2.73046875,-0.73828125,0.19921875,-1.4375,-12.859375,2.06640625,1.0
4234755,,,,,,,,-1.2109375,-3.74609375,-1.28125,-3.287109375,-1.181640625,1.453125,-2.55078125,-10.40625,0.49609375,1.0
4234756,,,,,,,,-2.80859375,-0.45703125,-3.3515625,-2.6015625,-1.208984375,0.5234375,-3.23828125,-8.87890625,-0.578125,1.0
4234757,,,,,,,,-4.08203125,2.3828125,-2.5859375,-2.5390625,-1.599609375,0.119140625,-4.46484375,-6.16015625,-0.1171875,1.0
4234758,,,,,,,,-4.59765625,4.05859375,-2.1015625,-2.80859375,-1.716796875,0.365234375,-4.96484375,-4.51171875,0.265625,1.0
4234759,,,,,,,,-4.7421875,5.46875,-1.98828125,-2.9296875,-1.857421875,0.669921875,-5.12109375,-3.171875,0.11328125,1.0
4234760,36.013083333333334,129.31897533333333,33.8358468382389,75.82221036856696,3.7,45.0,,-5.03125,8.453125,-2.40625,-2.736328125,-1.80078125,0.611328125,-5.421875,-0.2578125,-0.5390625,1.0
4234761,,,,,,,,-4.5859375,10.8828125,-1.98828125,-2.611328125,-1.623046875,0.646484375,-5.00390625,2.1171875,-0.34765625,1.0
4234762,,,,,,,,-4.08203125,11.92578125,-2.05859375,-2.52734375,-1.4296875,0.91015625,-4.5390625,3.11328125,-0.65234375,1.0
4234763,,,,,,,,-4.01953125,10.4921875,-2.38671875,-2.423828125,-1.162109375,0.943359375,-4.54296875,1.65625,-1.19140625,1.0
4234764,,,,,,,,-3.87890625,8.03515625,-2.2109375,-2.318359375,-0.923828125,0.748046875,-4.46484375,-0.83203125,-1.2265625,1.0
4234765,,,,,,,,-3.78515625,5.67578125,-1.625,-2.251953125,-0.763671875,0.529296875,-4.42578125,-3.20703125,-0.84375,1.0
4234766,,,,,,,,-3.578125,5.453125,-1.2265625,-2.177734375,-0.689453125,0.48828125,-4.234375,-3.4375,-0.5390625,1.0
4234767,,,,,,,,-2.84375,5.46875,-0.30859375,-1.794921875,-0.6015625,0.49609375,-3.55078125,-3.4375,0.19140625,1.0
4234768,,,,,,,,-0.96484375,6.3125,0.16015625,-1.115234375,-0.595703125,0.556640625,-1.70703125,-2.59375,0.53515625,1.0
4234769,,,,,,,,0.73828125,8.00390625,0.0,-0.45703125,-0.5234375,0.669921875,-0.05859375,-0.91015625,0.3046875,1.0
4234770,36.01308516666666,129.3189785,34.121317223528756,76.02563675255094,3.8000000000000003,47.0,,1.9765625,11.87890625,-0.984375,1.103515625,-0.185546875,1.0078125,0.9375,2.99609375,-0.578125,1.0
4234771,,,,,,,,1.39453125,12.73828125,-0.38671875,1.123046875,-0.240234375,0.478515625,0.28515625,3.87890625,0.11328125,1.0
4234772,,,,,,,,0.4375,12.26953125,-0.09765625,0.974609375,-0.29296875,-0.330078125,-0.671875,3.4140625,0.49609375,1.0
4234773,,,,,,,,-1.1171875,10.69921875,0.24609375,0.86328125,-0.31640625,-0.720703125,-2.203125,1.84765625,0.87890625,1.0
4234774,,,,,,,,-1.6640625,10.27734375,0.26171875,0.525390625,-0.35546875,-1.498046875,-2.97265625,0.77734375,1.1484375,1.0
4234775,,,,,,,,-2.71484375,8.171875,1.4765625,0.2421875,-0.32421875,-1.66015625,-4.0,-1.5234375,3.3671875,1.0
4234776,,,,,,,,-3.8671875,6.03515625,4.2578125,-0.166015625,-0.3125,-1.55078125,-4.80859375,-4.6640625,6.0078125,1.0
4234777,,,,,,,,-3.21875,-1.58203125,3.546875,-0.26171875,-0.298828125,-1.31640625,-1.66796875,-15.4609375,4.48046875,1.0
4234778,,,,,,,,-1.14453125,-6.59765625,3.74609375,-0.12109375,-0.28515625,-1.150390625,1.96875,-22.17578125,6.12890625,1.0
4234779,,,,,,,,16.2890625,-46.8203125,16.2109375,0.32421875,-0.265625,-0.765625,15.875,-55.69140625,16.9296875,1.0
4234780,36.01308733333334,129.31898183333334,34.421812252952826,76.26604961910978,3.6,51.0,,15.8828125,-47.2421875,23.3046875,0.787109375,-0.22265625,-0.3984375,15.53125,-56.11328125,24.0546875,1.0
4234781,,,,,,,,3.73828125,-8.890625,7.4609375,1.169921875,-0.208984375,-0.080078125,3.42578125,-17.76953125,8.2734375,1.0
4234782,,,,,,,,-0.25390625,-6.0234375,5.11328125,1.416015625,-0.181640625,0.04296875,-0.55859375,-14.89453125,5.97265625,1.0
4234783,,,,,,,,-8.10546875,-9.05859375,2.63671875,1.8984375,-0.21484375,0.390625,-8.41015625,-17.91796875,3.63671875,1.0
4234784,,,,,,,,-6.08984375,-12.76171875,2.65625,0.89453125,-0.099609375,0.716796875,-6.45703125,-21.59765625,3.8671875,1.0
4234785,,,,,,,,-2.91796875,-13.59375,2.50390625,-0.73046875,0.41796875,0.904296875,-3.35546875,-22.4375,3.71484375,1.0
4234786,,,,,,,,-0.00390625,-11.37109375,0.91796875,-0.490234375,0.419921875,0.783203125,-0.48046875,-20.2109375,2.10546875,1.0
4234787,,,,,,,,3.125,-9.44140625,1.52734375,0.931640625,0.017578125,-3.833984375,2.8125,-18.30078125,2.79296875,1.0
4234788,,,,,,,,3.53515625,-9.01953125,2.0234375,1.875,0.10546875,-2.93359375,3.54296875,-17.87890625,3.40625,1.0
4234789,,,,,,,,2.8203125,-8.4609375,1.578125,2.615234375,0.34765625,-1.427734375,2.9296875,-17.30859375,3.0625,1.0
4234790,36.01308933333333,129.3189846666667,34.677232944390596,76.48796910988936,3.5,50.0,,2.515625,-1.015625,-2.6796875,2.5,1.193359375,0.330078125,2.546875,-9.7578125,-0.5390625,1.0
4234791,,,,,,,,3.84765625,1.52734375,-4.12890625,2.37109375,1.318359375,0.322265625,3.84765625,-7.19140625,-1.87890625,1.0
4234792,,,,,,,,4.73046875,3.1796875,-3.99609375,2.54296875,1.46484375,0.74609375,4.61328125,-5.47265625,-1.41796875,1.0
4234793,,,,,,,,4.9375,4.7578125,-3.265625,2.556640625,1.51171875,0.736328125,4.765625,-3.859375,-0.578125,1.0
4234794,,,,,,,,4.44921875,7.0703125,-3.3203125,2.435546875,1.521484375,0.494140625,4.19140625,-1.484375,-0.421875,1.0
4234795,,,,,,,,3.9296875,8.36328125,-3.9375,2.369140625,1.466796875,0.380859375,3.6171875,-0.14453125,-0.921875,1.0
4234796,,,,,,,,3.6484375,9.15234375,-4.484375,2.333984375,1.416015625,0.30859375,3.3125,0.66015625,-1.3828125,1.0
4234797,,,,,,,,3.37109375,10.26171875,-5.0625,2.3828125,1.26171875,0.46875,2.9609375,1.84765625,-1.765625,1.0
4234798,,,,,,,,3.2265625,10.8828125,-5.34765625,2.359375,1.1796875,0.689453125,2.7734375,2.5,-1.95703125,1.0
4234799,,,,,,,,3.515625,10.87890625,-6.0625,1.8203125,0.896484375,1.193359375,2.89453125,2.61328125,-2.4140625,1.0
4234800,36.013091333333335,129.31898783333332,34.96270321252124,76.7098887275954,3.7,50.0,0.0,6.40625,7.0078125,-7.24609375,1.185546875,0.583984375,0.77734375,5.57421875,-1.140625,-3.37109375,1.0
4234801,,,,,,,,6.33203125,5.30859375,-6.94921875,1.15625,0.55078125,0.599609375,5.4140625,-2.78515625,-2.98828125,1.0
4234802,,,,,,,,3.7890625,5.61328125,-5.50390625,0.99609375,0.5390625,0.548828125,2.8125,-2.44140625,-1.45703125,1.0
4234803,,,,,,,,2.55859375,5.93359375,-4.73046875,0.8828125,0.513671875,0.55859375,1.55078125,-2.09765625,-0.65234375,1.0
4234804,,,,,,,,-0.98828125,6.9765625,-2.75390625,0.693359375,0.509765625,0.59765625,-2.046875,-1.0234375,1.37890625,1.0
4234805,,,,,,,,-4.59765625,8.24609375,2.0234375,0.48828125,0.484375,0.658203125,-5.73046875,0.27734375,6.20703125,1.0
4234806,,,,,,,,-3.56640625,9.7109375,-0.2421875,0.05078125,0.376953125,0.701171875,-4.765625,1.7734375,3.9453125,1.0
4234807,,,,,,,,0.40234375,11.32421875,-3.171875,-0.60546875,0.392578125,0.591796875,-0.86328125,3.375,0.9921875,1.0
4234808,,,,,,,,1.46875,11.640625,-3.859375,-1.0234375,0.4453125,0.435546875,0.171875,3.6875,0.265625,1.0
4234809,,,,,,,,2.80078125,11.92578125,-4.65234375,-1.810546875,0.52734375,-0.005859375,1.47265625,3.91796875,-0.65234375,1.0
4234810,36.01309366666667,129.31899133333334,35.278222917522434,76.96879489081813,3.8000000000000003,50.0,,3.25390625,10.28125,-4.2109375,-2.001953125,0.5625,-0.623046875,5.57421875,-1.140625,-3.37109375,1.0
4234811,,,,,,,,1.54296875,5.23828125,-0.68359375,-0.560546875,0.5546875,-1.08984375,0.28515625,-2.94140625,2.9453125,1.0
4234812,,,,,,,,1.34375,-1.33984375,-0.1015625,0.45703125,0.4453125,-1.36328125,0.171875,-9.5234375,3.5234375,1.0
4234813,,,,,,,,-1.1171875,-16.625,5.3203125,0.525390625,0.345703125,-1.373046875,-2.2421875,-24.81640625,8.9609375,1.0
4234814,,,,,,,,-7.7421875,-47.5859375,14.9375,0.150390625,0.22265625,-1.0703125,-8.71875,-55.765625,18.6171875,1.0
4234815,,,,,,,,-12.9375,-37.91796875,8.09375,-0.4296875,0.294921875,-0.6171875,-13.8515625,-46.11328125,11.7578125,1.0
4234816,,,,,,,,-1.23828125,-7.36328125,3.23828125,-0.857421875,0.3359375,-0.068359375,-2.12890625,-15.58203125,6.85546875,1.0
4234817,,,,,,,,10.1953125,-9.1171875,-4.8125,-0.642578125,0.37890625,0.5625,9.25,-17.38671875,-1.3046875,1.0
4234818,,,,,,,,10.80078125,-13.3515625,-2.0703125,-0.388671875,0.40625,0.716796875,9.82421875,-21.6328125,1.4140625,1.0
4234819,,,,,,,,8.12890625,-17.23828125,1.0546875,0.951171875,0.359375,1.083984375,7.06640625,-25.50390625,4.5546875,1.0
4234820,36.013096000000004,129.31899433333334,35.548668211181564,77.22770088267967,3.7,49.0,,4.796875,-15.1328125,0.37109375,-0.5390625,-0.15234375,-0.734375,3.6953125,-23.359375,3.98046875,1.0
4234821,,,,,,,,-0.15234375,-7.8359375,-2.359375,-0.61328125,-0.052734375,-3.388671875,-0.94140625,-16.16015625,1.1484375,1.0
4234822,,,,,,,,-0.5234375,-6.65625,-2.7109375,-1.0703125,-0.04296875,-2.41015625,-1.171875,-15.0078125,0.765625,1.0
4234823,,,,,,,,-0.4453125,-3.703125,-3.59765625,-2.5546875,-0.279296875,0.677734375,-1.015625,-12.1328125,-0.26953125,1.0
4234824,,,,,,,,-0.67578125,-2.66015625,-3.90234375,-2.91015625,-0.546875,1.36328125,-1.28515625,-11.1328125,-0.69140625,1.0
4234825,,,,,,,,-2.20703125,-0.4609375,-4.16015625,-2.83203125,-0.71875,0.884765625,-2.89453125,-9.03125,-1.19140625,1.0
4234826,,,,,,,,-3.5390625,1.45703125,-3.0859375,-2.740234375,-1.08984375,0.041015625,-4.234375,-7.2265625,-0.4609375,1.0
4234827,,,,,,,,-4.0234375,2.39453125,-2.45703125,-2.939453125,-1.21875,0.017578125,-4.6953125,-6.34765625,0.03515625,1.0
4234828,,,,,,,,-4.8125,4.125,-2.91015625,-3.228515625,-1.537109375,0.185546875,-5.4609375,-4.703125,-0.69140625,1.0
4234829,,,,,,,,-5.171875,5.109375,-3.05859375,-3.060546875,-1.630859375,0.384765625,-5.8046875,-3.78125,-1.11328125,1.0
4234830,36.013098166666666,129.31899733333333,35.81911356382068,77.4681136742954,3.8000000000000003,49.0,,-5.2421875,8.11328125,-3.51171875,-0.5390625,-0.15234375,-0.734375,-5.8828125,-0.83203125,-1.80078125,1.0
4234831,,,,,,,,-5.15625,10.37890625,-3.00390625,-2.716796875,-1.44140625,0.919921875,-5.84765625,1.38671875,-1.53515625,1.0
4234832,,,,,,,,-4.390625,12.40234375,-2.1171875,-2.61328125,-1.244140625,1.0703125,-5.15625,3.37890625,-0.8828125,1.0
4234833,,,,,,,,-3.55078125,10.6796875,-2.03515625,-2.5859375,-0.966796875,0.763671875,-4.42578125,1.6171875,-1.15234375,1.0
4234834,,,,,,,,-2.77734375,6.7890625,-1.921875,-2.60546875,-0.798828125,0.556640625,-3.6953125,-2.2890625,-1.265625,1.0
4234835,,,,,,,,-1.62109375,3.73828125,-1.6484375,-2.515625,-0.66796875,0.595703125,-2.58984375,-5.35546875,-1.2265625,1.0
4234836,,,,,,,,-0.484375,4.30859375,-0.640625,-2.009765625,-0.6640625,0.771484375,-1.515625,-4.7734375,-0.421875,1.0
4234837,,,,,,,,-0.10546875,6.52734375,0.625,-1.203125,-0.63671875,0.798828125,-1.20703125,-2.55859375,0.6875,1.0
4234838,,,,,,,,-0.06640625,7.2890625,1.015625,-0.76171875,-0.5703125,0.7890625,-1.20703125,-1.79296875,1.03125,1.0
4234839,,,,,,,,0.38671875,8.734375,1.4609375,0.201171875,-0.4375,0.798828125,-0.82421875,-0.3359375,1.45703125,1.0
4234840,36.013100333333334,129.31900016666665,36.07453410715861,77.7085264149654,3.9000000000000004,47.0,,1.15234375,10.51953125,1.62109375,1.14453125,-0.3203125,0.94921875,-0.13671875,1.46484375,1.6796875,1.0
4234841,,,,,,,,0.84765625,12.6484375,2.0078125,1.357421875,-0.265625,0.677734375,-0.51953125,3.61328125,2.1796875,1.0
4234842,,,,,,,,-0.421875,13.37109375,0.4921875,0.68359375,-0.314453125,-0.111328125,-1.8203125,4.3359375,0.765625,1.0
4234843,,,,,,,,-1.015625,12.87109375,-0.62890625,-0.228515625,-0.35546875,-1.087890625,-2.359375,3.83984375,-0.34765625,1.0
4234844,,,,,,,,-1.484375,12.234375,-0.21484375,-0.4140625,-0.361328125,-1.763671875,-2.703125,3.19140625,0.03515625,1.0
4234845,,,,,,,,-2.46875,10.86328125,1.83984375,-0.12109375,-0.38671875,-2.013671875,-3.51171875,1.80859375,2.06640625,1.0
4234846,,,,,,,,-2.8671875,10.34375,2.56640625,-0.0859375,-0.41015625,-1.95703125,-3.8125,1.2734375,2.79296875,1.0
4234847,,,,,,,,-3.8671875,8.3203125,5.45703125,-0.140625,-0.435546875,-1.61328125,-4.65625,-0.7578125,5.6640625,1.0
4234848,,,,,,,,-2.16015625,0.31640625,3.3125,0.056640625,-0.451171875,-1.275390625,-2.81640625,-8.7578125,3.5234375,1.0
4234849,,,,,,,,2.87109375,-12.296875,1.42578125,0.29296875,-0.4453125,-0.939453125,2.31640625,-21.3671875,1.64453125,1.0
4234850,36.013102499999995,129.31900383333334,36.40507861470317,77.94893947190664,3.8000000000000003,50.0,,15.10546875,-53.70703125,17.33203125,1.14453125,-0.3203125,0.94921875,-0.13671875,1.46484375,1.6796875,1.0
4234851,,,,,,,,12.50390625,-33.1328125,24.33203125,0.78125,-0.3828125,-0.373046875,12.08203125,-42.20703125,24.66796875,1.0
4234852,,,,,,,,8.8046875,-17.15234375,13.91015625,0.953125,-0.33203125,-0.30078125,8.40625,-26.2265625,14.28515625,1.0
4234853,,,,,,,,-10.08984375,-4.98046875,-0.40625,1.728515625,-0.1875,0.1953125,-10.48046875,-14.05078125,0.2265625,1.0
4234854,,,,,,,,-6.1953125,-8.12890625,0.14453125,0.306640625,-0.09375,0.580078125,-6.609375,-17.1875,0.87890625,1.0
4234855,,,,,,,,-3.765625,-9.8515625,-0.96484375,-1.07421875,0.203125,1.42578125,-4.2734375,-18.9140625,-0.26953125,1.0
4234856,,,,,,,,-1.7890625,-10.3046875,-0.28125,0.03125,0.275390625,1.0234375,-2.359375,-19.37890625,0.3828125,1.0
4234857,,,,,,,,2.5703125,-10.14453125,3.9453125,0.736328125,0.138671875,-3.765625,2.125,-19.21875,4.671875,1.0
4234858,,,,,,,,5.3125,-10.171875,4.9609375,1.505859375,0.048828125,-4.822265625,5.265625,-19.2578125,5.78125,1.0
4234859,,,,,,,,4.703125,-9.98828125,3.6484375,2.287109375,0.34765625,-3.80078125,4.84375,-19.06640625,4.5546875,1.0
4234860,36.013104500000004,129.319007,36.69054879657181,78.17085914779031,3.7,51.0,,1.94921875,-4.89453125,-0.609375,2.865234375,1.203125,0.58203125,2.27734375,-13.9296875,0.6875,1.0
4234861,,,,,,,,1.8984375,-0.75,-1.640625,2.556640625,1.158203125,1.05859375,2.125,-9.76171875,-0.078125,1.0
4234862,,,,,,,,1.984375,0.23046875,-1.66796875,2.466796875,1.2421875,1.07421875,2.1640625,-8.7578125,-0.00390625,1.0
4234863,,,,,,,,2.63671875,2.57421875,-1.625,2.43359375,1.41796875,0.94140625,2.69921875,-6.38671875,0.265625,1.0
4234864,,,,,,,,3.265625,4.00390625,-2.82421875,2.392578125,1.537109375,0.44921875,3.1953125,-4.89453125,-0.61328125,1.0
4234865,,,,,,,,3.9375,8.76171875,-4.3671875,2.27734375,1.318359375,0.4140625,3.73828125,-0.02734375,-1.7265625,1.0
4234866,,,,,,,,3.59375,10.5390625,-4.69921875,2.287109375,1.251953125,0.560546875,3.35546875,1.7734375,-1.95703125,1.0
4234867,,,,,,,,3.1484375,11.5390625,-5.28515625,2.259765625,1.12890625,0.78515625,2.8125,2.84765625,-2.33984375,1.0
4234868,,,,,,,,3.359375,10.48828125,-5.96484375,1.91015625,0.9375,0.623046875,2.89453125,1.88671875,-2.76171875,1.0
4234869,,,,,,,,4.46875,8.50390625,-6.34765625,1.775390625,0.841796875,0.54296875,3.9609375,-0.06640625,-3.06640625,1.0
4234870,36.01310616666667,129.31901000000002,36.96099432498074,78.35579235363855,3.6,52.0,,5.57421875,6.10546875,-6.45703125,2.865234375,1.203125,0.58203125,2.27734375,-13.9296875,0.6875,1.0
4234871,,,,,,,,6.203125,4.6015625,-6.4609375,1.439453125,0.50390625,0.443359375,5.5703125,-3.859375,-2.9140625,1.0
4234872,,,,,,,,2.8203125,6.3671875,-3.953125,1.12109375,0.53515625,0.478515625,2.0859375,-1.984375,-0.1953125,1.0
4234873,,,,,,,,-0.44140625,7.88671875,-1.9609375,1.021484375,0.529296875,0.498046875,-1.20703125,-0.44921875,1.83984375,1.0
4234874,,,,,,,,-2.76953125,9.69921875,0.4375,0.734375,0.556640625,0.54296875,-3.62109375,1.42578125,4.33203125,1.0
4234875,,,,,,,,-2.77734375,10.296875,0.2578125,0.548828125,0.580078125,0.537109375,-3.66015625,2.0390625,4.171875,1.0
4234876,,,,,,,,-2.36328125,11.0859375,-0.17578125,0.294921875,0.615234375,0.474609375,-3.27734375,2.84375,3.75390625,1.0
4234877,,,,,,,,-0.01171875,12.87890625,-2.73828125,-0.421875,0.666015625,0.146484375,-0.98046875,4.640625,1.18359375,1.0
4234878,,,,,,,,0.6875,13.1171875,-3.2421875,-0.794921875,0.697265625,-0.107421875,-0.2890625,4.875,0.6484375,1.0
4234879,,,,,,,,1.9453125,13.01171875,-3.72265625,-1.298828125,0.73828125,-0.685546875,0.9765625,4.71875,0.07421875,1.0
4234880,36.013108833333334,129.3190135,37.276513750741636,78.65168500321221,4.0,50.0,,1.84375,12.6875,-3.66796875,2.865234375,1.203125,0.58203125,2.27734375,-13.9296875,0.6875,1.0
4234881,,,,,,,,1.19140625,10.55078125,-3.20703125,-0.958984375,0.72265625,-1.357421875,0.32421875,2.19140625,0.41796875,1.0
4234882,,,,,,,,0.4453125,6.66015625,-0.66796875,0.103515625,0.681640625,-1.595703125,-0.328125,-1.71484375,2.91015625,1.0
4234883,,,,,,,,0.40625,1.0234375,-1.4296875,0.669921875,0.54296875,-1.587890625,-0.25,-7.34375,2.1796875,1.0
4234884,,,,,,,,-4.0234375,-28.12109375,9.13671875,0.5,0.388671875,-1.296875,-4.578125,-36.453125,12.79296875,1.0
4234885,,,,,,,,-12.4609375,-60.30078125,16.1328125,-0.029296875,0.30859375,-0.826171875,-12.9296875,-68.6328125,19.8046875,1.0
4234886,,,,,,,,-8.5546875,-28.90234375,11.6953125,-0.736328125,0.21484375,0.037109375,-8.984375,-37.2578125,15.3203125,1.0
4234887,,,,,,,,8.0625,-3.24609375,-1.87890625,-0.736328125,0.125,0.5859375,7.6015625,-11.63671875,1.68359375,1.0
4234888,,,,,,,,13.50390625,-5.296875,-5.1171875,-0.41796875,0.013671875,1.03515625,12.96484375,-13.70703125,-1.609375,1.0
4234889,,,,,,,,8.43359375,-11.96484375,0.2890625,0.7578125,-0.134765625,1.158203125,7.75390625,-20.3671875,3.7890625,1.0
4234890,36.013111333333335,129.31901699999997,37.592033233815016,78.9290844572815,3.9000000000000004,49.0,,2.66796875,-14.8984375,0.79296875,2.865234375,1.203125,0.58203125,1.93359375,-23.2421875,4.44140625,1.0
4234891,,,,,,,,1.33203125,-12.65625,0.38671875,-0.734375,-0.076171875,-3.052734375,0.0546875,-19.9453125,3.71484375,1.0
4234892,,,,,,,,0.02734375,-9.3828125,-0.70703125,-0.828125,-0.41015625,-3.552734375,-0.671875,-16.58203125,2.71875,1.0
4234893,,,,,,,,-0.3671875,-8.1796875,-0.9140625,-1.8984375,-0.25,-2.166015625,-0.86328125,-15.62109375,2.44921875,1.0
4234894,,,,,,,,-0.90625,-6.29296875,-1.2578125,-3.3515625,-0.4453125,0.85546875,-1.24609375,-13.8203125,1.953125,1.0
4234895,,,,,,,,-2.09375,-2.71875,-2.14453125,-2.966796875,-0.71484375,1.025390625,-2.97265625,-10.18359375,0.15234375,1.0
4234896,,,,,,,,-3.94921875,0.35546875,-3.45703125,-2.185546875,-1.021484375,0.3515625,-4.16015625,-8.37890625,-0.61328125,1.0
4234897,,,,,,,,-4.9140625,2.72265625,-2.2578125,-2.59765625,-1.3125,0.029296875,-5.1171875,-6.078125,0.3828125,1.0
4234898,,,,,,,,-4.68359375,5.22265625,-2.046875,-3.2421875,-1.5,0.048828125,-4.84375,-3.66796875,0.34375,1.0
4234899,,,,,,,,-4.66015625,8.13671875,-2.56640625,-3.107421875,-1.484375,-0.015625,-4.765625,-0.87109375,-0.61328125,1.0
4234900,36.01311333333333,129.31901983333333,37.84745376820273,79.15100404126684,3.8000000000000003,49.0,0.0,-4.87109375,10.6875,-2.4765625,-2.908203125,-1.400390625,0.166015625,1.93359375,-23.2421875,4.44140625,1.0
4234901,,,,,,,,-4.546875,13.265625,-1.6171875,-2.787109375,-1.208984375,0.580078125,-4.65625,4.1484375,-0.1953125,1.0
4234902,,,,,,,,-4.30078125,13.72265625,-1.28125,-2.609375,-1.001953125,0.861328125,-4.46484375,4.5625,-0.1171875,1.0
4234903,,,,,,,,-4.3828125,12.359375,-1.78515625,-2.51171875,-0.912109375,0.859375,-4.58203125,3.1875,-0.73046875,1.0
4234904,,,,,,,,-4.78125,9.6953125,-2.0859375,-2.435546875,-0.78515625,0.634765625,-5.0390625,0.5078125,-1.265625,1.0
4234905,,,,,,,,-5.5390625,5.16015625,-0.52734375,-2.44140625,-0.74609375,0.458984375,-5.84375,-4.05078125,0.07421875,1.0
4234906,,,,,,,,-3.9140625,5.328125,1.44140625,-2.087890625,-0.63671875,0.4765625,-4.27734375,-3.8984375,1.72265625,1.0
4234907,,,,,,,,-1.9140625,6.43359375,1.3359375,-1.2890625,-0.578125,0.5390625,-2.3203125,-2.78125,1.453125,1.0
4234908,,,,,,,,0.1484375,8.0390625,0.73828125,-0.8828125,-0.517578125,0.5859375,-0.2890625,-1.18359375,0.80078125,1.0
4234909,,,,,,,,2.05078125,9.7578125,0.13671875,-0.296875,-0.361328125,0.71484375,1.546875,0.546875,0.15234375,1.0
4234910,36.013115500000005,129.319023,38.13292379385379,79.39141697063138,3.9000000000000004,48.0,,3.0859375,12.0546875,-0.27734375,0.115234375,-0.20703125,0.921875,2.5078125,2.84765625,-0.26953125,1.0
4234911,,,,,,,,1.5703125,13.07421875,-0.125,0.552734375,-0.15625,0.76171875,0.859375,3.875,-0.078125,1.0
4234912,,,,,,,,0.19140625,12.72265625,0.00390625,0.8046875,-0.2578125,0.181640625,-0.55859375,3.53515625,0.11328125,1.0
4234913,,,,,,,,-0.4140625,12.30078125,0.1171875,0.8671875,-0.310546875,-0.12890625,-1.171875,3.11328125,0.265625,1.0
4234914,,,,,,,,-1.67578125,10.828125,0.84375,0.744140625,-0.4921875,-0.830078125,-2.58984375,1.16015625,1.4921875,1.0
4234915,,,,,,,,-2.17578125,9.79296875,1.625,0.349609375,-0.521484375,-0.91796875,-3.08984375,0.0859375,2.21875,1.0
4234916,,,,,,,,-3.17578125,7.57421875,2.4296875,-0.115234375,-0.537109375,-0.7578125,-3.69921875,-1.59765625,2.7578125,1.0
4234917,,,,,,,,-4.33984375,3.734375,4.58984375,-0.20703125,-0.498046875,-0.5703125,-4.80859375,-5.4296875,4.90234375,1.0
4234918,,,,,,,,-3.90625,1.19921875,3.44921875,-0.15625,-0.4765625,-0.498046875,-4.3515625,-7.95703125,3.75390625,1.0
4234919,,,,,,,,-1.22265625,-7.50390625,1.6484375,0.09375,-0.486328125,-0.392578125,-1.62890625,-16.65234375,1.953125,1.0
4234920,36.013117666666666,129.31902683333334,38.478492973789294,79.63183017230946,3.8000000000000003,52.0,,12.15234375,-38.83984375,8.3671875,0.404296875,-0.51953125,-0.357421875,2.5078125,2.84765625,-0.26953125,1.0
4234921,,,,,,,,15.0234375,-40.3046875,27.84765625,0.701171875,-0.517578125,-0.359375,14.6875,-49.44921875,28.23046875,1.0
4234922,,,,,,,,10.60546875,-21.9921875,17.6640625,0.837890625,-0.501953125,-0.322265625,10.28515625,-31.1328125,18.078125,1.0
4234923,,,,,,,,-5.69921875,-6.33203125,4.30859375,1.166015625,-0.419921875,-0.15625,-5.99609375,-15.4609375,4.82421875,1.0
4234924,,,,,,,,-10.6328125,-7.484375,0.8515625,1.693359375,-0.34375,0.173828125,-10.9375,-16.62109375,1.4921875,1.0
4234925,,,,,,,,-7.5078125,-10.32421875,1.421875,1.37109375,-0.341796875,0.53125,-7.8359375,-19.4453125,2.21875,1.0
4234926,,,,,,,,-5.68359375,-11.3671875,1.63671875,0.8359375,-0.134765625,0.720703125,-6.03515625,-20.484375,2.48828125,1.0
4234927,,,,,,,,2.9609375,-10.2578125,1.26171875,0.599609375,0.1171875,0.880859375,2.4296875,-19.37890625,2.14453125,1.0
4234928,,,,,,,,6.05859375,-9.796875,4.59765625,0.998046875,-0.255859375,-4.349609375,5.83984375,-18.9140625,5.58984375,1.0
4234929,,,,,,,,5.36328125,-9.51953125,3.6953125,1.591796875,-0.158203125,-4.03125,5.33984375,-18.64453125,4.75,1.0
4234930,36.01311966666666,129.31902983333333,38.74893825419359,79.85374984892877,3.6,51.0,,3.6953125,-7.765625,1.734375,0.404296875,-0.51953125,-0.357421875,3.9609375,-16.84765625,3.140625,1.0
4234931,,,,,,,,2.609375,-1.44921875,-2.2421875,2.904296875,1.07421875,0.3359375,2.8515625,-10.484375,-0.5390625,1.0
4234932,,,,,,,,3.453125,0.75,-3.31640625,2.7109375,1.083984375,0.2890625,3.65625,-8.265625,-1.45703125,1.0
4234933,,,,,,,,3.80859375,2.44921875,-3.0703125,2.41796875,1.392578125,0.580078125,3.92578125,-6.5,-0.8828125,1.0
4234934,,,,,,,,4.0390625,4.11328125,-2.078125,2.4140625,1.44921875,0.513671875,4.1171875,-4.81640625,0.2265625,1.0
4234935,,,,,,,,3.46484375,8.0234375,-2.96484375,2.328125,1.40234375,0.04296875,3.421875,-0.796875,-0.23046875,1.0
4234936,,,,,,,,3.08203125,9.2265625,-3.78125,2.2890625,1.240234375,0.14453125,3.00390625,0.46875,-0.84375,1.0
4234937,,,,,,,,2.08203125,11.109375,-4.90625,2.259765625,1.05859375,0.58984375,1.93359375,2.42578125,-1.765625,1.0
4234938,,,,,,,,2.05078125,11.26953125,-5.11328125,2.154296875,0.9609375,0.830078125,1.85546875,2.61328125,-1.87890625,1.0
4234939,,,,,,,,2.87890625,10.28125,-6.12890625,1.82421875,0.802734375,1.0234375,2.58203125,1.6953125,-2.72265625,1.0
4234940,36.013121500000004,129.31903233333333,38.9743092300706,80.0571761273648,3.7,50.0,,3.43359375,9.59765625,-6.58984375,0.404296875,-0.51953125,-0.357421875,3.9609375,-16.84765625,3.140625,1.0
4234941,,,,,,,,5.17578125,6.5625,-6.96484375,1.1953125,0.578125,0.65234375,4.7265625,-1.9453125,-3.37109375,1.0
4234942,,,,,,,,5.16015625,4.83203125,-5.75,0.935546875,0.478515625,0.494140625,4.65234375,-3.62890625,-2.0703125,1.0
4234943,,,,,,,,1.828125,6.140625,-3.29296875,0.84765625,0.515625,0.6171875,1.203125,-2.25390625,0.53515625,1.0
4234944,,,,,,,,-0.3515625,7.36328125,-1.01953125,0.853515625,0.466796875,0.740234375,-1.0546875,-0.98828125,2.8671875,1.0
4234945,,,,,,,,-2.11328125,8.8125,0.01953125,0.677734375,0.41796875,0.861328125,-2.89453125,0.5078125,3.9765625,1.0
4234946,,,,,,,,-1.03125,10.7890625,-2.34765625,0.052734375,0.326171875,0.810546875,-1.8984375,2.5,1.64453125,1.0
4234947,,,,,,,,-0.38671875,11.578125,-3.10546875,-0.322265625,0.279296875,0.6875,-1.28515625,3.30859375,0.87890625,1.0
4234948,,,,,,,,0.734375,12.78125,-4.23828125,-0.845703125,0.26953125,0.21484375,-0.2109375,4.49609375,-0.30859375,1.0
4234949,,,,,,,,0.89453125,12.95703125,-4.27734375,-0.908203125,0.3203125,-0.0703125,-0.05859375,4.64453125,-0.38671875,1.0
4234950,36.01312383333333,129.31903566666668,39.27480390324018,80.31608236742036,3.7,49.0,,0.6796875,12.67578125,-4.0078125,0.404296875,-0.51953125,-0.357421875,3.9609375,-16.84765625,3.140625,1.0
4234951,,,,,,,,0.625,11.00390625,-3.1640625,0.04296875,0.498046875,-1.158203125,-0.25,2.6484375,0.609375,1.0
4234952,,,,,,,,1.14453125,9.234375,-1.890625,0.552734375,0.501953125,-1.421875,0.36328125,0.890625,1.91796875,1.0
4234953,,,,,,,,2.0,6.21484375,-0.3515625,0.39453125,0.443359375,-1.32421875,1.85546875,-4.7421875,2.87109375,1.0
4234954,,,,,,,,2.10546875,-5.859375,-0.75,-0.05859375,0.451171875,-1.076171875,1.51171875,-14.16796875,3.1015625,1.0
4234955,,,,,,,,-7.6484375,-52.38671875,19.26953125,-0.46484375,0.4609375,-0.775390625,-8.1796875,-60.70703125,23.09765625,1.0
4234956,,,,,,,,-12.19921875,-65.12109375,17.484375,-0.609375,0.48046875,-0.455078125,-12.69921875,-73.46484375,21.2578125,1.0
4234957,,,,,,,,0.75390625,-12.00390625,5.44140625,-0.35546875,0.462890625,0.1484375,0.24609375,-20.3671875,9.15234375,1.0
4234958,,,,,,,,8.30078125,-0.1875,-1.58203125,-0.1953125,0.365234375,0.48828125,7.75390625,-8.5703125,2.10546875,1.0
4234959,,,,,,,,13.4609375,-5.4765625,-6.27734375,-0.10546875,0.255859375,0.783203125,12.8515625,-13.859375,-2.60546875,1.0
4234960,36.01312600000001,129.31903883333334,39.56027385231501,80.55649534413294,3.6,49.0,,9.4765625,-13.60546875,-1.359375,0.404296875,-0.51953125,-0.357421875,3.9609375,-16.84765625,3.140625,1.0
4234961,,,,,,,,3.36328125,-16.80859375,4.0234375,1.93359375,-0.0859375,1.09765625,2.58203125,-25.1171875,7.8515625,1.0
4234962,,,,,,,,3.37890625,-16.82421875,3.9765625,-0.947265625,0.134765625,-2.201171875,1.203125,-24.0859375,6.81640625,1.0
4234963,,,,,,,,-0.15625,-12.5703125,-0.05859375,-0.958984375,-0.2734375,-4.48828125,-1.28515625,-19.3359375,2.44921875,1.0
4234964,,,,,,,,-1.328125,-7.7109375,-2.92578125,-2.419921875,-0.390625,-2.02734375,-1.59375,-16.1171875,0.80078125,1.0
4234965,,,,,,,,-1.98046875,-4.46875,-3.09765625,-2.83984375,-0.83984375,1.357421875,-2.05078125,-12.9765625,0.41796875,1.0
4234966,,,,,,,,-1.96484375,-4.421875,-3.00390625,-2.734375,-0.962890625,1.669921875,-2.359375,-12.21484375,0.57421875,1.0
4234967,,,,,,,,-2.875,-1.90625,-1.73828125,-2.35546875,-0.912109375,0.919921875,-3.46875,-9.9453125,1.9140625,1.0
4234968,,,,,,,,-4.33203125,1.92578125,-1.04296875,-2.779296875,-1.2890625,-0.12890625,-4.54296875,-6.88671875,1.72265625,1.0
4234969,,,,,,,,-4.515625,3.078125,-1.37109375,-3.130859375,-1.412109375,-0.2421875,-4.6953125,-5.77734375,1.26171875,1.0
4234970,36.01312816666667,129.31904166666666,39.815694202653034,80.79690819308544,3.7,48.0,,-4.73046875,5.9296875,-2.31640625,0.404296875,-0.51953125,-0.357421875,3.9609375,-16.84765625,3.140625,1.0
4234971,,,,,,,,-5.0234375,10.328125,-3.53515625,-2.87890625,-1.453125,0.3125,-5.12109375,1.3125,-1.45703125,1.0
4234972,,,,,,,,-4.9765625,12.94140625,-2.5625,-2.431640625,-1.251953125,0.841796875,-5.1171875,3.83984375,-0.84375,1.0
4234973,,,,,,,,-4.37109375,13.578125,-2.4375,-2.349609375,-1.173828125,0.82421875,-4.54296875,4.453125,-0.84375,1.0
4234974,,,,,,,,-4.0234375,13.1953125,-2.04296875,-2.318359375,-1.048828125,0.572265625,-4.23828125,4.03125,-0.65234375,1.0
4234975,,,,,,,,-4.14453125,10.4609375,-2.0625,-2.40625,-0.8984375,0.275390625,-4.3828125,1.2734375,-0.8828125,1.0
4234976,,,,,,,,-4.7890625,7.3515625,-1.0703125,-2.4609375,-0.734375,0.130859375,-5.0390625,-1.8671875,-0.1171875,1.0
4234977,,,,,,,,-4.4375,6.00390625,-0.05078125,-1.626953125,-0.525390625,0.447265625,-4.734375,-3.24609375,0.49609375,1.0
4234978,,,,,,,,-3.5390625,6.078125,-0.05859375,-1.265625,-0.46875,0.533203125,-3.8515625,-3.171875,0.41796875,1.0
4234979,,,,,,,,-2.02734375,7.0,-0.19921875,-0.6640625,-0.328125,0.673828125,-2.39453125,-2.25,0.19140625,1.0
4234980,36.0131305,129.3190445,40.07111445573506,81.05581425666566,3.9000000000000004,47.0,,0.76171875,9.296875,0.265625,-0.302734375,-0.13671875,0.765625,0.32421875,0.046875,0.609375,1.0
4234981,,,,,,,,2.1328125,11.16796875,1.1328125,-0.064453125,0.01171875,0.814453125,1.625,1.92578125,1.453125,1.0
4234982,,,,,,,,1.21484375,12.0390625,0.7421875,0.14453125,0.013671875,0.7109375,0.62890625,2.80859375,1.0703125,1.0
4234983,,,,,,,,0.7890625,12.1171875,0.4375,0.171875,-0.05078125,0.533203125,0.171875,2.8828125,0.765625,1.0
4234984,,,,,,,,0.08984375,12.29296875,-0.23828125,0.27734375,-0.166015625,0.0078125,-0.55859375,3.0703125,0.11328125,1.0
4234985,,,,,,,,-0.125,11.90234375,-0.875,0.4375,-0.27734375,-0.48046875,-0.75,2.6875,-0.5,1.0
4234986,,,,,,,,-0.1015625,11.203125,-0.984375,0.349609375,-0.435546875,-0.724609375,-0.6328125,2.0,-0.5390625,1.0
4234987,,,,,,,,-0.625,9.93359375,-0.39453125,0.044921875,-0.45703125,-0.640625,-1.09375,0.73828125,0.07421875,1.0
4234988,,,,,,,,-1.4140625,8.70703125,0.6484375,-0.0078125,-0.45703125,-0.58203125,-1.86328125,-0.48828125,1.109375,1.0
4234989,,,,,,,,-3.5,6.4375,3.359375,0.052734375,-0.44140625,-0.51171875,-3.890625,-2.75,3.828125,1.0
4234990,36.0131325,129.31904799999998,40.3866340196702,81.27773418919202,3.7,52.0,,-5.33984375,4.546875,6.68359375,-0.302734375,-0.13671875,0.765625,-5.69140625,-4.625,7.15625,1.0
4234991,,,,,,,,-2.88671875,-0.74609375,-0.77734375,0.35546875,-0.42578125,-0.314453125,-3.19921875,-9.91015625,-0.26953125,1.0
4234992,,,,,,,,1.72265625,-11.4140625,-0.9921875,0.38671875,-0.455078125,-0.205078125,1.43359375,-20.56640625,-0.4609375,1.0
4234993,,,,,,,,5.40234375,-23.94140625,1.25,0.400390625,-0.453125,-0.126953125,5.11328125,-33.0859375,1.796875,1.0
4234994,,,,,,,,13.046875,-67.85546875,28.09765625,0.509765625,-0.4296875,0.025390625,12.7734375,-76.984375,28.69140625,1.0
4234995,,,,,,,,7.1171875,-19.58984375,13.046875,1.02734375,-0.296875,0.08203125,6.8359375,-28.72265625,13.75,1.0
4234996,,,,,,,,-1.87890625,-3.62890625,3.68359375,1.8828125,-0.1328125,-0.044921875,-2.16796875,-12.7421875,4.51953125,1.0
4234997,,,,,,,,-4.94921875,-5.29296875,-0.53515625,2.2109375,-0.111328125,0.01953125,-5.23046875,-14.390625,0.49609375,1.0
4234998,,,,,,,,-6.51171875,-6.11328125,-2.12109375,1.6015625,-0.0859375,0.181640625,-6.80078125,-15.19921875,-0.99609375,1.0
4234999,,,,,,,,-3.25390625,-10.546875,-0.09375,-1.35546875,0.37109375,1.87890625,-3.66015625,-19.64453125,1.03125,1.0
4235000,36.0131345,129.31905116666667,40.672103994238455,81.49965399559906,3.4000000000000004,53.0,0.0,0.6953125,-11.92578125,2.67578125,-0.302734375,-0.13671875,0.765625,0.171875,-21.015625,3.75390625,1.0
4235001,,,,,,,,2.6171875,-11.8515625,3.7421875,2.021484375,-0.01171875,-4.630859375,2.546875,-20.94921875,5.015625,1.0
4235002,,,,,,,,3.125,-9.67578125,1.71875,2.578125,0.31640625,-3.6640625,3.234375,-18.76171875,3.1015625,1.0
4235003,,,,,,,,2.73046875,-6.92578125,0.06640625,3.34375,0.83984375,-0.25,3.00390625,-15.9609375,1.72265625,1.0
4235004,,,,,,,,2.1875,-1.80078125,-2.0703125,3.001953125,1.083984375,1.166015625,2.390625,-10.79296875,-0.1171875,1.0
4235005,,,,,,,,3.73828125,3.03125,-3.81640625,2.28125,1.369140625,0.845703125,3.76953125,-5.890625,-1.49609375,1.0
4235006,,,,,,,,4.0625,3.7734375,-3.60546875,2.251953125,1.4609375,0.724609375,4.0390625,-5.125,-1.19140625,1.0
4235007,,,,,,,,4.30859375,6.05859375,-3.0546875,2.328125,1.57421875,0.38671875,4.19140625,-2.78515625,-0.421875,1.0
4235008,,,,,,,,4.02734375,6.9921875,-3.7890625,2.158203125,1.560546875,0.13671875,3.84375,-1.7890625,-0.9609375,1.0
4235009,,,,,,,,3.859375,7.39453125,-4.41015625,2.048828125,1.46484375,0.072265625,3.66015625,-1.37109375,-1.49609375,1.0
4235010,36.013136333333335,129.31905333333333,40.86742530603203,81.7030801828385,3.6,50.0,,3.40234375,7.609375,-5.43359375,2.03125,1.1875,0.41015625,3.12109375,-1.0625,-2.26171875,1.0
4235011,,,,,,,,3.8359375,7.015625,-6.0,1.666015625,0.71875,1.013671875,3.3515625,-1.5234375,-2.4921875,1.0
4235012,,,,,,,,4.38671875,6.140625,-6.21484375,1.51953125,0.619140625,0.96484375,3.84765625,-2.3671875,-2.64453125,1.0
4235013,,,,,,,,4.6953125,5.51953125,-6.140625,1.353515625,0.42578125,0.73828125,4.078125,-2.94140625,-2.453125,1.0
4235014,,,,,,,,4.0078125,6.5,-4.83984375,1.306640625,0.30859375,0.59375,3.31640625,-1.90625,-1.03515625,1.0
4235015,,,,,,,,2.25390625,8.51953125,-2.8359375,1.24609375,0.337890625,0.66796875,1.46875,0.19921875,1.109375,1.0
4235016,,,,,,,,1.48046875,9.33984375,-2.4609375,1.115234375,0.337890625,0.677734375,0.66796875,1.04296875,1.53125,1.0
4235017,,,,,,,,-0.91015625,11.62890625,0.9140625,0.638671875,0.31640625,0.609375,-1.78515625,3.37890625,4.9765625,1.0
4235018,,,,,,,,-0.73828125,13.03125,0.46875,-0.041015625,0.25,0.400390625,-1.66796875,4.80078125,4.5546875,1.0
4235019,,,,,,,,-0.33984375,13.90625,-0.36328125,-0.41015625,0.216796875,0.224609375,-1.28515625,5.68359375,3.71484375,1.0
4235020,36.0131385,129.31905749999999,41.24304389422956,81.9434936337828,3.9000000000000004,53.0,,0.42578125,15.4296875,-3.16796875,2.03125,1.1875,0.41015625,-0.51953125,7.17578125,0.83984375,1.0
4235021,,,,,,,,0.34765625,15.41015625,-4.3203125,-1.41796875,0.13671875,-0.8828125,-0.55859375,7.09765625,-0.421875,1.0
4235022,,,,,,,,-0.09765625,14.15234375,-4.10546875,-0.99609375,0.220703125,-1.47265625,-0.90234375,5.7890625,-0.30859375,1.0
4235023,,,,,,,,-0.23046875,11.53515625,-2.86328125,-0.140625,0.357421875,-1.791015625,-0.90234375,3.15234375,0.87890625,1.0
4235024,,,,,,,,0.40234375,9.53515625,-2.11328125,0.53515625,0.404296875,-1.80078125,-0.13671875,1.16015625,1.640625,1.0
4235025,,,,,,,,2.90625,0.31640625,-2.375,0.07421875,0.23828125,-1.072265625,2.546875,-8.03515625,1.4140625,1.0
4235026,,,,,,,,1.5078125,-12.78515625,1.234375,-0.322265625,0.255859375,-0.58203125,1.203125,-21.13671875,5.015625,1.0
4235027,,,,,,,,-4.98828125,-42.08203125,14.64453125,-0.62109375,0.279296875,-0.12890625,-5.26953125,-50.4375,18.38671875,1.0
4235028,,,,,,,,-13.4765625,-55.42578125,12.58984375,-0.640625,0.24609375,0.330078125,-13.7734375,-63.80859375,16.27734375,1.0
4235029,,,,,,,,-3.23046875,-13.234375,7.16015625,-0.4140625,0.216796875,0.740234375,-3.58203125,-21.6328125,10.80078125,1.0
4235030,36.013141000000005,129.31906066666667,41.5285135611478,82.22089309045448,3.7,51.0,,11.3046875,-4.9375,-5.81640625,2.03125,1.1875,0.41015625,-0.51953125,7.17578125,0.83984375,1.0
4235031,,,,,,,,16.9453125,-12.015625,-3.82421875,-0.5625,0.287109375,1.529296875,16.3359375,-20.4453125,-0.26953125,1.0
4235032,,,,,,,,12.06640625,-13.93359375,-0.5546875,-0.08984375,0.287109375,1.439453125,11.39453125,-22.359375,2.984375,1.0
4235033,,,,,,,,8.94921875,-16.64453125,0.9296875,2.42578125,-0.03515625,0.951171875,8.17578125,-25.0390625,4.5546875,1.0
4235034,,,,,,,,5.3359375,-14.83203125,1.39453125,-0.166015625,-0.42578125,-0.1015625,4.5390625,-23.1640625,5.16796875,1.0
4235035,,,,,,,,2.56640625,-10.171875,-1.66015625,-0.841796875,-0.353515625,-2.791015625,1.89453125,-18.57421875,2.02734375,1.0
4235036,,,,,,,,1.53515625,-8.69921875,-2.44140625,-0.013671875,-0.345703125,-3.59765625,1.01171875,-17.109375,1.22265625,1.0
4235037,,,,,,,,-0.40625,-5.43359375,-2.46875,-1.75390625,-0.01953125,-1.68359375,-0.671875,-13.89453125,1.1484375,1.0
4235038,,,,,,,,-2.1015625,-2.98828125,-2.48828125,-3.7734375,-0.384765625,1.470703125,-2.359375,-11.55859375,0.87890625,1.0
4235039,,,,,,,,-2.90234375,-1.828125,-2.4296875,-3.69140625,-0.76171875,1.35546875,-3.27734375,-10.52734375,0.609375,1.0
4235040,36.01314266666667,129.31906333333333,41.76890928689555,82.40582630326206,3.4000000000000004,51.0,,-7.0078125,2.984375,-3.98046875,-2.619140625,-1.591796875,-0.08203125,-7.37890625,-5.890625,-1.45703125,1.0
4235041,,,,,,,,-7.26953125,6.08984375,-2.89453125,-3.080078125,-1.798828125,0.27734375,-7.60546875,-2.86328125,-0.61328125,1.0
4235042,,,,,,,,-7.046875,6.93359375,-2.40625,-3.15234375,-1.771484375,0.3515625,-7.37890625,-2.09765625,-0.421875,1.0
4235043,,,,,,,,-4.6796875,9.9375,-1.3359375,-3.119140625,-1.609375,0.2265625,-5.00390625,0.8515625,0.3828125,1.0
4235044,,,,,,,,-4.265625,10.62890625,-1.15234375,-3.162109375,-1.51953125,0.177734375,-4.58203125,1.50390625,0.41796875,1.0
4235045,,,,,,,,-3.6171875,11.47265625,-1.40625,-3.189453125,-1.23828125,0.30078125,-3.9296875,2.30859375,-0.1171875,1.0
4235046,,,,,,,,-2.82421875,11.10546875,-1.51953125,-2.796875,-0.7734375,0.759765625,-3.1953125,1.88671875,-0.65234375,1.0
4235047,,,,,,,,-2.6875,9.6171875,-1.77734375,-2.552734375,-0.6640625,0.869140625,-3.08984375,0.390625,-1.03515625,1.0
4235048,,,,,,,,-3.09765625,5.95703125,-1.55078125,-1.9921875,-0.447265625,0.873046875,-3.578125,-3.28515625,-1.03515625,1.0
4235049,,,,,,,,-3.40625,5.3046875,-1.28125,-1.671875,-0.375,0.8125,-3.9296875,-3.9375,-0.84375,1.0
4235050,36.013145,129.3190655,41.9642302881571,82.66473213838731,3.8000000000000003,46.0,,-1.87109375,5.8046875,0.71484375,-0.5,-0.494140625,0.439453125,-2.51171875,-3.4375,0.95703125,1.0
4235051,,,,,,,,0.0625,8.67578125,0.1875,-0.10546875,-0.330078125,0.33203125,-0.6328125,-0.56640625,0.3828125,1.0
4235052,,,,,,,,1.73828125,11.65625,-0.16796875,0.173828125,-0.12890625,0.408203125,1.01171875,2.42578125,0.03515625,1.0
4235053,,,,,,,,2.30078125,12.65234375,-0.09765625,0.328125,-0.076171875,0.4765625,1.55078125,3.4140625,0.11328125,1.0
4235054,,,,,,,,2.765625,14.78125,0.20703125,0.59765625,-0.001953125,0.583984375,1.96875,5.5625,0.45703125,1.0
4235055,,,,,,,,1.92578125,15.04296875,-0.23828125,0.734375,-0.00390625,0.27734375,1.08984375,5.83203125,0.07421875,1.0
4235056,,,,,,,,0.96875,13.6953125,-1.2578125,0.91796875,-0.126953125,-0.388671875,0.1328125,4.49609375,-0.8828125,1.0
4235057,,,,,,,,0.4453125,12.3828125,-1.50390625,0.91796875,-0.224609375,-0.958984375,-0.328125,3.1875,-1.03515625,1.0
4235058,,,,,,,,-0.0703125,11.16015625,-1.14453125,0.720703125,-0.263671875,-1.236328125,-0.75,1.9609375,-0.61328125,1.0
4235059,,,,,,,,-1.0390625,9.234375,0.29296875,0.322265625,-0.30859375,-1.26171875,-1.59375,0.046875,0.87890625,1.0
4235060,36.013147000000004,129.31906949999998,42.324824107900575,82.88665235737528,4.0,50.0,,-3.13671875,6.203125,3.625,-0.150390625,-0.3515625,-1.060546875,-3.58203125,-2.9765625,4.21484375,1.0
4235061,,,,,,,,-4.375,0.640625,3.375,-0.2265625,-0.31640625,-0.78515625,-4.734375,-8.53515625,3.9453125,1.0
4235062,,,,,,,,-3.1484375,-10.5546875,2.1328125,0.078125,-0.298828125,-0.283203125,-3.4296875,-19.71875,2.6796875,1.0
4235063,,,,,,,,-0.8515625,-17.6015625,2.01171875,0.197265625,-0.287109375,-0.111328125,-1.1328125,-26.76953125,2.56640625,1.0
4235064,,,,,,,,12.40234375,-40.7578125,6.65234375,0.408203125,-0.248046875,0.138671875,12.12109375,-49.91015625,7.23828125,1.0
4235065,,,,,,,,13.765625,-40.71875,24.6875,0.65625,-0.197265625,0.2265625,13.4609375,-49.87109375,25.3203125,1.0
4235066,,,,,,,,2.16796875,-11.3828125,3.65234375,1.099609375,-0.109375,0.16796875,1.85546875,-20.52734375,4.36328125,1.0
4235067,,,,,,,,-6.08984375,-5.68359375,0.10546875,1.8671875,-0.083984375,0.16796875,-6.41796875,-14.8125,0.95703125,1.0
4235068,,,,,,,,-9.53125,-8.87109375,-0.2109375,1.880859375,-0.185546875,0.4140625,-9.8671875,-17.99609375,0.7265625,1.0
4235069,,,,,,,,-4.96484375,-11.3359375,0.6953125,1.8359375,-0.103515625,0.462890625,-5.34765625,-20.44921875,1.796875,1.0
4235070,36.01314916666667,129.31907266666667,42.61029388954662,83.12706543281725,3.4000000000000004,52.0,,-0.12109375,-13.0,3.34375,-0.150390625,-0.3515625,-1.060546875,-0.55859375,-22.09375,4.5546875,1.0
4235071,,,,,,,,2.03515625,-10.39453125,2.9453125,0.603515625,0.46875,0.427734375,1.51171875,-19.484375,4.171875,1.0
4235072,,,,,,,,2.1171875,-9.015625,1.91015625,0.6953125,0.45703125,-2.048828125,1.625,-18.11328125,3.17578125,1.0
4235073,,,,,,,,3.3671875,-6.86328125,-1.0390625,0.541015625,0.0,-4.546875,3.1953125,-15.96484375,0.265625,1.0
4235074,,,,,,,,3.9375,-6.7578125,-0.86328125,2.431640625,0.34765625,-2.82421875,4.1171875,-15.85546875,0.57421875,1.0
4235075,,,,,,,,3.55078125,-4.84375,0.3984375,3.52734375,0.98828125,0.404296875,3.84765625,-13.86328125,2.296875,1.0
4235076,,,,,,,,3.13671875,-2.63671875,0.5078125,2.30859375,1.185546875,0.0234375,3.38671875,-11.59375,2.6796875,1.0
4235077,,,,,,,,3.63671875,1.7890625,-1.3359375,1.9140625,1.611328125,-0.40234375,3.88671875,-7.1171875,1.109375,1.0
4235078,,,,,,,,3.94140625,5.3828125,-2.90234375,2.212890625,1.76953125,0.2421875,4.15234375,-3.4765625,-0.26953125,1.0
4235079,,,,,,,,3.5625,7.4296875,-3.578125,2.150390625,1.79296875,0.576171875,3.734375,-1.40625,-0.84375,1.0
4235080,36.01315133333333,129.31907566666666,42.88073886781343,83.36747844472426,3.9000000000000004,50.0,,3.21875,8.875,-4.2109375,-0.150390625,-0.3515625,-1.060546875,3.2734375,0.0859375,-1.3046875,1.0
4235081,,,,,,,,2.6015625,10.4375,-4.6875,1.341796875,1.501953125,0.638671875,2.546875,1.6953125,-1.6484375,1.0
4235082,,,,,,,,2.33984375,10.69140625,-4.78125,1.30078125,1.365234375,0.466796875,2.23828125,1.96484375,-1.6875,1.0
4235083,,,,,,,,2.00390625,10.78125,-4.5,1.41796875,0.93359375,0.271484375,1.81640625,2.1171875,-1.2265625,1.0
4235084,,,,,,,,2.45703125,9.26171875,-5.0234375,1.486328125,0.806640625,0.345703125,2.23828125,0.62109375,-1.6875,1.0
4235085,,,,,,,,4.6796875,4.45703125,-6.09375,1.1171875,0.478515625,0.587890625,4.34765625,-4.08984375,-2.53125,1.0
4235086,,,,,,,,3.91015625,4.265625,-4.953125,0.91015625,0.478515625,0.572265625,3.50390625,-4.24609375,-1.3046875,1.0
4235087,,,,,,,,3.47265625,4.74609375,-4.2578125,0.8671875,0.455078125,0.501953125,3.04296875,-3.7421875,-0.578125,1.0
4235088,,,,,,,,2.0859375,6.83984375,-2.51953125,0.767578125,0.423828125,0.197265625,1.5859375,-1.59765625,1.26171875,1.0
4235089,,,,,,,,1.13671875,8.5078125,-1.859375,0.8125,0.408203125,0.078125,0.62890625,0.0859375,1.953125,1.0
4235090,36.01315366666667,129.31907916666665,43.19625809770507,83.6263848948705,4.0,50.0,,-0.9140625,11.5625,0.34375,0.599609375,0.44140625,-0.056640625,-1.4375,3.1875,4.25,1.0
4235091,,,,,,,,-1.58984375,13.77734375,-0.66015625,-0.16796875,0.2890625,-0.095703125,-2.12890625,5.41015625,3.25390625,1.0
4235092,,,,,,,,-1.19140625,14.828125,-3.29296875,-0.83203125,0.23828125,-0.345703125,-1.70703125,6.4453125,0.57421875,1.0
4235093,,,,,,,,-0.6484375,14.4765625,-4.39453125,-1.07421875,0.26953125,-0.73046875,-1.1328125,6.06640625,-0.61328125,1.0
4235094,,,,,,,,-0.57421875,12.8671875,-4.2734375,-1.009765625,0.30859375,-1.130859375,-0.98046875,4.4140625,-0.578125,1.0
4235095,,,,,,,,-0.484375,10.29296875,-2.953125,-0.822265625,0.353515625,-1.4765625,-0.7890625,1.8046875,0.6484375,1.0
4235096,,,,,,,,-0.31640625,6.625,-1.47265625,-0.615234375,0.359375,-1.630859375,-0.55859375,-1.8671875,2.10546875,1.0
4235097,,,,,,,,-1.7109375,-7.578125,3.8203125,-0.392578125,0.3203125,-1.708984375,-1.8203125,-16.078125,7.3515625,1.0
4235098,,,,,,,,-6.50390625,-44.8828125,24.23828125,-0.384765625,0.169921875,-1.341796875,-6.49609375,-53.39453125,27.73046875,1.0
4235099,,,,,,,,-6.12890625,-54.796875,25.15234375,-0.634765625,0.123046875,-0.4140625,-5.69140625,-65.30859375,21.87109375,1.0
4235100,36.013156,129.31908233333334,43.481727740154724,83.88529120684015,3.7,49.0,0.0,-0.9140625,11.5625,0.34375,-0.677734375,0.109375,0.3359375,-1.4375,3.1875,4.25,1.0
4235101,,,,,,,,-1.76171875,-10.91796875,2.546875,-0.48046875,0.08984375,1.171875,9.8984375,-11.7890625,-1.80078125,1.0
4235102,,,,,,,,9.84375,-3.2109375,-5.12890625,-0.130859375,0.1484375,1.97265625,12.66015625,-12.8984375,-0.65234375,1.0
4235103,,,,,,,,11.390625,-8.796875,0.9375,1.439453125,0.20703125,2.234375,7.640625,-24.046875,5.8203125,1.0
4235104,,,,,,,,8.0,-15.5,2.390625,2.931640625,-0.40625,0.6875,4.73046875,-25.6171875,7.3515625,1.0
4235105,,,,,,,,3.05078125,-14.32421875,2.72265625,-0.77734375,-0.634765625,-1.515625,2.69921875,-22.78515625,6.39453125,1.0
4235106,,,,,,,,1.7734375,-10.9140625,0.625,-0.884765625,-0.16796875,-3.71875,1.6640625,-19.41796875,4.2109375,1.0
4235107,,,,,,,,0.12890625,-7.39453125,-1.3203125,-0.908203125,-0.27734375,-3.724609375,0.20703125,-15.92578125,2.21875,1.0
4235108,,,,,,,,-0.6171875,-6.75,-1.26953125,-3.96875,-0.365234375,0.626953125,-1.40234375,-14.546875,1.8359375,1.0
4235109,,,,,,,,-1.71484375,-5.8828125,-1.390625,-3.962890625,-0.6171875,1.474609375,-2.28125,-12.671875,1.98828125,1.0
4235110,36.01315783333334,129.31908483333333,43.707098502668885,84.08871760731546,3.4000000000000004,50.0,,-0.9140625,11.5625,0.34375,-0.677734375,0.109375,0.3359375,-3.62109375,-10.41015625,1.8359375,1.0
4235111,,,,,,,,-4.7421875,0.48828125,-1.28515625,-2.384765625,-1.640625,-0.02734375,-5.0390625,-7.42578125,0.83984375,1.0
4235112,,,,,,,,-5.1796875,1.5546875,-1.51171875,-2.455078125,-1.794921875,-0.068359375,-5.65234375,-5.125,0.19140625,1.0
4235113,,,,,,,,-6.109375,5.06640625,-2.1640625,-2.78515625,-1.91796875,0.185546875,-5.953125,-2.9765625,-0.38671875,1.0
4235114,,,,,,,,-6.20703125,7.15625,-2.4453125,-2.779296875,-1.919921875,0.40234375,-5.953125,-1.0625,-0.76953125,1.0
4235115,,,,,,,,-5.625,9.86328125,-2.84375,-2.642578125,-1.765625,0.42578125,-5.3046875,1.1953125,-1.03515625,1.0
4235116,,,,,,,,-5.38671875,11.09765625,-2.01953125,-2.640625,-1.677734375,0.37109375,-5.19140625,1.88671875,-0.65234375,1.0
4235117,,,,,,,,-4.875,13.05859375,0.0859375,-2.767578125,-1.20703125,0.19140625,-4.6953125,3.80078125,1.0703125,1.0
4235118,,,,,,,,-3.48046875,11.17578125,-1.69921875,-2.75,-0.8984375,0.19140625,-3.3125,1.88671875,-0.99609375,1.0
4235119,,,,,,,,-3.3203125,10.5,-1.859375,-2.513671875,-0.642578125,0.275390625,-3.1640625,1.1953125,-1.3828125,1.0
4235120,36.013160166666665,129.31908716666666,43.917444193469564,84.34762355991246,3.8000000000000003,45.0,,-3.70703125,7.3359375,-1.2109375,-0.677734375,0.109375,0.3359375,-3.62109375,-10.41015625,1.8359375,1.0
4235121,,,,,,,,-3.8828125,5.26953125,-0.140625,-1.82421875,-0.4140625,0.611328125,-3.8125,-4.05078125,-0.078125,1.0
4235122,,,,,,,,-3.203125,5.0,0.83203125,-1.529296875,-0.37890625,0.642578125,-3.1640625,-4.3203125,0.80078125,1.0
4235123,,,,,,,,-2.3125,6.02734375,1.3046875,-0.369140625,-0.24609375,0.50390625,-2.359375,-3.28515625,1.1484375,1.0
4235124,,,,,,,,-1.33203125,7.68359375,1.12109375,-0.10546875,-0.22265625,0.486328125,-1.40234375,-1.6328125,0.95703125,1.0
4235125,,,,,,,,0.5625,11.734375,0.453125,0.24609375,-0.17578125,0.751953125,0.3984375,2.42578125,0.3046875,1.0
4235126,,,,,,,,0.8203125,13.98828125,0.55078125,0.39453125,-0.1015625,0.576171875,0.515625,4.68359375,0.45703125,1.0
4235127,,,,,,,,0.7265625,14.1328125,0.61328125,0.455078125,-0.158203125,0.30859375,0.3984375,4.8359375,0.53515625,1.0
4235128,,,,,,,,0.26171875,13.85546875,0.48828125,0.646484375,-0.306640625,-0.353515625,-0.05859375,4.56640625,0.45703125,1.0
4235129,,,,,,,,-0.328125,12.859375,-0.0390625,0.724609375,-0.361328125,-0.6328125,-0.6328125,3.5703125,-0.0390625,1.0
4235130,36.013162,129.31909033333335,44.20291407243106,84.55105027301298,3.5,49.0,,-1.13671875,10.859375,0.28125,0.634765625,-0.423828125,-1.056640625,-1.32421875,1.58203125,0.3828125,1.0
4235131,,,,,,,,-2.30859375,8.05078125,1.44921875,0.4140625,-0.44140625,-1.06640625,-2.39453125,-1.21484375,1.60546875,1.0
4235132,,,,,,,,-4.5859375,4.6328125,4.25390625,0.271484375,-0.419921875,-0.90625,-4.578125,-4.625,4.44140625,1.0
4235133,,,,,,,,-5.9609375,3.25390625,6.16015625,0.224609375,-0.408203125,-0.744140625,-5.921875,-6.00390625,6.35546875,1.0
4235134,,,,,,,,-6.12109375,-1.3984375,2.5390625,0.271484375,-0.404296875,-0.3515625,-6.03515625,-10.640625,2.7578125,1.0
4235135,,,,,,,,-3.41015625,-6.578125,0.8203125,0.357421875,-0.392578125,0.083984375,-3.31640625,-15.8125,1.0703125,1.0
4235136,,,,,,,,6.421875,-34.12890625,1.8984375,0.439453125,-0.380859375,0.38671875,6.4921875,-43.3515625,2.1796875,1.0
4235137,,,,,,,,22.78515625,-51.6875,30.66015625,0.654296875,-0.353515625,0.49609375,22.80859375,-60.8984375,30.98828125,1.0
4235138,,,,,,,,15.2265625,-33.29296875,23.83984375,0.81640625,-0.330078125,0.5078125,15.2265625,-42.5078125,24.20703125,1.0
4235139,,,,,,,,4.8046875,-17.48046875,5.53515625,1.43359375,-0.234375,0.43359375,4.765625,-26.69140625,6.01171875,1.0
4235140,36.013163999999996,129.31909316666668,44.45833427379337,84.77297005145138,3.0,51.0,,-10.6171875,-9.3671875,2.2109375,2.388671875,-0.255859375,0.4375,-10.7109375,-18.5703125,2.984375,1.0
4235141,,,,,,,,-8.62890625,-10.1640625,1.50390625,1.630859375,0.115234375,0.919921875,-8.79296875,-19.3359375,2.56640625,1.0
4235142,,,,,,,,-3.65625,-11.765625,1.53125,0.544921875,0.90234375,1.802734375,-3.890625,-20.9453125,2.640625,1.0
4235143,,,,,,,,0.109375,-11.12890625,1.9921875,0.873046875,0.896484375,1.296875,-0.328125,-20.29296875,3.140625,1.0
4235144,,,,,,,,1.87890625,-6.984375,0.734375,0.328125,0.236328125,-3.76171875,1.55078125,-16.16015625,1.953125,1.0
4235145,,,,,,,,2.63671875,-6.515625,-1.51171875,1.369140625,0.287109375,-3.962890625,2.69921875,-15.69921875,-0.23046875,1.0
4235146,,,,,,,,2.50390625,-6.6875,-1.33984375,2.810546875,0.43359375,-2.775390625,2.69921875,-15.8515625,0.03515625,1.0
4235147,,,,,,,,2.5859375,-6.08984375,-0.95703125,4.048828125,0.85546875,0.390625,2.890625,-15.16015625,0.95703125,1.0
4235148,,,,,,,,3.12890625,-3.05078125,0.09375,3.0546875,1.0625,0.107421875,3.38671875,-12.0546875,2.3359375,1.0
4235149,,,,,,,,3.18359375,-1.46484375,0.11328125,2.734375,1.15234375,-0.169921875,3.42578125,-10.44921875,2.48828125,1.0
4235150,36.013166,129.3190955,44.6686801116692,84.99488960797007,3.2,48.0,,3.84375,4.765625,-1.73828125,2.388671875,-0.255859375,0.4375,4.078125,-4.16796875,0.87890625,1.0
4235151,,,,,,,,4.16796875,9.7578125,-3.66796875,2.4296875,1.814453125,0.59765625,4.3046875,0.9296875,-0.69140625,1.0
4235152,,,,,,,,4.12109375,10.58203125,-4.890625,2.017578125,1.833984375,0.869140625,4.15234375,1.80859375,-1.7265625,1.0
4235153,,,,,,,,3.84375,10.4921875,-5.4765625,1.6484375,1.58984375,0.748046875,3.73828125,1.7734375,-2.1484375,1.0
4235154,,,,,,,,3.66015625,10.359375,-5.609375,1.53515625,1.244140625,0.361328125,3.4609375,1.6953125,-2.1484375,1.0
4235155,,,,,,,,3.8671875,10.3828125,-5.98046875,1.68359375,0.884765625,0.046875,3.6171875,1.7734375,-2.37890625,1.0
4235156,,,,,,,,4.12890625,10.08984375,-6.2421875,1.775390625,0.5703125,0.015625,3.84375,1.54296875,-2.4921875,1.0
4235157,,,,,,,,5.109375,7.56640625,-6.4765625,1.73828125,0.3671875,0.14453125,4.8046875,-0.91015625,-2.5703125,1.0
4235158,,,,,,,,5.37109375,5.58203125,-6.31640625,1.736328125,0.34375,0.3671875,5.03125,-2.82421875,-2.26171875,1.0
4235159,,,,,,,,3.7265625,5.96875,-5.26171875,1.62890625,0.341796875,0.560546875,3.31640625,-2.328125,-0.99609375,1.0
4235160,36.013168,129.3190986666667,44.954149857229226,85.2168095545676,3.5,49.0,,0.03515625,8.79296875,-3.3671875,0.927734375,0.35546875,0.361328125,-0.48046875,0.62109375,1.11328125,1.0
4235161,,,,,,,,-2.1953125,11.359375,-1.23828125,0.3046875,0.35546875,0.189453125,-2.7421875,3.2265625,3.29296875,1.0
4235162,,,,,,,,-3.09765625,12.69921875,-0.51171875,-0.072265625,0.30078125,0.111328125,-3.66015625,4.5625,4.01953125,1.0
4235163,,,,,,,,-2.66796875,13.328125,-2.1953125,-0.900390625,0.20703125,-0.056640625,-3.23828125,5.18359375,2.296875,1.0
4235164,,,,,,,,-0.984375,13.453125,-4.5,-1.47265625,0.19921875,-0.30859375,-1.5546875,5.2578125,-0.1171875,1.0
4235165,,,,,,,,0.578125,12.17578125,-5.29296875,-1.7421875,0.365234375,-0.69140625,0.0546875,3.875,-1.11328125,1.0
4235166,,,,,,,,0.96875,11.36328125,-5.30078125,-1.693359375,0.41015625,-0.806640625,0.4765625,3.03125,-1.19140625,1.0
4235167,,,,,,,,1.44921875,8.46875,-4.32421875,-1.298828125,0.4140625,-0.984375,1.01171875,0.0859375,-0.34765625,1.0
4235168,,,,,,,,1.9453125,5.8203125,-3.1328125,-0.412109375,0.46875,-1.14453125,1.5859375,-2.59375,0.765625,1.0
4235169,,,,,,,,3.171875,1.453125,-2.58984375,-0.12890625,0.44140625,-1.115234375,2.8515625,-6.9609375,1.30078125,1.0
4235170,36.01317066666666,129.31910299999998,45.344792676887494,85.51270288051339,4.2,51.0,,3.90625,-19.28125,4.4375,0.927734375,0.35546875,0.361328125,-0.48046875,0.62109375,1.11328125,1.0
4235171,,,,,,,,-1.80078125,-42.5234375,18.125,-0.3203125,0.291015625,-0.408203125,-2.01171875,-50.94140625,21.984375,1.0
4235172,,,,,,,,-16.90234375,-46.953125,12.7265625,-0.607421875,0.265625,0.04296875,-17.10546875,-55.3828125,16.546875,1.0
4235173,,,,,,,,-11.81640625,-20.0390625,6.62109375,-0.869140625,0.21875,0.47265625,-12.05078125,-28.4921875,10.37890625,1.0
4235174,,,,,,,,5.4453125,-9.1953125,-8.859375,-1.08203125,0.19921875,0.86328125,5.1484375,-17.69140625,-5.171875,1.0
4235175,,,,,,,,15.1640625,-10.10546875,-6.67578125,-1.4921875,0.373046875,1.427734375,14.765625,-18.64453125,-3.10546875,1.0
4235176,,,,,,,,9.98046875,-12.05859375,2.08984375,-0.94921875,0.583984375,2.001953125,9.40234375,-20.63671875,5.55078125,1.0
4235177,,,,,,,,5.8828125,-14.3203125,2.03125,0.587890625,-0.73046875,0.705078125,5.1875,-22.8984375,5.4765625,1.0
4235178,,,,,,,,2.8046875,-11.66796875,0.453125,-0.8671875,-0.78125,-1.296875,2.1640625,-20.25,3.90625,1.0
4235179,,,,,,,,2.60546875,-9.0859375,-2.265625,-0.5390625,-0.404296875,-3.681640625,2.19921875,-17.7265625,1.109375,1.0
4235180,36.013172833333336,129.31910616666667,45.63026229071357,85.7531160569965,3.7,51.0,,0.55078125,-6.45703125,-3.5234375,-0.708984375,-0.4765625,-2.138671875,0.62890625,-15.12109375,-0.15625,1.0
4235181,,,,,,,,-2.1015625,-3.0,-0.90625,-3.708984375,-0.70703125,0.515625,-1.9375,-11.75,2.2578125,1.0
4235182,,,,,,,,-3.04296875,-1.55859375,-0.59765625,-4.255859375,-0.802734375,0.96875,-2.89453125,-10.37109375,2.41015625,1.0
4235183,,,,,,,,-4.90234375,0.48046875,-0.64453125,-3.98046875,-0.87109375,0.60546875,-4.80859375,-8.45703125,1.98828125,1.0
4235184,,,,,,,,-6.015625,1.9609375,-2.1015625,-3.529296875,-1.048828125,0.189453125,-5.921875,-7.04296875,0.34375,1.0
4235185,,,,,,,,-6.7734375,4.30078125,-3.3984375,-2.78515625,-1.36328125,-0.2890625,-6.6484375,-4.77734375,-1.2265625,1.0
4235186,,,,,,,,-7.1328125,6.8828125,-3.76171875,-2.927734375,-1.7265625,-0.0078125,-6.95703125,-2.25,-1.83984375,1.0
4235187,,,,,,,,-6.98828125,7.7265625,-3.5390625,-3.13671875,-1.876953125,0.2421875,-6.796875,-1.4453125,-1.765625,1.0
4235188,,,,,,,,-6.28515625,11.62109375,-0.63671875,-3.150390625,-1.736328125,0.283203125,-6.109375,2.34765625,0.53515625,1.0
4235189,,,,,,,,-5.9765625,12.2265625,0.63671875,-3.099609375,-1.625,0.119140625,-5.80859375,2.921875,1.64453125,1.0
4235190,36.013175000000004,129.31910866666666,45.855632762421735,85.99352892790981,4.0,48.0,,-5.05859375,11.62109375,0.48046875,-2.916015625,-1.119140625,0.310546875,-4.8828125,2.26953125,0.91796875,1.0
4235191,,,,,,,,-4.7421875,9.55859375,-0.48828125,-2.7421875,-0.75,0.740234375,-4.6171875,0.19921875,-0.30859375,1.0
4235192,,,,,,,,-4.7890625,8.5625,-0.625,-2.609375,-0.619140625,0.900390625,-4.69921875,-0.796875,-0.578125,1.0
4235193,,,,,,,,-4.76171875,6.41015625,-0.359375,-2.14453125,-0.4453125,1.017578125,-4.765625,-2.94140625,-0.5390625,1.0
4235194,,,,,,,,-4.36328125,5.953125,0.31640625,-1.83203125,-0.408203125,0.962890625,-4.421875,-3.3984375,0.03515625,1.0
4235195,,,,,,,,-3.44140625,6.44140625,1.1875,-1.130859375,-0.322265625,0.71875,-3.58203125,-2.90234375,0.765625,1.0
4235196,,,,,,,,-2.73828125,6.9765625,1.37109375,-0.42578125,-0.23828125,0.380859375,-2.9296875,-2.3671875,0.87890625,1.0
4235197,,,,,,,,0.61328125,10.1875,1.05859375,0.396484375,-0.1171875,0.154296875,0.36328125,0.8515625,0.57421875,1.0
4235198,,,,,,,,1.5,11.64453125,0.8125,0.5,-0.03125,0.208984375,1.2421875,2.3046875,0.34375,1.0
4235199,,,,,,,,2.7109375,12.78515625,0.640625,0.603515625,0.0390625,0.208984375,2.4296875,3.45703125,0.2265625,1.0
4235200,36.013177000000006,129.31911183333335,46.14110244548289,86.21544891245,3.8000000000000003,49.0,0.0,1.921875,13.7734375,0.55078125,0.7109375,-0.0390625,-0.05078125,1.625,4.45703125,0.19140625,1.0
4235201,,,,,,,,0.8046875,13.07421875,0.15625,1.126953125,-0.185546875,-0.568359375,0.5546875,3.7578125,-0.078125,1.0
4235202,,,,,,,,-0.1328125,11.88671875,0.1015625,1.255859375,-0.240234375,-0.6796875,-0.3671875,2.5703125,-0.078125,1.0
4235203,,,,,,,,-1.3203125,9.96484375,0.84765625,1.375,-0.3671875,-0.822265625,-1.4765625,0.66015625,0.80078125,1.0
4235204,,,,,,,,-3.7578125,1.484375,4.37109375,0.8828125,-0.466796875,-0.80078125,-3.8125,-7.80859375,4.48046875,1.0
4235205,,,,,,,,-2.7421875,-17.53125,8.828125,0.087890625,-0.505859375,-0.57421875,-2.703125,-26.80859375,9.0,1.0
4235206,,,,,,,,0.94921875,-27.19140625,10.8203125,0.03515625,-0.466796875,-0.490234375,1.01171875,-36.453125,10.9921875,1.0
4235207,,,,,,,,17.95703125,-51.90234375,23.53125,0.115234375,-0.412109375,-0.29296875,18.05859375,-61.1640625,23.7109375,1.0
4235208,,,,,,,,3.76953125,-13.171875,10.328125,0.224609375,-0.431640625,-0.140625,3.88671875,-22.4375,10.53125,1.0
4235209,,,,,,,,1.1953125,-8.65234375,6.4921875,0.2734375,-0.431640625,-0.07421875,1.3203125,-17.91796875,6.703125,1.0
4235210,36.01317933333333,129.31911566666668,46.48667103790146,86.47435563903775,3.6,53.0,,-5.47265625,-4.8984375,3.109375,0.7109375,-0.0390625,-0.05078125,-5.34765625,-14.16796875,3.3671875,1.0
4235211,,,,,,,,-8.54296875,-8.9609375,4.75,1.34765625,-0.5859375,0.587890625,-8.44921875,-18.2265625,5.09375,1.0
4235212,,,,,,,,-5.1015625,-11.9453125,4.6328125,1.51953125,-0.609375,0.87109375,-5.0390625,-21.2109375,5.0546875,1.0
4235213,,,,,,,,-0.09765625,-12.98046875,4.66015625,0.416015625,0.44140625,0.619140625,-0.17578125,-22.2421875,5.20703125,1.0
4235214,,,,,,,,1.97265625,-10.7578125,3.671875,0.626953125,0.1953125,-0.771484375,1.89453125,-20.0234375,4.25,1.0
4235215,,,,,,,,3.26953125,-9.9921875,2.7421875,0.47265625,0.134765625,-4.439453125,3.46484375,-19.26171875,3.3671875,1.0
4235216,,,,,,,,4.10546875,-9.81640625,2.34375,1.564453125,-0.029296875,-3.849609375,4.69140625,-19.0625,3.0625,1.0
4235217,,,,,,,,3.16015625,-8.73046875,2.5546875,2.27734375,0.2734375,-2.384765625,3.88671875,-17.95703125,3.3671875,1.0
4235218,,,,,,,,1.76953125,-6.67578125,2.19921875,3.376953125,0.80859375,0.13671875,2.58203125,-15.88671875,3.29296875,1.0
4235219,,,,,,,,1.16796875,-4.07421875,1.08984375,2.8671875,1.044921875,0.349609375,1.93359375,-13.2421875,2.48828125,1.0
4235220,36.013181,129.31911783333334,46.68199220084634,86.6592887499712,3.5,50.0,,1.7890625,0.859375,-2.87109375,0.7109375,-0.0390625,-0.05078125,2.5078125,-8.26953125,-1.11328125,1.0
4235221,,,,,,,,2.6328125,2.63671875,-3.19921875,2.724609375,1.517578125,0.5390625,3.2734375,-6.421875,-1.07421875,1.0
4235222,,,,,,,,3.1328125,4.3046875,-2.64453125,2.66015625,1.560546875,0.6015625,3.734375,-4.7421875,-0.38671875,1.0
4235223,,,,,,,,3.37109375,6.43359375,-2.1484375,2.251953125,1.57421875,0.3984375,3.8828125,-2.55859375,0.34375,1.0
4235224,,,,,,,,3.5859375,8.80859375,-2.09375,2.076171875,1.48828125,0.224609375,4.0390625,-0.14453125,0.609375,1.0
4235225,,,,,,,,2.921875,11.8125,-2.89453125,2.087890625,1.34765625,0.345703125,3.31640625,2.921875,-0.00390625,1.0
4235226,,,,,,,,2.66015625,12.8515625,-3.8359375,2.091796875,1.271484375,0.533203125,3.00390625,3.9921875,-0.84375,1.0
4235227,,,,,,,,2.39453125,12.99609375,-4.9921875,1.814453125,0.98828125,1.06640625,2.58203125,4.21875,-1.7265625,1.0
4235228,,,,,,,,4.73828125,7.72265625,-6.57421875,1.296875,0.55859375,0.90625,4.69140625,-0.94921875,-3.02734375,1.0
4235229,,,,,,,,5.3203125,6.3203125,-6.74609375,1.205078125,0.494140625,0.7265625,5.23046875,-2.328125,-3.14453125,1.0
4235230,36.01318283333333,129.31912016666666,46.89233803789306,86.86271515236606,3.7,47.0,,6.265625,4.28125,-6.953125,0.982421875,0.40234375,0.3671875,6.109375,-4.3203125,-3.2578125,1.0
4235231,,,,,,,,5.421875,3.70703125,-5.96484375,0.853515625,0.41015625,0.126953125,5.23046875,-4.85546875,-2.18359375,1.0
4235232,,,,,,,,3.17578125,4.44140625,-4.6484375,0.654296875,0.419921875,0.0703125,2.96484375,-4.08984375,-0.8046875,1.0
4235233,,,,,,,,-0.484375,6.1484375,-2.26171875,0.5390625,0.435546875,0.111328125,-0.7109375,-2.3671875,1.60546875,1.0
4235234,,,,,,,,-2.7734375,7.65234375,-0.0546875,0.30859375,0.4140625,0.3125,-3.046875,-0.83203125,3.87109375,1.0
4235235,,,,,,,,-4.421875,10.81640625,1.34765625,-0.009765625,0.302734375,0.453125,-4.734375,2.34765625,5.28125,1.0
4235236,,,,,,,,-2.02734375,13.55078125,-3.02734375,-0.6875,0.2578125,0.4296875,-2.39453125,5.0625,0.87890625,1.0
4235237,,,,,,,,0.22265625,14.9609375,-4.43359375,-1.462890625,0.29296875,0.115234375,-0.17578125,6.44921875,-0.61328125,1.0
4235238,,,,,,,,0.5703125,15.0625,-4.36328125,-1.755859375,0.326171875,-0.1328125,0.171875,6.52734375,-0.61328125,1.0
4235239,,,,,,,,0.73828125,14.28125,-3.96484375,-1.982421875,0.380859375,-0.73828125,0.36328125,5.68359375,-0.38671875,1.0
4235240,36.013185666666665,129.31912383333335,47.222881508046015,87.1771014502287,3.8000000000000003,47.0,,-0.32421875,8.84375,-0.3828125,0.982421875,0.40234375,0.3671875,6.109375,-4.3203125,-3.2578125,1.0
4235241,,,,,,,,0.02734375,2.4453125,-0.08203125,0.224609375,0.38671875,-2.0234375,-0.05859375,-6.23828125,3.25390625,1.0
4235242,,,,,,,,-4.38671875,-25.87890625,12.66015625,0.373046875,0.33203125,-1.98046875,-4.38671875,-34.54296875,16.01171875,1.0
4235243,,,,,,,,-8.67578125,-51.828125,22.40234375,0.060546875,0.244140625,-1.572265625,-8.52734375,-60.4765625,25.77734375,1.0
4235244,,,,,,,,-9.91015625,-56.12109375,18.265625,-0.193359375,0.234375,-1.28125,-9.71484375,-64.76953125,21.640625,1.0
4235245,,,,,,,,-6.203125,-19.50390625,7.95703125,-0.919921875,0.2421875,-0.1015625,-5.921875,-28.1796875,11.26171875,1.0
4235246,,,,,,,,7.953125,-5.65234375,-3.83203125,-0.8828125,0.083984375,1.7109375,8.0625,-14.390625,-0.69140625,1.0
4235247,,,,,,,,11.890625,-9.50390625,-0.7734375,-0.703125,0.076171875,1.9453125,11.9296875,-18.2578125,2.3359375,1.0
4235248,,,,,,,,7.7734375,-16.62890625,3.4296875,1.099609375,-0.087890625,1.890625,7.640625,-25.3828125,6.546875,1.0
4235249,,,,,,,,6.50390625,-16.234375,2.75,1.9296875,-0.19921875,1.212890625,6.30078125,-24.96875,5.9375,1.0
4235250,36.01318783333333,129.319127,47.508351013830335,87.41751468791261,3.5,48.0,,2.38671875,-11.17578125,1.24609375,0.982421875,0.40234375,0.3671875,2.23828125,-19.91015625,4.48046875,1.0
4235251,,,,,,,,-0.8828125,-8.15625,-0.515625,-0.828125,-0.15234375,-3.814453125,-0.75,-16.921875,2.640625,1.0
4235252,,,,,,,,-2.328125,-6.8828125,-0.8671875,-1.892578125,-0.326171875,-1.26171875,-1.9375,-15.6953125,2.1796875,1.0
4235253,,,,,,,,-2.234375,-4.890625,-1.18359375,-2.619140625,-0.447265625,0.42578125,-1.8203125,-13.7421875,1.76171875,1.0
4235254,,,,,,,,-2.73046875,-2.125,-1.50390625,-3.029296875,-0.880859375,1.5078125,-2.39453125,-11.0625,1.18359375,1.0
4235255,,,,,,,,-4.30859375,0.7578125,-1.63671875,-2.54296875,-1.005859375,0.572265625,-4.04296875,-8.265625,0.80078125,1.0
4235256,,,,,,,,-5.11328125,2.3515625,-0.796875,-2.4296875,-1.275390625,-0.095703125,-4.84765625,-6.734375,1.4140625,1.0
4235257,,,,,,,,-5.8046875,5.01953125,-1.203125,-2.90234375,-1.517578125,-0.03125,-5.50390625,-4.12890625,0.765625,1.0
4235258,,,,,,,,-6.01171875,6.125,-1.609375,-3.06640625,-1.638671875,0.10546875,-5.69140625,-3.0546875,0.2265625,1.0
4235259,,,,,,,,-6.28515625,8.25390625,-2.27734375,-2.943359375,-1.603515625,0.234375,-5.95703125,-0.98828125,-0.73046875,1.0
4235260,36.01319,129.31912983333334,47.76377094768765,87.65792777116935,3.9000000000000004,46.0,,-6.0625,13.96484375,-0.4140625,-2.36328125,-1.39453125,0.548828125,-5.76953125,4.64453125,0.6484375,1.0
4235261,,,,,,,,-5.07421875,12.6640625,-0.8125,-2.29296875,-1.076171875,0.583984375,-4.84765625,3.3046875,-0.078125,1.0
4235262,,,,,,,,-4.7734375,11.484375,-0.96484375,-2.302734375,-0.94140625,0.46484375,-4.58203125,2.1171875,-0.34765625,1.0
4235263,,,,,,,,-4.53515625,7.70703125,-0.4140625,-2.32421875,-0.658203125,0.30078125,-4.3828125,-1.67578125,-0.1171875,1.0
4235264,,,,,,,,-4.29296875,6.86328125,0.1171875,-2.28125,-0.6015625,0.38671875,-4.16015625,-2.51953125,0.3046875,1.0
4235265,,,,,,,,-3.6328125,6.09765625,0.81640625,-1.94921875,-0.484375,0.609375,-3.55078125,-3.28515625,0.80078125,1.0
4235266,,,,,,,,-2.06640625,6.48046875,1.2109375,-1.568359375,-0.46484375,0.693359375,-2.01171875,-2.8984375,1.109375,1.0
4235267,,,,,,,,-1.26171875,6.85546875,1.3046875,-0.041015625,-0.3046875,0.67578125,0.94140625,-0.48828125,0.91796875,1.0
4235268,,,,,,,,0.9921875,8.88671875,1.12109375,0.62890625,-0.166015625,0.728515625,1.5859375,0.390625,0.765625,1.0
4235269,,,,,,,,2.25,11.26171875,0.828125,1.107421875,-0.087890625,0.87890625,1.55078125,2.9921875,0.49609375,1.0
4235270,36.01319216666666,129.31913316666666,48.06426520355417,87.89834110672129,3.9000000000000004,49.0,,-6.0625,13.96484375,-0.4140625,1.203125,-0.087890625,0.794921875,-5.76953125,4.64453125,0.6484375,1.0
4235271,,,,,,,,1.02734375,12.6640625,-0.06640625,1.19921875,-0.140625,0.35546875,-0.09765625,3.03515625,-0.23046875,1.0
4235272,,,,,,,,-0.0546875,12.05078125,-0.44140625,0.99609375,-0.236328125,-0.18359375,-0.75,2.34375,-0.1171875,1.0
4235273,,,,,,,,-1.01953125,11.1171875,-0.12109375,0.76953125,-0.353515625,-0.5546875,-1.36328125,1.7734375,0.15234375,1.0
4235274,,,,,,,,-1.48828125,10.2265625,0.15234375,0.44921875,-0.41796875,-0.662109375,-2.046875,0.5078125,0.80078125,1.0
4235275,,,,,,,,-2.421875,9.03125,1.140625,0.296875,-0.41796875,-0.64453125,-3.0078125,-0.71875,2.1796875,1.0
4235276,,,,,,,,-3.62109375,7.55078125,3.54296875,0.38671875,-0.37890625,-0.521484375,-3.77734375,-1.75390625,3.9765625,1.0
4235277,,,,,,,,-4.84765625,3.17578125,6.0703125,0.453125,-0.357421875,-0.390625,-4.96484375,-6.12109375,6.546875,1.0
4235278,,,,,,,,-2.88671875,-4.26953125,2.1953125,0.47265625,-0.361328125,-0.314453125,-2.97265625,-13.546875,2.71875,1.0
4235279,,,,,,,,7.3203125,-32.12890625,7.1640625,0.541015625,-0.34765625,-0.26171875,7.2578125,-41.3984375,7.734375,1.0
4235280,36.01319416666667,129.31913683333332,48.394809099570566,88.12026141330395,3.7,52.0,,16.57421875,-60.22265625,22.77734375,0.6875,-0.318359375,-0.181640625,16.52734375,-69.4765625,23.40234375,1.0
4235281,,,,,,,,5.3046875,-10.69140625,7.32421875,0.998046875,-0.2421875,-0.0546875,5.265625,-19.94921875,8.04296875,1.0
4235282,,,,,,,,1.04296875,-6.0625,4.86328125,1.234375,-0.205078125,0.015625,1.01171875,-15.3125,5.62890625,1.0
4235283,,,,,,,,-6.640625,-6.875,0.46484375,1.92578125,-0.109375,0.26171875,-6.6875,-16.12109375,1.37890625,1.0
4235284,,,,,,,,-7.54296875,-11.6484375,1.1015625,1.8828125,-0.19921875,0.841796875,-7.64453125,-20.87109375,2.21875,1.0
4235285,,,,,,,,-4.19140625,-13.96484375,2.44140625,0.654296875,-0.0390625,1.115234375,-4.38671875,-23.16796875,3.67578125,1.0
4235286,,,,,,,,-2.390625,-13.7265625,2.07421875,0.095703125,0.119140625,1.21484375,-2.625,-22.94140625,3.33203125,1.0
4235287,,,,,,,,1.9765625,-11.359375,1.0234375,1.341796875,0.037109375,-2.744140625,3.6953125,-19.9453125,2.91015625,1.0
4235288,,,,,,,,4.859375,-9.98828125,2.8125,1.599609375,-0.169921875,-4.41015625,4.765625,-19.1796875,4.25,1.0
4235289,,,,,,,,4.54296875,-9.61328125,2.75,2.091796875,0.103515625,-3.51953125,4.4609375,-18.375,4.01953125,1.0
4235290,36.013195833333334,129.31913966666667,48.65022929793987,88.3051948986123,3.5,53.0,,2.23046875,-3.66796875,-0.81640625,2.8359375,1.140625,0.994140625,2.62109375,-12.7421875,1.30078125,1.0
4235291,,,,,,,,3.16796875,1.71484375,-2.24609375,2.52734375,1.166015625,0.375,3.46484375,-7.3046875,0.11328125,1.0
4235292,,,,,,,,3.3515625,2.60546875,-2.30859375,2.4921875,1.26171875,0.193359375,3.6171875,-6.38671875,0.19140625,1.0
4235293,,,,,,,,3.4609375,5.31640625,-1.56640625,2.376953125,1.455078125,0.046875,3.65625,-3.58984375,1.26171875,1.0
4235294,,,,,,,,3.33203125,6.01953125,-1.4453125,2.31640625,1.5234375,-0.01953125,3.50390625,-2.86328125,1.4921875,1.0
4235295,,,,,,,,2.2578125,9.51171875,-2.95703125,2.150390625,1.4765625,-0.2109375,2.39453125,0.69921875,0.19140625,1.0
4235296,,,,,,,,2.2734375,9.48046875,-3.04296875,2.130859375,1.34765625,-0.177734375,2.16796875,1.6171875,-0.30859375,1.0
4235297,,,,,,,,1.72265625,12.09765625,-4.89453125,2.158203125,1.18359375,0.1640625,1.47265625,4.1484375,-1.765625,1.0
4235298,,,,,,,,1.7109375,13.58984375,-5.859375,1.873046875,1.02734375,0.513671875,1.703125,4.984375,-2.1484375,1.0
4235299,,,,,,,,3.89453125,10.74609375,-6.93359375,1.14453125,0.75390625,0.517578125,3.76953125,2.23046875,-3.02734375,1.0
4235300,36.013198,129.3191425,48.905649174732986,88.54560801582448,3.8000000000000003,50.0,0.0,5.53515625,8.125,-7.32421875,2.8359375,1.140625,0.994140625,5.37890625,-0.375,-3.37109375,1.0
4235301,,,,,,,,6.79296875,4.9296875,-7.8046875,0.583984375,0.517578125,0.169921875,6.56640625,-3.515625,-3.7578125,1.0
4235302,,,,,,,,4.87109375,4.02734375,-6.0859375,0.59375,0.376953125,0.27734375,4.61328125,-4.39453125,-1.9921875,1.0
4235303,,,,,,,,1.90625,4.66015625,-3.96484375,0.66015625,0.3359375,0.390625,1.625,-3.7421875,0.15234375,1.0
4235304,,,,,,,,-3.171875,6.15625,0.72265625,0.826171875,0.24609375,0.623046875,-3.5078125,-2.2109375,4.8984375,1.0
4235305,,,,,,,,-5.32421875,7.2890625,2.55078125,1.001953125,0.193359375,0.84375,-5.73046875,-1.0234375,6.8125,1.0
4235306,,,,,,,,-3.703125,10.0390625,-1.77734375,0.935546875,0.22265625,1.005859375,-4.19921875,1.7734375,2.56640625,1.0
4235307,,,,,,,,-1.51171875,12.03515625,-4.546875,0.091796875,0.30078125,1.005859375,-2.08984375,3.796875,-0.15625,1.0
4235308,,,,,,,,0.2265625,13.26171875,-6.0625,-0.5859375,0.31640625,0.900390625,-0.40625,5.0234375,-1.6875,1.0
4235309,,,,,,,,1.234375,13.45703125,-5.8359375,-2.27734375,0.3515625,0.169921875,0.515625,5.140625,-1.6484375,1.0
4235310,36.01320016666667,129.31914583333335,49.2061433711816,88.7860213921733,3.7,50.0,,1.2265625,12.31640625,-4.26171875,-2.203125,0.412109375,-0.53125,0.515625,3.9140625,-0.26953125,1.0
4235311,,,,,,,,1.1484375,9.19921875,-1.81640625,0.037109375,0.51171875,-1.64453125,0.5546875,0.73828125,2.0234375,1.0
4235312,,,,,,,,2.4765625,3.66796875,-1.2265625,0.509765625,0.390625,-1.78515625,2.0078125,-4.77734375,2.640625,1.0
4235313,,,,,,,,1.65625,-8.1171875,2.640625,0.30859375,0.32421875,-1.509765625,1.3203125,-16.54296875,6.546875,1.0
4235314,,,,,,,,-5.05859375,-49.6875,18.74609375,-0.3984375,0.310546875,-0.82421875,-5.26953125,-58.1015625,22.63671875,1.0
4235315,,,,,,,,-9.84765625,-39.3984375,10.59765625,-0.689453125,0.25390625,-0.294921875,-10.01953125,-47.8359375,14.44140625,1.0
4235316,,,,,,,,-1.57421875,-10.3828125,2.8515625,-0.73828125,0.205078125,-0.015625,-1.74609375,-18.83984375,6.6640625,1.0
4235317,,,,,,,,3.20703125,-1.97265625,-0.3515625,-0.65234375,0.111328125,0.564453125,3.00390625,-10.44921875,3.40625,1.0
4235318,,,,,,,,12.3203125,-9.87109375,-2.02734375,-0.759765625,0.0625,1.197265625,12.046875,-18.375,1.68359375,1.0
4235319,,,,,,,,9.2109375,-15.33203125,2.78515625,0.673828125,-0.009765625,1.251953125,8.75,-23.8515625,6.43359375,1.0
4235320,36.013202500000006,129.31914883333332,49.47658788884404,89.04492781732012,3.5,50.0,,6.42578125,-16.53515625,1.43359375,1.267578125,-0.3515625,0.06640625,5.91796875,-25.0,5.20703125,1.0
4235321,,,,,,,,0.63671875,-11.15625,0.46875,-1.26171875,-0.19140625,-3.615234375,0.36328125,-19.6796875,4.171875,1.0
4235322,,,,,,,,-2.171875,-9.48828125,0.44921875,-1.17578125,-0.283203125,-3.875,-2.28125,-18.03125,4.09765625,1.0
4235323,,,,,,,,-2.63671875,-7.8359375,0.14453125,-2.51171875,-0.248046875,-1.318359375,-2.47265625,-16.4609375,3.63671875,1.0
4235324,,,,,,,,-1.86328125,-4.81640625,-1.24609375,-3.431640625,-0.7578125,1.44921875,-1.70703125,-13.546875,1.98828125,1.0
4235325,,,,,,,,-3.33203125,-0.9921875,-3.10546875,-2.505859375,-0.970703125,0.33203125,-3.27734375,-9.87890625,-0.26953125,1.0
4235326,,,,,,,,-4.3984375,0.65625,-2.52734375,-2.607421875,-1.234375,-0.294921875,-4.3125,-8.3046875,0.07421875,1.0
4235327,,,,,,,,-5.1796875,3.1015625,-1.77734375,-3.12890625,-1.3984375,-0.06640625,-5.0390625,-5.93359375,0.57421875,1.0
4235328,,,,,,,,-5.3203125,5.41015625,-2.25,-3.15234375,-1.490234375,0.09765625,-5.16015625,-3.70703125,-0.1953125,1.0
4235329,,,,,,,,-5.3359375,6.4375,-2.4453125,-3.056640625,-1.470703125,0.048828125,-5.15625,-2.7109375,-0.5390625,1.0
4235330,36.0132045,129.31915166666667,49.73200782819548,89.26684775000592,3.5,48.0,,-5.203125,8.30078125,-3.28125,1.267578125,-0.3515625,0.06640625,5.91796875,-25.0,5.20703125,1.0
4235331,,,,,,,,-4.95703125,11.03125,-2.36328125,-2.9140625,-1.2734375,0.5,-4.76953125,1.7734375,-0.99609375,1.0
4235332,,,,,,,,-4.453125,12.78515625,-1.48828125,-2.744140625,-1.056640625,0.853515625,-4.3125,3.49609375,-0.38671875,1.0
4235333,,,,,,,,-3.64453125,12.44140625,-1.16015625,-2.52734375,-0.828125,0.888671875,-3.578125,3.11328125,-0.30859375,1.0
4235334,,,,,,,,-3.9296875,8.3203125,-0.9609375,-2.44140625,-0.609375,0.650390625,-3.97265625,-1.0234375,-0.4609375,1.0
4235335,,,,,,,,-4.1015625,6.3828125,-0.6953125,-2.412109375,-0.533203125,0.6875,-4.1953125,-2.9765625,-0.421875,1.0
4235336,,,,,,,,-4.0625,6.1796875,0.01953125,-2.140625,-0.4765625,0.857421875,-4.234375,-3.171875,0.07421875,1.0
4235337,,,,,,,,-3.48046875,6.296875,0.765625,-1.47265625,-0.408203125,0.91015625,-3.734375,-3.0546875,0.6484375,1.0
4235338,,,,,,,,-2.3984375,6.3359375,0.5546875,-1.095703125,-0.3671875,0.908203125,-2.703125,-3.015625,0.3828125,1.0
4235339,,,,,,,,-0.85546875,7.19921875,0.27734375,-0.451171875,-0.23828125,0.91796875,-1.24609375,-2.1328125,0.03515625,1.0
4235340,36.013207,129.31915466666666,50.00245221186298,89.54424739906148,3.7,46.0,,0.84765625,9.22265625,-0.34765625,0.064453125,0.037109375,0.947265625,0.36328125,-0.10546875,-0.61328125,1.0
4235341,,,,,,,,1.66796875,10.83203125,-0.7265625,0.591796875,0.22265625,0.96875,1.08984375,1.5,-0.9609375,1.0
4235342,,,,,,,,2.48046875,12.35546875,-0.12890625,0.76171875,0.1484375,0.810546875,1.81640625,3.03515625,-0.30859375,1.0
4235343,,,,,,,,1.109375,12.76171875,1.109375,0.669921875,0.017578125,0.166015625,0.3984375,3.45703125,0.9921875,1.0
4235344,,,,,,,,-1.05078125,11.296875,1.77734375,0.57421875,-0.126953125,-0.58984375,-1.74609375,2.0,1.72265625,1.0
4235345,,,,,,,,-2.62890625,9.95703125,2.37109375,0.486328125,-0.255859375,-1.16015625,-3.234375,0.66015625,2.37109375,1.0
4235346,,,,,,,,-3.01953125,9.61328125,2.55078125,0.4453125,-0.30859375,-1.32421875,-3.578125,0.31640625,2.56640625,1.0
4235347,,,,,,,,-3.875,8.33984375,2.9375,0.283203125,-0.3671875,-1.4296875,-4.31640625,-0.94921875,2.984375,1.0
4235348,,,,,,,,-5.53125,4.38671875,5.48828125,-0.060546875,-0.435546875,-1.291015625,-5.84375,-4.89453125,5.55078125,1.0
4235349,,,,,,,,-4.84375,-1.90234375,3.17578125,-0.35546875,-0.478515625,-1.095703125,-5.0390625,-11.17578125,3.21484375,1.0
4235350,36.01320916666667,129.3191585,50.348020665464816,89.7846610719883,3.6,51.0,,2.31640625,-28.2734375,10.140625,-0.09375,-0.44921875,-0.771484375,2.23828125,-37.53515625,10.1484375,1.0
4235351,,,,,,,,16.93359375,-58.14453125,25.640625,0.357421875,-0.4453125,-0.58203125,16.91015625,-67.40625,25.6640625,1.0
4235352,,,,,,,,11.27734375,-20.64453125,18.5703125,0.611328125,-0.447265625,-0.4765625,11.27734375,-29.91015625,18.6171875,1.0
4235353,,,,,,,,4.26953125,-8.4609375,10.09375,1.056640625,-0.41015625,-0.28515625,4.30859375,-17.7265625,10.2265625,1.0
4235354,,,,,,,,-8.87109375,-5.12890625,4.83203125,1.81640625,-0.396484375,0.318359375,-8.83203125,-14.39453125,5.16796875,1.0
4235355,,,,,,,,-10.2734375,-6.59375,2.6484375,1.318359375,-0.556640625,0.861328125,-10.2890625,-15.85546875,3.140625,1.0
4235356,,,,,,,,-6.203125,-9.3515625,1.94921875,0.798828125,-0.39453125,1.009765625,-6.265625,-18.609375,2.48828125,1.0
4235357,,,,,,,,-1.3203125,-10.7734375,0.9140625,0.142578125,0.197265625,0.853515625,-1.4765625,-20.0234375,1.4921875,1.0
4235358,,,,,,,,4.51171875,-12.15234375,5.2421875,0.93359375,-0.033203125,-4.490234375,4.57421875,-21.40234375,5.9375,1.0
4235359,,,,,,,,4.984375,-11.42578125,5.22265625,1.193359375,-0.037109375,-4.763671875,5.265625,-20.67578125,5.97265625,1.0
4235360,36.013211166666665,129.31916166666667,50.63349010998991,90.00658120300841,3.4000000000000004,53.0,,2.80078125,-5.84375,0.94921875,2.857421875,0.693359375,-1.041015625,3.50390625,-15.05078125,1.98828125,1.0
4235361,,,,,,,,2.515625,-0.54296875,-1.28125,2.962890625,1.01171875,0.833984375,3.15625,-9.68359375,0.34375,1.0
4235362,,,,,,,,2.7578125,0.9375,-0.92578125,2.75,1.181640625,0.92578125,3.3515625,-8.1875,0.83984375,1.0
4235363,,,,,,,,2.93359375,2.66015625,-1.05078125,2.39453125,1.416015625,0.60546875,3.42578125,-6.42578125,0.95703125,1.0
4235364,,,,,,,,2.8984375,3.2109375,-1.24609375,2.384765625,1.5234375,0.34375,3.3515625,-5.8515625,0.87890625,1.0
4235365,,,,,,,,2.97265625,5.76953125,-2.46875,2.40234375,1.57421875,-0.0390625,3.3828125,-3.24609375,-0.1171875,1.0
4235366,,,,,,,,2.98828125,7.0859375,-2.80859375,2.38671875,1.537109375,-0.123046875,3.38671875,-1.90625,-0.34765625,1.0
4235367,,,,,,,,2.5859375,11.015625,-3.80078125,2.28515625,1.314453125,0.208984375,2.9296875,2.1171875,-0.99609375,1.0
4235368,,,,,,,,2.4609375,12.2109375,-4.09765625,2.23828125,1.228515625,0.400390625,2.7734375,3.34765625,-1.19140625,1.0
4235369,,,,,,,,2.43359375,14.29296875,-4.94921875,2.080078125,1.109375,0.60546875,2.66015625,5.48828125,-1.83984375,1.0
4235370,36.013213,129.31916433333333,50.87388532344532,90.21000787510198,3.8000000000000003,50.0,,2.7421875,13.234375,-5.6953125,1.826171875,0.96484375,0.556640625,2.890625,4.4921875,-2.4140625,1.0
4235371,,,,,,,,4.23046875,9.66796875,-6.52734375,1.451171875,0.771484375,0.421875,4.26953125,1.00390625,-3.02734375,1.0
4235372,,,,,,,,5.2890625,6.93359375,-6.69140625,1.203125,0.642578125,0.4609375,5.26953125,-1.67578125,-3.06640625,1.0
4235373,,,,,,,,5.625,4.95703125,-6.2421875,1.05859375,0.6015625,0.4765625,5.5703125,-3.62890625,-2.5703125,1.0
4235374,,,,,,,,4.9296875,3.8828125,-5.3984375,0.76171875,0.541015625,0.486328125,4.80859375,-4.6640625,-1.6484375,1.0
4235375,,,,,,,,0.9609375,3.859375,-1.28515625,0.61328125,0.412109375,0.60546875,0.78125,-4.66796875,2.52734375,1.0
4235376,,,,,,,,-3.1015625,4.578125,2.20703125,0.52734375,0.302734375,1.013671875,-3.390625,-3.8984375,6.0859375,1.0
4235377,,,,,,,,-1.734375,9.7890625,-2.875,0.173828125,0.3046875,1.353515625,-2.203125,1.3515625,1.0703125,1.0
4235378,,,,,,,,-0.83984375,11.08203125,-3.984375,-0.095703125,0.30859375,1.328125,-1.36328125,2.65234375,-0.0390625,1.0
4235379,,,,,,,,0.78125,13.734375,-5.6640625,-0.8046875,0.369140625,1.001953125,0.1328125,5.30078125,-1.765625,1.0
4235380,36.0132155,129.31916783333332,51.18940396492474,90.48740782315849,3.8000000000000003,49.0,,0.92578125,14.4140625,-4.87109375,-1.3359375,0.43359375,0.3125,0.20703125,5.9453125,-1.07421875,1.0
4235381,,,,,,,,0.58203125,13.53515625,-3.8359375,-0.287109375,0.515625,-1.28515625,-0.09765625,5.02734375,-0.15625,1.0
4235382,,,,,,,,0.1875,11.11328125,-2.9453125,0.18359375,0.41015625,-1.884765625,-0.3671875,2.61328125,0.7265625,1.0
4235383,,,,,,,,0.33984375,10.0859375,-2.2265625,0.166015625,0.376953125,-1.9140625,-0.13671875,1.578125,1.453125,1.0
4235384,,,,,,,,1.2421875,4.74609375,-0.40234375,-0.06640625,0.357421875,-1.615234375,0.8984375,-3.74609375,3.29296875,1.0
4235385,,,,,,,,-0.8125,-11.71484375,1.8125,-0.474609375,0.341796875,-1.04296875,-1.0546875,-20.2109375,5.4765625,1.0
4235386,,,,,,,,-9.640625,-56.25390625,20.53125,-0.822265625,0.318359375,-0.482421875,-9.828125,-64.76953125,24.1328125,1.0
4235387,,,,,,,,-9.2265625,-41.25,11.0234375,-0.912109375,0.267578125,0.025390625,-9.40625,-49.79296875,14.5546875,1.0
4235388,,,,,,,,-3.55078125,-23.0,10.10546875,-0.875,0.24609375,0.275390625,-3.73828125,-31.5546875,13.59765625,1.0
4235389,,,,,,,,4.01953125,-4.97265625,5.41796875,-0.71875,0.173828125,0.73046875,3.76953125,-13.55078125,8.84765625,1.0
4235390,36.013217833333336,129.31917083333335,51.45984837575992,90.74631430946965,3.6,49.0,,10.19140625,-4.328125,-5.046875,-0.556640625,0.017578125,1.11328125,9.82421875,-12.94140625,-1.6875,1.0
4235391,,,,,,,,7.15234375,-11.5546875,-2.10546875,-0.16015625,-0.0703125,1.287109375,6.68359375,-20.1796875,1.22265625,1.0
4235392,,,,,,,,7.05859375,-14.05078125,-0.6953125,0.6328125,-0.056640625,1.48046875,6.52734375,-22.66796875,2.640625,1.0
4235393,,,,,,,,6.2890625,-15.984375,3.203125,1.4921875,-0.021484375,0.998046875,5.6484375,-24.546875,6.6640625,1.0
4235394,,,,,,,,3.60546875,-13.4765625,3.05078125,-1.2734375,-0.033203125,-2.20703125,3.00390625,-22.05859375,6.51171875,1.0
4235395,,,,,,,,-0.91015625,-8.05078125,-1.546875,-1.421875,-0.44921875,-4.23046875,-1.20703125,-16.69140625,1.796875,1.0
4235396,,,,,,,,-1.8203125,-6.51953125,-2.65625,-2.080078125,-0.505859375,-3.28515625,-1.9375,-15.19921875,0.609375,1.0
4235397,,,,,,,,-2.48828125,-3.7421875,-3.34765625,-3.0546875,-0.6484375,0.501953125,-3.31640625,-10.37109375,0.11328125,1.0
4235398,,,,,,,,-4.60546875,-0.1875,-1.1015625,-2.08984375,-1.0,1.01171875,-4.76953125,-9.11328125,1.4921875,1.0
4235399,,,,,,,,-5.12109375,0.3515625,-0.43359375,-2.314453125,-1.140625,0.474609375,-5.30859375,-8.609375,2.06640625,1.0
4235400,36.01322016666666,129.319174,51.74531754325795,91.0052208925226,3.7,48.0,0.0,-5.34375,1.80859375,-0.421875,-0.556640625,0.017578125,1.11328125,9.82421875,-12.94140625,-1.6875,1.0
4235401,,,,,,,,-5.4453125,4.97265625,-1.59375,-3.150390625,-1.591796875,-0.24609375,-5.5390625,-4.12890625,0.3828125,1.0
4235402,,,,,,,,-5.11328125,7.234375,-3.1015625,-2.96484375,-1.58984375,0.0,-5.19140625,-1.90625,-1.265625,1.0
4235403,,,,,,,,-4.625,10.8828125,-2.9375,-2.4375,-1.521484375,0.5390625,-4.6953125,1.6953125,-1.34375,1.0
4235404,,,,,,,,-3.8515625,13.06640625,-2.265625,-2.091796875,-1.361328125,0.810546875,-3.97265625,3.83984375,-0.8828125,1.0
4235405,,,,,,,,-3.17578125,12.59375,-1.3984375,-2.052734375,-1.134765625,0.73828125,-3.3515625,3.34375,-0.1953125,1.0
4235406,,,,,,,,-3.08984375,11.85546875,-1.01171875,-2.15625,-0.8984375,0.443359375,-3.31640625,2.57421875,-0.00390625,1.0
4235407,,,,,,,,-3.6640625,8.01953125,-0.56640625,-2.1640625,-0.609375,0.203125,-3.93359375,-1.29296875,0.03515625,1.0
4235408,,,,,,,,-3.109375,7.60546875,-0.5703125,-1.7890625,-0.513671875,0.431640625,-3.39453125,-1.71484375,-0.15625,1.0
4235409,,,,,,,,-1.8984375,7.72265625,-0.64453125,-1.44140625,-0.474609375,0.544921875,-2.203125,-1.59765625,-0.30859375,1.0
4235410,36.0132225,129.31917683333333,52.000737147303596,91.26412730784311,3.8000000000000003,46.0,,0.125,8.2578125,-0.85546875,-0.662109375,-0.33984375,0.69140625,-0.25,-1.06640625,-0.61328125,1.0
4235411,,,,,,,,1.2578125,8.79296875,-0.55859375,-0.0390625,-0.1171875,0.734375,0.8203125,-0.52734375,-0.34765625,1.0
4235412,,,,,,,,1.8671875,9.7734375,0.54296875,0.685546875,0.048828125,0.69140625,1.3203125,0.46875,0.80078125,1.0
4235413,,,,,,,,1.66796875,10.2265625,0.89453125,0.859375,0.033203125,0.642578125,1.08984375,0.9296875,1.1796875,1.0
4235414,,,,,,,,0.06640625,11.48046875,0.93359375,0.806640625,-0.078125,0.34375,-0.55859375,2.19140625,1.30078125,1.0
4235415,,,,,,,,-0.921875,12.26953125,0.02734375,0.548828125,-0.177734375,-0.076171875,-1.5546875,2.9921875,0.45703125,1.0
4235416,,,,,,,,-1.14453125,12.1796875,-0.45703125,0.30078125,-0.240234375,-0.400390625,-1.74609375,2.92578125,0.03515625,1.0
4235417,,,,,,,,-1.44921875,11.3359375,-0.28125,0.125,-0.2734375,-0.4453125,-2.01171875,2.078125,0.2265625,1.0
4235418,,,,,,,,-1.6953125,10.8671875,0.171875,0.05859375,-0.291015625,-0.486328125,-2.24609375,1.6171875,0.6875,1.0
4235419,,,,,,,,-3.3203125,8.25390625,2.73046875,0.052734375,-0.27734375,-0.677734375,-3.81640625,-0.98828125,3.25390625,1.0
4235420,36.0132245,129.31918033333335,52.31625604724266,91.48604767281776,3.7,50.0,,-5.0390625,6.2578125,5.48046875,-0.662109375,-0.33984375,0.69140625,-5.4609375,-2.9765625,6.01171875,1.0
4235421,,,,,,,,-4.42578125,0.6171875,2.67578125,0.220703125,-0.267578125,-0.9375,-4.76953125,-8.61328125,3.21484375,1.0
4235422,,,,,,,,-1.3359375,-7.51171875,-0.34375,0.369140625,-0.310546875,-0.82421875,-1.59375,-16.73046875,0.2265625,1.0
4235423,,,,,,,,10.74609375,-41.19921875,13.40234375,0.552734375,-0.3359375,-0.55859375,10.55078125,-50.3984375,14.01953125,1.0
4235424,,,,,,,,13.6953125,-59.3203125,28.1640625,0.791015625,-0.28125,-0.267578125,13.5390625,-68.5234375,28.84375,1.0
4235425,,,,,,,,6.66796875,-13.625,10.86328125,1.173828125,-0.146484375,-0.044921875,6.52734375,-22.8203125,11.64453125,1.0
4235426,,,,,,,,-5.2734375,-5.89453125,6.046875,1.869140625,-0.00390625,0.12109375,-5.421875,-15.08203125,6.96875,1.0
4235427,,,,,,,,-8.1015625,-6.671875,3.12890625,2.146484375,-0.001953125,0.240234375,-8.2578125,-15.85546875,4.13671875,1.0
4235428,,,,,,,,-8.68359375,-8.5703125,-0.96875,1.431640625,-0.125,0.2578125,-8.87109375,-17.73046875,0.2265625,1.0
4235429,,,,,,,,-6.109375,-10.41796875,-0.59375,0.693359375,0.001953125,0.3125,-6.3046875,-19.5625,0.6484375,1.0
4235430,36.01322666666667,129.31918366666665,52.6167500435206,91.72646116681506,3.3000000000000003,53.0,,1.50390625,-12.8984375,2.8828125,-0.662109375,-0.33984375,0.69140625,1.16796875,-22.05859375,4.171875,1.0
4235431,,,,,,,,3.12890625,-12.33984375,2.8515625,1.392578125,0.083984375,-4.072265625,3.04296875,-21.4765625,4.25,1.0
4235432,,,,,,,,2.62890625,-10.2734375,1.30859375,1.921875,0.162109375,-3.71875,2.73828125,-19.4140625,2.79296875,1.0
4235433,,,,,,,,1.421875,-7.61328125,-0.0703125,3.345703125,0.986328125,0.15234375,1.7421875,-16.6875,1.796875,1.0
4235434,,,,,,,,0.72265625,-4.4296875,-1.3359375,3.185546875,1.005859375,0.71875,1.01171875,-13.48046875,0.6875,1.0
4235435,,,,,,,,1.4375,-1.34765625,-2.515625,2.828125,1.037109375,0.970703125,1.625,-10.33203125,-0.1953125,1.0
4235436,,,,,,,,3.09375,1.20703125,-2.5859375,2.640625,1.263671875,1.109375,3.15625,-7.7265625,-0.0390625,1.0
4235437,,,,,,,,3.45703125,1.8671875,-2.63671875,2.671875,1.3359375,0.96875,3.46484375,-7.04296875,0.03515625,1.0
4235438,,,,,,,,4.33984375,4.125,-3.16015625,2.7578125,1.46484375,0.59765625,4.23046875,-4.70703125,-0.23046875,1.0
4235439,,,,,,,,4.38671875,4.0859375,-3.27734375,2.53125,1.548828125,0.390625,4.1875,-3.1328125,-1.2265625,1.0
4235440,36.013228166666664,129.3191865,52.87217015968103,91.89290156833408,3.7,52.0,,1.50390625,-12.8984375,2.8828125,-0.662109375,-0.33984375,0.69140625,3.46484375,1.3515625,-1.83984375,1.0
4235441,,,,,,,,3.05859375,12.546875,-5.67578125,2.064453125,0.955078125,0.888671875,2.5078125,4.1484375,-1.95703125,1.0
4235442,,,,,,,,3.55078125,11.3984375,-6.5,1.748046875,0.76171875,0.748046875,4.1484375,0.23828125,-3.44921875,1.0
4235443,,,,,,,,4.79296875,8.62890625,-7.45703125,1.611328125,0.65625,0.638671875,4.73046875,-1.4453125,-3.6796875,1.0
4235444,,,,,,,,5.8671875,5.265625,-7.8984375,1.43359375,0.44140625,0.53125,5.609375,-4.55078125,-3.6796875,1.0
4235445,,,,,,,,6.65234375,1.87109375,-7.36328125,1.2578125,0.326171875,0.556640625,5.37890625,-6.3125,-2.53125,1.0
4235446,,,,,,,,5.10546875,2.734375,-6.0078125,0.958984375,0.30859375,0.546875,2.8515625,-4.5078125,-0.61328125,1.0
4235447,,,,,,,,1.0234375,5.25390625,-2.5546875,0.65625,0.296875,0.541015625,-1.70703125,-2.2890625,4.55859375,1.0
4235448,,,,,,,,-0.79296875,5.84375,0.1015625,0.583984375,0.275390625,0.5703125,-3.35546875,-1.71484375,6.8515625,1.0
4235449,,,,,,,,-3.48828125,7.8828125,1.3203125,0.5390625,0.185546875,0.77734375,-4.08203125,0.96875,4.4375,1.0
4235450,36.013230666666665,129.31919033333332,53.217738218037596,92.17030177003488,3.9000000000000004,52.0,,1.50390625,-12.8984375,2.8828125,-0.662109375,-0.33984375,0.69140625,-1.09375,5.0234375,0.2265625,1.0
4235451,,,,,,,,1.21875,14.0234375,-5.20703125,-1.228515625,0.099609375,0.361328125,1.703125,6.79296875,-1.3828125,1.0
4235452,,,,,,,,3.234375,14.80859375,-6.0390625,-1.291015625,0.28515625,-1.076171875,1.359375,5.8671875,-1.265625,1.0
4235453,,,,,,,,2.5546875,14.02734375,-5.5703125,-0.568359375,0.345703125,-1.630859375,0.4765625,4.53515625,-0.76953125,1.0
4235454,,,,,,,,1.27734375,11.828125,-4.6796875,0.673828125,0.328125,-2.275390625,0.1328125,1.80859375,0.87890625,1.0
4235455,,,,,,,,1.51171875,7.26171875,-1.2734375,0.78125,0.23046875,-2.15234375,1.12890625,-3.09765625,3.0625,1.0
4235456,,,,,,,,2.13671875,2.12890625,-1.71875,-0.06640625,0.2421875,-1.33203125,0.28515625,-18.875,5.4765625,1.0
4235457,,,,,,,,-4.69921875,-38.81640625,12.578125,-0.814453125,0.28125,-0.677734375,-8.37109375,-61.7421875,20.875,1.0
4235458,,,,,,,,-7.83203125,-53.5859375,16.546875,-1.04296875,0.30078125,-0.36328125,-10.44140625,-69.01953125,19.99609375,1.0
4235459,,,,,,,,-11.609375,-59.484375,8.78125,-1.083984375,0.3125,0.224609375,-11.015625,-52.703125,13.0234375,1.0
4235460,36.013233,129.31919366666668,53.51823205989585,92.42920850371429,3.8000000000000003,51.0,,1.50390625,-12.8984375,2.8828125,-0.662109375,-0.33984375,0.69140625,5.45703125,-11.0625,5.58984375,1.0
4235461,,,,,,,,11.26171875,-4.50390625,-6.40234375,-0.5,0.263671875,1.0234375,10.58984375,-12.78515625,-2.33984375,1.0
4235462,,,,,,,,9.59375,-12.609375,-4.01953125,-0.01953125,0.232421875,1.15234375,8.7890625,-20.91015625,-0.00390625,1.0
4235463,,,,,,,,7.97265625,-14.953125,-1.734375,0.923828125,0.09375,1.271484375,7.10546875,-23.2421875,2.296875,1.0
4235464,,,,,,,,5.98828125,-17.20703125,2.4375,1.25,-0.240234375,0.73828125,5.03515625,-25.421875,6.5859375,1.0
4235465,,,,,,,,2.390625,-11.69140625,1.55859375,-1.302734375,-0.220703125,-3.92578125,1.625,-19.984375,5.62890625,1.0
4235466,,,,,,,,-1.01171875,-6.28125,-2.76171875,-1.916015625,-0.625,-3.724609375,-1.40234375,-14.66796875,1.18359375,1.0
4235467,,,,,,,,-2.30078125,-3.01171875,-4.41015625,-3.294921875,-0.763671875,0.181640625,-2.51171875,-11.51953125,-0.69140625,1.0
4235468,,,,,,,,-2.37109375,-1.9609375,-4.23828125,-3.265625,-1.0078125,1.31640625,-2.58984375,-10.52734375,-0.65234375,1.0
4235469,,,,,,,,-3.27734375,0.140625,-3.58984375,-2.626953125,-0.958984375,1.298828125,-3.58203125,-8.53515625,-0.26953125,1.0
4235470,36.013235,129.3191965,53.773651796819024,92.65112855535305,3.6,50.0,,-4.44140625,2.1796875,-1.35546875,-2.638671875,-1.37109375,-0.03125,-4.76953125,-6.62109375,1.64453125,1.0
4235471,,,,,,,,-4.390625,3.15234375,-1.6796875,-3.251953125,-1.63671875,-0.41015625,-4.65625,-5.734375,1.0703125,1.0
4235472,,,,,,,,-4.8359375,7.234375,-3.88671875,-2.8984375,-1.712890625,0.15625,-5.00390625,-1.7890625,-1.57421875,1.0
4235473,,,,,,,,-5.03515625,8.61328125,-3.73828125,-2.697265625,-1.65625,0.408203125,-5.1875,-0.44921875,-1.53515625,1.0
4235474,,,,,,,,-4.796875,13.09765625,-2.09765625,-2.25390625,-1.396484375,0.92578125,-5.00390625,3.95703125,-0.23046875,1.0
4235475,,,,,,,,-4.56640625,13.41796875,-1.76171875,-2.189453125,-1.259765625,0.919921875,-4.8046875,4.26171875,-0.00390625,1.0
4235476,,,,,,,,-4.26953125,13.3203125,-1.58203125,-2.154296875,-1.1484375,0.8359375,-4.5390625,4.1484375,0.07421875,1.0
4235477,,,,,,,,-3.578125,10.63671875,-1.8828125,-2.19921875,-0.9765625,0.529296875,-3.89453125,1.42578125,-0.421875,1.0
4235478,,,,,,,,-3.41015625,9.3515625,-1.859375,-2.291015625,-0.85546875,0.408203125,-3.73828125,0.125,-0.5,1.0
4235479,,,,,,,,-3.515625,6.32421875,-0.296875,-2.447265625,-0.5546875,0.486328125,-3.89453125,-2.94140625,0.7265625,1.0
4235480,36.013237000000004,129.31919883333333,53.983997210710676,92.87304833800914,3.5,47.0,,-3.046875,6.2265625,0.91015625,-1.52734375,-0.373046875,0.720703125,-3.51171875,-3.0546875,1.64453125,1.0
4235481,,,,,,,,-1.64453125,6.9921875,0.98046875,-0.658203125,-0.28125,0.71484375,-2.16796875,-2.2890625,1.60546875,1.0
4235482,,,,,,,,0.93359375,9.09765625,0.4296875,-0.3359375,-0.21875,0.697265625,0.36328125,-0.18359375,1.03125,1.0
