time,latitude,longitude,enu_x,enu_y,speed,course,ecg,accX,accY,accZ,gyrX,gyrY,gyrZ,eulR,eulP,eulY,validity
4229040,36.013022666666664,129.31891099999999,28.03629599370351,69.09066255760007,3.8000000000000003,50.0,,2.86328125,-7.6640625,-1.015625,2.5546875,1.2109375,0.236328125,0.66796875,-13.8203125,2.3359375,1.0
4229041,,,,,,,,6.39453125,-37.37890625,-2.1953125,-1.630859375,0.474609375,-0.67578125,4.23046875,-43.6171875,1.03125,1.0
4229042,,,,,,,,0.12890625,-48.21875,5.4609375,-1.44140625,0.482421875,-0.669921875,-2.01171875,-54.50390625,8.6171875,1.0
4229043,,,,,,,,-20.75,-41.5390625,13.36328125,-0.94921875,0.466796875,-0.314453125,-22.8515625,-47.91796875,16.39453125,1.0
4229044,,,,,,,,-7.49609375,-18.57421875,3.54296875,-0.765625,0.451171875,0.087890625,-9.59765625,-25.0,6.51171875,1.0
4229045,,,,,,,,12.578125,-9.42578125,-4.8984375,0.95703125,0.908203125,1.341796875,10.359375,-15.8828125,-1.9921875,1.0
4229046,,,,,,,,10.41015625,-12.4375,-3.34375,1.162109375,0.96875,1.361328125,8.13671875,-18.87890625,-0.421875,1.0
4229047,,,,,,,,9.6171875,-16.66796875,-4.05078125,-0.53125,-0.115234375,1.08203125,7.2578125,-23.08984375,-1.11328125,1.0
4229048,,,,,,,,9.02734375,-15.88671875,-4.65234375,-2.17578125,-0.3359375,0.0234375,6.64453125,-22.359375,-1.80078125,1.0
4229049,,,,,,,,6.46875,-13.5,-4.515625,-1.74609375,0.109375,-1.408203125,4.1171875,-20.02734375,-1.7265625,1.0
4229050,36.0130245,129.31891366666665,28.27669230295119,69.29408860635186,3.5,51.0,,3.69140625,-11.66796875,-3.08203125,-0.1171875,-0.0546875,-3.2265625,1.51171875,-18.296875,-0.34765625,1.0
4229051,,,,,,,,0.734375,-8.6171875,-0.12890625,-1.8125,-0.3359375,-0.87109375,-1.171875,-15.39453125,2.52734375,1.0
4229052,,,,,,,,-0.890625,-6.15625,0.4765625,-2.15234375,-0.4140625,0.314453125,-2.78125,-12.98046875,3.0625,1.0
4229053,,,,,,,,-2.16796875,-4.0625,-0.234375,-1.818359375,-0.5390625,0.890625,-4.08203125,-10.9453125,2.21875,1.0
4229054,,,,,,,,-3.76171875,-0.25390625,-3.2109375,-2.171875,-0.779296875,0.275390625,-5.69140625,-7.19140625,-0.8828125,1.0
4229055,,,,,,,,-4.3984375,1.66796875,-4.07421875,-2.990234375,-1.083984375,-0.037109375,-6.30859375,-5.35546875,-1.91796875,1.0
4229056,,,,,,,,-4.95703125,3.2109375,-3.93359375,-3.294921875,-1.26171875,-0.03515625,-6.8359375,-3.859375,-1.87890625,1.0
4229057,,,,,,,,-5.38671875,5.48046875,-2.42578125,-3.177734375,-1.603515625,-0.0234375,-7.22265625,-1.71484375,-0.69140625,1.0
4229058,,,,,,,,-4.46875,8.1171875,-0.73046875,-2.58984375,-1.61328125,-0.1015625,-6.26953125,0.8515625,0.80078125,1.0
4229059,,,,,,,,-3.95703125,8.33984375,-0.26171875,-2.259765625,-1.533203125,-0.083984375,-5.7265625,1.04296875,1.18359375,1.0
4229060,36.013026833333335,129.31891616666664,28.50206361188041,69.5529942320042,3.9000000000000004,47.0,,-2.32421875,10.2421875,-1.046875,-1.587890625,-1.181640625,0.427734375,-4.078125,2.8828125,0.2265625,1.0
4229061,,,,,,,,-1.12890625,9.171875,-2.58984375,-1.53515625,-0.509765625,0.97265625,-2.97265625,1.7734375,-1.53515625,1.0
4229062,,,,,,,,-0.98046875,8.3046875,-2.71875,-1.544921875,-0.361328125,0.9140625,-2.85546875,0.890625,-1.7265625,1.0
4229063,,,,,,,,-0.3984375,6.43359375,-2.53125,-1.3046875,-0.1953125,0.650390625,-2.3203125,-0.98828125,-1.6484375,1.0
4229064,,,,,,,,0.62890625,5.5703125,-1.52734375,-0.72265625,-0.234375,0.2890625,-1.32421875,-1.8671875,-0.73046875,1.0
4229065,,,,,,,,1.2109375,5.9296875,-0.921875,0.267578125,-0.1875,0.07421875,-0.75,-1.5234375,-0.15625,1.0
4229066,,,,,,,,1.3359375,6.50390625,-0.5078125,0.474609375,-0.1796875,0.07421875,-0.6328125,-0.9453125,0.265625,1.0
4229067,,,,,,,,1.21875,7.43359375,-0.1953125,0.6796875,-0.17578125,0.09375,-0.75,-0.02734375,0.609375,1.0
4229068,,,,,,,,1.21875,8.95703125,0.10546875,0.740234375,-0.205078125,0.12890625,-0.75,1.5,0.95703125,1.0
4229069,,,,,,,,1.2578125,9.2421875,0.15625,0.748046875,-0.265625,0.130859375,-0.7109375,1.77734375,1.03125,1.0
4229070,36.01302866666666,129.31891933333333,28.78753432667184,69.75642044033314,3.8000000000000003,51.0,,1.15234375,9.34765625,0.0625,0.712890625,-0.376953125,0.044921875,-0.82421875,1.8828125,0.9921875,1.0
4229071,,,,,,,,0.98046875,9.1484375,-0.12890625,0.541015625,-0.484375,-0.23828125,-0.98046875,1.6953125,0.83984375,1.0
4229072,,,,,,,,0.8984375,8.13671875,-0.3515625,0.24609375,-0.55078125,-0.66015625,-1.01953125,0.66015625,0.6484375,1.0
4229073,,,,,,,,0.7578125,7.6484375,-0.359375,0.123046875,-0.546875,-0.853515625,-1.1328125,0.1640625,0.6484375,1.0
4229074,,,,,,,,-0.25390625,4.30078125,0.8203125,0.041015625,-0.494140625,-1.107421875,-2.05078125,-3.20703125,1.8359375,1.0
4229075,,,,,,,,-0.5703125,2.9453125,0.90625,0.11328125,-0.3828125,-1.1875,-0.13671875,-10.7890625,1.33984375,1.0
4229076,,,,,,,,4.26171875,-16.71484375,0.5078125,0.291015625,-0.267578125,-1.080078125,4.73046875,-43.390625,5.78125,1.0
4229077,,,,,,,,7.421875,-52.44140625,17.65234375,0.4453125,-0.240234375,-0.97265625,1.625,-54.12109375,24.09375,1.0
4229078,,,,,,,,3.0625,-46.5234375,23.03125,0.53515625,-0.22265625,-0.912109375,-0.13671875,-37.76171875,21.52734375,1.0
4229079,,,,,,,,0.76171875,-18.26953125,11.46875,0.755859375,-0.17578125,-0.849609375,-1.8984375,-19.7578125,6.73828125,1.0
4229080,36.01303016666667,129.318922,29.02793072208796,69.92286009457914,3.4000000000000004,53.0,,1.15234375,9.34765625,0.0625,1.2265625,-0.07421875,-0.779296875,-1.8203125,-16.30859375,-1.6484375,1.0
4229081,,,,,,,,2.1640625,-12.60546875,1.0703125,0.142578125,-0.037109375,0.109375,1.85546875,-21.51953125,5.0546875,1.0
4229082,,,,,,,,3.02734375,-13.85546875,3.7421875,-0.38671875,-0.0546875,0.322265625,2.390625,-24.234375,6.81640625,1.0
4229083,,,,,,,,3.34375,-16.359375,4.4609375,0.115234375,0.029296875,-0.517578125,1.77734375,-22.359375,4.13671875,1.0
4229084,,,,,,,,1.74609375,-10.55859375,0.1171875,2.134765625,0.29296875,-3.66015625,0.20703125,-16.16015625,0.6875,1.0
4229085,,,,,,,,1.03125,-8.078125,-0.6796875,2.50390625,0.712890625,-3.212890625,0.32421875,-15.7734375,1.0703125,1.0
4229086,,,,,,,,1.05078125,-8.03125,-0.4609375,2.7890625,1.029296875,-1.908203125,0.4375,-15.77734375,1.76171875,1.0
4229087,,,,,,,,0.9609375,-7.2890625,1.265625,2.65625,1.02734375,0.173828125,0.20703125,-14.05078125,3.484375,1.0
4229088,,,,,,,,0.7421875,-5.59375,1.46875,2.61328125,1.353515625,-0.041015625,0.32421875,-12.359375,3.33203125,1.0
4229089,,,,,,,,1.29296875,-3.54296875,0.75390625,2.728515625,1.31640625,-0.23046875,1.203125,-10.06640625,2.1796875,1.0
4229090,36.01303233333333,129.318925,29.298376483364294,70.16327268381846,3.8000000000000003,51.0,,1.15234375,9.34765625,0.0625,2.728515625,1.248046875,-0.015625,-1.8203125,-16.30859375,-1.6484375,1.0
4229091,,,,,,,,4.02734375,2.74609375,-2.09375,2.6640625,1.2890625,0.26171875,3.38671875,-4.8515625,0.34375,1.0
4229092,,,,,,,,4.98828125,4.32421875,-2.859375,2.53515625,1.330078125,0.76953125,4.26953125,-3.20703125,-0.15625,1.0
4229093,,,,,,,,5.3984375,6.46484375,-4.79296875,2.189453125,1.28515625,0.693359375,4.54296875,-0.98828125,-1.83984375,1.0
4229094,,,,,,,,5.68359375,7.55859375,-5.2265625,2.5546875,1.126953125,0.412109375,4.73046875,0.19921875,-2.03125,1.0
4229095,,,,,,,,5.66796875,7.90234375,-5.4140625,2.810546875,0.892578125,0.478515625,4.65234375,0.62109375,-2.03125,1.0
4229096,,,,,,,,5.421875,7.90234375,-6.0078125,2.822265625,0.779296875,0.521484375,4.3828125,0.66015625,-2.53125,1.0
4229097,,,,,,,,4.4375,7.265625,-6.90234375,2.583984375,0.546875,0.578125,3.31640625,0.1640625,-3.14453125,1.0
4229098,,,,,,,,3.921875,7.1875,-6.91796875,2.591796875,0.5546875,0.603515625,2.7734375,0.125,-3.0625,1.0
4229099,,,,,,,,2.8359375,6.82421875,-5.703125,2.328125,0.513671875,0.580078125,1.625,-0.14453125,-1.6875,1.0
4229100,36.0130345,129.3189285,29.613896647889113,70.40368543432183,4.0,51.0,0.0,1.8046875,7.08203125,-4.9609375,1.896484375,0.4296875,0.375,0.5546875,0.19921875,-0.8046875,1.0
4229101,,,,,,,,0.44921875,8.875,-3.00390625,1.2265625,0.345703125,-0.037109375,-0.82421875,2.078125,1.30078125,1.0
4229102,,,,,,,,0.484375,9.46484375,-2.98046875,0.552734375,0.3125,-0.21875,-0.7890625,2.6875,1.37890625,1.0
4229103,,,,,,,,0.44140625,9.46484375,-2.73046875,0.154296875,0.275390625,-0.26953125,-0.82421875,2.6875,1.64453125,1.0
4229104,,,,,,,,0.68359375,9.51953125,-2.74609375,-0.59375,0.228515625,-0.369140625,-0.55859375,2.7265625,1.60546875,1.0
4229105,,,,,,,,1.03515625,9.02734375,-2.7578125,-1.205078125,0.208984375,-0.4921875,-0.17578125,2.19140625,1.53125,1.0
4229106,,,,,,,,1.65625,8.6796875,-3.31640625,-1.541015625,0.244140625,-0.63671875,0.4765625,1.7734375,0.87890625,1.0
4229107,,,,,,,,2.64453125,7.76171875,-3.57421875,-1.560546875,0.27734375,-0.76953125,1.5078125,0.77734375,0.49609375,1.0
4229108,,,,,,,,3.00390625,7.37890625,-3.52734375,-1.451171875,0.294921875,-0.796875,1.890625,0.35546875,0.49609375,1.0
4229109,,,,,,,,4.6328125,5.5234375,-1.93359375,-1.166015625,0.28515625,-0.720703125,3.578125,-1.5625,1.98828125,1.0
4229110,36.01303683333333,129.31893166666666,29.89936712039399,70.66259129916183,4.0,51.0,,4.51953125,2.62109375,-0.59765625,1.896484375,0.4296875,0.375,0.5546875,0.19921875,-0.8046875,1.0
4229111,,,,,,,,3.93359375,-4.703125,-0.07421875,-0.611328125,0.208984375,-0.50390625,2.96484375,-11.87109375,3.71484375,1.0
4229112,,,,,,,,6.1796875,-32.84765625,1.75,-0.515625,0.150390625,-0.5546875,5.265625,-40.0546875,5.4765625,1.0
4229113,,,,,,,,-22.17578125,-54.18359375,21.79296875,-0.69921875,0.130859375,-0.494140625,-23.04296875,-61.43359375,25.47265625,1.0
4229114,,,,,,,,-10.640625,-17.671875,7.18359375,-1.1171875,0.09375,-0.35546875,-11.4765625,-24.96875,10.80078125,1.0
4229115,,,,,,,,-2.08203125,-8.98046875,0.94140625,-1.806640625,0.052734375,-0.1640625,-2.89453125,-16.34765625,4.44140625,1.0
4229116,,,,,,,,14.3828125,-9.2109375,-4.6640625,-1.814453125,0.130859375,-0.021484375,13.578125,-16.6171875,-1.2265625,1.0
4229117,,,,,,,,14.3046875,-13.734375,-0.15625,-0.865234375,0.529296875,0.44140625,13.4609375,-21.2109375,3.140625,1.0
4229118,,,,,,,,6.9453125,-15.91015625,3.015625,-0.853515625,-0.984375,0.634765625,6.0703125,-23.4296875,6.2421875,1.0
4229119,,,,,,,,4.33984375,-14.1015625,2.08203125,-1.146484375,-0.80859375,-0.8984375,3.50390625,-21.67578125,5.24609375,1.0
4229120,36.01303866666667,129.31893433333335,30.139763345798578,70.8660173992412,3.5,51.0,,2.7890625,-8.68359375,-1.36328125,0.18359375,-0.47265625,-3.810546875,0.5546875,0.19921875,-0.8046875,1.0
4229121,,,,,,,,1.38671875,-6.8125,-2.875,-0.380859375,-0.4140625,-3.53125,1.08984375,-14.47265625,0.265625,1.0
4229122,,,,,,,,-0.109375,-6.29296875,-2.03125,-1.453125,-0.265625,-1.931640625,-0.2890625,-13.96875,1.0703125,1.0
4229123,,,,,,,,-2.68359375,-4.4296875,0.38671875,-3.35546875,-0.64453125,1.02734375,-2.81640625,-12.2109375,3.29296875,1.0
4229124,,,,,,,,-4.0,-2.98046875,-0.0078125,-3.154296875,-0.8046875,0.873046875,-4.1953125,-10.8671875,2.640625,1.0
4229125,,,,,,,,-5.3828125,2.2265625,-1.80078125,-2.056640625,-1.384765625,-0.384765625,-5.5390625,-5.7734375,0.53515625,1.0
4229126,,,,,,,,-5.56640625,3.98828125,-1.84765625,-2.005859375,-1.62109375,-0.3046875,-5.69140625,-4.05078125,0.41796875,1.0
4229127,,,,,,,,-5.3515625,8.921875,-1.92578125,-2.302734375,-1.90625,0.361328125,-5.421875,0.8125,0.15234375,1.0
4229128,,,,,,,,-4.953125,10.609375,-1.4609375,-2.107421875,-1.83984375,0.689453125,-5.04296875,2.421875,0.34375,1.0
4229129,,,,,,,,-4.33203125,11.37109375,-1.30078125,-2.048828125,-1.724609375,0.4765625,-4.42578125,3.15234375,0.41796875,1.0
4229130,36.013041333333334,129.31893716666667,30.395184044151357,71.16190959191346,4.0,47.0,,-3.8203125,11.546875,-0.94921875,-2.283203125,-1.267578125,-0.095703125,-3.89453125,3.265625,0.49609375,1.0
4229131,,,,,,,,-2.93359375,9.75390625,-1.93359375,-2.4921875,-0.96875,-0.056640625,-2.96875,1.42578125,-0.69140625,1.0
4229132,,,,,,,,-3.4375,8.4140625,-2.3046875,-2.482421875,-0.650390625,0.109375,-3.46875,0.046875,-1.265625,1.0
4229133,,,,,,,,-3.921875,6.69140625,-1.84765625,-2.103515625,-0.3828125,0.263671875,-3.96875,-1.71484375,-1.11328125,1.0
4229134,,,,,,,,-3.63671875,6.90625,-0.58203125,-1.5625,-0.302734375,0.228515625,-3.6953125,-1.5234375,-0.00390625,1.0
4229135,,,,,,,,-2.1640625,8.5625,0.06640625,-0.822265625,-0.224609375,0.16796875,-2.2421875,0.125,0.53515625,1.0
4229136,,,,,,,,-1.515625,9.2890625,0.10546875,-0.490234375,-0.173828125,0.130859375,-1.59765625,0.8515625,0.53515625,1.0
4229137,,,,,,,,-0.125,11.2890625,0.08984375,-0.146484375,-0.166015625,0.08203125,-0.2109375,2.84375,0.49609375,1.0
4229138,,,,,,,,0.06640625,12.1796875,-0.35546875,-0.146484375,-0.171875,0.107421875,-0.01953125,3.7265625,0.03515625,1.0
4229139,,,,,,,,0.02734375,12.41015625,-0.796875,-0.1640625,-0.185546875,0.1171875,-0.05859375,3.953125,-0.421875,1.0
4229140,36.0130435,129.3189405,30.695679337727,71.40232232904955,4.0,48.0,,-0.6171875,11.71875,-1.40234375,-0.07421875,-0.32421875,0.00390625,-0.7109375,3.26953125,-1.03515625,1.0
4229141,,,,,,,,-1.0859375,11.14453125,-1.625,0.21484375,-0.46875,-0.27734375,-1.171875,2.6875,-1.265625,1.0
4229142,,,,,,,,-1.31640625,9.57421875,-1.1796875,0.423828125,-0.57421875,-0.51953125,-1.36328125,1.12109375,-0.8046875,1.0
4229143,,,,,,,,-1.625,8.0703125,-0.80859375,0.369140625,-0.591796875,-0.58984375,-1.59375,-0.375,-0.38671875,1.0
4229144,,,,,,,,-2.51953125,5.421875,-0.1015625,0.361328125,-0.517578125,-0.490234375,-2.43359375,-3.015625,0.34375,1.0
4229145,,,,,,,,-5.9453125,0.9296875,4.2265625,0.365234375,-0.427734375,-0.28515625,-5.8046875,-7.50390625,4.7109375,1.0
4229146,,,,,,,,-2.359375,-18.34375,11.7109375,0.447265625,-0.388671875,-0.154296875,-2.203125,-26.765625,12.21875,1.0
4229147,,,,,,,,10.1484375,-37.5,19.44921875,0.544921875,-0.35546875,-0.064453125,10.3203125,-45.92578125,19.99609375,1.0
4229148,,,,,,,,13.09765625,-37.34765625,14.8046875,0.59375,-0.341796875,-0.044921875,13.26953125,-45.765625,15.3984375,1.0
4229149,,,,,,,,4.84765625,-12.71484375,5.515625,0.595703125,-0.212890625,-0.087890625,5.03515625,-21.1328125,6.1640625,1.0
4229150,36.01304533333334,129.3189435,30.966125132787468,71.60574855648869,3.5,52.0,,-2.515625,-7.8046875,6.08203125,-0.07421875,-0.32421875,0.00390625,-2.3203125,-16.234375,6.77734375,1.0
4229151,,,,,,,,-3.79296875,-10.9921875,6.47265625,1.30859375,0.01171875,-0.087890625,-3.58203125,-19.4140625,7.23828125,1.0
4229152,,,,,,,,-5.17578125,-12.3984375,6.86328125,1.875,-0.068359375,0.357421875,-4.96484375,-20.828125,7.69921875,1.0
4229153,,,,,,,,-1.83203125,-16.69921875,4.69140625,1.369140625,0.44921875,1.60546875,-1.70703125,-25.1171875,5.66796875,1.0
4229154,,,,,,,,-0.14453125,-13.09765625,3.671875,1.12109375,0.65625,0.693359375,-0.13671875,-21.51953125,4.75,1.0
4229155,,,,,,,,0.51953125,-7.95703125,2.21875,0.19921875,0.39453125,-3.33203125,0.70703125,-16.38671875,3.40625,1.0
4229156,,,,,,,,1.23046875,-7.4296875,0.6015625,0.21875,0.41015625,-3.44921875,1.55078125,-15.85546875,1.796875,1.0
4229157,,,,,,,,1.4140625,-6.8828125,0.57421875,2.833984375,0.958984375,0.65625,1.96875,-15.2734375,2.06640625,1.0
4229158,,,,,,,,1.88671875,-2.12890625,0.39453125,2.84375,1.134765625,0.6640625,2.35546875,-10.484375,2.14453125,1.0
4229159,,,,,,,,2.30078125,-0.41796875,-0.19140625,2.662109375,1.126953125,0.41796875,2.73828125,-8.7578125,1.68359375,1.0
4229160,36.01304733333333,129.31894616666665,31.206521240147666,71.82766789191471,3.5,51.0,,3.328125,3.6953125,-2.359375,2.630859375,1.234375,0.466796875,3.6953125,-4.5859375,-0.15625,1.0
4229161,,,,,,,,4.1015625,6.13671875,-4.1171875,2.775390625,1.365234375,0.95703125,4.38671875,-2.09765625,-1.6875,1.0
4229162,,,,,,,,4.43359375,5.9609375,-4.59375,2.705078125,1.431640625,1.13671875,4.6484375,-2.25,-2.03125,1.0
4229163,,,,,,,,4.97265625,7.25390625,-6.00390625,2.228515625,1.35546875,0.986328125,4.99609375,-0.87109375,-3.14453125,1.0
4229164,,,,,,,,4.3671875,7.52734375,-6.2109375,2.201171875,1.259765625,0.84765625,4.34765625,-0.56640625,-3.2578125,1.0
4229165,,,,,,,,3.16796875,7.2890625,-6.2109375,2.388671875,0.90625,0.73828125,2.96484375,-0.6796875,-2.875,1.0
4229166,,,,,,,,2.82421875,6.98046875,-5.984375,2.37890625,0.8125,0.8359375,2.578125,-0.94921875,-2.5703125,1.0
4229167,,,,,,,,1.9609375,5.79296875,-5.328125,2.388671875,0.669921875,1.05078125,1.625,-2.0546875,-1.7265625,1.0
4229168,,,,,,,,1.640625,4.98046875,-4.86328125,2.376953125,0.62890625,1.15234375,1.2421875,-2.82421875,-1.15234375,1.0
4229169,,,,,,,,1.3828125,4.89453125,-4.17578125,1.892578125,0.583984375,1.3046875,0.8203125,-2.78125,-0.23046875,1.0
4229170,36.0130495,129.318949,31.461942077925855,72.06808049574329,3.8000000000000003,49.0,,1.25390625,5.6640625,-3.58984375,1.560546875,0.5859375,1.26171875,3.6953125,-4.5859375,-0.15625,1.0
4229171,,,,,,,,0.953125,9.46484375,-2.89453125,0.33203125,0.552734375,0.943359375,0.171875,1.88671875,1.22265625,1.0
4229172,,,,,,,,0.80078125,10.34765625,-2.5859375,-0.013671875,0.50390625,0.7734375,-0.01953125,2.765625,1.53125,1.0
4229173,,,,,,,,0.40234375,12.078125,-2.33203125,-0.482421875,0.455078125,0.373046875,-0.48046875,4.4921875,1.76171875,1.0
4229174,,,,,,,,0.81640625,13.03515625,-3.671875,-0.685546875,0.48828125,-0.328125,-0.09765625,5.41015625,0.34375,1.0
4229175,,,,,,,,1.47265625,12.828125,-4.84375,-0.595703125,0.544921875,-0.8125,0.58984375,5.1796875,-0.8828125,1.0
4229176,,,,,,,,1.828125,12.4609375,-5.05078125,-0.556640625,0.55859375,-1.044921875,0.9765625,4.796875,-1.11328125,1.0
4229177,,,,,,,,2.67578125,10.578125,-4.8125,-0.591796875,0.5390625,-1.439453125,1.89453125,2.8828125,-0.921875,1.0
4229178,,,,,,,,2.7578125,8.84765625,-4.3046875,-0.6328125,0.48046875,-1.658203125,2.0859375,1.12109375,-0.4609375,1.0
4229179,,,,,,,,2.78125,7.70703125,-3.81640625,-0.548828125,0.45703125,-1.68359375,2.16796875,-0.02734375,-0.00390625,1.0
4229180,36.013052,129.31895316666666,31.837561200819728,72.3454799545305,4.2,51.0,,2.109375,-3.9453125,1.3359375,-0.291015625,0.388671875,-1.369140625,1.6640625,-11.7109375,5.09375,1.0
4229181,,,,,,,,-3.29296875,-31.08984375,13.2734375,-0.279296875,0.302734375,-0.9296875,-3.66015625,-38.8671875,17.0078125,1.0
4229182,,,,,,,,-6.49609375,-43.00390625,17.4921875,-0.328125,0.271484375,-0.705078125,-6.83984375,-50.78515625,21.21875,1.0
4229183,,,,,,,,-16.37890625,-51.37109375,16.0390625,-0.556640625,0.21875,-0.30859375,-16.68359375,-59.17578125,19.7265625,1.0
4229184,,,,,,,,-2.50390625,-7.1171875,2.5703125,-1.142578125,0.185546875,0.21875,-2.81640625,-14.97265625,6.1640625,1.0
4229185,,,,,,,,8.55859375,-6.02734375,-3.6015625,-1.626953125,0.216796875,0.380859375,8.21484375,-13.93359375,-0.1171875,1.0
4229186,,,,,,,,10.8359375,-8.9453125,-3.5390625,-1.734375,0.267578125,0.41015625,10.4765625,-16.8828125,-0.1171875,1.0
4229187,,,,,,,,8.69921875,-17.53515625,3.6953125,-0.255859375,0.283203125,0.822265625,8.25390625,-25.54296875,6.96875,1.0
4229188,,,,,,,,7.04296875,-17.49609375,4.9296875,0.533203125,-0.8125,0.09765625,6.56640625,-25.50390625,8.234375,1.0
4229189,,,,,,,,5.91015625,-12.125,1.20703125,-0.248046875,-0.875,-0.783203125,5.45703125,-20.14453125,4.51953125,1.0
4229190,36.013054333333336,129.31895683333332,32.16810595655703,72.60438605836772,4.1000000000000005,52.0,,2.46484375,-6.9609375,-2.31640625,-0.291015625,0.388671875,-1.369140625,1.6640625,-11.7109375,5.09375,1.0
4229191,,,,,,,,0.16796875,-6.96875,-3.11328125,-0.90234375,-0.373046875,-3.26171875,0.20703125,-15.05078125,0.11328125,1.0
4229192,,,,,,,,-1.625,-5.78515625,-1.87109375,-1.91015625,-0.2890625,-1.439453125,-1.4765625,-13.890625,1.30078125,1.0
4229193,,,,,,,,-1.578125,-4.0390625,-0.34375,-3.56640625,-0.662109375,1.6484375,-1.4375,-12.25,2.6015625,1.0
4229194,,,,,,,,-3.0546875,-1.46875,-1.7890625,-2.828125,-1.1015625,0.482421875,-3.046875,-9.8359375,0.7265625,1.0
4229195,,,,,,,,-6.08203125,4.5703125,-3.16796875,-2.623046875,-1.6640625,0.30078125,-5.9921875,-3.9375,-1.07421875,1.0
4229196,,,,,,,,-6.3828125,5.71484375,-2.74609375,-2.85546875,-1.806640625,0.701171875,-6.3046875,-2.82421875,-0.76953125,1.0
4229197,,,,,,,,-6.08203125,9.5,-1.94921875,-2.876953125,-1.951171875,1.0234375,-6.03125,0.890625,-0.23046875,1.0
4229198,,,,,,,,-5.5,10.3515625,-1.640625,-2.638671875,-1.904296875,0.73046875,-5.50390625,1.6953125,-0.15625,1.0
4229199,,,,,,,,-5.40625,10.7265625,-1.53125,-2.59765625,-1.82421875,0.583984375,-5.42578125,2.0390625,-0.15625,1.0
4229200,36.01305683333333,129.31895966666667,32.423526607028236,72.88178510380214,4.2,49.0,0.0,-5.18359375,11.265625,-1.13671875,-0.291015625,0.388671875,-1.369140625,1.6640625,-11.7109375,5.09375,1.0
4229201,,,,,,,,-4.69921875,10.7890625,-1.26171875,-2.513671875,-1.1640625,0.98828125,-4.8046875,2.0390625,-0.34765625,1.0
4229202,,,,,,,,-3.92578125,7.44140625,-2.0078125,-2.458984375,-0.869140625,1.109375,-4.1171875,-1.33203125,-1.3046875,1.0
4229203,,,,,,,,-3.015625,5.05078125,-1.515625,-2.048828125,-0.57421875,0.908203125,-3.390625,-3.74609375,-1.2265625,1.0
4229204,,,,,,,,-1.21484375,5.55859375,-0.6640625,-1.546875,-0.615234375,0.80859375,-1.66796875,-3.24609375,-0.5390625,1.0
4229205,,,,,,,,0.921875,6.9375,-0.64453125,-0.74609375,-0.541015625,0.78515625,0.3984375,-1.87109375,-0.61328125,1.0
4229206,,,,,,,,1.56640625,7.46484375,-0.9296875,-0.318359375,-0.47265625,0.8125,1.01171875,-1.33203125,-0.921875,1.0
4229207,,,,,,,,2.14453125,9.2265625,-1.2265625,0.40625,-0.333984375,0.900390625,1.51171875,0.4296875,-1.2265625,1.0
4229208,,,,,,,,1.5390625,11.78515625,-0.9140625,1.078125,-0.201171875,0.982421875,0.8203125,2.99609375,-0.84375,1.0
4229209,,,,,,,,1.15625,12.3515625,-0.77734375,1.404296875,-0.150390625,0.96875,0.3984375,3.57421875,-0.65234375,1.0
4229210,36.013059,129.3189631666667,32.7390465913609,73.12219796716158,4.2,50.0,,0.01953125,12.765625,-0.57421875,-0.291015625,0.388671875,-1.369140625,1.6640625,-11.7109375,5.09375,1.0
4229211,,,,,,,,-1.55859375,12.13671875,0.13671875,1.375,-0.328125,-0.01953125,-2.43359375,3.375,0.53515625,1.0
4229212,,,,,,,,-2.2109375,10.4921875,0.921875,0.640625,-0.37890625,-0.99609375,-3.05078125,1.734375,1.4140625,1.0
4229213,,,,,,,,-2.51953125,7.80859375,2.8984375,-0.138671875,-0.435546875,-1.625,-3.23828125,-0.94921875,3.41015625,1.0
4229214,,,,,,,,-3.3671875,4.63671875,5.89453125,-0.9609375,-0.412109375,-1.83984375,-3.9296875,-4.12890625,6.35546875,1.0
4229215,,,,,,,,-2.94921875,-5.62109375,5.453125,-1.310546875,-0.36328125,-1.71875,-3.35546875,-14.39453125,5.8203125,1.0
4229216,,,,,,,,-0.7734375,-11.89453125,6.40625,-1.0625,-0.298828125,-1.36328125,-1.0546875,-20.671875,6.6640625,1.0
4229217,,,,,,,,11.91796875,-44.265625,13.484375,-0.4140625,-0.25390625,-0.91015625,11.73828125,-53.046875,13.671875,1.0
4229218,,,,,,,,8.79296875,-34.71875,23.1796875,0.302734375,-0.21875,-0.5078125,8.67578125,-43.51171875,23.3671875,1.0
4229219,,,,,,,,-0.08984375,-4.76171875,6.57421875,0.830078125,-0.181640625,-0.212890625,-0.17578125,-13.55078125,6.81640625,1.0
4229220,36.01306133333333,129.31896683333335,33.069591290884894,73.38110410496671,3.9000000000000004,52.0,,-5.26953125,-6.06640625,3.0625,-0.291015625,0.388671875,-1.369140625,1.6640625,-11.7109375,5.09375,1.0
4229221,,,,,,,,-5.390625,-12.1171875,4.171875,1.1640625,0.0390625,0.642578125,-5.5,-20.91015625,4.7109375,1.0
4229222,,,,,,,,-4.28515625,-14.30078125,5.78515625,0.23046875,0.236328125,0.64453125,-4.42578125,-23.0859375,6.35546875,1.0
4229223,,,,,,,,-0.5234375,-13.90234375,4.36328125,-0.751953125,0.150390625,0.099609375,-0.7109375,-22.703125,4.90234375,1.0
4229224,,,,,,,,1.0625,-12.75390625,4.2265625,-0.013671875,0.048828125,-0.900390625,0.8984375,-21.55859375,4.75,1.0
4229225,,,,,,,,2.55078125,-9.6796875,4.58984375,0.94140625,0.064453125,-4.181640625,2.62109375,-18.49609375,5.16796875,1.0
4229226,,,,,,,,1.77734375,-7.84765625,2.859375,1.8515625,0.1953125,-3.28125,2.19921875,-16.65234375,3.5625,1.0
4229227,,,,,,,,1.390625,-6.953125,2.03515625,2.857421875,0.69140625,-0.4921875,1.96875,-15.734375,2.94921875,1.0
4229228,,,,,,,,2.671875,-0.6640625,-0.55859375,2.275390625,1.17578125,0.30078125,3.15625,-9.4140625,0.83984375,1.0
4229229,,,,,,,,3.80859375,1.359375,-0.5078125,2.263671875,1.30078125,0.1796875,4.26953125,-7.38671875,0.9921875,1.0
4229230,36.0130635,129.31896983333334,33.34003683021754,73.62151682040026,4.0,51.0,,3.9921875,3.43359375,-0.265625,-0.291015625,0.388671875,-1.369140625,1.6640625,-11.7109375,5.09375,1.0
4229231,,,,,,,,3.75,5.82421875,-0.75390625,2.517578125,1.638671875,0.072265625,4.12109375,-2.82421875,1.33984375,1.0
4229232,,,,,,,,3.18359375,7.828125,-1.73046875,2.451171875,1.626953125,0.15234375,3.5390625,-0.796875,0.45703125,1.0
4229233,,,,,,,,3.015625,10.328125,-3.23828125,2.3125,1.392578125,0.62109375,3.27734375,1.7734375,-0.73046875,1.0
4229234,,,,,,,,3.03125,10.84765625,-3.59765625,2.244140625,1.29296875,0.798828125,3.234375,2.30859375,-0.99609375,1.0
4229235,,,,,,,,3.51953125,10.27734375,-5.515625,1.634765625,0.91015625,0.994140625,3.50390625,1.84765625,-2.5703125,1.0
4229236,,,,,,,,4.04296875,9.01171875,-6.2578125,1.447265625,0.71484375,0.80078125,3.921875,0.62109375,-3.1796875,1.0
4229237,,,,,,,,4.42578125,6.58984375,-6.69921875,1.44140625,0.591796875,0.673828125,4.2265625,-1.75390625,-3.48828125,1.0
4229238,,,,,,,,4.2734375,6.03125,-6.5234375,1.421875,0.546875,0.65234375,4.04296875,-2.2890625,-3.2578125,1.0
4229239,,,,,,,,1.77734375,5.640625,-4.41796875,1.2734375,0.486328125,0.734375,1.47265625,-2.6328125,-1.03515625,1.0
4229240,36.013066,129.3189725,33.58043260983231,73.89891584379254,4.2,46.0,,0.859375,5.80859375,-3.66015625,-0.291015625,0.388671875,-1.369140625,0.515625,-2.4375,-0.23046875,1.0
4229241,,,,,,,,-1.23046875,6.75,-2.60546875,0.865234375,0.46484375,0.9921875,-1.703125,-1.4453125,0.95703125,1.0
4229242,,,,,,,,-1.7578125,7.19140625,-2.1796875,0.7109375,0.451171875,1.060546875,-2.28515625,-0.98828125,1.4140625,1.0
4229243,,,,,,,,-2.69140625,8.49609375,-0.265625,0.2421875,0.453125,1.126953125,-3.31640625,0.35546875,3.3671875,1.0
4229244,,,,,,,,-0.55078125,10.640625,-2.203125,-0.47265625,0.482421875,1.05078125,-1.28515625,2.50390625,1.4140625,1.0
4229245,,,,,,,,1.828125,12.03515625,-4.25,-1.369140625,0.62890625,0.255859375,0.9375,3.8359375,-0.8046875,1.0
4229246,,,,,,,,2.07421875,11.76171875,-4.33984375,-1.10546875,0.681640625,-0.25,1.16796875,3.53515625,-0.99609375,1.0
4229247,,,,,,,,1.20703125,10.2578125,-3.48828125,-0.59765625,0.6796875,-0.685546875,0.32421875,2.0,-0.23046875,1.0
4229248,,,,,,,,1.10546875,9.68359375,-3.08984375,-0.216796875,0.697265625,-0.93359375,0.24609375,1.42578125,0.15234375,1.0
4229249,,,,,,,,0.69140625,5.73828125,0.6640625,0.29296875,0.625,-1.375,-0.09765625,-2.51953125,3.91015625,1.0
4229250,36.01306866666666,129.31897616666666,33.910977112751326,74.19480842632336,4.0,48.0,,0.3125,-3.1953125,0.72265625,0.201171875,0.453125,-1.396484375,-0.3671875,-11.44921875,3.98046875,1.0
4229251,,,,,,,,-4.29296875,-37.9375,10.26171875,-0.12890625,0.40234375,-1.0546875,-4.88671875,-46.1875,13.51953125,1.0
4229252,,,,,,,,-18.22265625,-55.99609375,16.65234375,-0.62890625,0.330078125,-0.5625,-18.75390625,-64.26953125,19.87890625,1.0
4229253,,,,,,,,-18.23046875,-55.98828125,16.67578125,-0.76953125,0.30859375,-0.328125,-16.72265625,-44.19921875,19.2265625,1.0
4229254,,,,,,,,-1.52734375,-9.65234375,7.046875,-0.87109375,0.28125,0.1171875,-2.05078125,-17.953125,10.1875,1.0
4229255,,,,,,,,8.8984375,0.5859375,-0.703125,-0.58203125,0.255859375,0.345703125,8.33203125,-7.765625,2.3359375,1.0
4229256,,,,,,,,11.96484375,-8.9375,-4.12890625,0.076171875,0.30078125,0.375,11.35546875,-17.30859375,-1.11328125,1.0
4229257,,,,,,,,10.75390625,-15.3984375,-0.859375,1.244140625,0.275390625,0.716796875,10.08984375,-23.7421875,2.21875,1.0
4229258,,,,,,,,9.25390625,-18.33203125,3.30078125,1.263671875,-0.021484375,0.724609375,8.55859375,-26.65234375,6.43359375,1.0
4229259,,,,,,,,3.80078125,-15.91015625,4.85546875,-0.9140625,-0.169921875,-1.419921875,3.12109375,-24.23828125,8.00390625,1.0
4229260,36.01307116666667,129.31897933333332,34.19644726327734,74.4722076405155,3.8000000000000003,48.0,,-1.8671875,-7.88671875,-1.2421875,-0.794921875,-0.154296875,-4.29296875,-2.28125,-16.265625,1.8359375,1.0
4229261,,,,,,,,-2.6640625,-4.5390625,-3.11328125,-2.623046875,-0.267578125,-0.806640625,-2.51171875,-11.8984375,-0.61328125,1.0
4229262,,,,,,,,-2.58984375,-2.390625,-3.55078125,-2.763671875,-0.61328125,0.953125,-2.58984375,-10.91015625,-0.76953125,1.0
4229263,,,,,,,,-3.0546875,-0.3515625,-2.89453125,-2.685546875,-1.015625,1.98046875,-3.1640625,-8.953125,-0.34765625,1.0
4229264,,,,,,,,-4.23828125,1.25,-1.8046875,-2.6796875,-1.029296875,1.552734375,-4.42578125,-7.38671875,0.609375,1.0
4229265,,,,,,,,-4.4296875,1.625,-1.37109375,-2.666015625,-1.4921875,-0.1484375,-4.80859375,-6.16015625,1.30078125,1.0
4229266,,,,,,,,-4.72265625,3.828125,-0.63671875,-2.830078125,-1.75390625,-0.21484375,-4.88671875,-4.96875,1.22265625,1.0
4229267,,,,,,,,-5.4140625,7.25390625,-2.84375,-2.779296875,-1.837890625,0.20703125,-5.54296875,-1.59765625,-1.2265625,1.0
4229268,,,,,,,,-5.703125,9.484375,-3.1015625,-2.625,-1.763671875,0.689453125,-5.84765625,0.5859375,-1.7265625,1.0
4229269,,,,,,,,-5.48828125,9.8515625,-2.8671875,-2.576171875,-1.69140625,0.900390625,-5.6484375,0.9296875,-1.609375,1.0
4229270,36.013073999999996,129.31898266666667,34.4969420506949,74.7865933373679,4.3,45.0,,-4.25390625,10.6640625,-1.859375,-2.478515625,-1.3125,1.1484375,-4.5390625,1.6953125,-0.921875,1.0
4229271,,,,,,,,-3.4375,9.0390625,-0.7578125,-2.419921875,-1.12890625,0.9609375,-3.81640625,0.046875,-0.0390625,1.0
4229272,,,,,,,,-3.0625,8.2734375,-0.3515625,-2.39453125,-1.025390625,0.806640625,-3.47265625,-0.71875,0.265625,1.0
4229273,,,,,,,,-2.2265625,7.72265625,0.296875,-2.298828125,-0.828125,0.607421875,-2.703125,-1.29296875,0.6875,1.0
4229274,,,,,,,,-2.1015625,7.72265625,0.5546875,-2.083984375,-0.701171875,0.73828125,-2.62890625,-1.29296875,0.765625,1.0
4229275,,,,,,,,-0.16015625,7.71484375,-0.171875,-1.283203125,-0.634765625,1.171875,-0.82421875,-1.2890625,-0.1953125,1.0
4229276,,,,,,,,0.953125,8.12890625,-0.78125,-0.646484375,-0.642578125,1.318359375,0.171875,-0.87109375,-0.8828125,1.0
4229277,,,,,,,,1.55859375,9.421875,-0.56640625,0.064453125,-0.466796875,1.248046875,0.66796875,0.4296875,-0.6875,1.0
4229278,,,,,,,,1.27734375,10.48046875,-0.11328125,0.470703125,-0.33984375,1.15625,0.32421875,1.5,-0.23046875,1.0
4229279,,,,,,,,0.453125,11.890625,0.25,1.234375,-0.228515625,0.623046875,-0.6328125,2.921875,0.265625,1.0
4229280,36.013076833333336,129.31898633333333,34.827486416187874,75.10097916485401,4.3,46.0,,-0.4453125,12.1796875,0.1796875,1.0625,-0.212890625,-0.1484375,-1.5546875,3.2265625,0.3046875,1.0
4229281,,,,,,,,-1.02734375,11.3359375,-0.19921875,0.412109375,-0.27734375,-0.857421875,-2.08984375,2.38671875,-0.00390625,1.0
4229282,,,,,,,,-1.12109375,10.41796875,-0.08203125,-0.38671875,-0.40234375,-1.1796875,-2.0859375,1.46484375,0.11328125,1.0
4229283,,,,,,,,-1.4765625,8.47265625,0.39453125,-0.998046875,-0.513671875,-1.185546875,-2.28125,-0.48828125,0.49609375,1.0
4229284,,,,,,,,-3.83203125,5.453125,3.58203125,-0.869140625,-0.50390625,-1.033203125,-4.5390625,-3.515625,3.59765625,1.0
4229285,,,,,,,,-5.36328125,2.61328125,4.98046875,-0.44140625,-0.44921875,-0.798828125,-5.99609375,-6.34765625,4.94140625,1.0
4229286,,,,,,,,-4.70703125,0.04296875,3.0390625,-0.177734375,-0.42578125,-0.65234375,-5.30859375,-8.9140625,2.984375,1.0
4229287,,,,,,,,7.23046875,-30.83984375,8.6875,0.392578125,-0.3828125,-0.267578125,6.68359375,-39.79296875,8.65625,1.0
4229288,,,,,,,,13.53515625,-54.6640625,21.234375,0.5078125,-0.375,-0.21484375,13.00390625,-63.62109375,21.2578125,1.0
4229289,,,,,,,,5.46484375,-21.68359375,18.0859375,0.576171875,-0.279296875,-0.328125,4.95703125,-30.63671875,18.15625,1.0
4229290,36.013079,129.31899,35.15803105627807,75.34139217428367,3.9000000000000004,51.0,,-3.55859375,-6.54296875,2.53125,1.20703125,-0.158203125,-0.576171875,-4.00390625,-15.50390625,2.71875,1.0
4229291,,,,,,,,-4.6328125,-10.828125,-0.0703125,1.806640625,-0.263671875,-0.19921875,-5.0390625,-19.796875,0.265625,1.0
4229292,,,,,,,,-2.328125,-14.55078125,3.328125,0.52734375,-0.1796875,0.439453125,-2.7421875,-23.51171875,3.7890625,1.0
4229293,,,,,,,,0.01171875,-14.65625,4.203125,-1.0703125,-0.078125,1.306640625,-0.48046875,-23.62890625,4.6328125,1.0
4229294,,,,,,,,1.8828125,-12.6640625,5.26953125,0.298828125,0.037109375,-1.634765625,1.359375,-21.6328125,5.66796875,1.0
4229295,,,,,,,,2.16796875,-9.5,2.85546875,1.5859375,0.03125,-4.2421875,1.93359375,-18.4921875,3.33203125,1.0
4229296,,,,,,,,1.375,-7.5,1.18359375,2.314453125,0.26953125,-3.62890625,1.3203125,-16.50390625,1.76171875,1.0
4229297,,,,,,,,0.99609375,-5.21875,-0.1328125,2.875,0.6796875,-0.75390625,1.12890625,-14.203125,0.6875,1.0
4229298,,,,,,,,2.24609375,-2.015625,-0.3125,2.560546875,0.87890625,0.798828125,2.35546875,-10.984375,0.765625,1.0
4229299,,,,,,,,3.2421875,-0.30859375,-0.11328125,2.2890625,0.978515625,0.58203125,3.2734375,-9.26171875,1.18359375,1.0
4229300,36.01308166666667,129.3189928333333,35.41345145341774,75.63728451562082,3.9000000000000004,48.0,0.0,4.09375,0.93359375,-0.359375,1.20703125,-0.158203125,-0.576171875,-4.00390625,-15.50390625,2.71875,1.0
4229301,,,,,,,,4.0625,4.25,-1.0859375,2.5859375,1.28125,0.18359375,4.0,-4.625,0.765625,1.0
4229302,,,,,,,,4.26953125,6.1640625,-2.01171875,2.455078125,1.298828125,0.451171875,4.15234375,-2.671875,0.07421875,1.0
4229303,,,,,,,,4.38671875,7.09765625,-2.44140625,2.41796875,1.287109375,0.642578125,4.2265625,-1.71484375,-0.23046875,1.0
4229304,,,,,,,,4.3359375,9.3515625,-3.83984375,2.2734375,1.162109375,0.962890625,4.08203125,0.5859375,-1.41796875,1.0
4229305,,,,,,,,4.59765625,10.828125,-4.43359375,2.029296875,1.021484375,1.015625,4.2265625,2.1171875,-1.83984375,1.0
4229306,,,,,,,,4.640625,10.47265625,-5.796875,1.716796875,0.810546875,0.78125,4.1171875,1.84765625,-2.953125,1.0
4229307,,,,,,,,4.9375,7.8203125,-6.90234375,1.54296875,0.5625,0.51171875,4.265625,-1.63671875,-3.984375,1.0
4229308,,,,,,,,4.90234375,6.91796875,-7.0390625,1.533203125,0.4765625,0.470703125,3.921875,-2.6328125,-3.7578125,1.0
4229309,,,,,,,,4.18359375,5.8359375,-6.484375,1.58984375,0.322265625,0.431640625,2.85546875,-2.6328125,-2.796875,1.0
4229310,36.013084000000006,129.3189955,35.65384718979993,75.89619038852034,4.0,46.0,,4.09375,0.93359375,-0.359375,1.466796875,0.310546875,0.484375,0.32421875,-1.59765625,0.11328125,1.0
4229311,,,,,,,,0.140625,7.2265625,-2.05859375,1.06640625,0.36328125,0.51171875,-1.8203125,-0.796875,3.2890625,1.0
4229312,,,,,,,,-2.265625,9.1953125,0.54296875,0.615234375,0.3828125,0.59375,-3.125,0.8515625,4.09375,1.0
4229313,,,,,,,,-1.8515625,9.87109375,-0.66796875,0.33984375,0.357421875,0.640625,-2.7421875,1.54296875,2.90625,1.0
4229314,,,,,,,,0.7109375,12.3125,-4.19921875,-0.349609375,0.337890625,0.615234375,-0.25,3.99609375,-0.61328125,1.0
4229315,,,,,,,,1.59765625,12.55859375,-4.93359375,-1.03515625,0.376953125,0.42578125,0.58984375,4.22265625,-1.41796875,1.0
4229316,,,,,,,,1.78515625,12.015625,-4.2890625,-1.345703125,0.49609375,0.044921875,0.74609375,3.65234375,-0.8828125,1.0
4229317,,,,,,,,1.36328125,11.48046875,-3.54296875,-1.0234375,0.623046875,-0.49609375,0.32421875,3.0703125,-0.23046875,1.0
4229318,,,,,,,,1.22265625,11.07421875,-3.19140625,-0.564453125,0.671875,-0.818359375,0.20703125,2.6484375,0.07421875,1.0
4229319,,,,,,,,0.9921875,9.50390625,-2.484375,0.234375,0.60546875,-1.3203125,0.09375,1.08203125,0.765625,1.0
4229320,36.0130865,129.31899800000002,35.87921803831698,76.17358941445526,3.7,44.0,,1.6328125,5.7890625,-0.81640625,1.466796875,0.310546875,0.484375,0.32421875,-1.59765625,0.11328125,1.0
4229321,,,,,,,,1.73828125,-2.90625,0.06640625,-0.12890625,0.486328125,-0.955078125,1.01171875,-11.328125,3.33203125,1.0
4229322,,,,,,,,-2.734375,-31.32421875,7.87890625,-0.529296875,0.44140625,-0.546875,-3.390625,-39.75,11.10546875,1.0
4229323,,,,,,,,-6.8046875,-43.453125,12.77734375,-0.59375,0.423828125,-0.44921875,-7.453125,-51.90234375,15.97265625,1.0
4229324,,,,,,,,-16.0234375,-34.6640625,14.85546875,-0.662109375,0.380859375,-0.27734375,-16.6484375,-43.12890625,18.00390625,1.0
4229325,,,,,,,,-1.96484375,-3.8046875,1.6328125,-0.75390625,0.345703125,-0.146484375,-2.58984375,-12.29296875,4.7109375,1.0
4229326,,,,,,,,7.3828125,-4.9609375,-2.640625,-0.82421875,0.369140625,-0.03515625,6.7578125,-13.4765625,0.3828125,1.0
4229327,,,,,,,,8.625,-10.7265625,1.01171875,-0.38671875,0.54296875,0.068359375,7.984375,-19.26171875,3.98046875,1.0
4229328,,,,,,,,8.40234375,-14.21484375,2.90625,0.056640625,0.615234375,0.060546875,7.75390625,-22.7421875,5.859375,1.0
4229329,,,,,,,,5.96875,-17.4375,1.6171875,1.21875,0.09765625,0.0546875,5.3046875,-25.96484375,4.6328125,1.0
4229330,36.01308933333333,129.31900216666665,36.25483669182175,76.48797547879641,3.8000000000000003,48.0,,2.515625,-11.40234375,0.5078125,1.466796875,0.310546875,0.484375,1.96875,-19.94921875,3.5234375,1.0
4229331,,,,,,,,-2.2421875,-5.29296875,-0.33203125,-1.76953125,-0.232421875,-1.103515625,-2.28125,-13.93359375,2.48828125,1.0
4229332,,,,,,,,-2.49609375,-3.9609375,-0.015625,-2.19921875,-0.49609375,0.3984375,-2.51171875,-12.6328125,2.71875,1.0
4229333,,,,,,,,-2.65625,-2.01171875,-1.390625,-2.228515625,-0.962890625,1.322265625,-2.7421875,-10.75390625,1.1484375,1.0
4229334,,,,,,,,-3.12109375,-0.71875,-2.45703125,-1.8671875,-1.00390625,1.029296875,-3.23828125,-9.4921875,-0.00390625,1.0
4229335,,,,,,,,-3.8515625,0.921875,-2.3203125,-2.0703125,-1.337890625,-0.3125,-3.96875,-7.921875,-0.078125,1.0
4229336,,,,,,,,-4.85546875,3.66796875,-1.3359375,-2.751953125,-1.515625,-0.076171875,-4.92578125,-5.234375,0.6875,1.0
4229337,,,,,,,,-5.03125,5.57421875,-1.02734375,-2.830078125,-1.630859375,0.2109375,-5.078125,-3.36328125,0.87890625,1.0
4229338,,,,,,,,-5.015625,7.46875,-1.16796875,-2.48828125,-1.6875,0.5625,-5.078125,-1.5234375,0.49609375,1.0
4229339,,,,,,,,-4.9609375,9.36328125,-1.78515625,-2.283203125,-1.65234375,0.595703125,-5.04296875,0.35546875,-0.23046875,1.0
4229340,36.013091833333334,129.31900516666667,36.52528189730312,76.76537470755599,4.1000000000000005,46.0,,-3.7265625,11.2265625,-2.19140625,-1.865234375,-1.375,1.01953125,-3.890625,2.15625,-0.99609375,1.0
4229341,,,,,,,,-3.41015625,10.52734375,-2.06640625,-1.771484375,-1.0859375,1.1640625,-3.65625,1.42578125,-1.03515625,1.0
4229342,,,,,,,,-3.203125,8.7265625,-1.63671875,-1.744140625,-0.923828125,1.103515625,-3.51171875,-0.375,-0.69140625,1.0
4229343,,,,,,,,-2.94140625,5.6875,-1.140625,-1.666015625,-0.54296875,0.6328125,-3.35546875,-3.44140625,-0.421875,1.0
4229344,,,,,,,,-2.39453125,5.04296875,-1.0859375,-1.5546875,-0.41015625,0.46875,-2.85546875,-4.08984375,-0.5,1.0
4229345,,,,,,,,-1.4296875,6.4296875,-0.76171875,-1.296875,-0.34765625,0.537109375,-1.9375,-2.7109375,-0.30859375,1.0
4229346,,,,,,,,-0.40234375,7.6953125,-0.5546875,-1.080078125,-0.35546875,0.62890625,-0.94140625,-1.4453125,-0.15625,1.0
4229347,,,,,,,,1.35546875,9.83203125,-0.7734375,-0.146484375,-0.271484375,0.982421875,0.70703125,0.69921875,-0.4609375,1.0
4229348,,,,,,,,1.9453125,11.1640625,-1.02734375,0.689453125,-0.056640625,1.06640625,1.203125,2.0390625,-0.69140625,1.0
4229349,,,,,,,,1.54296875,12.64453125,-0.8046875,1.1171875,0.025390625,1.029296875,0.74609375,3.53125,-0.421875,1.0
4229350,36.01309416666666,129.3190086666667,36.840801553601196,77.0242809259694,4.1000000000000005,48.0,,0.32421875,13.81640625,-0.5546875,1.7890625,0.08984375,0.822265625,-0.55859375,4.72265625,-0.0390625,1.0
4229351,,,,,,,,-0.45703125,13.5703125,-0.51953125,1.814453125,-0.103515625,0.35546875,-1.40234375,4.49609375,0.15234375,1.0
4229352,,,,,,,,-1.34375,12.015625,-0.24609375,1.298828125,-0.310546875,-0.349609375,-2.28125,2.9609375,0.57421875,1.0
4229353,,,,,,,,-1.3984375,10.703125,-0.11328125,0.626953125,-0.376953125,-0.96484375,-2.28125,1.65625,0.80078125,1.0
4229354,,,,,,,,-1.26953125,7.79296875,0.5546875,-0.169921875,-0.4765625,-1.248046875,-2.046875,-1.25390625,1.4921875,1.0
4229355,,,,,,,,-1.39453125,1.9296875,2.2109375,-0.84375,-0.5703125,-1.28125,-2.05078125,-7.1171875,3.1015625,1.0
4229356,,,,,,,,-0.875,-1.31640625,2.7109375,-0.982421875,-0.568359375,-1.240234375,-1.4765625,-10.3671875,3.5625,1.0
4229357,,,,,,,,3.11328125,-19.62890625,7.078125,-0.810546875,-0.560546875,-0.994140625,2.62109375,-28.6796875,7.8515625,1.0
4229358,,,,,,,,6.59765625,-39.77734375,11.72265625,-0.23828125,-0.544921875,-0.640625,6.18359375,-48.828125,12.44921875,1.0
4229359,,,,,,,,11.41015625,-30.73828125,19.87890625,0.673828125,-0.478515625,-0.21875,11.05078125,-39.79296875,20.64453125,1.0
4229360,36.01309633333334,129.3190125,37.18637086021883,77.26469407664723,3.9000000000000004,52.0,,-0.56640625,-7.63671875,4.85546875,1.7890625,0.08984375,0.822265625,-0.55859375,4.72265625,-0.0390625,1.0
4229361,,,,,,,,-5.9296875,-6.3828125,1.28125,1.39453125,-0.365234375,0.07421875,-6.265625,-15.43359375,2.2578125,1.0
4229362,,,,,,,,-8.02734375,-9.875,3.02734375,1.361328125,-0.408203125,0.177734375,-8.37109375,-18.9140625,4.05859375,1.0
4229363,,,,,,,,-3.36328125,-14.78515625,4.92578125,-0.580078125,-0.115234375,0.421875,-3.73828125,-23.8125,6.05078125,1.0
4229364,,,,,,,,1.44921875,-16.49609375,4.18359375,-0.4453125,0.34765625,-0.283203125,1.05078125,-25.54296875,5.24609375,1.0
4229365,,,,,,,,1.5234375,-10.84765625,3.80078125,-0.087890625,-0.109375,-3.166015625,1.28125,-19.90625,4.86328125,1.0
4229366,,,,,,,,1.56640625,-8.84765625,2.8828125,0.10546875,-0.1484375,-3.94140625,1.47265625,-17.91796875,3.9453125,1.0
4229367,,,,,,,,1.7578125,-6.2890625,1.1953125,1.58203125,-0.07421875,-3.046875,2.0078125,-15.3515625,2.3359375,1.0
4229368,,,,,,,,1.79296875,-2.7109375,0.59375,3.18359375,0.98046875,0.158203125,2.19921875,-11.7109375,2.2578125,1.0
4229369,,,,,,,,2.0,-0.25390625,-0.17578125,2.830078125,1.109375,0.16015625,2.390625,-9.22265625,1.64453125,1.0
4229370,36.01309783333333,129.31901416666668,37.33661811455861,77.43113357904586,3.5,51.0,,2.60546875,1.32421875,-1.11328125,1.7890625,0.08984375,0.822265625,2.96484375,-7.609375,0.91796875,1.0
4229371,,,,,,,,3.734375,3.23828125,-2.55078125,2.19921875,1.39453125,-0.212890625,4.078125,-5.65625,-0.30859375,1.0
4229372,,,,,,,,3.85546875,3.67578125,-2.84375,2.337890625,1.482421875,-0.078125,4.19140625,-5.1953125,-0.5,1.0
4229373,,,,,,,,4.0625,4.85546875,-3.56640625,2.3828125,1.580078125,0.4453125,4.34375,-3.97265625,-0.99609375,1.0
4229374,,,,,,,,4.3515625,6.484375,-4.546875,2.220703125,1.58203125,0.736328125,4.54296875,-2.2890625,-1.765625,1.0
4229375,,,,,,,,4.3125,7.1875,-5.23046875,2.046875,1.486328125,0.796875,4.3828125,-1.5234375,-2.26171875,1.0
4229376,,,,,,,,4.3984375,6.703125,-5.33203125,2.01953125,1.419921875,0.802734375,4.42578125,-1.984375,-2.26171875,1.0
4229377,,,,,,,,4.13671875,5.921875,-6.46484375,2.15625,1.015625,1.017578125,3.921875,-2.6328125,-3.02734375,1.0
4229378,,,,,,,,1.609375,5.23828125,-6.33203125,2.056640625,0.7734375,1.099609375,1.28125,-3.2421875,-2.72265625,1.0
4229379,,,,,,,,0.859375,5.390625,-6.00390625,2.07421875,0.671875,1.09765625,0.4765625,-3.0546875,-2.30078125,1.0
4229380,36.013099499999996,129.31901616666667,37.51691487594425,77.6160664194512,3.6,48.0,,-0.6328125,6.26171875,-4.9296875,2.083984375,0.41796875,0.970703125,-1.171875,-2.0546875,-0.9609375,1.0
4229381,,,,,,,,-0.73046875,7.09375,-3.62109375,1.4765625,0.408203125,0.72265625,-1.40234375,-1.1015625,0.57421875,1.0
4229382,,,,,,,,-0.3125,8.36328125,-3.515625,1.080078125,0.3984375,0.609375,-1.01953125,0.19921875,0.7265625,1.0
4229383,,,,,,,,0.46875,9.7109375,-3.640625,0.060546875,0.365234375,0.287109375,-0.2890625,1.58203125,0.6484375,1.0
4229384,,,,,,,,1.7421875,11.67578125,-4.08984375,-0.462890625,0.3515625,0.0625,0.9765625,3.53125,0.19140625,1.0
4229385,,,,,,,,2.8203125,14.09765625,-3.8359375,-1.255859375,0.36328125,-0.736328125,2.0859375,5.8671875,0.265625,1.0
4229386,,,,,,,,2.44921875,14.59765625,-3.25,-0.59375,0.375,-1.1015625,1.77734375,6.328125,0.765625,1.0
4229387,,,,,,,,1.9140625,13.84375,-3.390625,-0.171875,0.39453125,-1.267578125,1.28125,5.56640625,0.609375,1.0
4229388,,,,,,,,1.734375,12.23046875,-3.51171875,0.423828125,0.44140625,-1.53515625,1.203125,3.953125,0.49609375,1.0
4229389,,,,,,,,1.671875,11.4453125,-3.52734375,0.568359375,0.466796875,-1.642578125,1.203125,3.19140625,0.49609375,1.0
4229390,36.013102,129.31901983333333,37.8474591863415,77.89346594742939,3.8000000000000003,48.0,,4.2578125,4.47265625,-0.42578125,0.013671875,0.29296875,-1.66015625,4.0390625,-3.74609375,3.67578125,1.0
4229391,,,,,,,,3.98828125,-5.70703125,2.859375,-0.740234375,0.203125,-1.412109375,3.88671875,-13.9296875,6.9296875,1.0
4229392,,,,,,,,1.85546875,-23.22265625,8.9921875,-0.98828125,0.22265625,-1.0625,1.85546875,-31.48046875,12.984375,1.0
4229393,,,,,,,,-17.66796875,-47.8984375,19.94921875,-0.935546875,0.234375,-0.5859375,-17.60546875,-56.19140625,23.86328125,1.0
4229394,,,,,,,,-6.11328125,-15.796875,8.265625,-0.947265625,0.2265625,-0.103515625,-6.03515625,-24.12890625,12.1015625,1.0
4229395,,,,,,,,1.70703125,-1.27734375,-0.03515625,-1.255859375,0.205078125,0.310546875,1.77734375,-9.64453125,3.71484375,1.0
4229396,,,,,,,,6.40625,-3.97265625,-1.58984375,-1.578125,0.205078125,0.47265625,6.453125,-12.36328125,2.10546875,1.0
4229397,,,,,,,,8.7265625,-11.14453125,0.16015625,-1.556640625,0.482421875,0.857421875,8.7109375,-19.6015625,3.71484375,1.0
4229398,,,,,,,,6.62109375,-18.87109375,4.3984375,-0.61328125,0.234375,0.439453125,6.52734375,-27.37890625,7.8515625,1.0
4229399,,,,,,,,5.95703125,-16.46875,2.88671875,0.849609375,-1.03125,-0.51953125,5.87890625,-24.97265625,6.35546875,1.0
4229400,36.013104500000004,129.31902266666665,38.10287950060011,78.17086515986897,3.4000000000000004,48.0,0.0,1.80859375,-8.0,-0.0625,-0.2734375,-0.68359375,-1.685546875,1.85546875,-16.5,3.4453125,1.0
4229401,,,,,,,,0.94140625,-5.92578125,-1.1953125,-0.498046875,-0.654296875,-2.751953125,1.08984375,-14.43359375,2.296875,1.0
4229402,,,,,,,,-1.44140625,-3.74609375,-2.83203125,-2.521484375,-0.111328125,-0.5546875,-0.98046875,-12.3203125,0.49609375,1.0
4229403,,,,,,,,-1.77734375,-3.05078125,-2.00390625,-3.150390625,-0.369140625,1.05859375,-1.32421875,-11.671875,1.18359375,1.0
4229404,,,,,,,,-3.015625,-1.34375,-1.69921875,-2.658203125,-1.064453125,0.958984375,-2.78125,-10.1796875,0.95703125,1.0
4229405,,,,,,,,-3.45703125,-0.5859375,-1.8671875,-2.62890625,-1.306640625,0.482421875,-3.23828125,-9.45703125,0.6875,1.0
4229406,,,,,,,,-4.68359375,2.47265625,-2.4765625,-2.6484375,-1.484375,0.244140625,-4.46484375,-6.421875,-0.0390625,1.0
4229407,,,,,,,,-4.98046875,6.7109375,-3.3671875,-2.599609375,-1.7734375,0.947265625,-4.765625,-2.2890625,-1.3046875,1.0
4229408,,,,,,,,-4.94921875,7.69921875,-3.265625,-2.48828125,-1.828125,1.296875,-4.76953125,-1.33203125,-1.3046875,1.0
4229409,,,,,,,,-4.41796875,10.4140625,-2.5703125,-2.1328125,-1.712890625,1.447265625,-4.3828125,1.3125,-0.921875,1.0
4229410,36.013106666666665,129.31902566666668,38.37332475991268,78.41127803156861,3.9000000000000004,46.0,,-4.140625,10.52734375,-1.953125,-2.1171875,-1.443359375,1.09375,-4.1953125,1.38671875,-0.5,1.0
4229411,,,,,,,,-4.109375,9.21875,-1.87109375,-2.123046875,-1.041015625,0.818359375,-4.234375,0.046875,-0.61328125,1.0
4229412,,,,,,,,-4.55859375,5.6953125,-2.54296875,-2.091796875,-0.54296875,0.53515625,-4.76953125,-3.515625,-1.57421875,1.0
4229413,,,,,,,,-4.17578125,5.40625,-2.23828125,-1.990234375,-0.330078125,0.529296875,-4.42578125,-3.8203125,-1.45703125,1.0
4229414,,,,,,,,-2.96484375,6.9453125,-0.98828125,-1.72265625,-0.181640625,0.595703125,-3.27734375,-2.2890625,-0.38671875,1.0
4229415,,,,,,,,-1.66015625,8.25390625,-0.5859375,-0.759765625,-0.064453125,0.6328125,-2.05078125,-0.98828125,-0.15625,1.0
4229416,,,,,,,,0.0546875,10.0859375,-0.27734375,-0.017578125,0.044921875,0.634765625,-0.40625,0.85546875,0.11328125,1.0
4229417,,,,,,,,1.26171875,13.18359375,-0.69140625,0.583984375,0.103515625,0.56640625,0.74609375,3.95703125,-0.26953125,1.0
4229418,,,,,,,,1.13671875,13.86328125,-0.5625,0.775390625,0.115234375,0.484375,0.58984375,4.640625,-0.1171875,1.0
4229419,,,,,,,,0.3671875,14.5546875,-0.32421875,0.8671875,0.025390625,0.263671875,-0.2109375,5.3359375,0.19140625,1.0
4229420,36.013108833333334,129.31902883333333,38.65879479267605,78.65169097743845,4.0,48.0,,-0.9296875,13.6953125,-0.7109375,-2.1171875,-1.443359375,1.09375,-1.515625,4.4921875,-0.1171875,1.0
4229421,,,,,,,,-1.88671875,12.421875,-0.8125,0.578125,-0.294921875,-0.65234375,-2.43359375,3.23046875,-0.15625,1.0
4229422,,,,,,,,-2.42578125,10.15625,-0.26171875,0.439453125,-0.369140625,-1.15625,-2.8515625,0.96875,0.45703125,1.0
4229423,,,,,,,,-2.8046875,5.6171875,1.31640625,0.06640625,-0.4140625,-1.234375,-3.125,-3.5546875,2.06640625,1.0
4229424,,,,,,,,-4.25390625,1.44140625,5.0859375,-0.419921875,-0.396484375,-1.00390625,-5.23046875,-11.09765625,7.23828125,1.0
4229425,,,,,,,,-3.8515625,-8.44921875,7.69140625,-0.162109375,-0.41015625,-0.70703125,-0.7109375,-22.36328125,9.11328125,1.0
4229426,,,,,,,,-0.625,-13.19921875,8.43359375,0.068359375,-0.423828125,-0.529296875,3.80859375,-29.3671875,8.73046875,1.0
4229427,,,,,,,,8.94140625,-29.140625,8.08203125,0.548828125,-0.40625,-0.203125,14.84375,-47.98828125,12.29296875,1.0
4229428,,,,,,,,14.8515625,-50.1484375,24.421875,0.9453125,-0.400390625,-0.01171875,7.9453125,-45.5,23.90234375,1.0
4229429,,,,,,,,2.98046875,-13.61328125,8.34765625,1.166015625,-0.34765625,0.115234375,2.96484375,-22.74609375,9.23046875,1.0
4229430,36.01311166666667,129.3190335,39.07948762174183,78.96607736289472,4.0,52.0,,-4.703125,-6.80859375,3.96875,1.572265625,-0.275390625,0.212890625,-4.734375,-15.921875,4.9765625,1.0
4229431,,,,,,,,-6.15625,-7.9296875,3.8046875,1.861328125,-0.283203125,0.732421875,-6.2265625,-17.04296875,4.9765625,1.0
4229432,,,,,,,,-6.125,-8.77734375,3.68359375,1.451171875,-0.080078125,1.0703125,-6.2265625,-17.87890625,4.94140625,1.0
4229433,,,,,,,,-3.05859375,-14.9921875,3.8359375,-0.75,0.66796875,1.255859375,-3.27734375,-24.0859375,5.1328125,1.0
4229434,,,,,,,,0.91015625,-11.875,3.765625,-0.3359375,0.36328125,-0.634765625,0.62890625,-20.98828125,4.9765625,1.0
4229435,,,,,,,,1.6484375,-8.65625,2.640625,1.14453125,0.1015625,-3.892578125,1.5859375,-17.76953125,3.90625,1.0
4229436,,,,,,,,1.9296875,-7.62109375,1.7265625,1.5234375,-0.125,-4.150390625,2.046875,-16.7265625,3.0625,1.0
4229437,,,,,,,,1.765625,-6.50390625,0.08203125,2.720703125,0.3359375,-1.8984375,2.1640625,-15.578125,1.60546875,1.0
4229438,,,,,,,,2.35546875,-2.12890625,0.6484375,3.05078125,0.90234375,0.9296875,2.73828125,-11.13671875,2.6015625,1.0
4229439,,,,,,,,2.71484375,-0.8046875,0.56640625,2.693359375,1.189453125,0.68359375,3.00390625,-9.7578125,2.79296875,1.0
4229440,36.0131135,129.3190365,39.34993299588169,79.16950384983566,3.9000000000000004,53.0,,3.66796875,3.015625,-0.73828125,1.572265625,-0.275390625,0.212890625,3.88671875,-5.89453125,1.72265625,1.0
4229441,,,,,,,,3.78515625,6.1875,-2.828125,2.32421875,1.525390625,0.5390625,3.921875,-2.671875,-0.15625,1.0
4229442,,,,,,,,3.953125,8.0703125,-4.515625,2.298828125,1.599609375,0.763671875,4.04296875,-0.7578125,-1.7265625,1.0
4229443,,,,,,,,4.23046875,9.28125,-4.92578125,2.12109375,1.642578125,1.083984375,4.19140625,0.5078125,-1.95703125,1.0
4229444,,,,,,,,4.30078125,9.86328125,-5.1015625,1.96484375,1.58984375,1.091796875,4.1875,1.12109375,-2.03125,1.0
4229445,,,,,,,,3.73046875,10.6484375,-5.58203125,1.83203125,1.25390625,0.74609375,3.42578125,2.0,-2.26171875,1.0
4229446,,,,,,,,3.86328125,9.97265625,-6.4921875,2.103515625,0.73046875,0.615234375,3.3828125,1.46484375,-2.8359375,1.0
4229447,,,,,,,,4.66796875,8.515625,-7.12109375,2.158203125,0.658203125,0.75,4.1484375,0.046875,-3.37109375,1.0
4229448,,,,,,,,5.30078125,6.59375,-7.76171875,2.177734375,0.546875,1.1640625,4.69140625,-1.7890625,-3.83203125,1.0
4229449,,,,,,,,5.28515625,5.55859375,-7.83984375,2.10546875,0.45703125,1.3359375,4.609375,-2.78515625,-3.83203125,1.0
4229450,36.013115166666665,129.31903866666667,39.5452544706106,79.35443679965005,3.9000000000000004,50.0,,3.71875,3.80078125,-6.703125,1.71484375,0.359375,1.453125,3.88671875,-5.89453125,1.72265625,1.0
4229451,,,,,,,,1.171875,5.17578125,-5.05859375,1.3828125,0.41015625,1.330078125,0.171875,-2.9375,-0.69140625,1.0
4229452,,,,,,,,0.34375,5.8359375,-4.6171875,1.203125,0.431640625,1.240234375,-0.7109375,-2.25390625,-0.1953125,1.0
4229453,,,,,,,,-1.23046875,8.0703125,-3.56640625,0.701171875,0.458984375,1.025390625,-2.390625,0.046875,0.91796875,1.0
4229454,,,,,,,,-1.94921875,11.1796875,-2.42578125,-0.54296875,0.373046875,0.662109375,-3.234375,3.1875,2.06640625,1.0
4229455,,,,,,,,-0.5390625,11.78125,-3.39453125,-1.73046875,0.3203125,0.1953125,-1.8984375,3.73046875,0.95703125,1.0
4229456,,,,,,,,1.546875,11.58984375,-4.3359375,-1.935546875,0.33203125,0.00390625,0.171875,3.4921875,-0.078125,1.0
4229457,,,,,,,,3.26953125,11.1328125,-4.36328125,-2.029296875,0.3984375,-0.416015625,1.89453125,2.96484375,-0.26953125,1.0
4229458,,,,,,,,4.07421875,10.328125,-4.078125,-1.84375,0.453125,-0.853515625,2.734375,2.078125,-0.15625,1.0
4229459,,,,,,,,4.34765625,9.09375,-3.9765625,-1.646484375,0.451171875,-1.064453125,3.04296875,0.8125,-0.1171875,1.0
4229460,36.01311783333333,129.31904266666666,39.90584815100635,79.65032974676402,4.0,49.0,,5.81640625,4.34765625,-0.79296875,-0.537109375,0.419921875,-1.46484375,4.6484375,-4.01171875,2.91015625,1.0
4229461,,,,,,,,4.78125,-1.9296875,-0.73828125,0.30078125,0.390625,-1.41015625,3.734375,-10.30078125,2.94921875,1.0
4229462,,,,,,,,4.87890625,-17.01953125,-1.359375,0.46875,0.369140625,-1.29296875,3.88671875,-25.3828125,2.3359375,1.0
4229463,,,,,,,,-2.5078125,-44.3515625,6.9296875,-0.201171875,0.27734375,-0.755859375,-3.390625,-52.70703125,10.6484375,1.0
4229464,,,,,,,,-30.015625,-54.9765625,22.328125,-0.755859375,0.25390625,-0.419921875,-30.859375,-63.3515625,26.0078125,1.0
4229465,,,,,,,,-1.4140625,-6.77734375,-0.515625,-1.287109375,0.23828125,-0.1875,-2.2421875,-15.1953125,3.0625,1.0
4229466,,,,,,,,4.8203125,-5.375,-5.4453125,-2.0390625,0.228515625,-0.064453125,4.0,-13.86328125,-1.9921875,1.0
4229467,,,,,,,,18.63671875,-10.97265625,-7.296875,-1.90625,0.625,0.37109375,17.79296875,-19.52734375,-4.0234375,1.0
4229468,,,,,,,,9.92578125,-14.6015625,1.1953125,-1.154296875,0.2578125,0.82421875,9.01953125,-23.20703125,4.328125,1.0
4229469,,,,,,,,7.12890625,-14.359375,3.828125,-0.42578125,-0.7109375,1.13671875,6.18359375,-22.9765625,6.9296875,1.0
4229470,36.01312083333333,129.31904633333335,40.23639205737024,79.98320898704232,3.9000000000000004,49.0,,3.0078125,-8.6640625,2.91015625,0.291015625,-0.392578125,-3.412109375,2.1640625,-17.30859375,6.01171875,1.0
4229471,,,,,,,,2.4453125,-5.70703125,-3.38671875,0.484375,-0.255859375,-4.142578125,1.96875,-14.3515625,-0.23046875,1.0
4229472,,,,,,,,1.296875,-5.03125,-4.4140625,-0.771484375,-0.177734375,-2.740234375,0.9765625,-13.70703125,-1.265625,1.0
4229473,,,,,,,,-3.27734375,0.48046875,-2.16015625,-4.279296875,-1.033203125,1.904296875,-3.66015625,-8.37890625,0.41796875,1.0
4229474,,,,,,,,-5.17578125,2.07421875,-0.37890625,-3.73828125,-1.150390625,1.19921875,-5.61328125,-6.84765625,2.02734375,1.0
4229475,,,,,,,,-6.2578125,5.00390625,-0.02734375,-1.83984375,-1.5078125,-0.84765625,-6.6484375,-4.01171875,2.02734375,1.0
4229476,,,,,,,,-6.3203125,7.01953125,-1.2109375,-1.853515625,-1.69921875,-0.736328125,-6.6484375,-2.01953125,0.765625,1.0
4229477,,,,,,,,-5.921875,9.05859375,-2.44140625,-2.2265625,-2.02734375,0.154296875,-6.19140625,-0.02734375,-0.65234375,1.0
4229478,,,,,,,,-5.34765625,10.26171875,-2.45703125,-2.21484375,-2.03125,0.611328125,-5.609375,1.16015625,-0.76953125,1.0
4229479,,,,,,,,-4.57421875,11.71484375,-1.9375,-1.91015625,-1.822265625,1.15625,-4.8828125,2.57421875,-0.421875,1.0
4229480,36.0131225,129.31904833333334,40.41668870708069,80.16814188837822,3.9000000000000004,46.0,,-4.265625,11.578125,-1.73828125,0.291015625,-0.392578125,-3.412109375,2.1640625,-17.30859375,6.01171875,1.0
4229481,,,,,,,,-3.7734375,11.06640625,-1.48828125,-1.931640625,-1.287109375,0.734375,-4.19921875,1.88671875,-0.23046875,1.0
4229482,,,,,,,,-3.4296875,9.05078125,-1.30859375,-2.0,-0.904296875,0.3203125,-3.890625,-0.14453125,-0.23046875,1.0
4229483,,,,,,,,-3.4609375,8.21484375,-1.37109375,-2.0078125,-0.744140625,0.220703125,-3.9296875,-0.98828125,-0.38671875,1.0
4229484,,,,,,,,-3.484375,6.4765625,-1.265625,-2.052734375,-0.482421875,0.251953125,-3.97265625,-2.75,-0.4609375,1.0
4229485,,,,,,,,-2.140625,6.41796875,-0.04296875,-1.337890625,-0.3359375,0.650390625,-2.703125,-2.82421875,0.41796875,1.0
4229486,,,,,,,,-0.921875,8.5234375,0.359375,-0.748046875,-0.3046875,0.75390625,-1.5546875,-0.71875,0.7265625,1.0
4229487,,,,,,,,0.22265625,10.66015625,-0.28515625,-0.056640625,-0.234375,0.814453125,-0.48046875,1.421875,0.03515625,1.0
4229488,,,,,,,,0.8359375,11.91796875,-0.828125,0.28125,-0.1953125,0.81640625,0.09375,2.6875,-0.5,1.0
4229489,,,,,,,,1.40234375,13.17578125,-1.41796875,0.8515625,-0.107421875,0.748046875,0.58984375,3.95703125,-1.03515625,1.0
4229490,36.01312466666666,129.31905133333333,40.68713383664364,80.40855483132246,3.9000000000000004,47.0,,1.47265625,14.078125,-1.89453125,0.291015625,-0.392578125,-3.412109375,2.1640625,-17.30859375,6.01171875,1.0
4229491,,,,,,,,0.7109375,13.28125,-2.4296875,1.453125,-0.34375,0.025390625,-0.2109375,4.109375,-1.765625,1.0
4229492,,,,,,,,0.33984375,11.5390625,-2.4765625,1.1796875,-0.384765625,-0.58203125,-0.55859375,2.3828125,-1.6875,1.0
4229493,,,,,,,,-0.57421875,9.15625,-1.375,0.806640625,-0.31640625,-1.037109375,-1.3984375,0.0078125,-0.5,1.0
4229494,,,,,,,,-1.140625,7.1953125,-0.74609375,0.453125,-0.3125,-1.203125,-1.859375,-1.94921875,0.19140625,1.0
4229495,,,,,,,,-1.94140625,3.81640625,1.02734375,0.1875,-0.32421875,-0.984375,-3.77734375,-7.04296875,4.40234375,1.0
4229496,,,,,,,,-3.21484375,2.0859375,3.43359375,0.2109375,-0.271484375,-0.810546875,-6.5703125,-14.85546875,7.8515625,1.0
4229497,,,,,,,,-5.4296875,-10.82421875,7.1640625,0.419921875,-0.169921875,-0.40625,-4.2734375,-25.38671875,8.9609375,1.0
4229498,,,,,,,,0.2421875,-22.9453125,7.8984375,0.62890625,-0.150390625,-0.072265625,7.87109375,-41.171875,10.609375,1.0
4229499,,,,,,,,23.4453125,-54.171875,21.16796875,0.828125,-0.12109375,0.0234375,16.44921875,-61.6640625,23.51953125,1.0
4229500,36.013127000000004,129.319055,41.017678027990236,80.66746127162332,3.7,51.0,0.0,1.47265625,14.078125,-1.89453125,0.86328125,-0.037109375,-0.126953125,2.1640625,-17.30859375,6.01171875,1.0
4229501,,,,,,,,-5.28515625,-6.34375,1.78125,0.896484375,0.0234375,-0.404296875,-5.69140625,-15.43359375,3.0625,1.0
4229502,,,,,,,,-7.1640625,-10.1875,2.26953125,1.9140625,-0.134765625,-0.31640625,-7.53125,-19.26171875,3.67578125,1.0
4229503,,,,,,,,-3.28515625,-13.23828125,1.953125,1.53125,0.3125,1.224609375,-3.69921875,-22.28125,3.5234375,1.0
4229504,,,,,,,,-0.1484375,-11.73046875,2.1484375,-0.1328125,1.041015625,1.376953125,-0.7109375,-20.75390625,3.7890625,1.0
4229505,,,,,,,,0.984375,-8.42578125,1.0390625,0.341796875,0.529296875,-1.87890625,0.3984375,-17.45703125,2.6796875,1.0
4229506,,,,,,,,2.6015625,-6.390625,-0.73828125,0.40625,0.26171875,-3.826171875,2.1640625,-15.4296875,0.91796875,1.0
4229507,,,,,,,,3.53515625,-5.921875,-1.8671875,1.869140625,0.142578125,-4.3671875,3.46484375,-14.97265625,-0.1171875,1.0
4229508,,,,,,,,3.58203125,-4.7421875,-1.140625,3.91796875,1.0078125,0.08203125,3.80859375,-13.70703125,1.03125,1.0
4229509,,,,,,,,3.40234375,-2.8671875,-0.37890625,2.970703125,1.1796875,0.85546875,3.42578125,-10.68359375,2.296875,1.0
4229510,36.01312933333334,129.3190585,41.333197410293046,80.92636765328601,3.8000000000000003,51.0,,3.47265625,0.640625,-0.9375,2.23046875,1.294921875,0.083984375,3.54296875,-8.1875,1.796875,1.0
4229511,,,,,,,,3.5546875,6.0546875,-4.08984375,2.482421875,1.47265625,0.060546875,3.578125,-2.7109375,-1.15234375,1.0
4229512,,,,,,,,3.7421875,6.51953125,-4.921875,2.78515625,1.671875,0.794921875,3.6953125,-2.17578125,-1.765625,1.0
4229513,,,,,,,,4.16796875,8.9375,-6.8046875,1.75390625,1.517578125,1.23828125,3.8046875,0.390625,-3.2578125,1.0
4229514,,,,,,,,4.5234375,8.25,-6.421875,1.66796875,1.390625,1.04296875,4.08203125,-0.2578125,-2.796875,1.0
4229515,,,,,,,,4.82421875,6.96875,-6.2578125,1.8125,1.115234375,0.61328125,4.265625,-1.484375,-2.4921875,1.0
4229516,,,,,,,,4.82421875,5.44140625,-6.51953125,2.046875,0.8359375,0.48046875,4.19140625,-2.94140625,-2.60546875,1.0
4229517,,,,,,,,4.671875,4.66796875,-6.59765625,2.16015625,0.720703125,0.5859375,4.0,-3.66796875,-2.60546875,1.0
4229518,,,,,,,,3.33984375,3.33984375,-6.03515625,2.251953125,0.521484375,1.001953125,2.58203125,-4.89453125,-1.83984375,1.0
4229519,,,,,,,,2.890625,3.64453125,-5.76171875,2.26171875,0.470703125,1.25,2.0859375,-4.55078125,-1.49609375,1.0
4229520,36.013131666666666,129.319062,41.648716773543555,81.18527404652211,4.3,50.0,,1.69140625,4.83984375,-4.66796875,2.23046875,1.294921875,0.083984375,0.74609375,-3.2421875,-0.23046875,1.0
4229521,,,,,,,,0.14453125,7.15234375,-3.15625,1.40625,0.38671875,1.716796875,-0.94140625,-0.83203125,1.41796875,1.0
4229522,,,,,,,,-0.12890625,8.0859375,-3.03515625,0.572265625,0.30859375,1.486328125,-1.36328125,0.1640625,1.6015625,1.0
4229523,,,,,,,,-0.24609375,12.10546875,-3.9296875,-1.17578125,0.228515625,0.611328125,-1.66796875,4.18359375,0.6484375,1.0
4229524,,,,,,,,0.89453125,13.9296875,-4.65625,-1.642578125,0.21875,0.0234375,-0.55859375,5.9453125,-0.1953125,1.0
4229525,,,,,,,,2.87109375,13.6953125,-4.7421875,-1.568359375,0.25390625,-0.61328125,1.43359375,5.640625,-0.421875,1.0
4229526,,,,,,,,2.96484375,13.12109375,-4.7578125,-1.3828125,0.287109375,-0.9375,1.55078125,5.02734375,-0.5,1.0
4229527,,,,,,,,3.13671875,11.4921875,-4.734375,-0.83984375,0.34375,-1.560546875,1.81640625,3.34375,-0.578125,1.0
4229528,,,,,,,,3.3515625,8.80859375,-4.37109375,-0.294921875,0.396484375,-1.943359375,2.1640625,0.62109375,-0.26953125,1.0
4229529,,,,,,,,3.5,7.859375,-3.98046875,-0.044921875,0.408203125,-1.99609375,2.39453125,-0.3359375,0.11328125,1.0
4229530,36.0131345,129.31906616666666,42.02433500877312,81.49966036022084,4.5,50.0,,5.0859375,4.57421875,-1.56640625,2.23046875,1.294921875,0.083984375,4.12109375,-3.62890625,2.52734375,1.0
4229531,,,,,,,,4.9609375,-0.3671875,0.453125,0.072265625,0.328125,-1.4296875,4.1171875,-8.5703125,4.5546875,1.0
4229532,,,,,,,,3.80078125,-12.08203125,1.0078125,-0.3359375,0.279296875,-0.865234375,3.04296875,-20.2890625,5.09375,1.0
4229533,,,,,,,,-18.08203125,-54.43359375,17.87109375,-0.494140625,0.298828125,-0.349609375,-18.79296875,-62.66015625,21.91015625,1.0
4229534,,,,,,,,-22.86328125,-42.05859375,17.296875,-0.76171875,0.23828125,0.1484375,-23.58203125,-50.3203125,21.2578125,1.0
4229535,,,,,,,,-2.95703125,-7.0859375,0.796875,-1.185546875,0.208984375,0.283203125,-3.69921875,-15.390625,4.671875,1.0
4229536,,,,,,,,9.43359375,-5.60546875,-7.0078125,-1.48828125,0.1796875,0.3125,8.67578125,-13.9296875,-3.1796875,1.0
4229537,,,,,,,,16.8125,-11.03515625,-3.97265625,-1.294921875,0.490234375,0.521484375,15.9921875,-19.44921875,-0.34765625,1.0
4229538,,,,,,,,11.44140625,-14.4921875,1.8359375,0.162109375,-0.244140625,1.013671875,10.55078125,-22.9375,5.3984375,1.0
4229539,,,,,,,,4.671875,-14.40625,3.046875,0.716796875,-1.03515625,0.65234375,3.734375,-22.8203125,6.6640625,1.0
4229540,36.013137,129.31906983333334,42.35487903257304,81.77706005814606,4.1000000000000005,51.0,,3.43359375,-10.1328125,-0.171875,-0.546875,-0.080078125,-2.6015625,4.12109375,-3.62890625,2.52734375,1.0
4229541,,,,,,,,1.16796875,-6.21484375,-4.32421875,-0.0390625,-0.013671875,-4.224609375,0.62890625,-14.69921875,-0.73046875,1.0
4229542,,,,,,,,-0.24609375,-6.0078125,-4.109375,-0.974609375,-0.0625,-3.27734375,-0.59765625,-14.51171875,-0.5390625,1.0
4229543,,,,,,,,-2.7734375,-2.7734375,-1.76953125,-3.74609375,-0.279296875,0.669921875,-3.0078125,-11.3671875,1.60546875,1.0
4229544,,,,,,,,-3.65625,-1.4765625,-0.9765625,-4.2578125,-0.537109375,1.677734375,-3.9296875,-10.140625,2.21875,1.0
4229545,,,,,,,,-5.26171875,-0.65625,-1.375,-3.619140625,-0.82421875,1.16796875,-5.65234375,-9.45703125,1.453125,1.0
4229546,,,,,,,,-6.43359375,5.19140625,-4.125,-2.21484375,-1.515625,-0.4375,-6.76171875,-3.74609375,-1.7265625,1.0
4229547,,,,,,,,-6.07421875,7.76171875,-3.984375,-2.55078125,-1.658203125,-0.029296875,-6.375,-1.21484375,-1.6875,1.0
4229548,,,,,,,,-4.7421875,10.6171875,-2.4921875,-2.80859375,-1.701171875,0.71875,-5.0390625,1.578125,-0.4609375,1.0
4229549,,,,,,,,-4.57421875,11.5625,-2.078125,-2.630859375,-1.68359375,0.78125,-4.8828125,2.5,-0.15625,1.0
4229550,36.0131395,129.31907216666664,42.56522472616875,82.05445918532199,4.1000000000000005,46.0,,-3.1640625,11.79296875,-1.203125,-0.546875,-0.080078125,-2.6015625,4.12109375,-3.62890625,2.52734375,1.0
4229551,,,,,,,,-2.58984375,11.171875,-1.46875,-2.56640625,-1.03125,0.181640625,-2.9296875,2.0,-0.1171875,1.0
4229552,,,,,,,,-2.34375,8.875,-2.15234375,-2.470703125,-0.751953125,0.515625,-2.703125,-0.3359375,-1.03515625,1.0
4229553,,,,,,,,-2.3984375,7.88671875,-2.20703125,-2.353515625,-0.630859375,0.724609375,-2.78515625,-1.33203125,-1.19140625,1.0
4229554,,,,,,,,-1.6328125,4.46484375,-0.57421875,-1.193359375,-0.390625,0.953125,-2.2421875,-4.7734375,-0.00390625,1.0
4229555,,,,,,,,-0.17578125,6.53125,-0.06640625,-0.66796875,-0.2890625,0.71875,-0.86328125,-2.7109375,0.41796875,1.0
4229556,,,,,,,,0.8359375,9.86328125,-0.25390625,-0.19921875,-0.203125,0.6171875,0.09375,0.62109375,0.19140625,1.0
4229557,,,,,,,,0.84375,13.2578125,-0.70703125,0.171875,-0.0859375,0.619140625,0.015625,4.03125,-0.26953125,1.0
4229558,,,,,,,,0.83203125,15.05078125,-1.05859375,0.251953125,-0.0703125,0.576171875,-0.01953125,5.828125,-0.61328125,1.0
4229559,,,,,,,,0.1484375,15.38671875,-1.58984375,0.365234375,-0.177734375,0.30078125,-0.75,6.17578125,-1.11328125,1.0
4229560,36.01314133333334,129.31907483333333,42.8056203472048,82.25788563584535,3.9000000000000004,46.0,,-0.76171875,14.0390625,-1.8046875,-0.546875,-0.080078125,-2.6015625,-1.66796875,4.8359375,-1.3046875,1.0
4229561,,,,,,,,-1.78125,11.00390625,-0.9765625,0.099609375,-0.580078125,-0.916015625,-2.62890625,1.80859375,-0.4609375,1.0
4229562,,,,,,,,-2.7265625,7.83203125,0.546875,0.00390625,-0.65234375,-1.3828125,-3.46875,-1.37109375,1.0703125,1.0
4229563,,,,,,,,-3.11328125,6.67578125,1.23828125,-0.056640625,-0.65234375,-1.517578125,-3.7734375,-2.51953125,1.76171875,1.0
4229564,,,,,,,,-5.734375,1.12109375,7.19921875,-0.296875,-0.619140625,-1.58203125,-6.265625,-8.0703125,7.69921875,1.0
4229565,,,,,,,,-6.83203125,-5.7734375,6.546875,-0.546875,-0.572265625,-1.330078125,-7.22265625,-14.97265625,7.0078125,1.0
4229566,,,,,,,,1.921875,-25.46484375,8.21875,-0.302734375,-0.431640625,-0.43359375,1.6640625,-34.66015625,8.6171875,1.0
4229567,,,,,,,,17.88671875,-50.8671875,29.11328125,0.0390625,-0.353515625,0.06640625,17.63671875,-60.0546875,29.49609375,1.0
4229568,,,,,,,,8.7421875,-29.76171875,22.5234375,0.203125,-0.328125,0.189453125,8.484375,-38.9453125,22.90625,1.0
4229569,,,,,,,,0.09765625,-10.609375,7.55078125,0.458984375,-0.26953125,0.1953125,-0.17578125,-19.796875,7.96484375,1.0
4229570,36.01314383333333,129.31907833333335,43.1211395283339,82.53528528814269,3.6,48.0,,-7.29296875,-5.16796875,3.44140625,1.51171875,-0.234375,-0.09375,-1.66796875,4.8359375,-1.3046875,1.0
4229571,,,,,,,,-8.95703125,-7.97265625,2.16796875,1.630859375,-0.3359375,0.568359375,-9.25390625,-17.15234375,2.87109375,1.0
4229572,,,,,,,,-6.85546875,-10.203125,2.18359375,1.00390625,-0.099609375,0.994140625,-7.18359375,-19.37890625,2.94921875,1.0
4229573,,,,,,,,0.27734375,-12.68359375,2.55859375,-0.71484375,0.408203125,1.416015625,-0.17578125,-21.86328125,3.33203125,1.0
4229574,,,,,,,,2.01171875,-12.03125,3.15625,0.0546875,-0.033203125,-1.904296875,1.55078125,-21.2109375,3.90625,1.0
4229575,,,,,,,,4.40234375,-10.75390625,4.80859375,0.7890625,-0.02734375,-4.734375,4.26953125,-19.9453125,5.58984375,1.0
4229576,,,,,,,,3.015625,-9.22265625,3.8203125,2.3125,0.171875,-3.28515625,3.2734375,-18.4140625,4.75,1.0
4229577,,,,,,,,1.83203125,-7.3203125,2.28515625,2.923828125,0.404296875,-1.67578125,2.19921875,-16.5,3.33203125,1.0
4229578,,,,,,,,1.49609375,-4.51953125,1.07421875,3.193359375,0.88671875,0.646484375,1.89453125,-13.6640625,2.41015625,1.0
4229579,,,,,,,,1.47265625,-2.9609375,0.50390625,2.97265625,0.921875,0.888671875,1.81640625,-12.09375,1.98828125,1.0
4229580,36.01314583333333,129.319081,43.361535029026925,82.7572049605082,3.7,47.0,,4.3515625,5.36328125,-2.56640625,1.51171875,-0.234375,-0.09375,4.5390625,-3.70703125,-0.61328125,1.0
4229581,,,,,,,,4.4375,8.296875,-2.859375,2.369140625,1.4140625,0.126953125,4.5,-0.6796875,-0.4609375,1.0
4229582,,,,,,,,4.0390625,10.45703125,-2.6953125,2.330078125,1.361328125,0.04296875,4.078125,1.50390625,-0.1953125,1.0
4229583,,,,,,,,3.41796875,12.203125,-2.7578125,2.34375,1.193359375,0.056640625,3.421875,3.3046875,-0.0390625,1.0
4229584,,,,,,,,2.9453125,13.359375,-3.51953125,2.392578125,1.11328125,0.1328125,2.9296875,4.4921875,-0.69140625,1.0
4229585,,,,,,,,2.578125,12.9453125,-4.91015625,2.44140625,0.9296875,0.4375,2.5078125,4.1484375,-1.87890625,1.0
4229586,,,,,,,,3.23046875,11.06640625,-6.4375,2.154296875,0.73046875,0.83203125,3.08203125,2.34765625,-3.1796875,1.0
4229587,,,,,,,,4.51953125,8.20703125,-7.36328125,1.7734375,0.552734375,1.0390625,4.26953125,-0.44921875,-3.94921875,1.0
4229588,,,,,,,,5.85546875,3.2109375,-7.49609375,1.412109375,0.486328125,1.025390625,5.49609375,-5.390625,-3.94921875,1.0
4229589,,,,,,,,5.44921875,2.92578125,-7.02734375,1.181640625,0.478515625,0.818359375,4.99609375,-5.62109375,-3.37109375,1.0
4229590,36.01314816666666,129.31908383333334,43.616955122475304,83.01611112692851,4.0,47.0,,2.1796875,4.41796875,-5.0546875,1.51171875,-0.234375,-0.09375,4.5390625,-3.70703125,-0.61328125,1.0
4229591,,,,,,,,-1.54296875,6.859375,-2.015625,1.234375,0.31640625,0.787109375,-2.16796875,-1.5625,1.875,1.0
4229592,,,,,,,,-2.64453125,8.25390625,-1.07421875,1.267578125,0.298828125,0.93359375,-3.31640625,-0.14453125,2.87109375,1.0
4229593,,,,,,,,-3.53125,10.859375,0.03515625,0.53125,0.2734375,1.220703125,-4.3515625,2.5390625,4.09765625,1.0
4229594,,,,,,,,-1.08203125,12.99609375,-3.18359375,-1.158203125,0.330078125,0.857421875,-2.05078125,4.68359375,0.83984375,1.0
4229595,,,,,,,,1.8203125,14.3515625,-4.87890625,-1.93359375,0.431640625,0.3046875,0.78125,5.98828125,-0.99609375,1.0
4229596,,,,,,,,2.55859375,13.92578125,-5.33203125,-2.078125,0.478515625,-0.005859375,1.51171875,5.5234375,-1.53515625,1.0
4229597,,,,,,,,2.12890625,12.5390625,-4.9296875,-1.8125,0.501953125,-0.673828125,1.08984375,4.07421875,-1.3046875,1.0
4229598,,,,,,,,1.25390625,10.1015625,-3.953125,-0.94140625,0.490234375,-1.28515625,0.28515625,1.578125,-0.4609375,1.0
4229599,,,,,,,,1.12109375,9.15234375,-3.625,-0.3203125,0.51953125,-1.53125,0.20703125,0.6171875,-0.15625,1.0
4229600,36.013151,129.31908816666666,44.00759799404983,83.33049760296441,4.3,49.0,0.0,2.58203125,3.890625,-1.328125,0.751953125,0.396484375,-1.6171875,1.85546875,-4.62890625,2.1796875,1.0
4229601,,,,,,,,4.83984375,-1.60546875,0.05078125,0.326171875,0.30078125,-1.091796875,4.23046875,-10.1015625,3.59765625,1.0
4229602,,,,,,,,6.1875,-15.2109375,1.578125,0.052734375,0.298828125,-0.751953125,5.609375,-23.70703125,5.1328125,1.0
4229603,,,,,,,,-0.8828125,-43.48046875,12.1328125,-0.45703125,0.30078125,-0.173828125,-1.4375,-51.97265625,15.6640625,1.0
4229604,,,,,,,,-16.20703125,-58.03125,20.39453125,-0.62109375,0.275390625,0.01953125,-16.76171875,-66.53125,23.90234375,1.0
4229605,,,,,,,,-9.14453125,-19.66015625,9.42578125,-0.7734375,0.25390625,0.232421875,-9.71484375,-28.1796875,12.87109375,1.0
4229606,,,,,,,,5.22265625,-5.2578125,-0.87109375,-0.595703125,0.171875,0.197265625,4.61328125,-13.8203125,2.48828125,1.0
4229607,,,,,,,,9.67578125,-5.05859375,-3.4140625,-0.6171875,0.154296875,0.125,9.05859375,-13.62890625,-0.078125,1.0
4229608,,,,,,,,9.015625,-13.60546875,0.33203125,-0.8203125,0.421875,0.2109375,8.3671875,-22.203125,3.59765625,1.0
4229609,,,,,,,,7.21484375,-15.26953125,1.64453125,-0.3671875,-0.03125,0.826171875,6.52734375,-23.890625,4.86328125,1.0
4229610,36.01315366666667,129.31909183333335,44.33814179356146,83.62639058401498,4.0,51.0,,4.52734375,-7.8984375,-2.1171875,-1.11328125,-0.21875,-0.908203125,3.80859375,-16.54296875,1.0703125,1.0
4229611,,,,,,,,1.2421875,-5.71484375,-1.88671875,-0.82421875,-0.193359375,-4.2109375,0.9375,-14.4296875,1.18359375,1.0
4229612,,,,,,,,-1.64453125,-4.234375,-1.484375,-1.673828125,-0.330078125,-3.25,-1.78515625,-12.9765625,1.53125,1.0
4229613,,,,,,,,-2.83984375,-2.26953125,-1.52734375,-3.240234375,-0.6640625,0.79296875,-2.85546875,-11.09765625,1.26171875,1.0
4229614,,,,,,,,-2.953125,-1.6875,-1.9609375,-3.2734375,-0.962890625,1.71875,-3.0078125,-10.56640625,0.6875,1.0
4229615,,,,,,,,-4.375,-0.27734375,-3.9375,-2.111328125,-1.16796875,0.65625,-4.578125,-9.26171875,-1.6484375,1.0
4229616,,,,,,,,-6.55859375,2.91796875,-3.27734375,-2.5625,-1.544921875,0.19921875,-6.76171875,-6.12109375,-1.19140625,1.0
4229617,,,,,,,,-6.72265625,4.0625,-2.34765625,-2.908203125,-1.66796875,0.396484375,-6.91796875,-5.0078125,-0.38671875,1.0
4229618,,,,,,,,-6.4296875,6.26953125,-0.85546875,-2.962890625,-1.86328125,0.798828125,-6.65234375,-2.86328125,0.83984375,1.0
4229619,,,,,,,,-5.76171875,7.84765625,-0.14453125,-2.51171875,-1.873046875,0.798828125,-6.03515625,-1.33203125,1.30078125,1.0
4229620,36.013155833333336,129.3190945,44.57853713973195,83.86680349645367,4.2,47.0,,-3.33203125,9.47265625,-0.390625,-2.146484375,-1.453125,0.94140625,-3.69921875,0.23828125,0.6484375,1.0
4229621,,,,,,,,-1.78125,8.453125,-1.7265625,-2.1796875,-1.0546875,1.341796875,-2.24609375,-0.796875,-0.8828125,1.0
4229622,,,,,,,,-1.453125,7.62890625,-1.6640625,-2.12109375,-0.88671875,1.458984375,-1.9765625,-1.63671875,-0.921875,1.0
4229623,,,,,,,,-0.8984375,6.171875,-1.40625,-1.796875,-0.634765625,1.3515625,-1.5546875,-3.09765625,-0.84375,1.0
4229624,,,,,,,,0.078125,6.515625,-0.78125,-1.12890625,-0.529296875,0.708984375,-0.7109375,-2.75390625,-0.421875,1.0
4229625,,,,,,,,0.70703125,7.3203125,-0.3984375,-0.546875,-0.466796875,0.42578125,-0.13671875,-1.9453125,-0.1171875,1.0
4229626,,,,,,,,0.65625,8.078125,-0.26953125,-0.16796875,-0.404296875,0.349609375,-0.2109375,-1.18359375,-0.00390625,1.0
4229627,,,,,,,,-0.1640625,11.4140625,-0.21484375,0.546875,-0.205078125,0.361328125,-1.0546875,2.15625,0.07421875,1.0
4229628,,,,,,,,-0.6640625,13.2421875,-0.5546875,0.9375,-0.03515625,0.3984375,-1.59375,3.9921875,-0.1953125,1.0
4229629,,,,,,,,-0.76171875,14.23046875,-0.78515625,1.0390625,-0.005859375,0.369140625,-1.70703125,4.98828125,-0.38671875,1.0
4229630,36.013157666666665,129.3190965,44.758833521604686,84.07022969449179,3.6,45.0,,-0.984375,15.59375,-1.51953125,-2.146484375,-1.453125,0.94140625,-3.69921875,0.23828125,0.6484375,1.0
4229631,,,,,,,,-0.78515625,14.4765625,-1.63671875,0.041015625,-0.12109375,-0.46484375,-1.74609375,5.2578125,-1.07421875,1.0
4229632,,,,,,,,-0.1875,11.52734375,-0.86328125,-0.2421875,-0.1640625,-0.7265625,-1.1328125,2.30859375,-0.30859375,1.0
4229633,,,,,,,,-0.39453125,9.53515625,-0.40234375,-0.515625,-0.18359375,-1.158203125,-1.24609375,0.31640625,0.11328125,1.0
4229634,,,,,,,,-0.89453125,6.74609375,0.1484375,-0.501953125,-0.166015625,-1.404296875,-1.62890625,-2.48046875,0.609375,1.0
4229635,,,,,,,,-2.09375,4.9453125,1.68359375,-0.40625,-0.216796875,-1.458984375,-2.703125,-4.28125,2.10546875,1.0
4229636,,,,,,,,-3.4375,4.1015625,4.1796875,-0.306640625,-0.2578125,-1.37890625,-3.96875,-5.125,4.59375,1.0
4229637,,,,,,,,-6.44140625,-1.26171875,6.734375,-0.0390625,-0.259765625,-0.990234375,-6.87890625,-10.484375,7.125,1.0
4229638,,,,,,,,0.828125,-15.765625,4.87109375,0.42578125,-0.19921875,-0.25,0.4765625,-24.97265625,5.28515625,1.0
4229639,,,,,,,,10.7421875,-40.51171875,8.46875,0.482421875,-0.189453125,-0.123046875,10.3984375,-49.7109375,8.921875,1.0
4229640,36.013160166666665,129.31909983333335,45.059327795079966,84.34762934257253,3.5,47.0,,0.18359375,-9.59765625,6.40625,0.17578125,-0.078125,-0.189453125,-0.13671875,-18.796875,6.9296875,1.0
4229641,,,,,,,,-5.2578125,-7.07421875,1.203125,1.490234375,-0.001953125,-0.130859375,-5.5390625,-16.26953125,1.8359375,1.0
4229642,,,,,,,,-6.98046875,-9.10546875,0.21484375,1.5859375,-0.080078125,0.34375,-7.26171875,-18.30078125,0.91796875,1.0
4229643,,,,,,,,-5.921875,-13.51953125,1.64453125,0.310546875,0.072265625,0.861328125,-6.265625,-22.70703125,2.44921875,1.0
4229644,,,,,,,,-3.921875,-15.51171875,2.37109375,-0.49609375,0.26953125,1.06640625,-4.3125,-24.6953125,3.17578125,1.0
4229645,,,,,,,,-0.09765625,-13.08984375,3.73046875,-0.015625,-0.0625,-0.220703125,-0.55859375,-22.28515625,4.48046875,1.0
4229646,,,,,,,,2.25390625,-10.24609375,5.046875,0.640625,0.13671875,-2.443359375,1.85546875,-19.4453125,5.8203125,1.0
4229647,,,,,,,,0.7578125,-6.953125,1.43359375,1.7890625,0.2109375,-3.623046875,0.859375,-16.16015625,2.37109375,1.0
4229648,,,,,,,,0.69921875,-4.171875,-0.68359375,2.484375,0.61328125,-0.857421875,1.01171875,-13.359375,0.45703125,1.0
4229649,,,,,,,,2.87109375,-0.80078125,-1.6328125,2.552734375,0.939453125,0.763671875,3.12109375,-9.94921875,-0.1171875,1.0
4229650,36.013162,129.31910266666668,45.31474807612801,84.55105593772169,3.6,49.0,,3.63671875,0.5625,-1.85546875,0.17578125,-0.078125,-0.189453125,-0.13671875,-18.796875,6.9296875,1.0
4229651,,,,,,,,4.84765625,3.40234375,-1.37109375,2.490234375,1.125,0.23046875,4.99609375,-5.69921875,0.49609375,1.0
4229652,,,,,,,,4.59765625,5.171875,-1.07421875,2.43359375,1.154296875,0.109375,4.73046875,-3.8984375,0.91796875,1.0
4229653,,,,,,,,4.15234375,6.296875,-1.51171875,2.419921875,1.37109375,0.09765625,4.23046875,-2.7109375,0.80078125,1.0
4229654,,,,,,,,3.8984375,7.078125,-2.23046875,2.453125,1.345703125,0.1875,3.96484375,-1.90625,0.19140625,1.0
4229655,,,,,,,,3.390625,10.40234375,-4.64453125,2.455078125,1.0546875,0.59375,3.3515625,1.50390625,-1.87890625,1.0
4229656,,,,,,,,3.53125,9.7734375,-6.015625,1.818359375,0.73828125,0.935546875,3.35546875,0.96875,-2.953125,1.0
4229657,,,,,,,,3.9375,8.0859375,-5.984375,1.619140625,0.625,0.931640625,3.6953125,-0.6796875,-2.8359375,1.0
4229658,,,,,,,,4.23828125,6.13671875,-5.51171875,1.4609375,0.333984375,0.599609375,3.88671875,-2.55859375,-2.18359375,1.0
4229659,,,,,,,,4.0,5.08203125,-4.6171875,1.5859375,0.27734375,0.541015625,3.6171875,-3.58984375,-1.2265625,1.0
4229660,36.01316416666667,129.31910616666667,45.63026728591848,84.79146926844771,4.1000000000000005,49.0,,2.8671875,5.4453125,-2.5078125,0.17578125,-0.078125,-0.189453125,2.4296875,-3.171875,1.03125,1.0
4229661,,,,,,,,1.8203125,6.5703125,-1.64453125,1.4921875,0.234375,0.728515625,1.3203125,-1.984375,2.0234375,1.0
4229662,,,,,,,,-0.32421875,9.0234375,-1.484375,0.7421875,0.130859375,0.974609375,-0.94140625,0.546875,2.3359375,1.0
4229663,,,,,,,,-1.42578125,10.578125,-1.43359375,0.423828125,0.076171875,1.0078125,-2.08984375,2.1171875,2.40625,1.0
4229664,,,,,,,,-1.4609375,12.171875,-2.3984375,-0.220703125,0.0,0.892578125,-2.203125,3.7265625,1.453125,1.0
4229665,,,,,,,,-0.7578125,14.0234375,-4.58203125,-0.74609375,-0.01171875,0.486328125,-1.5546875,5.5625,-0.76953125,1.0
4229666,,,,,,,,0.69921875,13.52734375,-5.4296875,-0.888671875,0.123046875,-0.4921875,-0.09765625,5.02734375,-1.7265625,1.0
4229667,,,,,,,,1.2109375,12.33203125,-5.12109375,-0.763671875,0.291015625,-1.134765625,0.4765625,3.796875,-1.49609375,1.0
4229668,,,,,,,,1.77734375,10.88671875,-4.36328125,-0.599609375,0.380859375,-1.33984375,1.08984375,2.34375,-0.76953125,1.0
4229669,,,,,,,,2.6640625,8.82421875,-2.98828125,-0.134765625,0.4765625,-1.46875,2.08984375,0.27734375,0.57421875,1.0
4229670,36.01316683333334,129.31911,45.975835755330195,85.08736239029787,4.2,50.0,,3.05859375,7.1484375,-1.87109375,0.17578125,-0.078125,-0.189453125,2.58203125,-1.40625,1.68359375,1.0
4229671,,,,,,,,3.671875,2.765625,0.65625,-0.00390625,0.4921875,-0.900390625,3.2734375,-5.7734375,4.2109375,1.0
4229672,,,,,,,,2.58984375,-4.20703125,0.703125,-0.154296875,0.46875,-0.521484375,2.23828125,-12.74609375,4.25,1.0
4229673,,,,,,,,-3.66015625,-37.99609375,10.76171875,-0.3203125,0.40625,-0.171875,-4.00390625,-46.53515625,14.28515625,1.0
4229674,,,,,,,,-14.72265625,-59.1796875,21.3359375,-0.439453125,0.322265625,0.111328125,-15.07421875,-67.71875,24.8203125,1.0
4229675,,,,,,,,-10.2578125,-18.5859375,10.6484375,-0.66015625,0.251953125,0.267578125,-10.6328125,-27.15234375,14.09375,1.0
4229676,,,,,,,,-0.98046875,-4.51171875,2.94140625,-0.8203125,0.220703125,0.298828125,-1.36328125,-13.0859375,6.35546875,1.0
4229677,,,,,,,,10.3671875,-3.9609375,-4.15625,-1.296875,0.259765625,0.201171875,9.9375,-12.59375,-0.8828125,1.0
4229678,,,,,,,,11.36328125,-9.0625,-2.33984375,-0.662109375,0.576171875,0.337890625,10.89453125,-17.73046875,0.83984375,1.0
4229679,,,,,,,,9.3515625,-14.921875,2.43359375,1.1171875,0.33203125,0.693359375,8.828125,-23.58984375,5.62890625,1.0
4229680,36.013169166666664,129.31911333333335,46.27633005305687,85.34626887150242,3.7,51.0,,7.62109375,-14.2265625,1.8359375,0.47265625,-0.3359375,-0.224609375,7.06640625,-22.859375,5.1328125,1.0
4229681,,,,,,,,1.3828125,-9.26171875,-0.5859375,-0.83203125,0.005859375,-3.4375,0.9765625,-17.9140625,2.6796875,1.0
4229682,,,,,,,,-1.671875,-7.27734375,-1.44921875,-1.927734375,-0.177734375,-2.296875,-1.59375,-16.0,1.68359375,1.0
4229683,,,,,,,,-2.22265625,-3.51171875,-2.15625,-2.802734375,-0.634765625,1.115234375,-2.08984375,-12.3203125,0.765625,1.0
4229684,,,,,,,,-3.1796875,-1.51953125,-3.41796875,-2.376953125,-0.923828125,1.7890625,-3.1640625,-10.41015625,-0.73046875,1.0
4229685,,,,,,,,-5.2734375,0.64453125,-3.2421875,-2.09375,-1.232421875,0.568359375,-5.3828125,-8.3359375,-0.84375,1.0
4229686,,,,,,,,-5.390625,3.69921875,-1.45703125,-2.39453125,-1.369140625,0.3359375,-5.5,-5.31640625,0.83984375,1.0
4229687,,,,,,,,-5.0078125,5.83203125,-1.54296875,-2.77734375,-1.6640625,0.396484375,-5.1171875,-3.24609375,0.53515625,1.0
4229688,,,,,,,,-4.73046875,9.01953125,-2.09765625,-2.6328125,-1.712890625,0.568359375,-4.84375,-0.10546875,-0.26953125,1.0
4229689,,,,,,,,-4.203125,10.453125,-2.03125,-2.294921875,-1.650390625,0.689453125,-4.3515625,1.2734375,-0.421875,1.0
4229690,36.01317166666667,129.31911649999998,46.56179944607593,85.6236684922898,4.1000000000000005,48.0,,-3.9765625,11.359375,-2.36328125,-1.994140625,-1.09765625,1.345703125,-4.2734375,2.1171875,-1.15234375,1.0
4229691,,,,,,,,-4.3828125,9.60546875,-2.30859375,-1.900390625,-0.93359375,1.3203125,-4.73828125,0.35546875,-1.19140625,1.0
4229692,,,,,,,,-3.91015625,5.03125,-0.63671875,-1.78515625,-0.673828125,0.62890625,-4.421875,-4.2421875,0.15234375,1.0
4229693,,,,,,,,-3.421875,5.390625,-0.40625,-1.693359375,-0.640625,0.572265625,-3.97265625,-3.8984375,0.3046875,1.0
4229694,,,,,,,,-3.05078125,6.1171875,-0.2578125,-1.51953125,-0.603515625,0.57421875,-3.62109375,-3.171875,0.3828125,1.0
4229695,,,,,,,,-0.73046875,7.8828125,-0.82421875,-0.98828125,-0.505859375,0.6875,-1.36328125,-1.40625,-0.30859375,1.0
4229696,,,,,,,,-0.19921875,8.53125,-1.0234375,-0.70703125,-0.42578125,0.76953125,-0.859375,-0.7578125,-0.5390625,1.0
4229697,,,,,,,,0.19140625,9.26171875,-1.14453125,-0.443359375,-0.310546875,0.857421875,-0.51953125,-0.02734375,-0.69140625,1.0
4229698,,,,,,,,0.8046875,10.70703125,-0.8515625,0.052734375,-0.103515625,1.021484375,0.015625,1.42578125,-0.421875,1.0
4229699,,,,,,,,0.71484375,12.2265625,0.265625,0.619140625,-0.015625,1.02734375,-0.17578125,2.9609375,0.7265625,1.0
4229700,36.01317383333333,129.31911966666667,46.847269025372384,85.86408170751463,4.1000000000000005,48.0,0.0,0.11328125,12.79296875,0.73046875,-1.994140625,-1.09765625,1.345703125,-4.2734375,2.1171875,-1.15234375,1.0
4229701,,,,,,,,-0.33203125,13.03515625,0.67578125,1.078125,-0.197265625,0.46484375,-1.32421875,3.80078125,1.26171875,1.0
4229702,,,,,,,,-0.40234375,12.63671875,-0.109375,0.82421875,-0.234375,-0.583984375,-1.40234375,3.4140625,0.609375,1.0
4229703,,,,,,,,0.01953125,11.48046875,-0.9375,0.4453125,-0.26171875,-0.94921875,-0.90234375,2.26953125,-0.15625,1.0
4229704,,,,,,,,0.34765625,10.4453125,-1.3359375,-0.060546875,-0.26953125,-1.017578125,-0.48046875,1.23828125,-0.5390625,1.0
4229705,,,,,,,,1.5546875,5.0078125,0.375,-0.228515625,-0.259765625,-0.9609375,0.859375,-4.20703125,1.1484375,1.0
4229706,,,,,,,,1.8125,-0.9375,1.453125,0.16015625,-0.2578125,-0.806640625,1.203125,-10.14453125,2.21875,1.0
4229707,,,,,,,,5.4453125,-29.1796875,9.08203125,0.7890625,-0.30078125,-0.451171875,4.921875,-38.375,9.91796875,1.0
4229708,,,,,,,,15.37109375,-54.8203125,22.60546875,1.009765625,-0.306640625,-0.248046875,14.87890625,-64.00390625,23.51953125,1.0
4229709,,,,,,,,1.94140625,-9.84765625,9.09375,0.99609375,-0.322265625,-0.123046875,1.47265625,-19.02734375,10.109375,1.0
4229710,36.013176,129.3191226666667,47.117713805310814,86.10449485025832,3.5,50.0,,-1.0625,-5.453125,2.8515625,0.693359375,-0.275390625,-0.08984375,-4.2734375,2.1171875,-1.15234375,1.0
4229711,,,,,,,,-4.91015625,-9.98046875,0.07421875,0.392578125,-0.2109375,-0.205078125,-5.34765625,-19.140625,1.22265625,1.0
4229712,,,,,,,,-4.33984375,-11.89453125,1.9296875,0.310546875,-0.177734375,-0.1953125,-4.76953125,-21.05859375,3.1015625,1.0
4229713,,,,,,,,-1.7578125,-14.21484375,3.0703125,-0.48828125,0.2421875,0.3359375,-2.2421875,-23.39453125,4.171875,1.0
4229714,,,,,,,,2.0,-10.0625,2.15234375,0.25390625,-0.251953125,-2.8046875,1.625,-19.2578125,3.25390625,1.0
4229715,,,,,,,,2.40234375,-7.640625,2.6953125,1.267578125,-0.115234375,-3.56640625,2.35546875,-16.84765625,3.8671875,1.0
4229716,,,,,,,,2.0859375,-7.265625,2.39453125,1.736328125,-0.115234375,-2.583984375,2.1640625,-16.46484375,3.63671875,1.0
4229717,,,,,,,,1.8515625,-5.26171875,1.01953125,2.333984375,0.4921875,0.001953125,2.046875,-14.43359375,2.44921875,1.0
4229718,,,,,,,,1.96875,-2.71875,-0.5390625,2.2890625,0.865234375,0.3125,2.125,-11.87109375,1.109375,1.0
4229719,,,,,,,,2.98046875,-0.59375,-1.65234375,2.14453125,0.978515625,0.021484375,3.12109375,-9.72265625,0.11328125,1.0
4229720,36.013178,129.31912516666668,47.34308432736641,86.3264145519546,3.5,48.0,,4.13671875,1.10546875,-1.92578125,0.693359375,-0.275390625,-0.08984375,-4.2734375,2.1171875,-1.15234375,1.0
4229721,,,,,,,,4.99609375,2.75,-1.453125,2.375,1.357421875,-0.03125,5.11328125,-6.31640625,0.7265625,1.0
4229722,,,,,,,,5.1796875,4.15234375,-0.9453125,2.28515625,1.51953125,0.0859375,5.265625,-4.85546875,1.453125,1.0
4229723,,,,,,,,4.65234375,6.3671875,-1.453125,2.2890625,1.560546875,0.185546875,4.69140625,-2.59375,1.1484375,1.0
4229724,,,,,,,,4.3828125,7.25390625,-2.1171875,2.306640625,1.521484375,0.255859375,4.38671875,-1.67578125,0.609375,1.0
4229725,,,,,,,,3.84765625,9.53515625,-3.96484375,2.234375,1.40625,0.52734375,3.765625,0.66015625,-1.03515625,1.0
4229726,,,,,,,,3.390625,11.203125,-4.76953125,1.837890625,1.1171875,1.09375,3.15625,2.421875,-1.57421875,1.0
4229727,,,,,,,,3.53125,11.37109375,-5.07421875,1.58984375,1.009765625,1.130859375,3.23828125,2.61328125,-1.80078125,1.0
4229728,,,,,,,,3.80078125,10.55859375,-5.60546875,1.1015625,0.783203125,0.92578125,3.38671875,1.84765625,-2.22265625,1.0
4229729,,,,,,,,4.26953125,7.9140625,-6.61328125,0.931640625,0.62890625,0.619140625,3.76953125,-0.7578125,-3.14453125,1.0
4229730,36.013180000000006,129.31912766666667,47.5684548371768,86.54833426005058,3.7,47.0,,3.046875,5.73046875,-5.44921875,1.138671875,0.46875,0.548828125,2.4296875,-2.859375,-1.80078125,1.0
4229731,,,,,,,,0.55078125,7.21484375,-3.4375,0.912109375,0.513671875,0.626953125,-0.13671875,-1.328125,0.3046875,1.0
4229732,,,,,,,,-0.296875,7.69140625,-2.93359375,0.712890625,0.4921875,0.646484375,-1.015625,-0.83203125,0.83984375,1.0
4229733,,,,,,,,-3.1015625,9.64453125,-0.60546875,0.15625,0.35546875,0.76953125,-3.9296875,1.16015625,3.21484375,1.0
4229734,,,,,,,,-2.83984375,10.640625,-1.44140625,-0.37109375,0.330078125,0.806640625,-3.73828125,2.15625,2.37109375,1.0
4229735,,,,,,,,0.06640625,12.72265625,-3.8671875,-1.08203125,0.314453125,0.64453125,-0.90234375,4.22265625,-0.1171875,1.0
4229736,,,,,,,,0.75,12.8984375,-4.03515625,-1.42578125,0.349609375,0.462890625,-0.25,4.375,-0.34765625,1.0
4229737,,,,,,,,1.62109375,12.41015625,-4.19140625,-1.755859375,0.478515625,-0.056640625,0.58984375,3.83984375,-0.65234375,1.0
4229738,,,,,,,,1.38671875,11.30859375,-3.859375,-1.578125,0.587890625,-0.61328125,0.36328125,2.6875,-0.4609375,1.0
4229739,,,,,,,,1.19921875,10.7265625,-3.66796875,-1.306640625,0.6015625,-0.845703125,0.20703125,2.08203125,-0.34765625,1.0
4229740,36.0131825,129.31913133333333,47.89899849183681,86.82573416840651,3.8000000000000003,49.0,,1.19921875,7.2734375,-2.59375,1.138671875,0.46875,0.548828125,0.32421875,-1.40625,0.6484375,1.0
4229741,,,,,,,,3.69140625,2.8046875,0.671875,0.26171875,0.369140625,-1.17578125,2.96484375,-5.85546875,3.9453125,1.0
4229742,,,,,,,,4.48046875,-0.05859375,1.0546875,0.07421875,0.3125,-1.025390625,3.80859375,-8.71875,4.328125,1.0
4229743,,,,,,,,1.390625,-19.26171875,2.71484375,-0.380859375,0.2578125,-0.658203125,0.78125,-27.9140625,5.97265625,1.0
4229744,,,,,,,,-14.65234375,-54.32421875,16.28515625,-0.728515625,0.201171875,-0.30078125,-15.23046875,-63.0,19.49609375,1.0
4229745,,,,,,,,-16.88671875,-46.2265625,15.3203125,-0.89453125,0.18359375,-0.017578125,-17.44921875,-54.92578125,18.4609375,1.0
4229746,,,,,,,,-13.43359375,-24.18359375,14.2109375,-0.931640625,0.173828125,0.09375,-14.00390625,-32.89453125,17.3125,1.0
4229747,,,,,,,,5.5078125,-5.52734375,-4.3203125,-0.984375,0.111328125,0.22265625,4.921875,-14.27734375,-1.3046875,1.0
4229748,,,,,,,,15.3671875,-9.07421875,-3.24609375,-1.291015625,0.275390625,0.6796875,14.7265625,-17.875,-0.38671875,1.0
4229749,,,,,,,,11.1484375,-12.0546875,2.171875,-0.884765625,0.328125,0.931640625,10.4765625,-20.8671875,4.9765625,1.0
4229750,36.013184833333334,129.31913466666668,48.19949267245357,87.0846407171655,3.5,50.0,,4.390625,-13.2421875,1.30859375,0.734375,-0.505859375,0.1796875,3.6171875,-22.05859375,4.13671875,1.0
4229751,,,,,,,,2.6875,-9.08203125,-0.9609375,-1.47265625,-0.22265625,-2.392578125,2.0078125,-17.9140625,1.8359375,1.0
4229752,,,,,,,,1.24609375,-6.63671875,-2.32421875,-1.06640625,-0.162109375,-3.955078125,0.70703125,-15.50390625,0.41796875,1.0
4229753,,,,,,,,-1.20703125,-5.21875,-1.33984375,-0.494140625,-0.189453125,-3.873046875,-1.36328125,-14.125,1.33984375,1.0
4229754,,,,,,,,-2.02734375,-4.24609375,-0.34375,-1.33203125,-0.220703125,-2.16015625,-2.01171875,-13.1640625,2.296875,1.0
4229755,,,,,,,,-3.5859375,-1.6171875,0.53125,-3.107421875,-0.669921875,1.24609375,-3.546875,-10.6015625,2.984375,1.0
4229756,,,,,,,,-4.05078125,0.23046875,-1.09375,-2.9375,-0.95703125,1.162109375,-4.12109375,-8.83984375,1.0703125,1.0
4229757,,,,,,,,-4.44921875,1.2890625,-1.703125,-2.359375,-1.001953125,0.482421875,-4.54296875,-7.8046875,0.34375,1.0
4229758,,,,,,,,-5.515625,5.55078125,-2.953125,-2.203125,-1.6796875,-0.283203125,-5.50390625,-3.62890625,-1.265625,1.0
4229759,,,,,,,,-5.578125,7.4453125,-2.23046875,-2.544921875,-1.775390625,0.439453125,-5.5390625,-1.7890625,-0.76953125,1.0
4229760,36.013187,129.31913766666668,48.469937376206936,87.32505390343879,4.0,48.0,,-4.77734375,10.140625,-0.21484375,-2.1484375,-1.55078125,0.28515625,-4.765625,0.8515625,0.91796875,1.0
4229761,,,,,,,,-4.08984375,11.61328125,-0.05859375,-2.15625,-1.34765625,0.0703125,-4.078125,2.30859375,0.87890625,1.0
4229762,,,,,,,,-3.859375,11.8125,-0.26171875,-2.142578125,-1.25,0.13671875,-3.8515625,2.5,0.57421875,1.0
4229763,,,,,,,,-3.796875,11.68359375,-0.86328125,-2.0546875,-0.9765625,0.47265625,-3.81640625,2.34765625,-0.23046875,1.0
4229764,,,,,,,,-4.08984375,9.78125,-1.7578125,-1.96875,-0.703125,0.822265625,-4.16015625,0.4296875,-1.3046875,1.0
4229765,,,,,,,,-4.00390625,7.5234375,-1.1171875,-1.771484375,-0.505859375,1.005859375,-4.15625,-1.828125,-0.84375,1.0
4229766,,,,,,,,-3.1875,6.87109375,-0.1015625,-1.107421875,-0.388671875,0.7734375,-3.46875,-2.48046875,-0.0390625,1.0
4229767,,,,,,,,-0.90234375,7.9453125,0.703125,-0.5390625,-0.310546875,0.48828125,-1.24609375,-1.40625,0.6875,1.0
4229768,,,,,,,,0.20703125,9.16015625,0.57421875,-0.00390625,-0.275390625,0.3203125,-0.17578125,-0.18359375,0.53125,1.0
4229769,,,,,,,,0.64453125,9.890625,0.375,0.23828125,-0.244140625,0.3125,0.24609375,0.546875,0.34375,1.0
4229770,36.01318933333334,129.319141,48.77043152103852,87.58396047240029,4.0,48.0,,1.50390625,12.6328125,0.3125,0.552734375,-0.1015625,0.427734375,1.05078125,3.3046875,0.34375,1.0
4229771,,,,,,,,0.86328125,13.28515625,0.296875,0.681640625,-0.158203125,0.408203125,0.36328125,3.95703125,0.3828125,1.0
4229772,,,,,,,,-0.1875,12.8828125,-0.3203125,0.9296875,-0.3203125,0.12890625,-0.7109375,3.5703125,-0.15625,1.0
4229773,,,,,,,,-0.578125,11.3046875,-0.8359375,1.087890625,-0.4296875,-0.28515625,-1.09375,2.0,-0.578125,1.0
4229774,,,,,,,,-0.5859375,9.94921875,-0.66796875,1.009765625,-0.45703125,-0.646484375,-1.0546875,0.66015625,-0.30859375,1.0
4229775,,,,,,,,-0.53515625,6.6171875,0.296875,0.54296875,-0.423828125,-0.75390625,-0.94140625,-2.671875,0.7265625,1.0
4229776,,,,,,,,-0.87109375,3.15234375,2.53125,0.068359375,-0.35546875,-0.703125,-1.20703125,-6.1171875,2.984375,1.0
4229777,,,,,,,,0.55859375,-9.640625,4.9375,0.068359375,-0.27734375,-0.5703125,0.28515625,-18.91796875,5.3984375,1.0
4229778,,,,,,,,3.62109375,-25.36328125,7.06640625,0.376953125,-0.224609375,-0.37109375,3.38671875,-34.62109375,7.54296875,1.0
4229779,,,,,,,,15.78125,-51.6796875,23.41796875,0.630859375,-0.208984375,-0.12890625,15.5703125,-60.9375,23.94140625,1.0
4229780,36.013191666666664,129.31914483333333,49.115999982252426,87.842867303068,3.7,53.0,,-1.34375,-15.2578125,9.4765625,0.744140625,-0.212890625,0.126953125,-1.5546875,-24.5078125,10.109375,1.0
4229781,,,,,,,,-7.80859375,-6.875,0.21484375,0.66015625,-0.150390625,0.12109375,-8.02734375,-16.12109375,0.91796875,1.0
4229782,,,,,,,,-7.515625,-8.21484375,0.34375,0.732421875,-0.181640625,0.306640625,-7.7578125,-17.453125,1.109375,1.0
4229783,,,,,,,,-3.85546875,-11.81640625,1.953125,-0.10546875,0.11328125,1.138671875,-4.16015625,-21.0546875,2.7578125,1.0
4229784,,,,,,,,1.05859375,-13.92578125,4.6796875,-0.794921875,0.435546875,1.044921875,0.62890625,-23.1640625,5.4375,1.0
4229785,,,,,,,,2.3828125,-11.2265625,3.59765625,0.923828125,0.12109375,-3.900390625,2.125,-20.484375,4.40234375,1.0
4229786,,,,,,,,3.06640625,-8.62109375,1.55078125,1.470703125,-0.01171875,-4.4453125,3.00390625,-17.875,2.41015625,1.0
4229787,,,,,,,,3.48046875,-7.6015625,0.3828125,3.01953125,0.115234375,-2.759765625,3.76953125,-16.84375,1.453125,1.0
4229788,,,,,,,,3.41015625,-6.8828125,1.3671875,3.69921875,0.662109375,-0.119140625,3.80859375,-16.078125,2.7578125,1.0
4229789,,,,,,,,3.2265625,-6.171875,1.421875,3.333984375,0.849609375,0.400390625,3.6171875,-15.3515625,2.984375,1.0
4229790,36.01319383333334,129.319148,49.401469417461136,88.08328060161399,3.7,52.0,,2.9296875,-3.30859375,0.8984375,0.744140625,-0.212890625,0.126953125,3.2734375,-12.4375,2.71875,1.0
4229791,,,,,,,,2.9453125,-0.51171875,-0.0859375,2.169921875,1.384765625,-0.302734375,3.2734375,-9.60546875,1.953125,1.0
4229792,,,,,,,,3.17578125,2.27734375,-1.23046875,2.267578125,1.423828125,-0.3125,3.50390625,-6.8046875,0.91796875,1.0
4229793,,,,,,,,2.921875,8.265625,-3.171875,2.25390625,1.486328125,0.603515625,3.16015625,-0.71875,-0.578125,1.0
4229794,,,,,,,,3.015625,8.9375,-3.296875,1.96484375,1.34765625,0.615234375,3.16015625,0.0078125,-0.5,1.0
4229795,,,,,,,,2.4140625,10.921875,-3.546875,1.849609375,1.126953125,0.47265625,2.47265625,2.0390625,-0.578125,1.0
4229796,,,,,,,,2.4375,11.17578125,-3.74609375,1.857421875,0.869140625,0.40625,2.43359375,2.34765625,-0.61328125,1.0
4229797,,,,,,,,2.171875,11.25,-4.33984375,1.822265625,0.75,0.4375,2.125,2.46484375,-1.11328125,1.0
4229798,,,,,,,,2.46484375,10.4296875,-5.125,1.677734375,0.521484375,0.619140625,2.3515625,1.6953125,-1.7265625,1.0
4229799,,,,,,,,2.76171875,9.83203125,-5.6015625,1.65625,0.462890625,0.76171875,2.6171875,1.12109375,-2.1484375,1.0
4229800,36.013196,129.3191515,49.7169883904207,88.32369407972277,4.2,51.0,0.0,3.9296875,6.6484375,-6.76171875,1.416015625,0.341796875,0.96484375,3.2734375,-12.4375,2.71875,1.0
4229801,,,,,,,,3.640625,4.671875,-5.69140625,1.30078125,0.333984375,0.84375,3.2734375,-3.90234375,-1.91796875,1.0
4229802,,,,,,,,3.671875,4.6484375,-5.74609375,1.2421875,0.35546875,0.62109375,2.62109375,-3.515625,-1.49609375,1.0
4229803,,,,,,,,0.984375,6.96875,-3.73828125,1.185546875,0.3515625,0.32421875,-0.59765625,0.125,0.7265625,1.0
4229804,,,,,,,,-0.65234375,10.19921875,-3.28515625,0.802734375,0.388671875,0.25,-1.66796875,3.26953125,0.7265625,1.0
4229805,,,,,,,,-1.20703125,12.15234375,-3.46875,0.04296875,0.314453125,0.16796875,-1.8203125,4.26171875,0.83984375,1.0
4229806,,,,,,,,-1.21875,12.60546875,-3.35546875,-0.3671875,0.26953125,0.072265625,-1.8203125,4.45703125,0.95703125,1.0
4229807,,,,,,,,-1.01171875,12.8828125,-3.0546875,-1.00390625,0.28125,-0.24609375,-0.94140625,4.2578125,1.37890625,1.0
4229808,,,,,,,,0.75,11.86328125,-2.73046875,-1.171875,0.3671875,-0.66015625,0.171875,3.45703125,1.30078125,1.0
4229809,,,,,,,,1.26171875,11.2734375,-2.72265625,-1.109375,0.392578125,-0.85546875,0.70703125,2.84375,1.26171875,1.0
4229810,36.013198333333335,129.31915483333333,50.01748246227519,88.58260069040618,3.9000000000000004,50.0,,1.91015625,9.0078125,-2.75,-0.869140625,0.416015625,-1.16796875,1.43359375,0.546875,1.1484375,1.0
4229811,,,,,,,,1.9765625,6.5,-2.06640625,-0.619140625,0.373046875,-1.25390625,1.5859375,-1.98828125,1.76171875,1.0
4229812,,,,,,,,2.07421875,-1.7578125,-0.375,-0.41796875,0.302734375,-1.09375,1.77734375,-10.26171875,3.40625,1.0
4229813,,,,,,,,2.12109375,-18.94921875,3.6328125,-0.29296875,0.21875,-0.74609375,1.89453125,-27.453125,7.390625,1.0
4229814,,,,,,,,-12.24609375,-53.07421875,19.71484375,-0.28125,0.181640625,-0.306640625,-12.43359375,-61.5859375,23.44140625,1.0
4229815,,,,,,,,-10.75,-22.52734375,11.15625,-0.45703125,0.162109375,0.123046875,-10.9375,-31.0546875,14.859375,1.0
4229816,,,,,,,,-4.4609375,-13.36328125,5.78125,-0.58203125,0.15234375,0.2734375,-4.65625,-21.90234375,9.4609375,1.0
4229817,,,,,,,,6.87890625,-0.8125,-3.12109375,-0.814453125,0.1796875,0.470703125,6.64453125,-9.37890625,0.49609375,1.0
4229818,,,,,,,,14.59375,-5.2265625,-5.2734375,-0.751953125,0.375,0.548828125,14.30859375,-13.8203125,-1.7265625,1.0
4229819,,,,,,,,7.609375,-14.2109375,0.703125,-0.109375,0.7265625,0.6171875,7.2578125,-22.8203125,4.2109375,1.0
4229820,36.013200833333336,129.319158,50.30295163689128,88.86000043390285,3.6,50.0,,6.72265625,-18.09765625,4.12109375,-0.869140625,0.416015625,-1.16796875,1.43359375,0.546875,1.1484375,1.0
4229821,,,,,,,,4.51171875,-15.25390625,4.16015625,-0.75,-0.755859375,-1.345703125,4.15234375,-23.8515625,7.69921875,1.0
4229822,,,,,,,,2.30859375,-8.6328125,-0.60546875,0.05859375,-0.611328125,-4.0,2.19921875,-17.26953125,2.91015625,1.0
4229823,,,,,,,,-0.26953125,-5.09375,-3.1015625,-1.251953125,-0.173828125,-3.25,-0.01953125,-13.7421875,0.3828125,1.0
4229824,,,,,,,,-2.91796875,-4.5625,-1.7109375,-3.490234375,-0.455078125,1.7109375,-2.58984375,-13.36328125,1.4140625,1.0
4229825,,,,,,,,-3.89453125,-1.625,-0.31640625,-2.927734375,-0.642578125,1.556640625,-3.69921875,-10.5234375,2.52734375,1.0
4229826,,,,,,,,-4.51953125,0.4453125,-0.50390625,-2.388671875,-1.1640625,0.25390625,-4.38671875,-8.53515625,2.10546875,1.0
4229827,,,,,,,,-5.265625,3.30859375,-1.93359375,-2.515625,-1.681640625,-0.078125,-5.34375,-4.5859375,0.19140625,1.0
4229828,,,,,,,,-5.87890625,5.6328125,-2.265625,-2.662109375,-1.79296875,0.611328125,-5.46484375,-1.90625,-0.69140625,1.0
4229829,,,,,,,,-5.1875,9.53515625,-2.81640625,-2.20703125,-1.59765625,1.03515625,-5.0390625,0.31640625,-1.11328125,1.0
4229830,36.01320283333334,129.3191605,50.528322009228845,89.08192021879003,3.7,48.0,,-4.93359375,10.875,-1.77734375,-1.994140625,-1.470703125,0.791015625,-4.84375,1.6171875,-0.26953125,1.0
4229831,,,,,,,,-4.47265625,10.71484375,-1.359375,-2.115234375,-1.185546875,0.48828125,-4.42578125,1.42578125,-0.0390625,1.0
4229832,,,,,,,,-4.34375,10.30859375,-1.359375,-2.19140625,-1.017578125,0.4609375,-4.3125,1.00390625,-0.15625,1.0
4229833,,,,,,,,-4.5859375,8.05078125,-1.67578125,-1.990234375,-0.556640625,0.615234375,-4.62109375,-1.29296875,-0.76953125,1.0
4229834,,,,,,,,-4.59375,7.0546875,-1.80859375,-1.84765625,-0.46875,0.712890625,-4.65625,-2.2890625,-0.99609375,1.0
4229835,,,,,,,,-3.17578125,4.734375,-1.30078125,-1.5546875,-0.41015625,0.880859375,-3.31640625,-4.62890625,-0.65234375,1.0
4229836,,,,,,,,-2.28515625,5.76953125,-0.25,-0.876953125,-0.349609375,0.947265625,-2.55078125,-3.5859375,0.2265625,1.0
4229837,,,,,,,,-0.28125,8.14453125,0.3359375,-0.12890625,-0.27734375,0.912109375,-0.6328125,-1.21484375,0.765625,1.0
4229838,,,,,,,,1.0,11.7734375,-0.65625,0.66015625,-0.177734375,0.880859375,0.5546875,2.42578125,-0.1953125,1.0
4229839,,,,,,,,1.3359375,12.609375,-0.53125,1.015625,-0.130859375,0.8515625,0.859375,3.265625,-0.0390625,1.0
4229840,36.013205,129.3191635,50.79876658758991,89.3223334759791,3.8000000000000003,47.0,,1.0,14.01171875,0.0390625,-1.994140625,-1.470703125,0.791015625,0.4375,4.68359375,0.6484375,1.0
4229841,,,,,,,,-0.4921875,14.36328125,0.41796875,1.59765625,-0.228515625,0.298828125,-1.1328125,5.06640625,1.26171875,1.0
4229842,,,,,,,,-1.328125,13.55078125,-0.21875,1.4375,-0.32421875,-0.017578125,-1.9765625,4.26171875,0.6875,1.0
4229843,,,,,,,,-1.05859375,12.2265625,-1.09375,1.07421875,-0.361328125,-0.763671875,-1.66796875,2.9609375,-0.078125,1.0
4229844,,,,,,,,-0.71484375,11.6875,-1.1796875,0.85546875,-0.35546875,-1.05859375,-1.28515625,2.42578125,-0.1171875,1.0
4229845,,,,,,,,0.0703125,9.6484375,-1.1640625,-0.037109375,-0.328125,-1.26171875,-0.328125,0.390625,-0.0390625,1.0
4229846,,,,,,,,0.57421875,5.27734375,-0.26171875,-0.501953125,-0.3046875,-1.013671875,0.28515625,-3.97265625,0.83984375,1.0
4229847,,,,,,,,0.91796875,2.5859375,0.3359375,-0.408203125,-0.283203125,-0.865234375,0.66796875,-6.66015625,1.4140625,1.0
4229848,,,,,,,,3.96484375,-25.26953125,2.98046875,0.392578125,-0.23046875,-0.44140625,3.80859375,-34.50390625,4.05859375,1.0
4229849,,,,,,,,8.46875,-33.32421875,5.80078125,0.6484375,-0.21875,-0.296875,8.328125,-42.546875,6.89453125,1.0
4229850,36.013207,129.31916683333333,51.09926080879066,89.54425371049493,3.5,51.0,,2.671875,-19.75390625,11.03515625,1.39453125,-0.267578125,0.2421875,2.546875,-28.94921875,12.33203125,1.0
4229851,,,,,,,,-3.42578125,-6.2578125,-0.8203125,1.4453125,-0.228515625,0.455078125,-3.58203125,-15.43359375,0.609375,1.0
4229852,,,,,,,,-5.09765625,-10.40234375,-1.1640625,1.15625,-0.091796875,0.693359375,-5.30859375,-19.5625,0.3828125,1.0
4229853,,,,,,,,-4.328125,-10.875,-0.6015625,0.755859375,-0.0234375,0.943359375,-4.578125,-20.0234375,0.9921875,1.0
4229854,,,,,,,,-1.140625,-15.0234375,3.28515625,-0.296875,0.52734375,1.677734375,-1.515625,-24.1640625,4.90234375,1.0
4229855,,,,,,,,1.3046875,-13.8203125,3.5703125,0.4140625,0.251953125,-0.6875,0.78125,-22.9765625,5.1328125,1.0
4229856,,,,,,,,1.265625,-10.05859375,1.78125,0.837890625,0.033203125,-4.00390625,0.9765625,-19.21875,3.40625,1.0
4229857,,,,,,,,1.65625,-6.625,-0.94140625,1.712890625,0.0,-3.62890625,1.7421875,-15.77734375,0.80078125,1.0
4229858,,,,,,,,2.640625,-6.74609375,-0.4140625,2.35546875,0.369140625,-2.296875,2.8515625,-15.88671875,1.4140625,1.0
4229859,,,,,,,,2.859375,-5.4140625,0.48046875,2.890625,0.84375,0.009765625,3.15625,-14.5078125,2.56640625,1.0
4229860,36.01320916666667,129.31916983333335,51.36970536184811,89.7846669872452,3.5,51.0,,3.1171875,-2.99609375,1.20703125,2.15625,1.294921875,-0.21875,3.3515625,-12.015625,3.63671875,1.0
4229861,,,,,,,,3.58203125,1.0234375,-1.12109375,2.123046875,1.48828125,-0.72265625,3.84765625,-7.921875,1.60546875,1.0
4229862,,,,,,,,3.87890625,3.25390625,-2.1328125,2.271484375,1.5625,-0.443359375,4.15234375,-5.65625,0.6875,1.0
4229863,,,,,,,,4.609375,6.33984375,-3.04296875,2.330078125,1.701171875,0.322265625,4.84765625,-2.51953125,-0.00390625,1.0
4229864,,,,,,,,4.25,9.2265625,-2.921875,1.923828125,1.63671875,0.6171875,4.38671875,0.4296875,0.3046875,1.0
4229865,,,,,,,,3.87890625,10.4453125,-3.18359375,1.529296875,1.474609375,0.40625,3.92578125,1.6953125,0.19140625,1.0
4229866,,,,,,,,3.9609375,10.68359375,-3.25390625,1.439453125,1.3828125,0.255859375,3.9609375,1.96484375,0.19140625,1.0
4229867,,,,,,,,3.6640625,11.45703125,-3.79296875,1.3515625,1.173828125,0.119140625,3.62109375,2.76953125,-0.23046875,1.0
4229868,,,,,,,,3.34375,11.78515625,-4.30078125,1.298828125,0.943359375,0.310546875,3.234375,3.15234375,-0.61328125,1.0
4229869,,,,,,,,3.26171875,11.76171875,-4.76953125,1.267578125,0.826171875,0.49609375,3.12109375,3.1484375,-1.03515625,1.0
4229870,36.013211500000004,129.31917366666667,51.71527365707423,90.0435739204684,4.3,50.0,,3.6171875,8.5546875,-7.171875,0.888671875,0.46875,0.9765625,3.3515625,0.0078125,-3.296875,1.0
4229871,,,,,,,,3.03515625,5.34375,-6.875,0.720703125,0.396484375,0.724609375,2.58203125,-3.1328125,-2.875,1.0
4229872,,,,,,,,1.20703125,5.3125,-5.62890625,0.609375,0.314453125,0.443359375,0.70703125,-3.13671875,-1.57421875,1.0
4229873,,,,,,,,-1.23828125,6.6328125,-3.64453125,0.49609375,0.2734375,0.2265625,-1.78515625,-1.7890625,0.45703125,1.0
4229874,,,,,,,,-1.8046875,7.34375,-3.19921875,0.4296875,0.2578125,0.162109375,-2.359375,-1.0625,0.91796875,1.0
4229875,,,,,,,,-3.3125,9.48046875,-1.4140625,0.09375,0.291015625,0.166015625,-3.890625,1.08203125,2.71875,1.0
4229876,,,,,,,,-3.86328125,10.5078125,-0.12890625,-0.578125,0.322265625,0.3046875,-4.46484375,2.1171875,3.98046875,1.0
4229877,,,,,,,,-3.6875,10.8671875,-0.40234375,-1.029296875,0.30078125,0.373046875,-4.31640625,2.4609375,3.67578125,1.0
4229878,,,,,,,,-1.76171875,11.2578125,-2.65234375,-1.955078125,0.28125,0.41796875,-2.43359375,2.80859375,1.30078125,1.0
4229879,,,,,,,,-0.328125,11.4140625,-3.66796875,-2.314453125,0.302734375,0.34375,-1.015625,2.92578125,0.19140625,1.0
4229880,36.013214166666664,129.31917716666666,52.03079216773915,90.33946710494229,4.0,50.0,,1.37890625,10.6953125,-4.21875,0.888671875,0.46875,0.9765625,3.3515625,0.0078125,-3.296875,1.0
4229881,,,,,,,,2.3359375,9.43359375,-3.41015625,-2.265625,0.412109375,-0.349609375,1.62890625,0.77734375,-0.00390625,1.0
4229882,,,,,,,,3.0625,4.4375,-1.2890625,-1.41796875,0.349609375,-0.787109375,2.390625,-4.28125,1.953125,1.0
4229883,,,,,,,,3.4921875,0.8125,-0.484375,-0.798828125,0.326171875,-1.0078125,2.8515625,-7.92578125,2.71875,1.0
4229884,,,,,,,,0.44921875,-23.92578125,6.9453125,0.12109375,0.255859375,-1.3046875,-0.09765625,-32.66796875,10.109375,1.0
4229885,,,,,,,,-10.2890625,-44.01171875,17.49609375,0.140625,0.080078125,-1.1875,-10.671875,-52.734375,20.68359375,1.0
4229886,,,,,,,,-13.4453125,-31.515625,11.98046875,-0.255859375,0.04296875,-0.8359375,-13.734375,-40.25,15.16796875,1.0
4229887,,,,,,,,-1.3515625,-5.75,0.421875,-0.775390625,0.029296875,-0.419921875,-1.59375,-14.51171875,3.5625,1.0
4229888,,,,,,,,1.23828125,-4.39453125,-2.22265625,-1.046875,0.044921875,-0.1875,1.01171875,-13.1640625,0.87890625,1.0
4229889,,,,,,,,9.98828125,-10.32421875,1.3359375,-1.236328125,0.3359375,0.47265625,9.74609375,-19.140625,4.328125,1.0
4229890,36.0132165,129.31918033333335,52.31626133383719,90.59837370651144,3.7,51.0,,7.140625,-15.171875,3.2890625,0.888671875,0.46875,0.9765625,3.3515625,0.0078125,-3.296875,1.0
4229891,,,,,,,,4.35546875,-15.01953125,1.46484375,-0.279296875,-0.67578125,-0.021484375,3.92578125,-23.8515625,4.40234375,1.0
4229892,,,,,,,,3.5546875,-11.171875,-0.08203125,-0.908203125,-0.54296875,-1.18359375,3.15625,-20.0234375,2.83203125,1.0
4229893,,,,,,,,1.8125,-6.99609375,-1.12890625,-0.42578125,-0.470703125,-3.6796875,1.6640625,-15.8828125,1.72265625,1.0
4229894,,,,,,,,-1.08984375,-5.83984375,-0.30859375,-2.162109375,-0.099609375,-1.19140625,-0.82421875,-14.77734375,2.41015625,1.0
4229895,,,,,,,,-2.5546875,-2.3828125,0.22265625,-2.78515625,-0.814453125,0.84765625,-2.359375,-11.48828125,2.41015625,1.0
4229896,,,,,,,,-3.48828125,-1.1640625,-1.23046875,-2.4453125,-0.98828125,0.40234375,-3.31640625,-10.30078125,0.83984375,1.0
4229897,,,,,,,,-5.3125,3.25,-3.05078125,-2.19921875,-1.486328125,-0.06640625,-5.1171875,-5.93359375,-1.19140625,1.0
4229898,,,,,,,,-5.82421875,5.7109375,-2.484375,-2.5,-1.75390625,0.369140625,-5.609375,-3.515625,-0.84375,1.0
4229899,,,,,,,,-5.93359375,6.81640625,-1.75390625,-2.619140625,-1.828125,0.662109375,-5.7265625,-2.44140625,-0.23046875,1.0
4229900,36.01321866666667,129.31918316666668,52.571681043925395,90.83878693051739,3.6,49.0,0.0,-5.9921875,9.84375,-0.39453125,0.888671875,0.46875,0.9765625,-5.84375,0.546875,0.87890625,1.0
4229901,,,,,,,,-5.79296875,11.22265625,0.03125,-2.267578125,-1.7890625,0.61328125,-5.69140625,1.88671875,1.0703125,1.0
4229902,,,,,,,,-5.34765625,11.3984375,0.12109375,-2.087890625,-1.6640625,0.431640625,-5.26953125,2.0390625,0.95703125,1.0
4229903,,,,,,,,-5.140625,11.4921875,0.09765625,-2.076171875,-1.544921875,0.51171875,-5.078125,2.1171875,0.83984375,1.0
4229904,,,,,,,,-4.625,10.85546875,-0.55078125,-2.052734375,-1.220703125,0.845703125,-4.6171875,1.46484375,-0.00390625,1.0
4229905,,,,,,,,-4.18359375,7.68359375,-0.94921875,-1.7578125,-0.619140625,1.15234375,-4.38671875,-1.71484375,-0.76953125,1.0
4229906,,,,,,,,-2.703125,5.15625,-0.8046875,-1.2109375,-0.427734375,0.75390625,-3.046875,-4.24609375,-0.84375,1.0
4229907,,,,,,,,-1.69140625,5.72265625,-0.22265625,-0.71875,-0.37890625,0.490234375,-2.08984375,-3.6640625,-0.34765625,1.0
4229908,,,,,,,,-0.44140625,7.1015625,0.15234375,-0.38671875,-0.376953125,0.421875,-0.86328125,-2.29296875,-0.00390625,1.0
4229909,,,,,,,,0.484375,8.7421875,0.15234375,0.326171875,-0.302734375,0.376953125,0.015625,-0.640625,-0.00390625,1.0
4229910,36.01322116666667,129.31918616666664,52.84212528717288,91.11618666717733,3.8000000000000003,47.0,,0.83203125,10.9609375,-0.25390625,0.994140625,-0.18359375,0.431640625,0.32421875,1.578125,-0.34765625,1.0
4229911,,,,,,,,0.6875,12.10546875,-0.40234375,1.48046875,-0.091796875,0.4765625,0.1328125,2.73046875,-0.38671875,1.0
4229912,,,,,,,,0.07421875,12.9765625,-0.2890625,1.634765625,-0.1171875,0.412109375,-0.51953125,3.61328125,-0.1171875,1.0
4229913,,,,,,,,-0.3984375,13.15234375,-0.4296875,1.42578125,-0.255859375,0.041015625,-1.015625,3.80078125,-0.1171875,1.0
4229914,,,,,,,,-1.06640625,12.53125,-0.42578125,1.03515625,-0.306640625,-0.494140625,-1.66796875,3.19140625,-0.00390625,1.0
4229915,,,,,,,,-1.25390625,11.375,-0.2421875,0.69921875,-0.322265625,-0.8828125,-1.78515625,2.04296875,0.265625,1.0
4229916,,,,,,,,-1.0703125,9.26171875,0.36328125,0.35546875,-0.32421875,-1.0390625,-1.51953125,-0.06640625,0.91796875,1.0
4229917,,,,,,,,-0.97265625,4.76953125,2.4140625,0.064453125,-0.314453125,-1.05078125,-1.32421875,-4.55078125,2.984375,1.0
4229918,,,,,,,,-0.69140625,-2.70703125,5.05859375,0.017578125,-0.30859375,-1.001953125,-0.94140625,-12.01953125,5.62890625,1.0
4229919,,,,,,,,2.640625,-18.0,6.69140625,0.185546875,-0.3046875,-0.884765625,2.46875,-27.30859375,7.27734375,1.0
4229920,36.01322316666666,129.31918966666666,53.15764417209771,91.33810706214572,3.6,51.0,,16.3984375,-50.0703125,18.234375,0.533203125,-0.275390625,-0.66796875,0.32421875,1.578125,-0.34765625,1.0
4229921,,,,,,,,5.15234375,-22.765625,14.44140625,0.861328125,-0.240234375,-0.4609375,5.11328125,-32.05859375,15.12890625,1.0
4229922,,,,,,,,0.921875,-11.38671875,6.97265625,0.94140625,-0.2421875,-0.390625,0.8984375,-20.67578125,7.69921875,1.0
4229923,,,,,,,,-4.71875,-7.52734375,-0.59375,0.955078125,-0.12890625,-0.25,-4.6953125,-16.8046875,0.265625,1.0
4229924,,,,,,,,-3.70703125,-10.32421875,2.22265625,0.326171875,0.25390625,1.40234375,-3.73828125,-19.6015625,3.21484375,1.0
4229925,,,,,,,,-1.96484375,-12.12890625,4.15625,-0.556640625,0.279296875,1.837890625,-2.16796875,-21.3984375,5.1328125,1.0
4229926,,,,,,,,-0.33203125,-10.55859375,1.2109375,-0.05078125,0.001953125,0.603515625,-0.59765625,-19.828125,2.1796875,1.0
4229927,,,,,,,,2.9765625,-7.3359375,0.453125,1.3359375,0.037109375,-3.734375,2.8515625,-16.62109375,1.4921875,1.0
4229928,,,,,,,,3.47265625,-6.8984375,1.58203125,1.994140625,0.0078125,-4.294921875,3.76953125,-16.15625,2.79296875,1.0
4229929,,,,,,,,3.0703125,-7.234375,1.91015625,3.001953125,0.4375,-1.251953125,3.6171875,-16.4609375,3.33203125,1.0
4229930,36.013225166666665,129.31919266666668,53.42808872354374,91.56002719504578,3.6,52.0,,2.14453125,-5.0625,1.23046875,3.03125,1.009765625,0.552734375,2.69921875,-14.2421875,2.94921875,1.0
4229931,,,,,,,,2.3984375,-1.0625,-1.0234375,2.439453125,1.2421875,-0.302734375,2.890625,-10.18359375,1.0703125,1.0
4229932,,,,,,,,2.89453125,0.0234375,-1.9375,2.53515625,1.2890625,-0.353515625,3.38671875,-9.07421875,0.265625,1.0
4229933,,,,,,,,4.51953125,2.65234375,-3.19921875,2.755859375,1.3046875,0.1015625,4.99609375,-6.38671875,-0.73046875,1.0
4229934,,,,,,,,4.97265625,3.30859375,-3.0546875,2.732421875,1.359375,0.298828125,5.41796875,-5.69921875,-0.4609375,1.0
4229935,,,,,,,,4.42578125,6.43359375,-2.3671875,2.2734375,1.42578125,0.23046875,4.73046875,-2.44140625,0.6875,1.0
4229936,,,,,,,,3.484375,8.015625,-3.375,2.275390625,1.30078125,0.189453125,3.734375,-0.796875,-0.1171875,1.0
4229937,,,,,,,,3.09375,9.3203125,-3.98046875,2.287109375,1.224609375,0.275390625,3.31640625,0.546875,-0.61328125,1.0
4229938,,,,,,,,2.3671875,10.7734375,-5.09765625,2.11328125,1.03125,0.62109375,2.51171875,2.078125,-1.53515625,1.0
4229939,,,,,,,,2.328125,10.93359375,-5.34375,1.892578125,0.927734375,0.78125,2.4296875,2.26953125,-1.6875,1.0
4229940,36.01322733333333,129.31919583333334,53.71355791707022,91.80044063496607,4.0,49.0,,2.35546875,10.640625,-5.71484375,3.03125,1.009765625,0.552734375,2.69921875,-14.2421875,2.94921875,1.0
4229941,,,,,,,,2.6484375,9.109375,-6.11328125,1.017578125,0.568359375,0.798828125,2.546875,0.546875,-2.22265625,1.0
4229942,,,,,,,,2.76171875,8.203125,-6.16015625,0.931640625,0.521484375,0.716796875,2.62109375,-0.3359375,-2.22265625,1.0
4229943,,,,,,,,2.94921875,6.171875,-5.625,0.921875,0.486328125,0.599609375,2.73828125,-2.328125,-1.609375,1.0
4229944,,,,,,,,1.640625,6.01953125,-3.98046875,0.822265625,0.482421875,0.578125,1.359375,-2.44140625,0.11328125,1.0
4229945,,,,,,,,0.359375,6.70703125,-3.0,0.578125,0.50390625,0.56640625,0.015625,-1.7109375,1.1484375,1.0
4229946,,,,,,,,-0.7578125,7.92578125,-2.40234375,0.400390625,0.5,0.556640625,-1.1328125,-0.48828125,1.7578125,1.0
4229947,,,,,,,,-1.54296875,9.59375,-2.0,-0.10546875,0.447265625,0.513671875,-2.01171875,1.1953125,2.18359375,1.0
4229948,,,,,,,,-0.4453125,13.13671875,-3.17578125,-0.810546875,0.4453125,0.220703125,-1.015625,4.71875,0.91796875,1.0
4229949,,,,,,,,1.0625,13.41796875,-3.8359375,-0.9375,0.4765625,0.017578125,0.4765625,4.984375,0.2265625,1.0
4229950,36.0132295,129.31919916666666,54.01405186850835,92.04085417711137,3.9000000000000004,51.0,,2.05859375,12.41796875,-3.97265625,3.03125,1.009765625,0.552734375,1.47265625,3.953125,-0.00390625,1.0
4229951,,,,,,,,1.6953125,9.51953125,-3.109375,-0.84765625,0.609375,-1.26171875,1.203125,1.00390625,0.7265625,1.0
4229952,,,,,,,,1.61328125,6.65625,-1.43359375,-0.66015625,0.58984375,-1.41796875,1.16796875,-1.8671875,2.3671875,1.0
4229953,,,,,,,,1.2421875,1.76953125,-0.46484375,-0.16796875,0.4921875,-1.529296875,0.8984375,-6.76953125,3.29296875,1.0
4229954,,,,,,,,-5.12109375,-35.55078125,11.953125,-0.205078125,0.287109375,-1.068359375,-5.30859375,-44.078125,15.703125,1.0
4229955,,,,,,,,-12.69140625,-57.24609375,18.7734375,-0.6484375,0.19140625,-0.48828125,-12.81640625,-65.80078125,22.484375,1.0
4229956,,,,,,,,-16.14453125,-38.4296875,9.3828125,-0.830078125,0.181640625,-0.197265625,-16.26171875,-46.9921875,13.0625,1.0
4229957,,,,,,,,-5.06640625,-10.8125,4.48828125,-1.005859375,0.19921875,0.251953125,-5.19140625,-19.41796875,8.08203125,1.0
4229958,,,,,,,,8.5,-5.41796875,-4.0078125,-1.0546875,0.23828125,0.556640625,8.328125,-14.046875,-0.5,1.0
4229959,,,,,,,,10.515625,-8.734375,-2.96484375,-0.939453125,0.2734375,0.646484375,10.3203125,-17.3828125,0.49609375,1.0
4229960,36.01323216666666,129.31920266666665,54.329570228175555,92.33674744406784,3.7,50.0,,9.20703125,-16.44140625,2.67578125,3.03125,1.009765625,0.552734375,1.47265625,3.953125,-0.00390625,1.0
4229961,,,,,,,,8.28515625,-16.671875,1.84375,1.43359375,-0.064453125,0.474609375,7.91015625,-25.31640625,5.359375,1.0
4229962,,,,,,,,6.63671875,-14.11328125,0.3125,-0.00390625,-0.158203125,-0.470703125,6.26171875,-22.7421875,3.8671875,1.0
4229963,,,,,,,,1.35546875,-8.39453125,-0.12890625,-1.212890625,-0.052734375,-3.298828125,1.16796875,-17.0703125,3.33203125,1.0
4229964,,,,,,,,-1.6796875,-5.55078125,-1.4140625,-1.294921875,-0.19140625,-3.2265625,-1.5546875,-14.27734375,1.953125,1.0
4229965,,,,,,,,-1.8046875,-3.8359375,-1.86328125,-2.595703125,-0.224609375,0.4140625,-1.5546875,-12.6328125,1.33984375,1.0
4229966,,,,,,,,-2.0703125,-1.49609375,-2.3671875,-2.7578125,-0.58203125,1.552734375,-1.859375,-10.328125,0.7265625,1.0
4229967,,,,,,,,-3.59375,0.51953125,-3.10546875,-2.484375,-0.89453125,1.34375,-3.5078125,-8.41796875,-0.26953125,1.0
4229968,,,,,,,,-5.27734375,1.5,-1.83203125,-2.1328125,-1.142578125,0.248046875,-5.23046875,-7.5,0.80078125,1.0
4229969,,,,,,,,-5.63671875,2.14453125,-1.09375,-2.35546875,-1.296875,0.001953125,-5.57421875,-6.8828125,1.453125,1.0
4229970,36.01323433333334,129.31920566666668,54.60001460663348,92.57716082175679,4.0,48.0,,-5.546875,7.7734375,-2.03125,-2.376953125,-1.763671875,0.66796875,-5.4609375,-1.4453125,-0.1953125,1.0
4229971,,,,,,,,-5.1171875,9.88671875,-2.1171875,-2.20703125,-1.619140625,0.83984375,-5.08203125,0.62109375,-0.5,1.0
4229972,,,,,,,,-4.86328125,11.09765625,-2.046875,-2.17578125,-1.484375,0.962890625,-4.84375,1.80859375,-0.5390625,1.0
4229973,,,,,,,,-4.625,12.125,-1.4296875,-2.0703125,-1.201171875,1.091796875,-4.6953125,2.8046875,-0.1171875,1.0
4229974,,,,,,,,-4.625,11.8359375,-1.4140625,-2.025390625,-1.03515625,1.0078125,-4.73828125,2.5,-0.1953125,1.0
4229975,,,,,,,,-4.77734375,8.2109375,-1.9375,-1.93359375,-0.787109375,0.6640625,-4.96484375,-1.140625,-0.921875,1.0
4229976,,,,,,,,-4.66015625,7.26953125,-1.58203125,-1.8515625,-0.67578125,0.44140625,-4.8828125,-2.09765625,-0.73046875,1.0
4229977,,,,,,,,-2.28125,6.44921875,-0.25,-1.1484375,-0.501953125,0.814453125,-2.625,-2.9375,0.3046875,1.0
4229978,,,,,,,,0.1640625,7.25390625,-0.81640625,-0.759765625,-0.46484375,0.916015625,-0.2109375,-2.1328125,-0.30859375,1.0
4229979,,,,,,,,1.4609375,8.3203125,-1.328125,0.306640625,-0.28515625,1.0078125,0.9375,-1.06640625,-0.84375,1.0
4229980,36.01323683333333,129.31920916666667,54.9155330425143,92.85456090337492,4.2,48.0,,2.3125,9.765625,-1.61328125,0.580078125,-0.2421875,1.041015625,1.74609375,0.390625,-1.11328125,1.0
4229981,,,,,,,,2.44921875,11.015625,-1.26953125,1.0625,-0.20703125,1.11328125,1.77734375,1.65625,-0.69140625,1.0
4229982,,,,,,,,1.25,12.02734375,-0.7734375,1.404296875,-0.28125,0.900390625,0.4765625,2.6875,-0.078125,1.0
4229983,,,,,,,,0.74609375,12.2109375,-0.72265625,1.44921875,-0.353515625,0.646484375,-0.05859375,2.8828125,0.03515625,1.0
4229984,,,,,,,,-0.91796875,12.04296875,-0.85546875,1.306640625,-0.435546875,-0.087890625,-1.74609375,2.7265625,0.03515625,1.0
4229985,,,,,,,,-1.109375,11.0234375,-0.95703125,0.9765625,-0.458984375,-0.72265625,-1.90234375,1.734375,0.03515625,1.0
4229986,,,,,,,,-1.04296875,10.01953125,-0.91796875,0.546875,-0.478515625,-1.052734375,-1.7421875,0.73828125,0.15234375,1.0
4229987,,,,,,,,-0.953125,8.5546875,-0.22265625,0.0234375,-0.50390625,-1.138671875,-1.5546875,-0.71875,0.87890625,1.0
4229988,,,,,,,,-1.328125,7.25390625,1.01953125,-0.298828125,-0.494140625,-1.1015625,-1.8203125,-2.01953125,2.10546875,1.0
4229989,,,,,,,,-2.92578125,4.6015625,6.59765625,-0.19140625,-0.4765625,-0.986328125,-3.31640625,-4.6640625,7.66015625,1.0
4229990,36.01323883333334,129.31921316666666,55.27612611647332,93.07648165721432,3.9000000000000004,54.0,,2.3125,9.765625,-1.61328125,0.341796875,-0.419921875,-0.71875,2.546875,-22.703125,6.01171875,1.0
4229991,,,,,,,,7.4609375,-22.6796875,6.765625,0.62109375,-0.380859375,-0.572265625,18.82421875,-57.1796875,13.75,1.0
4229992,,,,,,,,19.65625,-57.2421875,17.62109375,0.66796875,-0.32421875,-0.505859375,10.66796875,-38.03515625,20.53125,1.0
4229993,,,,,,,,4.36328125,-13.46484375,9.7421875,0.595703125,-0.2109375,-0.451171875,-0.48046875,-15.54296875,5.859375,1.0
