time,latitude,longitude,enu_x,enu_y,speed,course,ecg,accX,accY,accZ,gyrX,gyrY,gyrZ,eulR,eulP,eulY,validity
4257190,36.01302016666667,129.31891166666668,28.09639612542737,68.81326464564953,3.6,48.0,,0.265625,13.51171875,-7.65234375,-0.384765625,0.544921875,0.70703125,-1.4375,6.17578125,-1.83984375,1.0
4257191,,,,,,,,0.5859375,13.09765625,-6.7265625,-0.23828125,0.787109375,-0.083984375,-1.171875,5.75390625,-0.9609375,1.0
4257192,,,,,,,,0.671875,11.15234375,-5.55078125,-0.1484375,0.896484375,-0.66015625,-1.09375,3.80078125,0.19140625,1.0
4257193,,,,,,,,1.27734375,6.08203125,-3.109375,-0.142578125,0.9375,-1.75390625,-0.44140625,-1.29296875,2.60546875,1.0
4257194,,,,,,,,1.60546875,2.796875,-2.09765625,-0.234375,0.873046875,-2.1171875,-0.05859375,-4.5859375,3.59765625,1.0
4257195,,,,,,,,0.13671875,-21.58984375,11.3671875,-0.421875,0.7578125,-2.24609375,-1.40234375,-29.0234375,17.0078125,1.0
4257196,,,,,,,,-1.09765625,-46.21875,17.07421875,-0.634765625,0.65234375,-1.427734375,-2.47265625,-53.734375,22.63671875,1.0
4257197,,,,,,,,-3.45703125,-37.62890625,7.1015625,-0.640625,0.474609375,-0.771484375,-4.76953125,-45.1875,12.6015625,1.0
4257198,,,,,,,,2.546875,-6.01171875,-0.94921875,-0.162109375,0.2734375,0.3984375,1.2421875,-13.625,4.48046875,1.0
4257199,,,,,,,,3.7578125,-6.515625,-4.6640625,0.1171875,0.21875,0.83984375,2.4296875,-14.12890625,0.765625,1.0
4257200,36.013022500000005,129.31891516666667,28.41191631220081,69.07217055759706,3.7,50.0,0.0,12.05078125,-11.21484375,-2.765625,-0.384765625,0.544921875,0.70703125,-1.4375,6.17578125,-1.83984375,1.0
4257201,,,,,,,,10.12890625,-16.875,2.47265625,1.19140625,-0.1640625,1.78125,8.59765625,-24.39453125,7.96484375,1.0
4257202,,,,,,,,6.921875,-17.21484375,0.2890625,0.529296875,-0.462890625,0.962890625,5.3046875,-24.65625,5.859375,1.0
4257203,,,,,,,,3.515625,-13.21484375,-2.0546875,-1.109375,-0.3046875,-3.19921875,2.046875,-20.75,3.4453125,1.0
4257204,,,,,,,,1.11328125,-10.046875,-3.05078125,-1.0625,-0.875,-2.720703125,-0.05859375,-17.6875,2.37109375,1.0
4257205,,,,,,,,-0.1484375,-6.375,-3.734375,-2.060546875,-0.859375,0.416015625,-1.171875,-14.12890625,1.5703125,1.0
4257206,,,,,,,,-0.7734375,-4.18359375,-4.24609375,-2.58984375,-1.0703125,1.41015625,-1.8203125,-12.0546875,0.87890625,1.0
4257207,,,,,,,,-2.29296875,-1.97265625,-4.03515625,-2.8828125,-1.171875,0.453125,-3.35546875,-9.98828125,0.87890625,1.0
4257208,,,,,,,,-2.9296875,-0.67578125,-3.5625,-3.375,-1.453125,-0.08203125,-3.9296875,-8.83984375,1.109375,1.0
4257209,,,,,,,,-3.63671875,1.6953125,-3.296875,-3.966796875,-1.75390625,-0.005859375,-4.54296875,-6.66015625,1.0703125,1.0
4257210,36.01302483333333,129.31891750000003,28.622262814710872,69.33107613807253,3.6,48.0,,-4.01171875,4.05859375,-3.83203125,-4.1484375,-1.923828125,0.248046875,-1.4375,6.17578125,-1.83984375,1.0
4257211,,,,,,,,-4.55859375,7.2734375,-5.0078125,-3.80859375,-1.955078125,0.501953125,-5.34765625,-1.40625,-1.3046875,1.0
4257212,,,,,,,,-5.0078125,9.16015625,-5.1640625,-3.466796875,-1.89453125,0.693359375,-5.765625,0.35546875,-1.765625,1.0
4257213,,,,,,,,-5.078125,10.484375,-5.05078125,-3.314453125,-1.853515625,0.775390625,-5.84765625,1.6171875,-1.80078125,1.0
4257214,,,,,,,,-4.375,13.375,-2.2265625,-2.904296875,-1.66015625,0.6953125,-5.15625,4.375,0.609375,1.0
4257215,,,,,,,,-3.875,11.30859375,-2.6875,-2.826171875,-1.482421875,0.4375,-4.66015625,2.23046875,-0.1171875,1.0
4257216,,,,,,,,-3.4609375,7.5859375,-3.02734375,-2.890625,-1.271484375,0.25390625,-4.234375,-1.5625,-0.73046875,1.0
4257217,,,,,,,,-3.5859375,6.9140625,-2.28515625,-2.880859375,-1.080078125,0.30078125,-4.3515625,-2.2890625,-0.23046875,1.0
4257218,,,,,,,,-3.65234375,6.82421875,-2.0703125,-2.779296875,-1.013671875,0.42578125,-4.42578125,-2.40234375,-0.15625,1.0
4257219,,,,,,,,-3.69140625,6.515625,-1.64453125,-2.30859375,-0.8515625,0.701171875,-4.5,-2.75,0.03515625,1.0
4257220,36.01302716666667,129.3189205,28.892708537826515,69.58998192240388,3.9000000000000004,47.0,,-3.015625,6.3125,-1.1796875,-4.1484375,-1.923828125,0.248046875,-3.89453125,-2.9765625,0.3046875,1.0
4257221,,,,,,,,-0.36328125,7.61328125,-0.49609375,-0.30078125,-0.568359375,0.787109375,-1.32421875,-1.671875,0.87890625,1.0
4257222,,,,,,,,0.51171875,8.06640625,-0.59375,-0.177734375,-0.544921875,0.826171875,-0.48046875,-1.2109375,0.765625,1.0
4257223,,,,,,,,2.61328125,10.5703125,-1.1171875,0.267578125,-0.17578125,0.765625,1.46875,1.3125,0.2265625,1.0
4257224,,,,,,,,2.375,11.17578125,-0.47265625,0.341796875,-0.146484375,0.6171875,1.203125,1.921875,0.87890625,1.0
4257225,,,,,,,,0.4921875,11.87890625,1.45703125,0.337890625,-0.2734375,0.271484375,-0.7109375,2.65234375,2.828125,1.0
4257226,,,,,,,,-1.22265625,12.1015625,1.9609375,0.333984375,-0.513671875,-0.109375,-2.43359375,2.8828125,3.37109375,1.0
4257227,,,,,,,,-1.59375,12.046875,1.3359375,0.373046875,-0.619140625,-0.3671875,-2.78125,2.84375,2.7578125,1.0
4257228,,,,,,,,-1.6640625,11.38671875,-0.65234375,0.423828125,-0.724609375,-0.91015625,-2.78515625,2.19140625,0.80078125,1.0
4257229,,,,,,,,-2.59765625,9.625,0.58984375,0.44140625,-0.708984375,-1.134765625,-3.65625,0.4296875,2.06640625,1.0
4257230,36.01302916666667,129.3189243333333,29.238278415166384,69.81190155053095,3.7,53.0,,-2.83203125,2.80859375,1.34765625,0.2734375,-0.537109375,-1.5625,-3.69921875,-6.38671875,2.87109375,1.0
4257231,,,,,,,,1.42578125,-9.91796875,1.26171875,0.064453125,-0.564453125,-1.78515625,0.74609375,-19.10546875,2.79296875,1.0
4257232,,,,,,,,8.66796875,-33.24609375,10.86328125,0.322265625,-0.591796875,-1.673828125,8.13671875,-42.4296875,12.41015625,1.0
4257233,,,,,,,,22.2890625,-58.1171875,31.01171875,0.732421875,-0.57421875,-0.92578125,21.890625,-67.296875,32.59765625,1.0
4257234,,,,,,,,10.75,-20.390625,9.91796875,0.6875,-0.513671875,0.076171875,10.3984375,-29.5625,11.56640625,1.0
4257235,,,,,,,,-5.28515625,-8.80859375,4.3984375,1.23046875,-0.404296875,0.71484375,-5.69140625,-17.953125,6.1640625,1.0
4257236,,,,,,,,-4.47265625,-8.265625,0.91015625,1.3125,-0.421875,0.443359375,-4.92578125,-17.3828125,2.79296875,1.0
4257237,,,,,,,,0.1328125,-11.4375,1.19921875,0.615234375,-0.0546875,1.62890625,-0.40625,-20.5234375,3.21484375,1.0
4257238,,,,,,,,2.22265625,-11.14453125,1.12890625,1.19921875,0.375,1.509765625,1.51171875,-20.2109375,3.21484375,1.0
4257239,,,,,,,,4.45703125,-8.79296875,2.58984375,1.046875,0.2421875,-3.185546875,3.80859375,-17.8359375,4.78515625,1.0
4257240,36.01303133333333,129.3189275,29.52374898004843,70.05231419624435,3.4000000000000004,53.0,,5.4609375,-7.63671875,0.50390625,1.419921875,0.123046875,-4.4296875,5.1875,-16.6875,2.79296875,1.0
4257241,,,,,,,,4.5234375,-6.12109375,-0.48046875,3.4453125,0.5703125,-1.900390625,4.5390625,-15.1171875,2.02734375,1.0
4257242,,,,,,,,3.78515625,-5.01953125,-0.7109375,3.7265625,0.923828125,-0.5625,3.84765625,-13.96875,1.953125,1.0
4257243,,,,,,,,2.66015625,-1.4296875,-1.76953125,2.701171875,1.318359375,0.23828125,2.66015625,-10.26171875,1.33984375,1.0
4257244,,,,,,,,2.77734375,1.75,-3.609375,2.890625,1.625,-0.05078125,2.69921875,-6.9609375,-0.15625,1.0
4257245,,,,,,,,3.3984375,3.5078125,-3.75,3.12890625,1.763671875,-0.140625,3.2734375,-5.08984375,-0.0390625,1.0
4257246,,,,,,,,4.21875,6.6640625,-3.08203125,2.865234375,1.900390625,-0.078125,4.0390625,-1.828125,0.87890625,1.0
4257247,,,,,,,,4.6328125,7.6484375,-3.23046875,2.6875,1.921875,-0.048828125,4.42578125,-0.796875,0.83984375,1.0
4257248,,,,,,,,5.5078125,8.8046875,-4.015625,2.501953125,1.89453125,-0.03515625,5.2265625,0.46875,0.265625,1.0
4257249,,,,,,,,5.8515625,9.05859375,-4.421875,2.431640625,1.857421875,-0.005859375,5.53125,0.77734375,-0.0390625,1.0
4257250,36.013033166666666,129.31892983333333,29.73409561267919,70.25574018283676,3.5,50.0,,5.9765625,9.828125,-5.76953125,2.263671875,1.669921875,0.30078125,5.1875,-16.6875,2.79296875,1.0
4257251,,,,,,,,4.69921875,9.94921875,-7.04296875,2.05859375,1.51171875,0.45703125,4.15234375,1.92578125,-2.22265625,1.0
4257252,,,,,,,,4.21875,10.0546875,-7.27734375,1.927734375,1.427734375,0.45703125,3.6171875,2.078125,-2.37890625,1.0
4257253,,,,,,,,3.5390625,9.6640625,-7.40234375,1.693359375,1.251953125,0.2421875,2.85546875,1.7734375,-2.37890625,1.0
4257254,,,,,,,,3.921875,6.9375,-7.265625,1.287109375,0.767578125,-0.134765625,3.16015625,-0.796875,-2.03125,1.0
4257255,,,,,,,,3.76953125,5.84375,-7.0,1.171875,0.66796875,0.00390625,2.9609375,-1.828125,-1.6875,1.0
4257256,,,,,,,,3.12890625,5.23046875,-6.1640625,1.08203125,0.640625,0.13671875,2.31640625,-2.3984375,-0.8046875,1.0
4257257,,,,,,,,2.1796875,5.2109375,-4.96484375,0.775390625,0.666015625,0.38671875,1.3203125,-2.3671875,0.45703125,1.0
4257258,,,,,,,,-0.515625,7.28125,-1.8828125,0.345703125,0.6328125,0.5625,-1.4375,-0.2578125,3.5625,1.0
4257259,,,,,,,,-1.05078125,8.1171875,-1.890625,0.09765625,0.564453125,0.626953125,-2.01171875,0.5859375,3.5625,1.0
4257260,36.01303583333333,129.31893333333335,30.049615577417043,70.55163257013646,4.0,48.0,,-1.94140625,10.375,-3.5546875,2.263671875,1.669921875,0.30078125,-2.96875,2.84375,1.875,1.0
4257261,,,,,,,,-1.21875,12.16015625,-4.89453125,-0.7890625,0.451171875,0.81640625,-2.359375,4.6015625,0.45703125,1.0
4257262,,,,,,,,-0.94921875,12.59765625,-5.046875,-0.9140625,0.587890625,0.701171875,-2.12890625,5.02734375,0.265625,1.0
4257263,,,,,,,,-0.609375,12.63671875,-5.02734375,-1.060546875,0.92578125,0.244140625,-1.859375,5.0234375,0.19140625,1.0
4257264,,,,,,,,-0.625,9.51953125,-2.76171875,-1.087890625,1.05859375,-0.087890625,-1.8984375,1.88671875,2.40625,1.0
4257265,,,,,,,,-0.76953125,5.78125,-0.8984375,-0.82421875,1.12109375,-1.451171875,-1.5546875,-5.578125,4.44140625,1.0
4257266,,,,,,,,-0.296875,2.13671875,-0.57421875,-0.65625,1.046875,-1.861328125,-2.01171875,-18.19140625,12.9453125,1.0
4257267,,,,,,,,3.2265625,-34.73046875,16.2890625,-0.25390625,0.78125,-2.251953125,2.5078125,-56.1484375,23.3671875,1.0
4257268,,,,,,,,3.5390625,-48.3515625,18.4609375,-0.201171875,0.65625,-2.173828125,-3.23828125,-62.05078125,15.4375,1.0
4257269,,,,,,,,-6.82421875,-41.9140625,7.88671875,-0.158203125,0.296875,-1.51171875,-7.22265625,-31.1328125,14.8984375,1.0
4257270,36.013038333333334,129.31893649999998,30.33508596356957,70.82903165769619,3.7,49.0,,-1.94140625,10.375,-3.5546875,2.263671875,1.669921875,0.30078125,5.7265625,-12.82421875,-3.296875,1.0
4257271,,,,,,,,15.99609375,-8.94921875,-4.41796875,1.107421875,-0.009765625,2.80078125,13.38671875,-19.02734375,3.40625,1.0
4257272,,,,,,,,10.67578125,-13.73046875,1.01171875,0.994140625,-0.203125,3.109375,5.1484375,-24.55078125,7.7734375,1.0
4257273,,,,,,,,5.140625,-16.3203125,1.74609375,-0.916015625,-0.541015625,0.158203125,3.234375,-22.51953125,5.515625,1.0
4257274,,,,,,,,3.78515625,-13.21875,-0.57421875,-0.638671875,-0.189453125,-3.017578125,1.85546875,-18.03515625,2.48828125,1.0
4257275,,,,,,,,2.109375,-8.85546875,-2.85546875,-0.349609375,-0.955078125,-3.908203125,0.58984375,-15.390625,1.98828125,1.0
4257276,,,,,,,,1.28515625,-7.5703125,-2.96484375,-1.005859375,-1.306640625,-2.556640625,0.09375,-14.24609375,1.98828125,1.0
4257277,,,,,,,,-0.3203125,-4.84765625,-2.73046875,-2.76953125,-1.15625,1.126953125,-1.62890625,-11.87109375,2.10546875,1.0
4257278,,,,,,,,-2.80078125,-3.03125,-3.2109375,-3.693359375,-1.326171875,1.94140625,-4.84765625,-9.52734375,0.265625,1.0
4257279,,,,,,,,-4.75390625,-0.421875,-4.484375,-3.349609375,-1.34765625,0.640625,-5.69140625,-7.73046875,-0.26953125,1.0
4257280,36.013040333333336,129.3189395,30.605531722668516,71.05095108031071,3.7,50.0,,-1.94140625,10.375,-3.5546875,-3.296875,-1.982421875,0.037109375,-6.453125,-5.19921875,0.07421875,1.0
4257281,,,,,,,,-5.9375,4.03515625,-3.46875,-3.609375,-2.244140625,0.32421875,-6.1484375,-3.8203125,0.19140625,1.0
4257282,,,,,,,,-5.77734375,4.7890625,-3.34765625,-3.591796875,-2.287109375,0.380859375,-5.6875,-2.328125,0.2265625,1.0
4257283,,,,,,,,-5.25390625,7.328125,-3.19140625,-3.52734375,-2.142578125,0.380859375,-5.42578125,-0.48828125,0.19140625,1.0
4257284,,,,,,,,-4.828125,10.69921875,-2.5390625,-3.5,-1.92578125,0.5390625,-5.12109375,1.84765625,0.3828125,1.0
4257285,,,,,,,,-3.9921875,12.78515625,-1.4609375,-3.248046875,-1.662109375,0.828125,-4.27734375,3.83984375,1.1484375,1.0
4257286,,,,,,,,-4.07421875,13.29296875,-1.05078125,-3.060546875,-1.564453125,0.91796875,-4.3828125,4.26171875,1.26171875,1.0
4257287,,,,,,,,-4.04296875,8.84375,-1.82421875,-2.349609375,-1.208984375,0.888671875,-4.46484375,-0.296875,-0.00390625,1.0
4257288,,,,,,,,-3.7890625,7.6796875,-1.83984375,-2.078125,-1.046875,0.841796875,-4.27734375,-1.484375,-0.23046875,1.0
4257289,,,,,,,,-2.8828125,7.6171875,-1.82421875,-1.951171875,-0.9375,0.818359375,-3.39453125,-1.5625,-0.30859375,1.0
4257290,36.01304283333333,129.3189425,30.875977274247184,71.3283501324643,4.0,47.0,,-2.2109375,7.48828125,-1.73046875,-3.296875,-1.982421875,0.037109375,-2.78515625,-1.71484375,-0.38671875,1.0
4257291,,,,,,,,-1.3203125,7.421875,-1.60546875,-1.080078125,-0.7109375,0.5546875,-1.94140625,-1.7890625,-0.38671875,1.0
4257292,,,,,,,,0.91015625,7.8125,-0.890625,-0.384765625,-0.513671875,0.45703125,0.24609375,-1.40625,0.2265625,1.0
4257293,,,,,,,,1.9921875,9.25,-0.21484375,0.109375,-0.361328125,0.5859375,1.28515625,0.046875,0.87890625,1.0
4257294,,,,,,,,1.77734375,10.73046875,-0.0546875,0.576171875,-0.166015625,0.6328125,1.01171875,1.5390625,1.0703125,1.0
4257295,,,,,,,,0.75390625,11.25,0.42578125,0.8203125,-0.109375,0.501953125,-0.05859375,2.078125,1.60546875,1.0
4257296,,,,,,,,0.27734375,11.34765625,0.84765625,0.798828125,-0.123046875,0.396484375,-0.55859375,2.1875,2.06640625,1.0
4257297,,,,,,,,-1.8828125,11.5234375,2.35546875,0.640625,-0.208984375,0.185546875,-2.7421875,2.3828125,3.63671875,1.0
4257298,,,,,,,,-2.609375,11.01171875,2.0859375,0.33203125,-0.361328125,-0.28125,-3.46875,1.88671875,3.40625,1.0
4257299,,,,,,,,-3.20703125,9.2421875,3.796875,0.078125,-0.4453125,-0.9453125,-4.00390625,0.125,5.1328125,1.0
4257300,36.013044666666666,129.31894583333332,31.176472679305,71.53177647172733,3.6,51.0,0.0,-1.953125,1.3125,4.0625,-3.296875,-1.982421875,0.037109375,-2.625,-7.80859375,5.3984375,1.0
4257301,,,,,,,,2.9921875,-9.99609375,3.08984375,0.21484375,-0.283203125,-1.75,2.46875,-19.1015625,4.44140625,1.0
4257302,,,,,,,,16.08203125,-51.94140625,21.8828125,0.2890625,-0.21875,-1.708984375,15.72265625,-61.05078125,23.25,1.0
4257303,,,,,,,,18.38671875,-63.81640625,24.5859375,0.46484375,-0.177734375,-1.490234375,18.09765625,-72.921875,25.96875,1.0
4257304,,,,,,,,3.359375,-8.3203125,7.76953125,1.13671875,-0.033203125,-0.150390625,3.1953125,-17.421875,9.26953125,1.0
4257305,,,,,,,,-7.71875,-3.1328125,3.7734375,1.396484375,0.056640625,0.78515625,-7.9140625,-12.21484375,5.3984375,1.0
4257306,,,,,,,,-8.24609375,-5.8359375,-0.03515625,1.259765625,0.037109375,1.599609375,-7.4140625,-17.34375,1.37890625,1.0
4257307,,,,,,,,-5.59765625,-10.390625,-0.18359375,0.88671875,0.076171875,1.748046875,-4.12109375,-20.7109375,2.06640625,1.0
4257308,,,,,,,,-3.60546875,-11.69921875,0.15234375,1.541015625,0.189453125,1.421875,-3.125,-19.98828125,1.68359375,1.0
4257309,,,,,,,,-0.73828125,-10.3828125,-0.625,1.30078125,0.521484375,-2.033203125,0.58984375,-19.14453125,1.796875,1.0
4257310,36.013046833333334,129.31894933333334,31.491992748599174,71.77218928963634,3.6,53.0,,4.88671875,-9.9296875,1.45703125,1.61328125,0.1796875,-3.708984375,4.8046875,-18.57421875,3.63671875,1.0
4257311,,,,,,,,4.734375,-9.08203125,0.87890625,3.08984375,0.751953125,-0.45703125,4.57421875,-14.734375,1.33984375,1.0
4257312,,,,,,,,4.48046875,-5.81640625,-1.12109375,3.048828125,1.26953125,1.001953125,4.23046875,-11.6328125,0.15234375,1.0
4257313,,,,,,,,4.5234375,-0.640625,-3.66015625,3.251953125,1.451171875,0.859375,4.57421875,-7.8046875,-0.61328125,1.0
4257314,,,,,,,,4.73046875,0.921875,-3.75390625,3.392578125,1.54296875,0.849609375,4.26953125,-6.921875,-0.421875,1.0
4257315,,,,,,,,4.18359375,3.1796875,-3.41015625,3.123046875,1.70703125,0.666015625,3.84765625,-5.39453125,0.15234375,1.0
4257316,,,,,,,,3.94140625,5.71875,-3.65234375,2.736328125,1.76953125,0.41796875,3.5,-2.75,0.15234375,1.0
4257317,,,,,,,,3.99609375,6.546875,-4.109375,2.615234375,1.740234375,0.3203125,3.50390625,-1.8671875,-0.1953125,1.0
4257318,,,,,,,,4.08203125,9.2109375,-5.3828125,2.494140625,1.5859375,0.271484375,3.50390625,0.890625,-1.265625,1.0
4257319,,,,,,,,3.859375,10.57421875,-5.8828125,2.451171875,1.533203125,0.333984375,3.23828125,2.30859375,-1.6484375,1.0
4257320,36.0130485,129.3189515,31.687314555574538,71.95712206179921,3.6,51.0,,3.5703125,12.42578125,-7.40625,2.212890625,1.3515625,0.548828125,2.8125,4.296875,-2.9140625,1.0
4257321,,,,,,,,3.7578125,10.28515625,-8.23046875,1.673828125,1.240234375,0.35546875,2.8515625,2.30859375,-3.52734375,1.0
4257322,,,,,,,,5.09765625,7.6796875,-7.9921875,1.51171875,1.1640625,0.2421875,4.15234375,-0.2578125,-3.21875,1.0
4257323,,,,,,,,6.1484375,5.1640625,-7.6953125,1.259765625,1.013671875,0.078125,5.1484375,-2.7109375,-2.8359375,1.0
4257324,,,,,,,,6.2890625,3.625,-6.6171875,0.958984375,0.845703125,0.07421875,5.2265625,-4.1640625,-1.6484375,1.0
4257325,,,,,,,,5.42578125,3.546875,-5.21875,0.587890625,0.802734375,0.26953125,4.30859375,-4.203125,-0.1953125,1.0
4257326,,,,,,,,3.37890625,4.05859375,-2.92578125,0.375,0.765625,0.421875,2.23828125,-3.6640625,2.10546875,1.0
4257327,,,,,,,,-0.21875,5.5078125,-0.12890625,-0.0234375,0.625,0.787109375,-1.4375,-2.2109375,4.90234375,1.0
4257328,,,,,,,,-1.87109375,8.78515625,-1.66015625,-0.32421875,0.380859375,1.341796875,-3.23828125,1.08203125,3.328125,1.0
4257329,,,,,,,,-1.65625,11.3125,-3.90625,-0.35546875,0.33203125,1.451171875,-3.0859375,3.609375,1.0703125,1.0
4257330,36.013051000000004,129.31895483333335,31.98780965356753,72.23452125846515,3.9000000000000004,49.0,,-0.54296875,12.9140625,-5.1328125,2.212890625,1.3515625,0.548828125,-2.08984375,5.21875,-0.1953125,1.0
4257331,,,,,,,,1.453125,13.87890625,-5.2734375,-0.64453125,0.697265625,0.478515625,-0.25,6.171875,-0.421875,1.0
4257332,,,,,,,,2.00390625,13.14453125,-4.8984375,-0.693359375,0.6875,-0.880859375,0.28515625,5.40625,-0.1171875,1.0
4257333,,,,,,,,2.625,11.3671875,-4.0625,-0.65625,0.607421875,-1.609375,0.9375,3.61328125,0.6875,1.0
4257334,,,,,,,,3.85546875,6.7890625,-0.29296875,-0.353515625,0.380859375,-2.607421875,2.31640625,-1.0234375,4.40234375,1.0
4257335,,,,,,,,4.90625,1.6875,-1.6171875,-0.05078125,0.19921875,-2.794921875,3.578125,-6.16015625,3.0625,1.0
4257336,,,,,,,,1.01953125,-23.91015625,10.05078125,-0.037109375,0.06640625,-1.998046875,-0.01953125,-31.78125,14.70703125,1.0
4257337,,,,,,,,-9.6875,-65.3359375,16.5703125,-0.296875,0.001953125,-1.033203125,-10.59375,-73.23828125,21.21875,1.0
4257338,,,,,,,,-11.98046875,-45.40625,6.98046875,-0.423828125,-0.013671875,-0.4375,-12.85546875,-53.31640625,11.60546875,1.0
4257339,,,,,,,,-4.69140625,-12.42578125,8.16796875,-0.634765625,-0.0625,0.779296875,-5.57421875,-20.3671875,12.75390625,1.0
4257340,36.0130535,129.31895833333334,32.30332953676586,72.51192051857232,3.9000000000000004,50.0,,3.63671875,-4.36328125,-8.79296875,2.212890625,1.3515625,0.548828125,2.66015625,-12.32421875,-4.25390625,1.0
4257341,,,,,,,,9.484375,-6.69921875,-11.54296875,-1.357421875,-0.166015625,2.029296875,8.3671875,-14.69921875,-7.08984375,1.0
4257342,,,,,,,,16.0859375,-11.18359375,-3.00390625,-0.927734375,-0.359375,1.50390625,14.84375,-19.22265625,1.33984375,1.0
4257343,,,,,,,,13.52734375,-13.40234375,0.83984375,0.06640625,-0.388671875,1.212890625,12.23828125,-21.44140625,5.16796875,1.0
4257344,,,,,,,,7.22265625,-16.03125,2.49609375,-0.04296875,0.0234375,0.37890625,5.87890625,-24.046875,6.85546875,1.0
4257345,,,,,,,,3.44921875,-11.2734375,-1.265625,-1.912109375,0.326171875,-3.18359375,2.19921875,-19.375,2.984375,1.0
4257346,,,,,,,,0.46484375,-8.44140625,-2.41015625,-1.0234375,-0.669921875,-4.38671875,-0.44140625,-16.65234375,1.72265625,1.0
4257347,,,,,,,,-0.9921875,-5.37890625,-2.66796875,-1.171875,-0.83984375,-1.55859375,-1.70703125,-12.25390625,1.22265625,1.0
4257348,,,,,,,,-1.58984375,-2.578125,-2.95703125,-2.341796875,-0.728515625,1.9140625,-2.16796875,-10.9453125,0.95703125,1.0
4257349,,,,,,,,-3.31640625,0.51171875,-4.21875,-3.037109375,-0.91796875,2.04296875,-4.04296875,-7.953125,-0.5390625,1.0
4257350,36.013055666666666,129.31896116666667,32.558750320653544,72.75233315467906,3.8000000000000003,48.0,,-6.03515625,5.125,-2.96875,-3.400390625,-1.267578125,-0.224609375,-6.796875,-3.515625,0.3046875,1.0
4257351,,,,,,,,-6.16796875,6.66796875,-2.04296875,-3.853515625,-1.859375,-0.51171875,-6.8359375,-2.09765625,0.91796875,1.0
4257352,,,,,,,,-6.37890625,9.12890625,-1.8125,-3.765625,-1.865234375,-0.28125,-6.9140625,0.19921875,0.6484375,1.0
4257353,,,,,,,,-6.37109375,10.41015625,-1.6875,-3.62890625,-1.83203125,-0.251953125,-6.875,1.42578125,0.609375,1.0
4257354,,,,,,,,-6.38671875,12.98046875,-1.296875,-3.302734375,-1.7734375,-0.01171875,-6.83984375,3.91796875,0.6875,1.0
4257355,,,,,,,,-5.7890625,13.80859375,-1.7265625,-2.876953125,-1.56640625,0.46484375,-6.23046875,4.68359375,-0.0390625,1.0
4257356,,,,,,,,-5.03125,12.0078125,-2.59765625,-2.36328125,-1.3203125,0.671875,-5.5,2.84375,-1.15234375,1.0
4257357,,,,,,,,-4.25390625,6.2265625,-1.81640625,-1.98046875,-1.021484375,0.35546875,-4.76953125,-2.9765625,-0.65234375,1.0
4257358,,,,,,,,-3.89453125,5.20703125,-1.1015625,-1.837890625,-0.81640625,0.20703125,-4.42578125,-4.01171875,-0.1171875,1.0
4257359,,,,,,,,-2.77734375,5.40625,-0.5625,-1.404296875,-0.69921875,0.169921875,-3.31640625,-3.82421875,0.265625,1.0
4257360,36.013058,129.31896383333333,32.79914621762648,73.01123894934467,3.9000000000000004,46.0,,-0.2265625,7.17578125,-0.14453125,-3.400390625,-1.267578125,-0.224609375,-6.796875,-3.515625,0.3046875,1.0
4257361,,,,,,,,1.25390625,8.6328125,0.12890625,-0.26953125,-0.556640625,0.451171875,0.66796875,-0.6015625,0.80078125,1.0
4257362,,,,,,,,2.375,9.8125,-0.19921875,0.00390625,-0.49609375,0.751953125,1.7421875,0.5859375,0.45703125,1.0
4257363,,,,,,,,2.796875,12.171875,-0.75,0.455078125,-0.302734375,0.904296875,2.0859375,2.96484375,-0.078125,1.0
4257364,,,,,,,,2.18359375,14.15234375,-0.4609375,0.9375,-0.130859375,0.8046875,1.39453125,4.94921875,0.265625,1.0
4257365,,,,,,,,1.296875,14.421875,0.33984375,1.37109375,-0.1640625,0.234375,0.4375,5.26171875,1.22265625,1.0
4257366,,,,,,,,-0.33984375,13.609375,1.19140625,1.40625,-0.228515625,-0.0078125,-1.20703125,4.453125,2.14453125,1.0
4257367,,,,,,,,-1.4375,12.66796875,1.38671875,1.287109375,-0.37890625,-0.53515625,-2.28125,3.53125,2.44921875,1.0
4257368,,,,,,,,-2.3359375,9.1328125,2.703125,0.927734375,-0.447265625,-1.078125,-3.0859375,0.0078125,3.8671875,1.0
4257369,,,,,,,,0.44921875,-6.203125,1.03125,0.41796875,-0.384765625,-1.482421875,-0.17578125,-15.31640625,2.2578125,1.0
4257370,36.01306016666667,129.31896766666665,33.1447157926743,73.251651939271,3.9000000000000004,52.0,,5.48046875,-38.8046875,10.109375,-0.208984375,-0.27734375,-1.744140625,5.07421875,-47.9140625,11.3359375,1.0
4257371,,,,,,,,22.109375,-61.625,29.6640625,-0.060546875,-0.2578125,-1.505859375,21.8515625,-70.74609375,30.875,1.0
4257372,,,,,,,,12.1640625,-23.7421875,18.33203125,0.26953125,-0.232421875,-1.193359375,11.96875,-32.86328125,19.53515625,1.0
4257373,,,,,,,,-1.08984375,-6.3203125,5.47265625,1.140625,-0.12890625,-0.345703125,-1.20703125,-15.4296875,6.73828125,1.0
4257374,,,,,,,,-6.63671875,-3.921875,4.30078125,1.791015625,-0.080078125,0.658203125,-6.76171875,-13.015625,5.70703125,1.0
4257375,,,,,,,,-7.07421875,-7.890625,-1.14453125,1.26171875,-0.36328125,1.615234375,-7.30078125,-16.9609375,0.41796875,1.0
4257376,,,,,,,,2.8203125,-13.24609375,2.84375,1.560546875,0.099609375,1.2578125,2.390625,-22.28515625,4.5546875,1.0
4257377,,,,,,,,5.71875,-11.77734375,4.58984375,1.515625,0.34765625,-0.60546875,5.2265625,-20.7890625,6.43359375,1.0
4257378,,,,,,,,6.89453125,-8.21484375,2.8203125,0.337890625,0.39453125,-4.5703125,6.64453125,-17.2265625,4.75,1.0
4257379,,,,,,,,6.0625,-7.79296875,1.9609375,0.296875,0.103515625,-5.138671875,6.03125,-16.80859375,3.90625,1.0
4257380,36.013062500000004,129.31897083333334,33.43018606835027,73.5105579196825,3.8000000000000003,53.0,,3.484375,-6.6953125,0.828125,3.53515625,0.7265625,-1.57421875,5.07421875,-47.9140625,11.3359375,1.0
4257381,,,,,,,,2.8125,-5.48046875,0.5234375,3.70703125,1.251953125,0.34765625,3.3125,-14.3515625,3.0625,1.0
4257382,,,,,,,,2.375,-2.65625,-0.39453125,3.09375,1.49609375,0.17578125,2.8125,-11.44921875,2.44921875,1.0
4257383,,,,,,,,2.515625,-0.625,-1.75390625,2.748046875,1.595703125,-0.013671875,2.9296875,-9.375,1.22265625,1.0
4257384,,,,,,,,2.63671875,1.34375,-3.47265625,2.478515625,1.841796875,-0.0546875,3.00390625,-7.34765625,-0.26953125,1.0
4257385,,,,,,,,3.34375,3.90625,-4.390625,2.419921875,1.921875,0.107421875,3.65625,-4.70703125,-0.9609375,1.0
4257386,,,,,,,,3.390625,6.203125,-3.6875,2.453125,1.9765625,0.197265625,3.6171875,-2.328125,-0.0390625,1.0
4257387,,,,,,,,4.08203125,9.14453125,-3.73828125,2.447265625,1.908203125,0.103515625,4.2265625,0.69921875,0.11328125,1.0
4257388,,,,,,,,4.11328125,9.703125,-4.28515625,2.357421875,1.740234375,-0.017578125,4.1875,1.3515625,-0.23046875,1.0
4257389,,,,,,,,3.75390625,10.53515625,-5.515625,2.22265625,1.583984375,-0.001953125,3.765625,2.26953125,-1.265625,1.0
4257390,36.013064500000006,129.31897366666666,33.685606862765496,73.73247738169897,3.9000000000000004,50.0,,3.328125,10.78515625,-6.26953125,3.53515625,0.7265625,-1.57421875,3.2734375,2.61328125,-1.83984375,1.0
4257391,,,,,,,,3.375,9.859375,-6.6640625,1.744140625,1.197265625,0.541015625,3.234375,1.7734375,-2.0703125,1.0
4257392,,,,,,,,4.15234375,7.41796875,-7.13671875,1.26953125,0.8359375,0.330078125,3.8828125,-0.56640625,-2.37890625,1.0
4257393,,,,,,,,4.0078125,5.3046875,-6.609375,0.93359375,0.56640625,0.0390625,3.6953125,-2.6328125,-1.765625,1.0
4257394,,,,,,,,1.984375,5.33203125,-3.56640625,0.716796875,0.447265625,-0.111328125,1.6640625,-2.5546875,1.33984375,1.0
4257395,,,,,,,,0.078125,6.18359375,-1.0859375,0.59765625,0.41015625,-0.09375,-0.25,-1.67578125,3.8671875,1.0
4257396,,,,,,,,-0.60546875,6.55078125,-0.48828125,0.5390625,0.392578125,-0.041015625,-0.94140625,-1.29296875,4.4765625,1.0
4257397,,,,,,,,-1.515625,8.44140625,-1.140625,0.314453125,0.37109375,0.072265625,-1.859375,0.62109375,3.8671875,1.0
4257398,,,,,,,,-1.0703125,11.30859375,-3.859375,-0.16796875,0.35546875,0.19921875,-1.4375,3.4921875,1.1484375,1.0
4257399,,,,,,,,-0.734375,12.77734375,-5.34765625,-0.853515625,0.30078125,0.30078125,-1.1328125,4.9453125,-0.38671875,1.0
4257400,36.01306683333333,129.31897650000002,33.941027506183836,73.99138326404436,3.9000000000000004,48.0,0.0,-0.65625,13.76953125,-5.97265625,-1.251953125,0.388671875,0.072265625,-1.09375,5.8671875,-1.15234375,1.0
4257401,,,,,,,,-0.76171875,13.2109375,-5.578125,-0.71875,0.546875,-0.5703125,-1.20703125,5.26171875,-0.84375,1.0
4257402,,,,,,,,-0.671875,11.6875,-4.859375,-0.474609375,0.595703125,-0.93359375,-1.09375,3.7265625,-0.15625,1.0
4257403,,,,,,,,-0.40625,8.09375,-2.0703125,-0.140625,0.6328125,-1.51953125,-0.75,0.125,2.6015625,1.0
4257404,,,,,,,,-0.3828125,6.33203125,-1.1875,-0.05078125,0.623046875,-1.677734375,-0.671875,-1.63671875,3.484375,1.0
4257405,,,,,,,,0.85546875,0.8828125,-1.05859375,-0.10546875,0.58203125,-1.669921875,0.66796875,-7.08203125,3.59765625,1.0
4257406,,,,,,,,0.79296875,-13.20703125,5.4765625,-0.333984375,0.564453125,-1.33984375,0.70703125,-21.171875,10.109375,1.0
4257407,,,,,,,,-0.76953125,-39.4765625,20.96875,-0.4375,0.54296875,-1.083984375,-0.82421875,-47.45703125,25.5859375,1.0
4257408,,,,,,,,-8.2734375,-24.10546875,3.84765625,-0.51953125,0.41015625,0.318359375,-8.296875,-32.12890625,8.38671875,1.0
4257409,,,,,,,,-1.5,-9.53515625,-0.11328125,-0.33203125,0.373046875,0.70703125,-1.5546875,-17.5703125,4.40234375,1.0
4257410,36.013069333333334,129.31898,34.25654726195873,74.26878259646764,3.9000000000000004,50.0,,9.66015625,-8.578125,-9.4296875,-1.251953125,0.388671875,0.072265625,-1.09375,5.8671875,-1.15234375,1.0
4257411,,,,,,,,16.71875,-8.80859375,0.546875,1.123046875,0.17578125,2.869140625,16.296875,-16.80859375,5.1328125,1.0
4257412,,,,,,,,8.77734375,-13.90234375,2.10546875,1.53515625,-0.228515625,2.373046875,8.13671875,-21.82421875,6.81640625,1.0
4257413,,,,,,,,1.1171875,-14.984375,1.29296875,-1.572265625,-0.390625,-0.724609375,0.4375,-22.8984375,6.01171875,1.0
4257414,,,,,,,,-0.39453125,-10.921875,-1.1171875,-1.564453125,-0.294921875,-3.12109375,-0.90234375,-18.95703125,3.4453125,1.0
4257415,,,,,,,,-0.26953125,-8.26171875,-2.3203125,-0.341796875,-0.865234375,-3.01953125,-0.48046875,-16.34375,2.1796875,1.0
4257416,,,,,,,,-0.35546875,-7.35546875,-2.6015625,-1.046875,-1.083984375,-1.80859375,-0.44140625,-15.46484375,1.875,1.0
4257417,,,,,,,,-2.00390625,-4.55859375,-1.90234375,-3.92578125,-1.017578125,0.98046875,-2.01171875,-12.78515625,2.37109375,1.0
4257418,,,,,,,,-4.08203125,-1.4609375,-1.6875,-4.5,-1.0859375,1.509765625,-4.16015625,-9.875,2.21875,1.0
4257419,,,,,,,,-5.57421875,2.0703125,-2.20703125,-3.310546875,-1.59765625,0.345703125,-5.69140625,-6.578125,1.18359375,1.0
4257420,36.01307166666666,129.31898266666667,34.49694306738952,74.52768843695657,3.8000000000000003,48.0,,-6.34765625,5.5859375,-3.5859375,-1.251953125,0.388671875,0.072265625,-6.4140625,-3.171875,-0.4609375,1.0
4257421,,,,,,,,-6.37890625,7.6796875,-4.2109375,-3.34765625,-2.19140625,0.06640625,-6.37890625,-1.1796875,-1.3828125,1.0
4257422,,,,,,,,-6.51953125,10.07421875,-3.75390625,-3.3203125,-2.240234375,0.12109375,-6.49609375,1.16015625,-1.07421875,1.0
4257423,,,,,,,,-6.06640625,12.15234375,-1.89453125,-3.130859375,-2.107421875,0.119140625,-5.99609375,3.15234375,0.49609375,1.0
4257424,,,,,,,,-5.72265625,12.49609375,-1.453125,-3.15234375,-1.87109375,-0.033203125,-5.609375,3.41796875,0.6484375,1.0
4257425,,,,,,,,-3.75390625,12.4453125,-1.61328125,-3.181640625,-1.431640625,-0.09765625,-3.58203125,3.265625,0.03515625,1.0
4257426,,,,,,,,-2.78515625,8.35546875,-2.39453125,-2.95703125,-1.09375,0.10546875,-2.5859375,-0.87109375,-1.03515625,1.0
4257427,,,,,,,,-3.07421875,7.08203125,-1.70703125,-2.650390625,-0.8125,0.4375,-2.890625,-2.17578125,-0.61328125,1.0
4257428,,,,,,,,-4.25390625,4.578125,0.32421875,-2.220703125,-0.630859375,0.69140625,-4.12109375,-4.70703125,1.18359375,1.0
4257429,,,,,,,,-4.40625,3.97265625,2.07421875,-1.8671875,-0.57421875,0.736328125,-4.3125,-5.31640625,2.83203125,1.0
4257430,36.013073999999996,129.31898583333336,34.78241326413216,74.78659446276954,4.1000000000000005,47.0,,-2.89453125,6.5859375,2.140625,-0.6796875,-0.443359375,0.74609375,-2.89453125,-2.7109375,2.71875,1.0
4257431,,,,,,,,-0.03515625,10.30078125,-0.46484375,0.095703125,-0.34375,0.7421875,-0.17578125,1.00390625,0.07421875,1.0
4257432,,,,,,,,0.04296875,12.21875,-0.234375,0.1328125,-0.326171875,0.70703125,-0.13671875,2.92578125,0.3046875,1.0
4257433,,,,,,,,-0.1015625,14.69921875,0.28515625,0.271484375,-0.177734375,0.44140625,-0.328125,5.40625,0.83984375,1.0
4257434,,,,,,,,-0.046875,15.19140625,0.21484375,0.5390625,-0.056640625,-0.15234375,-0.2890625,5.91015625,0.80078125,1.0
4257435,,,,,,,,-0.1328125,15.8046875,-1.03515625,0.80078125,-0.140625,-0.943359375,-0.328125,6.52734375,-0.38671875,1.0
4257436,,,,,,,,-0.51953125,13.75,-2.30078125,0.859375,-0.26953125,-1.5078125,-0.59765625,4.49609375,-1.57421875,1.0
4257437,,,,,,,,-0.85546875,12.859375,-2.18359375,0.794921875,-0.326171875,-1.63671875,-0.86328125,3.61328125,-1.41796875,1.0
4257438,,,,,,,,-2.046875,11.08203125,-1.04296875,0.546875,-0.396484375,-1.646484375,-1.90234375,1.84765625,-0.23046875,1.0
4257439,,,,,,,,-3.6171875,8.96875,1.53515625,0.453125,-0.3828125,-1.56640625,-3.390625,-0.2578125,2.37109375,1.0
4257440,36.013076166666664,129.31898933333332,35.097933110436166,75.02700741140626,3.9000000000000004,51.0,,-7.1328125,2.26953125,7.49609375,0.439453125,-0.330078125,-1.150390625,-6.7265625,-6.92578125,8.38671875,1.0
4257441,,,,,,,,-5.26171875,-9.46484375,3.12890625,0.396484375,-0.390625,-0.671875,-4.76953125,-18.64453125,4.05859375,1.0
4257442,,,,,,,,-0.9375,-23.234375,5.328125,0.28515625,-0.44921875,-0.08203125,-0.40625,-32.40234375,6.28125,1.0
4257443,,,,,,,,29.6953125,-56.484375,26.296875,0.3203125,-0.462890625,0.537109375,30.203125,-65.65234375,27.2734375,1.0
4257444,,,,,,,,15.125,-20.28515625,11.6171875,0.693359375,-0.419921875,1.04296875,15.5703125,-29.44921875,12.640625,1.0
4257445,,,,,,,,0.79296875,-11.7890625,6.234375,1.716796875,-0.361328125,1.40234375,1.12890625,-20.94921875,7.3515625,1.0
4257446,,,,,,,,-8.8359375,-3.75,6.02734375,2.44921875,-0.40625,1.595703125,-8.5625,-12.90234375,7.23828125,1.0
4257447,,,,,,,,-8.75,-4.96875,1.44921875,2.4453125,-0.76953125,1.98828125,-8.640625,-14.0859375,2.91015625,1.0
4257448,,,,,,,,-3.33203125,-12.31640625,-0.86328125,2.01171875,-0.326171875,0.892578125,-3.35546875,-21.40234375,0.80078125,1.0
4257449,,,,,,,,-0.6484375,-13.22265625,1.53125,1.431640625,0.654296875,0.935546875,-0.75,-22.28125,3.3671875,1.0
4257450,36.01307833333333,129.31899299999998,35.4284777432938,75.26742043221847,3.8000000000000003,52.0,,4.0703125,-9.4453125,3.27734375,0.439453125,-0.330078125,-1.150390625,3.9609375,-18.4921875,5.20703125,1.0
4257451,,,,,,,,3.57421875,-8.28125,0.390625,0.451171875,0.173828125,-4.048828125,3.92578125,-17.34375,2.2578125,1.0
4257452,,,,,,,,2.89453125,-8.21875,-0.16796875,2.474609375,0.2734375,-2.958984375,3.38671875,-17.26953125,1.76171875,1.0
4257453,,,,,,,,2.28125,-6.23828125,-0.515625,4.052734375,0.6015625,0.484375,2.890625,-15.15625,1.953125,1.0
4257454,,,,,,,,2.828125,-0.88671875,-0.48828125,2.828125,1.302734375,0.4765625,3.3125,-9.6796875,2.44921875,1.0
4257455,,,,,,,,3.38671875,2.5,-2.25390625,2.662109375,1.64453125,0.1015625,3.80859375,-6.234375,0.91796875,1.0
4257456,,,,,,,,3.37890625,3.48828125,-2.9453125,2.484375,1.7578125,0.060546875,3.76953125,-5.19921875,0.34375,1.0
4257457,,,,,,,,3.296875,6.94140625,-4.50390625,2.25390625,2.02734375,0.216796875,3.6171875,-1.67578125,-0.99609375,1.0
4257458,,,,,,,,3.20703125,8.86328125,-5.11328125,2.060546875,2.060546875,0.25390625,3.42578125,0.31640625,-1.41796875,1.0
4257459,,,,,,,,3.36328125,10.515625,-5.4375,1.9765625,1.970703125,0.216796875,3.54296875,2.0,-1.6484375,1.0
4257460,36.01308033333333,129.31899516666667,35.62379924326534,75.48933970760794,3.3000000000000003,50.0,,3.1796875,11.203125,-5.45703125,1.927734375,1.619140625,-0.001953125,3.23828125,2.8046875,-1.41796875,1.0
4257461,,,,,,,,2.5703125,11.05859375,-5.44140625,1.994140625,1.23046875,0.05859375,2.546875,2.76953125,-1.15234375,1.0
4257462,,,,,,,,2.67578125,9.515625,-6.0546875,2.005859375,1.091796875,0.1640625,2.6171875,1.2734375,-1.6875,1.0
4257463,,,,,,,,3.53515625,6.82421875,-6.2890625,1.779296875,0.798828125,0.458984375,3.38671875,-1.29296875,-1.6875,1.0
4257464,,,,,,,,3.99609375,5.828125,-6.09765625,1.66796875,0.716796875,0.5078125,3.80859375,-2.25,-1.41796875,1.0
4257465,,,,,,,,4.51171875,5.2109375,-5.11328125,1.357421875,0.509765625,0.494140625,4.2265625,-2.75,-0.26953125,1.0
4257466,,,,,,,,4.65625,5.52734375,-4.70703125,1.3359375,0.4765625,0.41796875,4.34765625,-2.40234375,0.19140625,1.0
4257467,,,,,,,,4.4765625,6.26171875,-4.2734375,1.30078125,0.435546875,0.21875,4.12109375,-1.59765625,0.7265625,1.0
4257468,,,,,,,,3.703125,7.30078125,-4.09375,1.107421875,0.490234375,0.14453125,3.31640625,-0.48828125,0.9921875,1.0
4257469,,,,,,,,2.32421875,8.6328125,-3.6640625,0.712890625,0.490234375,0.232421875,1.89453125,0.890625,1.4921875,1.0
4257470,36.01308266666667,129.3189985,35.92429416896573,75.74824583246709,3.9000000000000004,49.0,,-0.5859375,11.16796875,-1.55078125,-0.1171875,0.3046875,0.39453125,-1.78515625,3.953125,3.59765625,1.0
4257471,,,,,,,,-1.65234375,11.93359375,-1.88671875,-0.4140625,0.2734375,0.33203125,-2.47265625,5.1015625,1.875,1.0
4257472,,,,,,,,-1.88671875,13.16796875,-3.9921875,-0.6171875,0.34765625,0.0859375,-2.3203125,5.72265625,0.49609375,1.0
4257473,,,,,,,,-1.52734375,13.53515625,-5.78515625,-0.888671875,0.435546875,-0.267578125,-2.08984375,5.79296875,-0.69140625,1.0
4257474,,,,,,,,-0.953125,11.3984375,-5.9765625,-1.291015625,0.548828125,-0.70703125,-1.515625,3.609375,-0.9609375,1.0
4257475,,,,,,,,-0.33203125,8.421875,-4.06640625,-1.322265625,0.673828125,-1.21875,-0.859375,0.5859375,0.83984375,1.0
4257476,,,,,,,,-0.171875,6.66015625,-3.55078125,-1.1796875,0.71484375,-1.439453125,-0.671875,-1.21484375,1.296875,1.0
4257477,,,,,,,,0.78515625,-5.32421875,-0.5390625,-1.0,0.671875,-1.544921875,0.36328125,-13.2421875,4.2109375,1.0
4257478,,,,,,,,0.26953125,-26.0390625,8.7734375,-1.09765625,0.525390625,-1.154296875,-0.05859375,-34.0078125,13.4453125,1.0
4257479,,,,,,,,-9.96875,-62.19140625,16.54296875,-1.31640625,0.412109375,-0.515625,-10.2109375,-70.2421875,21.06640625,1.0
4257480,36.01308516666666,129.31900133333332,36.1797146071481,76.02564498862444,3.6,47.0,,-11.109375,-27.421875,8.5,-1.45703125,0.345703125,0.2578125,-1.78515625,3.953125,3.59765625,1.0
4257481,,,,,,,,7.53515625,-10.2578125,-11.99609375,-0.349609375,0.30078125,2.271484375,7.06640625,-18.45703125,-7.73828125,1.0
4257482,,,,,,,,16.73046875,-11.25390625,-8.50390625,-0.1171875,0.322265625,2.88671875,16.14453125,-19.44921875,-4.25390625,1.0
4257483,,,,,,,,12.01953125,-11.296875,1.80078125,1.279296875,-0.328125,3.365234375,11.01171875,-19.41796875,6.12890625,1.0
4257484,,,,,,,,4.68359375,-12.3359375,2.12109375,-1.8828125,-0.556640625,0.392578125,3.54296875,-20.4453125,6.43359375,1.0
4257485,,,,,,,,3.23046875,-9.66015625,-1.8671875,-1.4375,-0.224609375,-3.4375,2.23828125,-17.87890625,2.296875,1.0
4257486,,,,,,,,1.734375,-8.08203125,-2.703125,-0.76171875,-0.603515625,-4.1015625,0.8984375,-16.34765625,1.4140625,1.0
4257487,,,,,,,,-0.71484375,-6.2734375,-3.57421875,-0.71484375,-1.10546875,-2.583984375,-1.20703125,-14.5859375,0.49609375,1.0
4257488,,,,,,,,-2.85546875,-3.6875,-4.19921875,-3.203125,-1.076171875,0.326171875,-3.19921875,-12.09765625,-0.26953125,1.0
4257489,,,,,,,,-3.41796875,-2.30859375,-4.11328125,-4.119140625,-1.287109375,1.291015625,-3.77734375,-10.79296875,-0.34765625,1.0
4257490,36.01308733333334,129.3190045,36.46518478190963,76.26605786337798,3.7,48.0,,-5.328125,0.64453125,-3.22265625,-4.189453125,-1.166015625,1.412109375,-5.765625,-7.99609375,0.19140625,1.0
4257491,,,,,,,,-6.5234375,6.4609375,-3.59765625,-3.94921875,-1.345703125,0.005859375,-6.9921875,-2.3671875,-0.69140625,1.0
4257492,,,,,,,,-6.671875,7.59765625,-3.1875,-4.134765625,-1.68359375,-0.232421875,-7.109375,-1.29296875,-0.4609375,1.0
4257493,,,,,,,,-6.42578125,10.09765625,-1.5546875,-3.9765625,-2.197265625,-0.16015625,-6.76171875,1.04296875,0.609375,1.0
4257494,,,,,,,,-6.3671875,10.94921875,-0.07421875,-3.578125,-2.14453125,0.025390625,-6.65234375,1.80859375,1.72265625,1.0
4257495,,,,,,,,-5.625,12.15625,1.171875,-3.298828125,-1.91796875,0.099609375,-5.8828125,2.9609375,2.6796875,1.0
4257496,,,,,,,,-5.40234375,12.60546875,1.12890625,-3.125,-1.771484375,0.140625,-5.6484375,3.37890625,2.48828125,1.0
4257497,,,,,,,,-4.0546875,11.83203125,-1.15625,-2.599609375,-1.505859375,0.42578125,-4.3125,2.57421875,-0.078125,1.0
4257498,,,,,,,,-3.74609375,11.0546875,-1.453125,-1.826171875,-0.953125,0.88671875,-3.93359375,0.8515625,-0.99609375,1.0
4257499,,,,,,,,-3.59375,10.140625,-1.78515625,-1.6875,-0.791015625,0.9453125,-4.0390625,-1.0234375,-1.2265625,1.0
4257500,36.013089666666666,129.31900683333333,36.67553087093452,76.52496363921601,4.0,45.0,0.0,-3.3984375,6.625,-0.8984375,-4.189453125,-1.166015625,1.412109375,-3.890625,-2.671875,-0.421875,1.0
4257501,,,,,,,,-3.16015625,6.73828125,-0.62109375,-0.53125,-0.439453125,0.216796875,-2.85546875,-2.13671875,-0.00390625,1.0
4257502,,,,,,,,-2.30078125,7.15234375,-0.36328125,-0.349609375,-0.4140625,0.14453125,-2.203125,-1.71484375,0.15234375,1.0
4257503,,,,,,,,-0.1796875,8.42578125,-0.0546875,-0.0625,-0.34375,0.1953125,-0.13671875,-0.48828125,0.3828125,1.0
4257504,,,,,,,,0.44921875,8.79296875,0.0703125,0.0625,-0.29296875,0.294921875,0.3984375,-0.06640625,0.4140625,1.0
4257505,,,,,,,,2.00390625,10.25,0.10546875,0.28515625,-0.09765625,0.462890625,1.7734375,1.578125,0.41796875,1.0
4257506,,,,,,,,2.55078125,11.4296875,0.12109375,0.498046875,0.076171875,0.48828125,1.85546875,2.8828125,0.53515625,1.0
4257507,,,,,,,,2.52734375,12.1484375,0.18359375,0.6328125,0.076171875,0.453125,1.625,3.03515625,0.6484375,1.0
4257508,,,,,,,,1.9453125,12.4296875,0.39453125,1.134765625,-0.119140625,0.169921875,-0.01953125,3.0703125,1.5703125,1.0
4257509,,,,,,,,0.73046875,12.31640625,1.078125,1.310546875,-0.201171875,0.056640625,-0.90234375,2.84765625,1.8359375,1.0
4257510,36.0130915,129.31900983333335,36.9459763756406,76.72839005317182,3.5,48.0,,-3.3984375,6.625,-0.8984375,1.48046875,-0.365234375,-0.22265625,-3.890625,-2.671875,-0.421875,1.0
4257511,,,,,,,,-4.421875,9.82421875,4.3515625,1.345703125,-0.455078125,-0.541015625,-5.16015625,0.62109375,5.09375,1.0
4257512,,,,,,,,-5.921875,7.3203125,6.4921875,0.880859375,-0.48046875,-0.876953125,-6.609375,-1.8671875,7.3515625,1.0
4257513,,,,,,,,-1.12109375,-0.43359375,0.53125,0.26171875,-0.443359375,-1.1953125,-1.66796875,-9.60546875,1.4921875,1.0
4257514,,,,,,,,16.06640625,-49.28515625,11.78515625,-0.015625,-0.412109375,-1.3984375,15.64453125,-58.4453125,12.75390625,1.0
4257515,,,,,,,,25.3671875,-68.4375,28.52734375,0.2734375,-0.314453125,-1.36328125,25.0703125,-77.60546875,29.49609375,1.0
4257516,,,,,,,,8.40234375,-20.5625,4.51171875,1.439453125,-0.15234375,-0.65234375,8.25390625,-29.72265625,5.58984375,1.0
4257517,,,,,,,,-4.9453125,-8.5859375,0.75390625,2.751953125,-0.009765625,0.3046875,-5.078125,-17.7265625,2.02734375,1.0
4257518,,,,,,,,-10.14453125,-7.140625,1.9453125,2.763671875,-0.05859375,1.470703125,-10.36328125,-16.234375,3.484375,1.0
4257519,,,,,,,,-4.2890625,-11.61328125,0.9140625,1.455078125,-0.091796875,2.005859375,-4.65625,-20.671875,2.640625,1.0
4257520,36.01309366666667,129.3190135,37.27652089125795,76.9688031430624,3.6,52.0,,-1.89453125,-10.88671875,0.4609375,1.48046875,-0.365234375,-0.22265625,-3.890625,-2.671875,-0.421875,1.0
4257521,,,,,,,,0.6171875,-6.84375,-1.53515625,1.021484375,0.17578125,-3.77734375,0.015625,-15.85546875,0.45703125,1.0
4257522,,,,,,,,1.6171875,-6.60546875,-1.78125,0.91796875,-0.111328125,-4.9140625,1.203125,-15.62109375,0.265625,1.0
4257523,,,,,,,,5.25,-6.859375,-0.21875,2.345703125,0.400390625,-4.19921875,5.265625,-15.8515625,1.953125,1.0
4257524,,,,,,,,5.71484375,-6.0390625,0.296875,3.6640625,0.70703125,-2.505859375,5.87890625,-15.01171875,2.6015625,1.0
4257525,,,,,,,,4.7578125,-0.38671875,-2.23828125,2.947265625,1.701171875,0.87890625,4.921875,-9.21875,0.57421875,1.0
4257526,,,,,,,,4.9375,5.37890625,-5.19921875,2.833984375,1.751953125,0.212890625,4.921875,-3.32421875,-1.95703125,1.0
4257527,,,,,,,,5.4140625,7.421875,-5.01953125,3.26953125,1.916015625,0.419921875,5.30859375,-1.1796875,-1.49609375,1.0
4257528,,,,,,,,5.32421875,9.8125,-3.515625,2.681640625,1.9296875,0.322265625,5.11328125,1.3125,0.265625,1.0
4257529,,,,,,,,5.4453125,10.109375,-3.38671875,2.3828125,1.865234375,0.177734375,5.1875,1.65625,0.49609375,1.0
4257530,36.013095166666666,129.31901533333334,37.441792948325,77.13524271096561,3.5,50.0,,4.94140625,10.18359375,-4.02734375,2.033203125,1.73046875,-0.10546875,-3.890625,-2.671875,-0.421875,1.0
4257531,,,,,,,,4.078125,10.13671875,-5.171875,1.974609375,1.578125,-0.076171875,3.6953125,1.84765625,-0.9609375,1.0
4257532,,,,,,,,4.33203125,9.515625,-6.1015625,1.990234375,1.37890625,0.380859375,3.88671875,1.3125,-1.7265625,1.0
4257533,,,,,,,,4.69140625,8.94140625,-6.33203125,1.890625,1.2421875,0.630859375,4.19140625,0.77734375,-1.87890625,1.0
4257534,,,,,,,,5.875,6.37109375,-7.33984375,1.41015625,0.931640625,0.82421875,5.265625,-1.71484375,-2.76171875,1.0
4257535,,,,,,,,6.421875,5.046875,-7.5390625,0.84375,0.771484375,0.64453125,5.73046875,-2.9765625,-2.875,1.0
4257536,,,,,,,,4.8125,4.78515625,-6.12109375,0.396484375,0.638671875,0.421875,4.0390625,-3.20703125,-1.41796875,1.0
4257537,,,,,,,,1.87890625,5.41796875,-2.4140625,0.091796875,0.556640625,0.3125,1.05078125,-2.5546875,2.296875,1.0
4257538,,,,,,,,0.31640625,5.71875,-0.66015625,-0.017578125,0.5390625,0.322265625,-0.51953125,-2.25,4.05859375,1.0
4257539,,,,,,,,-3.421875,7.75,0.08203125,-0.130859375,0.44140625,0.443359375,-4.3125,-0.21875,4.78515625,1.0
4257540,36.0130975,129.3190185,37.72726296895853,77.39414883415188,3.9000000000000004,48.0,,-3.07421875,11.1640625,-3.9921875,2.033203125,1.73046875,-0.10546875,-4.08203125,3.1875,0.6484375,1.0
4257541,,,,,,,,-1.2890625,13.76171875,-6.79296875,-1.1484375,0.1171875,0.806640625,-2.359375,5.75390625,-2.22265625,1.0
4257542,,,,,,,,-0.3515625,14.4609375,-7.43359375,-1.650390625,0.2421875,0.44140625,-1.36328125,6.25390625,-2.875,1.0
4257543,,,,,,,,-0.26171875,13.26171875,-6.24609375,-1.328125,0.443359375,-0.453125,-1.40234375,5.140625,-1.91796875,1.0
4257544,,,,,,,,-0.0234375,9.4375,-4.19140625,-0.755859375,0.435546875,-1.49609375,-1.09375,1.2734375,0.03515625,1.0
4257545,,,,,,,,0.265625,8.44140625,-3.0625,-0.48046875,0.375,-2.0,0.66796875,-2.78515625,4.17578125,1.0
4257546,,,,,,,,1.53515625,5.42578125,0.03125,-0.53125,0.36328125,-1.849609375,1.6640625,-4.890625,3.98046875,1.0
4257547,,,,,,,,3.73046875,0.3984375,-2.02734375,-0.775390625,0.275390625,-1.275390625,3.3515625,-13.2421875,2.52734375,1.0
4257548,,,,,,,,-1.6171875,-42.6640625,15.55859375,-0.94140625,0.169921875,-0.623046875,-2.2421875,-50.94140625,19.57421875,1.0
4257549,,,,,,,,-7.87109375,-69.6875,20.03125,-0.806640625,0.125,-0.05859375,-8.44921875,-77.984375,23.9765625,1.0
4257550,36.0131,129.31902183333335,38.02775769201666,77.67154823900586,3.8000000000000003,48.0,,-3.07421875,11.1640625,-3.9921875,-0.3515625,0.056640625,0.384765625,-4.08203125,3.1875,0.6484375,1.0
4257551,,,,,,,,-3.1640625,-18.9921875,-0.68359375,0.2265625,-0.03125,0.666015625,0.70703125,-13.08984375,3.4453125,1.0
4257552,,,,,,,,3.08203125,-11.3671875,-14.359375,0.337890625,-0.255859375,0.935546875,3.08203125,-11.37109375,-4.5625,1.0
4257553,,,,,,,,13.078125,-16.578125,-14.16796875,-0.427734375,-0.556640625,1.859375,13.078125,-16.578125,-4.3671875,1.0
4257554,,,,,,,,8.3671875,-25.3515625,-2.37109375,0.81640625,-0.47265625,2.46875,8.3671875,-25.3515625,7.4296875,1.0
4257555,,,,,,,,6.22265625,-25.38671875,-2.37109375,-0.880859375,0.0703125,0.12109375,6.22265625,-25.3828125,7.4296875,1.0
4257556,,,,,,,,4.65234375,-20.41015625,-5.05078125,-2.015625,0.25,-2.6171875,4.65234375,-20.41015625,4.75,1.0
4257557,,,,,,,,2.8515625,-16.80859375,-7.00390625,-1.4609375,-0.298828125,-5.251953125,2.8515625,-16.8046875,2.79296875,1.0
4257558,,,,,,,,0.3984375,-13.12890625,-9.41796875,-1.20703125,-1.00390625,-2.732421875,0.3984375,-13.12890625,0.3828125,1.0
4257559,,,,,,,,-2.7421875,-8.6484375,-10.4921875,-2.474609375,-0.673828125,1.72265625,-2.7421875,-8.6484375,-0.69140625,1.0
4257560,36.01310216666666,129.31902483333334,38.29820296383518,77.91196110653135,3.7,49.0,,-4.96484375,-7.19140625,-11.14453125,-2.78515625,-0.9765625,1.521484375,-4.96484375,-7.19140625,-1.34375,1.0
4257561,,,,,,,,-6.91796875,-5.66015625,-9.5703125,-2.740234375,-1.31640625,-0.04296875,-6.9140625,-5.66015625,0.2265625,1.0
4257562,,,,,,,,-7.375,-4.47265625,-8.19140625,-3.224609375,-1.7109375,-0.552734375,-7.37890625,-4.47265625,1.60546875,1.0
4257563,,,,,,,,-7.30078125,-2.82421875,-8.8046875,-3.740234375,-1.939453125,-0.357421875,-7.296875,-2.82421875,0.9921875,1.0
4257564,,,,,,,,-7.56640625,-0.7578125,-9.15234375,-3.7578125,-1.86328125,-0.1484375,-7.56640625,-0.7578125,0.6484375,1.0
4257565,,,,,,,,-6.91796875,2.23046875,-8.921875,-3.349609375,-1.662109375,0.162109375,-6.9140625,2.23046875,0.87890625,1.0
4257566,,,,,,,,-6.76171875,3.37890625,-8.8828125,-3.07421875,-1.53515625,0.39453125,-6.76171875,3.37890625,0.91796875,1.0
4257567,,,,,,,,-5.95703125,4.56640625,-8.9609375,-2.4375,-1.27734375,0.7578125,-5.95703125,4.56640625,0.83984375,1.0
4257568,,,,,,,,-4.76953125,2.15625,-9.765625,-1.927734375,-0.9921875,0.619140625,-4.76953125,2.15625,0.03515625,1.0
4257569,,,,,,,,-4.42578125,-0.375,-9.37890625,-1.755859375,-0.783203125,0.28515625,-4.421875,-0.375,0.41796875,1.0
4257570,36.013104500000004,129.31902733333334,38.523573756579424,78.17086699494142,3.9000000000000004,46.0,,-3.27734375,-1.5625,-8.921875,-1.5078125,-0.451171875,0.16796875,-3.27734375,-1.5625,0.87890625,1.0
4257571,,,,,,,,-1.36328125,-1.828125,-8.921875,-0.908203125,-0.416015625,0.22265625,-1.36328125,-1.828125,0.87890625,1.0
4257572,,,,,,,,-0.2890625,-0.91015625,-8.99609375,-0.1015625,-0.423828125,0.21484375,-0.2890625,-0.91015625,0.80078125,1.0
4257573,,,,,,,,0.859375,0.27734375,-9.3046875,0.40625,-0.310546875,0.19921875,0.859375,0.27734375,0.49609375,1.0
4257574,,,,,,,,1.81640625,2.26953125,-9.6875,0.68359375,-0.22265625,0.263671875,1.81640625,2.26953125,0.11328125,1.0
4257575,,,,,,,,2.046875,3.6484375,-9.49609375,0.986328125,0.015625,0.224609375,2.046875,3.6484375,0.3046875,1.0
4257576,,,,,,,,1.7421875,4.109375,-9.2265625,1.072265625,0.0859375,0.12109375,1.7421875,4.11328125,0.57421875,1.0
4257577,,,,,,,,-0.13671875,4.30078125,-8.921875,1.064453125,0.017578125,-0.171875,-0.13671875,4.30078125,0.87890625,1.0
4257578,,,,,,,,-1.24609375,3.11328125,-9.3046875,1.025390625,-0.220703125,-0.40234375,-1.24609375,3.11328125,0.49609375,1.0
4257579,,,,,,,,-1.5546875,2.15625,-9.5703125,1.0546875,-0.412109375,-0.533203125,-1.5546875,2.16015625,0.2265625,1.0
4257580,36.013106500000006,129.31903083333333,38.83909346540485,78.3927868715342,3.7,51.0,,-2.203125,-0.21875,-8.5,-1.5078125,-0.451171875,0.16796875,-2.20703125,-0.21875,1.30078125,1.0
4257581,,,,,,,,-3.8125,-2.82421875,-5.3984375,0.5,-0.4765625,-0.708984375,-3.8125,-2.82421875,4.40234375,1.0
4257582,,,,,,,,-2.05078125,-8.76171875,-7.16015625,0.12890625,-0.466796875,-0.6953125,-2.05078125,-8.76171875,2.640625,1.0
4257583,,,,,,,,5.55859375,-23.859375,0.91015625,0.103515625,-0.41796875,-0.640625,2.19921875,-29.984375,5.28515625,1.0
4257584,,,,,,,,25.78515625,-69.24609375,24.57421875,0.53125,-0.373046875,-0.208984375,22.50390625,-75.37890625,28.99609375,1.0
4257585,,,,,,,,17.37890625,-39.15234375,16.8203125,0.802734375,-0.310546875,0.244140625,14.11328125,-45.26953125,21.296875,1.0
4257586,,,,,,,,13.36328125,-24.7734375,6.62890625,0.953125,-0.275390625,0.44140625,10.08984375,-30.87109375,11.14453125,1.0
4257587,,,,,,,,-0.1796875,-9.16015625,-0.23046875,1.59765625,-0.1640625,0.701171875,-3.46875,-15.19921875,4.36328125,1.0
4257588,,,,,,,,-5.57421875,-10.9140625,-1.76953125,2.021484375,-0.216796875,0.88671875,-8.91015625,-16.84765625,2.94921875,1.0
4257589,,,,,,,,-2.77734375,-12.78125,-3.53515625,1.40234375,-0.31640625,1.318359375,-6.15234375,-18.61328125,1.30078125,1.0
4257590,36.0131085,129.31903433333335,39.15461315792625,78.61470675820522,3.7,53.0,,2.56640625,-15.1015625,-2.1953125,-1.5078125,-0.451171875,0.16796875,-0.90234375,-20.828125,2.71875,1.0
4257591,,,,,,,,3.53515625,-13.12890625,-2.3359375,1.513671875,0.66015625,-0.408203125,-0.01953125,-18.7578125,2.640625,1.0
4257592,,,,,,,,4.4140625,-11.81640625,-2.7109375,0.96875,0.72265625,-3.115234375,0.8984375,-17.45703125,2.296875,1.0
4257593,,,,,,,,7.45703125,-10.4296875,-3.2421875,0.87109375,0.212890625,-5.009765625,4.15234375,-16.1953125,1.796875,1.0
4257594,,,,,,,,8.11328125,-9.1640625,-3.58203125,3.9453125,0.791015625,-0.787109375,5.07421875,-14.93359375,1.64453125,1.0
4257595,,,,,,,,7.1796875,-5.94921875,-4.19140625,3.662109375,1.330078125,0.83984375,4.078125,-11.515625,1.22265625,1.0
4257596,,,,,,,,6.78125,-3.4921875,-5.578125,3.21875,1.32421875,0.7109375,3.6171875,-8.953125,-0.078125,1.0
4257597,,,,,,,,7.25,-1.3203125,-7.3828125,2.78125,1.453125,0.0703125,4.0,-6.62109375,-1.765625,1.0
4257598,,,,,,,,7.875,1.55859375,-7.71875,3.125,1.615234375,0.09375,4.54296875,-3.58984375,-1.9921875,1.0
4257599,,,,,,,,7.9765625,2.41796875,-7.515625,3.029296875,1.76171875,0.326171875,4.5390625,-2.55859375,-1.6875,1.0
4257600,36.01311033333333,129.31903716666665,39.410033740307654,78.81813318094495,3.7,52.0,0.0,7.79296875,5.41015625,-5.73828125,-1.5078125,-0.451171875,0.16796875,4.1875,0.66015625,0.19140625,1.0
4257601,,,,,,,,6.921875,6.48828125,-5.2890625,2.142578125,1.580078125,0.046875,3.23828125,1.84765625,0.6875,1.0
4257602,,,,,,,,6.77734375,6.640625,-6.4375,2.099609375,1.416015625,0.119140625,3.00390625,2.1171875,-0.421875,1.0
4257603,,,,,,,,6.625,6.5,-7.0078125,2.060546875,1.34765625,0.302734375,2.81640625,2.0390625,-0.9609375,1.0
4257604,,,,,,,,6.25390625,5.140625,-7.8515625,1.9140625,1.134765625,0.79296875,2.35546875,0.8125,-1.765625,1.0
4257605,,,,,,,,6.8828125,2.14453125,-8.53125,1.572265625,0.912109375,0.986328125,2.89453125,-2.05859375,-2.4140625,1.0
4257606,,,,,,,,7.421875,0.578125,-8.90234375,1.1015625,0.76171875,0.8203125,3.3515625,-3.515625,-2.76171875,1.0
4257607,,,,,,,,7.8203125,-0.3359375,-7.796875,0.814453125,0.68359375,0.505859375,3.6953125,-4.36328125,-1.6484375,1.0
4257608,,,,,,,,7.65234375,-0.28125,-6.42578125,0.724609375,0.677734375,0.365234375,3.50390625,-4.28125,-0.26953125,1.0
4257609,,,,,,,,6.94140625,0.3984375,-5.22265625,0.32421875,0.62890625,0.23828125,2.73828125,-3.5546875,0.91796875,1.0
4257610,36.013112666666665,129.31904016666667,39.680478859837095,79.07703930017334,3.8000000000000003,50.0,,4.4296875,3.1640625,-2.86328125,-1.5078125,-0.451171875,0.16796875,0.171875,-0.7578125,3.25,1.0
4257611,,,,,,,,3.2421875,6.3671875,-2.15625,0.05859375,0.361328125,0.615234375,-1.0546875,2.4609375,3.9453125,1.0
4257612,,,,,,,,3.1953125,9.53125,-4.44140625,-0.380859375,0.267578125,0.6640625,-1.1328125,5.64453125,1.64453125,1.0
4257613,,,,,,,,3.44140625,9.80078125,-5.0,-0.55078125,0.263671875,0.595703125,-0.90234375,5.90625,1.0703125,1.0
4257614,,,,,,,,4.4609375,10.22265625,-5.3828125,-0.677734375,0.291015625,0.20703125,0.09375,6.29296875,0.6484375,1.0
4257615,,,,,,,,5.06640625,9.3125,-5.640625,-0.693359375,0.34765625,-0.419921875,0.70703125,5.33984375,0.34375,1.0
4257616,,,,,,,,5.46484375,5.2578125,-4.0625,-0.76171875,0.41796875,-1.224609375,1.12890625,1.1953125,1.875,1.0
4257617,,,,,,,,6.09765625,-1.33984375,-3.87109375,-0.474609375,0.388671875,-2.310546875,1.85546875,-5.58203125,1.98828125,1.0
4257618,,,,,,,,3.984375,-19.20703125,4.03125,-0.34765625,0.3359375,-2.451171875,-0.2109375,-23.51171875,9.8828125,1.0
4257619,,,,,,,,-4.96875,-59.45703125,20.296875,-0.158203125,0.197265625,-2.26953125,-9.0625,-63.8828125,26.125,1.0
4257620,36.013115,129.31904350000002,39.980973546051054,79.33594556485887,3.8000000000000003,48.0,,-9.125,-41.50390625,9.44921875,-1.5078125,-0.451171875,0.16796875,-13.0859375,-46.07421875,15.24609375,1.0
4257621,,,,,,,,1.33984375,-15.0,3.5234375,-0.595703125,0.146484375,-0.072265625,-2.58984375,-19.64453125,9.3046875,1.0
4257622,,,,,,,,11.4765625,-9.4140625,-12.02734375,-0.70703125,0.224609375,1.505859375,7.5234375,-14.0859375,-6.28515625,1.0
4257623,,,,,,,,22.61328125,-12.7734375,-9.17578125,-1.171875,0.2890625,2.841796875,18.55859375,-17.421875,-3.48828125,1.0
4257624,,,,,,,,14.70703125,-17.140625,-1.7421875,0.16015625,-0.041015625,3.65234375,10.51171875,-21.7109375,3.90625,1.0
4257625,,,,,,,,7.8828125,-16.828125,0.1640625,-0.021484375,0.0234375,1.482421875,3.578125,-21.29296875,5.8203125,1.0
4257626,,,,,,,,7.1640625,-15.74609375,-1.0234375,-1.052734375,0.068359375,-2.47265625,2.890625,-20.29296875,4.59375,1.0
4257627,,,,,,,,5.0546875,-12.74609375,-4.63671875,-0.10546875,-0.43359375,-4.298828125,0.9765625,-17.4921875,0.95703125,1.0
4257628,,,,,,,,3.1796875,-9.2265625,-5.41015625,-2.34375,-0.705078125,-0.083984375,-0.6328125,-14.2421875,0.15234375,1.0
4257629,,,,,,,,1.609375,-6.42578125,-6.10546875,-4.064453125,-0.8828125,2.15625,-2.203125,-11.59765625,-0.69140625,1.0
4257630,36.01311666666666,129.31904633333335,40.2363941750779,79.52087880405864,3.6,50.0,,-2.29296875,-1.79296875,-6.69921875,-3.947265625,-0.86328125,0.953125,-6.15234375,-7.23046875,-1.57421875,1.0
4257631,,,,,,,,-3.171875,1.0078125,-6.1796875,-3.53125,-1.30859375,0.193359375,-6.9921875,-4.625,-1.2265625,1.0
4257632,,,,,,,,-3.21875,2.46484375,-4.9453125,-3.92578125,-1.7421875,0.166015625,-6.95703125,-3.36328125,-0.15625,1.0
4257633,,,,,,,,-3.10546875,3.65625,-4.19140625,-4.115234375,-1.841796875,0.25,-6.76171875,-2.3671875,0.41796875,1.0
4257634,,,,,,,,-2.92578125,5.3203125,-3.8671875,-4.12109375,-1.8125,0.267578125,-6.53125,-0.796875,0.6484375,1.0
4257635,,,,,,,,-2.95703125,7.35546875,-3.33203125,-4.099609375,-1.72265625,0.30859375,-6.4921875,1.04296875,0.95703125,1.0
4257636,,,,,,,,-3.33203125,10.7109375,-2.65234375,-3.46875,-1.439453125,0.68359375,-6.80078125,4.1484375,1.33984375,1.0
4257637,,,,,,,,-3.1953125,10.2734375,-4.57421875,-2.79296875,-1.271484375,0.90625,-6.6484375,3.609375,-0.76953125,1.0
4257638,,,,,,,,-3.265625,7.296875,-5.16015625,-2.3359375,-1.021484375,0.814453125,-6.7265625,0.546875,-1.49609375,1.0
4257639,,,,,,,,-3.1015625,6.24609375,-4.859375,-2.234375,-0.87109375,0.6875,-6.5703125,-0.52734375,-1.265625,1.0
4257640,36.01311916666667,129.31904883333334,40.46176478379998,79.79827794839295,3.9000000000000004,45.0,,-2.296875,5.55078125,-4.12109375,-1.943359375,-0.5546875,0.32421875,-5.76953125,-1.33203125,-0.73046875,1.0
4257641,,,,,,,,-0.16796875,4.6875,-3.3125,-1.330078125,-0.421875,0.12109375,-3.6171875,-2.25,-0.0390625,1.0
4257642,,,,,,,,4.6875,4.02734375,-2.515625,-0.626953125,-0.34765625,0.0546875,1.2421875,-2.94140625,0.6875,1.0
4257643,,,,,,,,4.6796875,4.04296875,-2.5,-0.322265625,-0.3359375,0.181640625,2.0859375,-2.3984375,0.6875,1.0
4257644,,,,,,,,7.046875,5.5859375,-2.73828125,0.01171875,-0.234375,0.44921875,4.5390625,-0.10546875,0.34375,1.0
4257645,,,,,,,,8.2265625,7.63671875,-2.5390625,0.734375,-0.048828125,0.689453125,4.84765625,1.6953125,1.37890625,1.0
4257646,,,,,,,,5.625,10.1953125,0.52734375,1.138671875,-0.12890625,0.689453125,0.24609375,3.5703125,4.2890625,1.0
4257647,,,,,,,,2.4375,10.41015625,0.50390625,1.3046875,-0.31640625,0.3984375,-2.78125,3.53515625,1.953125,1.0
4257648,,,,,,,,0.75,10.38671875,-1.3359375,1.296875,-0.44140625,0.158203125,-2.85546875,3.4140625,0.9921875,1.0
4257649,,,,,,,,1.01171875,9.91796875,-3.33984375,1.05078125,-0.630859375,-0.4453125,-2.47265625,2.84765625,-0.421875,1.0
4257650,36.013121166666664,129.31905216666667,40.76225959463321,80.02019782551045,3.6,49.0,,0.4140625,8.5234375,-3.30078125,0.50390625,-0.638671875,-1.0234375,-3.7734375,0.8125,1.30078125,1.0
4257651,,,,,,,,-2.78515625,4.8984375,1.6015625,-0.427734375,-0.6640625,-1.462890625,-5.95703125,-5.046875,4.328125,1.0
4257652,,,,,,,,-0.3125,-0.44140625,-1.71484375,-0.724609375,-0.671875,-1.7109375,-0.7890625,-11.17578125,-0.8046875,1.0
4257653,,,,,,,,2.3671875,-4.26171875,-4.25,-0.357421875,-0.611328125,-1.615234375,1.5859375,-16.84765625,-1.6484375,1.0
4257654,,,,,,,,11.7265625,-33.390625,1.47265625,0.41796875,-0.5625,-0.966796875,16.375,-60.05859375,13.2890625,1.0
4257655,,,,,,,,24.8515625,-68.921875,19.453125,0.75390625,-0.48046875,-0.134765625,18.2109375,-75.30078125,29.1875,1.0
4257656,,,,,,,,16.421875,-46.75,23.12109375,0.662109375,-0.390625,0.513671875,13.078125,-37.109375,15.20703125,1.0
4257657,,,,,,,,5.4375,-14.51953125,3.5,1.65234375,-0.23828125,0.607421875,-7.796875,-15.73828125,5.16796875,1.0
4257658,,,,,,,,-4.8828125,-8.8203125,1.54296875,2.00390625,-0.2265625,0.58984375,-9.3671875,-14.8515625,1.953125,1.0
4257659,,,,,,,,-4.4453125,-9.58203125,-6.01171875,1.6484375,-0.51171875,0.958984375,-7.375,-16.42578125,-2.26171875,1.0
4257660,36.01312333333333,129.319056,41.10782867303507,80.26061113133913,3.6,53.0,,-1.1484375,-14.1328125,-3.34375,0.88671875,-0.7421875,1.994140625,-4.1953125,-20.83203125,0.609375,1.0
4257661,,,,,,,,3.43359375,-12.2265625,-0.34765625,1.3203125,0.642578125,-1.794921875,0.36328125,-18.875,3.67578125,1.0
4257662,,,,,,,,6.26171875,-10.84765625,-1.3203125,1.25,-0.02734375,-4.666015625,3.42578125,-17.5703125,2.7578125,1.0
4257663,,,,,,,,7.25390625,-9.92578125,-2.296875,1.96484375,0.06640625,-4.48046875,4.57421875,-16.69140625,1.8359375,1.0
4257664,,,,,,,,8.421875,-6.21875,-4.21484375,3.189453125,0.724609375,-1.693359375,5.953125,-12.98046875,0.07421875,1.0
4257665,,,,,,,,8.22265625,-4.05859375,-5.7265625,2.728515625,0.986328125,0.50390625,5.76171875,-10.7109375,-1.265625,1.0
4257666,,,,,,,,7.99609375,-2.4453125,-6.3203125,3.15234375,1.21875,0.4453125,5.2265625,-7.609375,-1.19140625,1.0
4257667,,,,,,,,7.68359375,-0.51953125,-5.2265625,3.6875,1.33203125,-0.083984375,4.95703125,-6.16015625,0.3046875,1.0
4257668,,,,,,,,7.58984375,0.171875,-4.546875,3.734375,1.380859375,-0.349609375,4.5390625,-4.12890625,1.26171875,1.0
4257669,,,,,,,,7.1640625,2.97265625,-3.9296875,3.306640625,1.5625,-0.48046875,4.609375,-2.2890625,0.765625,1.0
4257670,36.013124999999995,129.31905899999998,41.378274044091576,80.44554447424872,3.7,53.0,,-1.1484375,-14.1328125,-3.34375,0.88671875,-0.7421875,1.994140625,5.45703125,-0.14453125,-0.38671875,1.0
4257671,,,,,,,,8.68359375,6.19921875,-5.91796875,2.373046875,1.603515625,0.189453125,5.99609375,1.6171875,-1.11328125,1.0
4257672,,,,,,,,8.78125,7.484375,-6.46484375,2.279296875,1.53515625,0.40625,5.8359375,2.34765625,-1.53515625,1.0
4257673,,,,,,,,6.85546875,9.99609375,-8.3046875,2.06640625,1.33984375,0.630859375,3.92578125,4.30078125,-2.8359375,1.0
4257674,,,,,,,,6.94921875,6.8203125,-9.34375,1.439453125,0.91796875,0.072265625,3.8828125,1.3125,-3.7578125,1.0
4257675,,,,,,,,6.90234375,3.6640625,-8.34765625,1.12109375,0.6796875,-0.125,3.80859375,-1.7890625,-2.72265625,1.0
4257676,,,,,,,,6.21484375,2.91015625,-6.9140625,0.93359375,0.5390625,-0.10546875,3.12109375,-2.51953125,-1.265625,1.0
4257677,,,,,,,,3.921875,1.046875,-1.7578125,0.640625,0.36328125,0.02734375,0.8203125,-4.36328125,3.90625,1.0
4257678,,,,,,,,1.45703125,2.01171875,-1.1171875,0.400390625,0.58984375,0.36328125,-1.66796875,-3.36328125,4.55859375,1.0
4257679,,,,,,,,0.55859375,4.44921875,-2.5703125,0.306640625,0.67578125,0.4921875,-2.58984375,-0.91015625,3.1015625,1.0
4257680,36.01312716666666,129.319062,41.64871914095368,80.68595744828433,3.9000000000000004,51.0,,0.5703125,6.88671875,-4.1171875,0.88671875,-0.7421875,1.994140625,5.45703125,-0.14453125,-0.38671875,1.0
4257681,,,,,,,,1.359375,10.41015625,-6.37890625,-0.666015625,0.3984375,0.931640625,-1.8984375,5.0625,-0.76953125,1.0
4257682,,,,,,,,2.10546875,11.0234375,-5.89453125,-1.009765625,0.365234375,0.7421875,-1.20703125,5.64453125,-0.34765625,1.0
4257683,,,,,,,,2.578125,10.9609375,-5.625,-0.787109375,0.43359375,0.4140625,-0.75,5.56640625,-0.1171875,1.0
4257684,,,,,,,,3.69140625,10.08203125,-5.33984375,-0.283203125,0.517578125,-0.609375,0.36328125,4.640625,0.11328125,1.0
4257685,,,,,,,,4.140625,9.1015625,-4.7734375,0.048828125,0.560546875,-1.61328125,0.859375,3.61328125,0.6484375,1.0
4257686,,,,,,,,5.41796875,6.95703125,-3.0625,0.24609375,0.611328125,-2.08203125,2.27734375,1.38671875,2.33984375,1.0
4257687,,,,,,,,6.203125,1.390625,-3.4296875,0.107421875,0.59765625,-1.65625,3.15625,-4.2421875,1.953125,1.0
4257688,,,,,,,,5.5234375,-2.109375,-4.2578125,0.04296875,0.572265625,-1.333984375,2.5078125,-7.76953125,1.109375,1.0
4257689,,,,,,,,0.265625,-28.85546875,7.06640625,-0.052734375,0.490234375,-0.73046875,-2.703125,-34.5390625,12.41015625,1.0
4257690,36.01312966666667,129.3190655,41.96423841562513,80.96335705963968,3.8000000000000003,50.0,,-5.703125,-61.03515625,7.01953125,-0.064453125,0.30859375,0.04296875,-8.640625,-66.76171875,12.33203125,1.0
4257691,,,,,,,,0.87890625,-16.0078125,7.54296875,-0.23046875,0.107421875,0.775390625,-2.08984375,-21.75390625,12.83203125,1.0
4257692,,,,,,,,10.3046875,-7.87109375,-8.46875,-0.7734375,-0.021484375,1.205078125,7.296875,-13.62890625,-3.21875,1.0
4257693,,,,,,,,12.85546875,-8.96484375,-11.2734375,-0.943359375,-0.076171875,1.220703125,9.82421875,-14.734375,-6.0546875,1.0
4257694,,,,,,,,16.234375,-13.30078125,-6.890625,-0.779296875,-0.1484375,0.9296875,13.15625,-19.10546875,-1.7265625,1.0
4257695,,,,,,,,11.9375,-18.96484375,-0.9296875,1.478515625,-0.015625,1.330078125,8.828125,-24.73828125,4.25,1.0
4257696,,,,,,,,7.65625,-15.9296875,0.609375,0.30078125,0.255859375,0.33203125,4.5,-21.6328125,5.859375,1.0
4257697,,,,,,,,5.484375,-12.6484375,-0.83203125,-0.97265625,0.171875,-3.482421875,2.4296875,-18.453125,4.36328125,1.0
4257698,,,,,,,,4.02734375,-9.69140625,-3.6796875,-0.650390625,-0.146484375,-4.228515625,1.08984375,-15.578125,1.4921875,1.0
4257699,,,,,,,,2.20703125,-6.828125,-5.49609375,-1.74609375,-0.541015625,-2.056640625,-0.48046875,-12.8984375,-0.38671875,1.0
4257700,36.0131315,129.31906866666668,42.24970844769078,81.16678370880925,3.6,50.0,0.0,-1.12109375,-3.73046875,-6.2890625,-0.064453125,0.30859375,0.04296875,-8.640625,-66.76171875,12.33203125,1.0
4257701,,,,,,,,-3.1328125,-1.96875,-5.19921875,-2.966796875,-0.75390625,1.7734375,-5.8046875,-8.3046875,-0.38671875,1.0
4257702,,,,,,,,-4.60546875,-0.2890625,-3.71875,-2.802734375,-0.71875,1.1796875,-7.296875,-6.6953125,0.9921875,1.0
4257703,,,,,,,,-4.5,2.73046875,-3.14453125,-3.4453125,-1.328125,-0.615234375,-7.0703125,-3.97265625,1.22265625,1.0
4257704,,,,,,,,-4.05078125,6.2109375,-3.83984375,-4.396484375,-1.53515625,-0.283203125,-6.45703125,-0.796875,0.15234375,1.0
4257705,,,,,,,,-3.82421875,9.2265625,-3.4765625,-4.234375,-1.38671875,0.09375,-6.15234375,2.0390625,0.2265625,1.0
4257706,,,,,,,,-3.5859375,10.42578125,-3.07421875,-3.921875,-1.30078125,0.255859375,-5.8828125,3.15234375,0.49609375,1.0
4257707,,,,,,,,-2.65234375,11.9296875,-3.1015625,-3.037109375,-1.16015625,0.353515625,-4.921875,4.53125,0.2265625,1.0
4257708,,,,,,,,-1.87890625,9.9921875,-4.13671875,-2.263671875,-0.978515625,0.125,-4.1171875,2.5,-0.99609375,1.0
4257709,,,,,,,,-1.7109375,8.8828125,-4.21484375,-2.0546875,-0.876953125,-0.037109375,-3.93359375,1.3515625,-1.15234375,1.0
4257710,36.01313366666667,129.3190708333333,42.44502954935112,81.40719634558785,3.7,46.0,,-2.1796875,5.703125,-3.0625,-0.064453125,0.30859375,0.04296875,-4.35546875,-1.90625,-0.15625,1.0
4257711,,,,,,,,-2.1484375,4.79296875,-1.43359375,-1.505859375,-0.23828125,-0.087890625,-4.234375,-2.94140625,1.18359375,1.0
4257712,,,,,,,,-0.81640625,5.3828125,-1.68359375,-1.216796875,-0.244140625,0.017578125,-2.890625,-2.3671875,0.87890625,1.0
4257713,,,,,,,,0.8984375,6.2265625,-1.91796875,-0.46484375,-0.20703125,0.32421875,-1.171875,-1.5625,0.53515625,1.0
4257714,,,,,,,,3.17578125,8.11328125,-2.33984375,-0.26171875,-0.12890625,0.501953125,1.0859375,0.31640625,0.07421875,1.0
4257715,,,,,,,,4.40234375,11.3515625,-1.390625,0.224609375,-0.017578125,0.396484375,2.27734375,3.5703125,0.9921875,1.0
4257716,,,,,,,,4.21875,11.859375,-1.08203125,0.365234375,0.0078125,0.21875,2.0859375,4.0703125,1.30078125,1.0
4257717,,,,,,,,2.48046875,12.265625,-1.07421875,0.5546875,-0.09375,-0.263671875,0.36328125,4.49609375,1.33984375,1.0
4257718,,,,,,,,1.55859375,11.57421875,-1.796875,0.736328125,-0.28125,-0.619140625,-0.51953125,3.80078125,0.6484375,1.0
4257719,,,,,,,,1.12890625,11.19140625,-1.98046875,0.814453125,-0.375,-0.728515625,-0.90234375,3.41796875,0.49609375,1.0
4257720,36.01313566666667,129.319074,42.73049946569181,81.62911621811963,3.5,48.0,,-0.06640625,9.68359375,-1.72265625,0.81640625,-0.5546875,-0.814453125,-2.0078125,1.92578125,0.80078125,1.0
4257721,,,,,,,,-2.109375,7.078125,-0.05078125,0.548828125,-0.64453125,-0.81640625,-3.96875,-0.6796875,2.52734375,1.0
4257722,,,,,,,,-4.18359375,4.51953125,2.64453125,0.005859375,-0.669921875,-0.73828125,-5.95703125,-3.24609375,5.24609375,1.0
4257723,,,,,,,,-2.85546875,-1.59375,-2.51171875,-0.205078125,-0.6484375,-0.65625,-4.54296875,-9.375,0.07421875,1.0
4257724,,,,,,,,-1.7734375,-11.0859375,-1.5390625,-0.083984375,-0.595703125,-0.5703125,-3.390625,-18.87890625,1.03125,1.0
4257725,,,,,,,,10.23828125,-43.86328125,9.5390625,0.12109375,-0.564453125,-0.3203125,8.67578125,-51.6640625,12.1015625,1.0
4257726,,,,,,,,23.453125,-43.41015625,21.69140625,0.5546875,-0.419921875,0.15234375,21.9296875,-51.203125,24.28515625,1.0
4257727,,,,,,,,6.89453125,-14.234375,2.859375,1.111328125,-0.310546875,0.322265625,5.37890625,-22.01953125,5.515625,1.0
4257728,,,,,,,,-5.9375,-8.8359375,1.5234375,1.8828125,-0.24609375,0.171875,-7.453125,-16.578125,4.2890625,1.0
4257729,,,,,,,,-7.4296875,-13.42578125,-0.75390625,1.5546875,-0.3828125,0.361328125,-8.9453125,-21.1328125,2.14453125,1.0
4257730,36.013137666666665,129.31907733333335,43.03099415775101,81.85103617330769,3.3000000000000003,52.0,,0.484375,-15.73046875,0.4765625,0.81640625,-0.5546875,-0.814453125,-1.0546875,-23.390625,3.484375,1.0
4257731,,,,,,,,2.5625,-15.96875,1.9140625,1.19140625,0.681640625,1.3359375,1.08984375,-22.94140625,5.70703125,1.0
4257732,,,,,,,,1.8828125,-11.421875,0.15625,0.390625,0.80078125,-3.12890625,0.4375,-17.0,1.64453125,1.0
4257733,,,,,,,,2.0859375,-9.4140625,-1.58203125,0.09375,0.53515625,-4.0546875,0.9765625,-15.65625,0.3046875,1.0
4257734,,,,,,,,4.6640625,-6.74609375,-2.515625,2.5078125,0.669921875,-2.76953125,3.3125,-14.390625,0.7265625,1.0
4257735,,,,,,,,5.2109375,-6.625,-1.9609375,4.53515625,0.779296875,0.1328125,4.73046875,-13.703125,2.3359375,1.0
4257736,,,,,,,,6.22265625,-4.71875,-1.37109375,3.73046875,1.140625,0.537109375,4.99609375,-12.1328125,2.48828125,1.0
4257737,,,,,,,,6.22265625,2.6484375,-3.8359375,2.2265625,1.48828125,-0.708984375,4.95703125,-4.625,0.3046875,1.0
4257738,,,,,,,,6.30078125,3.796875,-4.47265625,2.31640625,1.673828125,-0.625,5.03515625,-3.4375,-0.26953125,1.0
4257739,,,,,,,,6.76171875,5.96875,-4.8671875,2.50390625,1.8203125,-0.03515625,5.45703125,-1.1796875,-0.5,1.0
4257740,36.0131395,129.31908016666665,43.28641455640296,82.05446270949966,3.6,51.0,,6.33203125,8.4140625,-4.88671875,0.81640625,-0.5546875,-0.814453125,4.95703125,1.3515625,-0.38671875,1.0
4257741,,,,,,,,5.65234375,8.71875,-5.26953125,1.91796875,1.767578125,0.01953125,4.1875,1.734375,-0.65234375,1.0
4257742,,,,,,,,5.4921875,8.5546875,-5.69140625,1.763671875,1.630859375,-0.12890625,4.0,1.6171875,-1.03515625,1.0
4257743,,,,,,,,4.4140625,8.03515625,-6.3671875,1.578125,1.33203125,-0.349609375,2.890625,1.16015625,-1.609375,1.0
4257744,,,,,,,,4.20703125,7.94921875,-6.53125,1.6796875,1.076171875,-0.306640625,2.66015625,1.12109375,-1.6875,1.0
4257745,,,,,,,,4.46875,5.6953125,-6.40234375,1.677734375,0.640625,0.123046875,2.890625,-1.0234375,-1.41796875,1.0
4257746,,,,,,,,4.72265625,5.0859375,-6.34375,1.427734375,0.359375,0.26953125,3.1171875,-1.5625,-1.265625,1.0
4257747,,,,,,,,5.34375,4.52734375,-5.15234375,1.19140625,0.189453125,0.2265625,3.73828125,-2.05859375,-0.00390625,1.0
4257748,,,,,,,,4.890625,4.80859375,-3.3828125,1.021484375,0.189453125,0.197265625,3.27734375,-1.75390625,1.796875,1.0
4257749,,,,,,,,3.08984375,6.140625,-1.375,0.353515625,0.169921875,0.048828125,1.47265625,-0.375,3.87109375,1.0
4257750,36.01314183333333,129.31908333333334,43.571884247188166,82.31336902332626,3.9000000000000004,49.0,,2.4765625,6.71484375,-1.22265625,0.16015625,0.162109375,0.009765625,0.859375,0.19921875,4.015625,1.0
4257751,,,,,,,,1.3203125,9.55859375,-3.3203125,-0.12890625,0.13671875,-0.060546875,-0.2890625,3.03125,1.9140625,1.0
4257752,,,,,,,,1.234375,10.29296875,-4.078125,-0.236328125,0.12109375,-0.095703125,-0.3671875,3.7578125,1.1484375,1.0
4257753,,,,,,,,1.2890625,11.58984375,-5.28125,-0.546875,0.03125,-0.1796875,-0.2890625,5.0234375,-0.078125,1.0
4257754,,,,,,,,0.7421875,12.42578125,-6.60546875,-0.775390625,0.087890625,-0.46875,-0.7890625,5.7890625,-1.49609375,1.0
4257755,,,,,,,,-0.1171875,12.16015625,-6.55859375,-0.53515625,0.294921875,-0.89453125,-1.59375,5.484375,-1.49609375,1.0
4257756,,,,,,,,-0.33984375,11.76171875,-6.45703125,-0.4140625,0.41015625,-1.146484375,-1.78515625,5.06640625,-1.41796875,1.0
4257757,,,,,,,,-1.14453125,9.84765625,-5.60546875,-0.37109375,0.5625,-1.50390625,-2.51171875,3.11328125,-0.61328125,1.0
4257758,,,,,,,,-0.671875,3.05859375,-3.1171875,-0.908203125,0.53125,-1.466796875,-1.8984375,-3.7421875,1.796875,1.0
4257759,,,,,,,,-0.16796875,-0.35546875,-2.65625,-1.107421875,0.46875,-1.326171875,-1.36328125,-7.19140625,2.21875,1.0
4257760,36.01314433333334,129.31908633333333,43.84232904011392,82.5907684807208,3.6,47.0,,-2.93359375,-47.1171875,24.2421875,-1.705078125,0.29296875,-0.501953125,-4.00390625,-54.12109375,28.8828125,1.0
4257761,,,,,,,,0.57421875,-18.2265625,5.14453125,-1.375,0.14453125,0.349609375,-0.48046875,-25.35546875,9.61328125,1.0
4257762,,,,,,,,6.09765625,-9.4453125,-3.47265625,-0.625,0.068359375,1.091796875,4.99609375,-16.62109375,0.91796875,1.0
4257763,,,,,,,,11.74609375,-5.52734375,-7.671875,0.3515625,0.001953125,1.888671875,10.55078125,-12.703125,-3.296875,1.0
4257764,,,,,,,,12.62109375,-6.203125,0.73046875,1.52734375,-0.146484375,2.94140625,11.27734375,-13.32421875,5.16796875,1.0
4257765,,,,,,,,5.8828125,-17.109375,1.86328125,2.953125,-0.595703125,2.904296875,4.34375,-24.08984375,6.47265625,1.0
4257766,,,,,,,,4.17578125,-17.74609375,1.8984375,1.86328125,-0.74609375,1.646484375,2.58203125,-24.65625,6.5859375,1.0
4257767,,,,,,,,1.9921875,-14.3515625,0.3046875,-1.859375,-0.671875,-1.435546875,0.4375,-21.29296875,4.9765625,1.0
4257768,,,,,,,,1.28515625,-10.91796875,-0.88671875,-1.376953125,-0.779296875,-4.091796875,-0.01953125,-17.9921875,3.67578125,1.0
4257769,,,,,,,,1.109375,-7.57421875,-2.73828125,-2.1171875,-1.083984375,-2.90234375,0.1328125,-14.77734375,1.72265625,1.0
4257770,36.013146166666665,129.31908933333335,44.11277419101296,82.79419511574784,3.3000000000000003,49.0,,0.1953125,-5.83203125,-2.3125,-1.705078125,0.29296875,-0.501953125,-0.6328125,-13.20703125,1.9140625,1.0
4257771,,,,,,,,-2.15625,-3.59765625,-1.046875,-3.5546875,-1.1640625,1.6484375,-3.046875,-11.2109375,2.7578125,1.0
4257772,,,,,,,,-2.77734375,-2.84375,-1.16015625,-3.1484375,-1.265625,1.259765625,-3.69921875,-10.5234375,2.52734375,1.0
4257773,,,,,,,,-4.1171875,1.9375,-3.078125,-2.8046875,-1.5078125,0.322265625,-5.0390625,-5.85546875,0.3828125,1.0
4257774,,,,,,,,-4.53125,3.33984375,-3.5390625,-2.95703125,-1.669921875,0.078125,-5.421875,-4.51171875,-0.1953125,1.0
4257775,,,,,,,,-4.9609375,6.9140625,-4.3359375,-3.123046875,-1.96484375,0.384765625,-5.765625,-1.1015625,-1.34375,1.0
4257776,,,,,,,,-4.56640625,10.07421875,-3.83203125,-2.990234375,-1.833984375,0.6484375,-5.34375,1.96484375,-1.07421875,1.0
4257777,,,,,,,,-4.06640625,11.8125,-2.9375,-3.041015625,-1.568359375,0.53515625,-4.84375,3.609375,-0.421875,1.0
4257778,,,,,,,,-3.5078125,12.3046875,-2.37109375,-3.0625,-1.10546875,0.298828125,-4.2734375,3.9921875,-0.23046875,1.0
4257779,,,,,,,,-3.23046875,11.89453125,-2.5703125,-3.025390625,-0.962890625,0.291015625,-4.0,3.53515625,-0.578125,1.0
4257780,36.013148,129.31909133333332,44.29307060385722,82.99762130451934,3.4000000000000004,46.0,,-3.15625,8.078125,-3.16015625,-1.705078125,0.29296875,-0.501953125,-3.93359375,-0.3359375,-1.41796875,1.0
4257781,,,,,,,,-3.7734375,5.59765625,-2.390625,-2.533203125,-0.509765625,0.703125,-4.578125,-2.86328125,-0.8828125,1.0
4257782,,,,,,,,-4.01171875,4.6953125,-1.9921875,-2.2734375,-0.47265625,0.861328125,-4.84765625,-3.78125,-0.578125,1.0
4257783,,,,,,,,-3.11328125,3.23046875,-0.515625,-1.51953125,-0.408203125,0.984375,-4.04296875,-5.2734375,0.6484375,1.0
4257784,,,,,,,,-2.078125,3.8828125,0.0546875,-0.908203125,-0.33984375,0.9140625,-3.0859375,-4.62890625,1.109375,1.0
4257785,,,,,,,,0.734375,8.140625,-0.16796875,-0.236328125,-0.3203125,0.79296875,-0.3671875,-0.375,0.80078125,1.0
4257786,,,,,,,,1.5625,10.1171875,-0.1796875,-0.017578125,-0.330078125,0.783203125,0.3984375,1.6171875,0.765625,1.0
4257787,,,,,,,,1.50390625,10.6171875,0.15625,0.271484375,-0.189453125,0.615234375,0.28515625,2.12109375,1.109375,1.0
4257788,,,,,,,,0.453125,12.4765625,2.23828125,0.498046875,-0.150390625,0.18359375,-0.7890625,3.9921875,3.21484375,1.0
4257789,,,,,,,,-0.12109375,13.08984375,2.4921875,0.5390625,-0.185546875,-0.119140625,-1.36328125,4.60546875,3.484375,1.0
4257790,36.01315016666667,129.3190945,44.578540330813006,83.23803444473651,3.4000000000000004,48.0,,-0.97265625,13.7421875,1.87890625,-1.705078125,0.29296875,-0.501953125,-3.93359375,-0.3359375,-1.41796875,1.0
4257791,,,,,,,,-0.91796875,12.515625,0.10546875,0.634765625,-0.4296875,-1.36328125,-2.01171875,4.03125,1.18359375,1.0
4257792,,,,,,,,-2.6015625,7.58203125,3.8359375,0.681640625,-0.48046875,-1.73046875,-3.546875,-0.91015625,4.98046875,1.0
4257793,,,,,,,,-3.890625,2.6875,4.265625,0.599609375,-0.498046875,-2.041015625,-4.578125,-5.81640625,5.4765625,1.0
4257794,,,,,,,,-4.40234375,-8.5390625,4.5234375,0.8359375,-0.5,-2.037109375,-4.92578125,-17.0390625,5.78125,1.0
4257795,,,,,,,,-2.4140625,-24.09765625,6.24609375,1.0625,-0.58984375,-1.30859375,-2.78125,-32.5859375,7.58203125,1.0
4257796,,,,,,,,18.79296875,-46.984375,16.4375,1.048828125,-0.6484375,-0.73046875,18.48046875,-55.4609375,17.8125,1.0
4257797,,,,,,,,27.8125,-49.28125,27.49609375,0.9453125,-0.650390625,0.365234375,27.5234375,-57.7578125,28.95703125,1.0
4257798,,,,,,,,2.8125,-18.8828125,6.94921875,1.158203125,-0.47265625,1.11328125,2.46875,-27.34765625,8.50390625,1.0
4257799,,,,,,,,-5.328125,-9.55078125,4.8828125,1.53515625,-0.53125,1.486328125,-5.765625,-17.99609375,6.546875,1.0
4257800,36.01315233333333,129.319098,44.894059607397836,83.47844774711771,3.6,51.0,0.0,-4.90625,-4.5625,0.55078125,1.248046875,-0.654296875,1.07421875,-5.5,-12.9765625,2.37109375,1.0
4257801,,,,,,,,-1.39453125,-11.48046875,-0.9140625,1.587890625,0.46875,1.234375,-2.05078125,-19.87109375,1.03125,1.0
4257802,,,,,,,,-0.20703125,-12.2265625,0.11328125,0.96875,1.025390625,1.78125,-0.94140625,-20.60546875,2.10546875,1.0
4257803,,,,,,,,3.7265625,-10.31640625,2.85546875,0.71484375,0.33984375,-1.62890625,2.9296875,-18.6796875,4.94140625,1.0
4257804,,,,,,,,4.8671875,-8.9140625,1.55078125,0.802734375,0.013671875,-4.232421875,4.34375,-17.3046875,3.67578125,1.0
4257805,,,,,,,,3.54296875,-6.91015625,-1.21484375,4.546875,0.265625,-1.451171875,3.42578125,-15.23828125,1.26171875,1.0
4257806,,,,,,,,3.90234375,-3.21875,-0.9453125,3.783203125,0.806640625,0.52734375,3.80859375,-11.44921875,1.875,1.0
4257807,,,,,,,,4.09375,-2.0078125,-1.015625,3.291015625,1.126953125,0.724609375,3.9609375,-10.1796875,1.953125,1.0
4257808,,,,,,,,4.171875,0.55859375,-1.57421875,2.994140625,1.423828125,0.4921875,3.9609375,-7.53125,1.64453125,1.0
4257809,,,,,,,,4.2578125,1.78125,-1.99609375,3.048828125,1.568359375,0.341796875,4.0,-6.2734375,1.33984375,1.0
4257810,36.013154166666666,129.319101,45.164504704636244,83.68187441502002,3.6,52.0,,3.91796875,7.921875,-4.33984375,2.798828125,1.841796875,0.357421875,3.54296875,0.0078125,-0.65234375,1.0
4257811,,,,,,,,3.3828125,11.078125,-5.78125,2.095703125,1.712890625,0.42578125,2.8125,3.34765625,-1.7265625,1.0
4257812,,,,,,,,2.97265625,11.62109375,-6.01171875,2.02734375,1.609375,0.369140625,2.35546875,3.91796875,-1.87890625,1.0
4257813,,,,,,,,2.78125,11.3515625,-6.0,1.96875,1.37109375,0.2421875,2.0859375,3.73046875,-1.7265625,1.0
4257814,,,,,,,,2.8828125,10.99609375,-6.21484375,2.060546875,1.130859375,0.240234375,2.125,3.45703125,-1.80078125,1.0
4257815,,,,,,,,4.4609375,7.4921875,-7.09375,2.0390625,0.826171875,0.41015625,3.6171875,0.0859375,-2.453125,1.0
4257816,,,,,,,,4.921875,6.37109375,-7.15625,1.90625,0.71875,0.4765625,4.0390625,-0.98828125,-2.453125,1.0
4257817,,,,,,,,5.52734375,5.0625,-7.16796875,1.587890625,0.564453125,0.66015625,4.5703125,-2.2109375,-2.33984375,1.0
4257818,,,,,,,,5.62890625,4.6015625,-6.1953125,1.29296875,0.517578125,0.82421875,4.609375,-2.59375,-1.265625,1.0
4257819,,,,,,,,5.4765625,4.68359375,-5.69921875,1.1640625,0.5,0.849609375,4.42578125,-2.48046875,-0.73046875,1.0
4257820,36.01315616666667,129.319104,45.43494969446638,83.90379429902615,3.8000000000000003,50.0,,4.8203125,5.125,-4.95703125,1.060546875,0.5,0.783203125,3.54296875,0.0078125,-0.65234375,1.0
4257821,,,,,,,,3.89453125,5.75390625,-4.4140625,0.998046875,0.494140625,0.73046875,2.6953125,-1.29296875,0.6875,1.0
4257822,,,,,,,,1.6640625,7.31640625,-2.78515625,0.775390625,0.44140625,0.740234375,0.3984375,0.31640625,2.37109375,1.0
4257823,,,,,,,,0.21875,9.98046875,-2.1640625,0.064453125,0.359375,0.638671875,-1.1328125,3.03515625,3.0234375,1.0
4257824,,,,,,,,0.2265625,10.91015625,-3.99609375,-0.240234375,0.345703125,0.390625,-1.171875,3.95703125,1.18359375,1.0
4257825,,,,,,,,0.52734375,10.83203125,-4.65234375,-0.375,0.33203125,0.078125,-0.90234375,3.87890625,0.49609375,1.0
4257826,,,,,,,,1.109375,10.50390625,-4.859375,-0.462890625,0.32421875,-0.08984375,-0.328125,3.53125,0.265625,1.0
4257827,,,,,,,,1.8203125,8.54296875,-3.9296875,-0.638671875,0.380859375,-0.435546875,0.3984375,1.5390625,1.1484375,1.0
4257828,,,,,,,,2.05859375,5.69921875,-2.65234375,-0.693359375,0.56640625,-0.802734375,0.66796875,-1.33203125,2.37109375,1.0
4257829,,,,,,,,3.15234375,0.0625,-3.60546875,-0.673828125,0.625,-0.982421875,1.77734375,-7.00390625,1.37890625,1.0
4257830,36.01315833333333,129.31910666666667,45.67534500249798,84.14420724227544,3.4000000000000004,48.0,,2.41015625,-15.16015625,1.34375,-0.71875,0.564453125,-1.19921875,1.12890625,-22.28515625,6.2421875,1.0
4257831,,,,,,,,-7.30859375,-60.4609375,23.28125,-0.78515625,0.521484375,-0.9609375,-8.52734375,-67.64453125,28.1171875,1.0
4257832,,,,,,,,-9.8515625,-58.72265625,19.09765625,-0.787109375,0.513671875,-0.779296875,-11.0546875,-65.91796875,23.90234375,1.0
4257833,,,,,,,,-2.59765625,-12.140625,3.59375,-0.654296875,0.4765625,-0.046875,-3.77734375,-19.41796875,8.3125,1.0
4257834,,,,,,,,12.421875,-10.4296875,-14.01953125,-0.271484375,0.419921875,0.693359375,11.203125,-17.73046875,-9.34765625,1.0
4257835,,,,,,,,19.13671875,-12.4453125,-9.32421875,-0.591796875,0.48046875,2.369140625,17.75390625,-19.76171875,-4.71484375,1.0
4257836,,,,,,,,13.98828125,-14.328125,-2.765625,0.037109375,0.27734375,3.107421875,12.50390625,-21.6328125,1.8359375,1.0
4257837,,,,,,,,7.61328125,-15.609375,0.7265625,0.375,-0.45703125,2.48828125,5.91796875,-22.86328125,5.359375,1.0
4257838,,,,,,,,3.8046875,-13.234375,-0.0234375,-1.353515625,0.021484375,-1.53125,2.0859375,-20.52734375,4.5546875,1.0
4257839,,,,,,,,3.6015625,-11.76953125,-1.32421875,-0.728515625,0.279296875,-3.48046875,1.96875,-19.1015625,3.21484375,1.0
4257840,36.013160166666665,129.31910933333333,45.91574049162964,84.34763377701022,3.2,49.0,,1.890625,-8.3984375,-4.2109375,-0.71875,0.564453125,-1.19921875,1.12890625,-22.28515625,6.2421875,1.0
4257841,,,,,,,,-0.60546875,-5.5625,-4.15625,-1.919921875,-0.306640625,-0.55859375,-1.74609375,-13.05859375,0.3046875,1.0
4257842,,,,,,,,-1.25390625,-4.80078125,-3.90234375,-3.37890625,-0.322265625,0.9609375,-2.39453125,-12.36328125,0.45703125,1.0
4257843,,,,,,,,-3.4765625,-2.0625,-3.58203125,-4.73046875,-0.73046875,1.8359375,-4.6953125,-9.796875,0.45703125,1.0
4257844,,,,,,,,-5.08203125,1.2109375,-4.65625,-4.248046875,-0.78515625,0.90625,-6.37890625,-6.69921875,-0.9609375,1.0
4257845,,,,,,,,-5.8359375,3.29296875,-5.17578125,-3.4765625,-1.115234375,-0.033203125,-7.11328125,-4.81640625,-1.91796875,1.0
4257846,,,,,,,,-6.1484375,6.453125,-4.6875,-3.84375,-1.5234375,0.056640625,-7.37890625,-1.7890625,-1.7265625,1.0
4257847,,,,,,,,-5.33984375,9.87890625,-2.30078125,-4.0390625,-1.5859375,0.052734375,-6.49609375,1.46484375,0.19140625,1.0
4257848,,,,,,,,-4.84765625,11.3984375,-0.92578125,-4.08984375,-1.47265625,-0.1640625,-5.95703125,2.8828125,1.22265625,1.0
4257849,,,,,,,,-4.52734375,12.171875,-0.484375,-4.0078125,-1.412109375,-0.21484375,-5.61328125,3.609375,1.4921875,1.0
4257850,36.01316216666667,129.31911116666666,46.08101195265877,84.56955313184307,3.1,45.0,,-4.60546875,12.44140625,-0.81640625,-0.71875,0.564453125,-1.19921875,-5.6484375,3.80078125,0.83984375,1.0
4257851,,,,,,,,-4.8046875,11.1875,-1.19140625,-2.908203125,-1.1015625,0.474609375,-5.84765625,2.5,0.19140625,1.0
4257852,,,,,,,,-5.01953125,9.265625,-1.234375,-2.337890625,-0.822265625,0.8671875,-6.11328125,0.546875,-0.078125,1.0
4257853,,,,,,,,-4.7265625,6.4453125,-1.5234375,-2.12109375,-0.693359375,0.9296875,-5.84375,-2.2890625,-0.4609375,1.0
4257854,,,,,,,,-2.37109375,5.7265625,-1.84765625,-1.431640625,-0.513671875,0.611328125,-3.62109375,-3.015625,-1.11328125,1.0
4257855,,,,,,,,-0.03515625,6.26171875,-0.671875,-0.908203125,-0.51171875,0.32421875,-1.32421875,-2.48046875,-0.0390625,1.0
4257856,,,,,,,,1.8515625,6.921875,0.38671875,-0.408203125,-0.4765625,0.123046875,0.5546875,-1.83203125,0.95703125,1.0
4257857,,,,,,,,3.390625,7.83203125,0.8984375,0.103515625,-0.4140625,0.107421875,2.08984375,-0.91015625,1.453125,1.0
4257858,,,,,,,,4.6171875,10.0234375,0.34765625,0.40234375,-0.33984375,0.12890625,3.31640625,1.2734375,0.91796875,1.0
4257859,,,,,,,,4.671875,11.5390625,0.03125,0.958984375,-0.15625,0.150390625,3.35546875,2.8046875,0.6484375,1.0
4257860,36.01316433333333,129.31911483333334,46.41155592815941,84.80996656827608,3.7,49.0,,4.02734375,13.02734375,0.703125,-0.71875,0.564453125,-1.19921875,2.69921875,4.30078125,1.4140625,1.0
4257861,,,,,,,,1.0390625,13.43359375,2.546875,1.34375,-0.2265625,0.01171875,-0.2890625,4.72265625,3.3671875,1.0
4257862,,,,,,,,-1.88671875,12.52734375,1.59765625,1.41015625,-0.43359375,-0.25,-3.19921875,3.8359375,2.52734375,1.0
4257863,,,,,,,,-2.31640625,11.29296875,0.67578125,1.32421875,-0.607421875,-0.748046875,-3.578125,2.61328125,1.72265625,1.0
4257864,,,,,,,,-3.26171875,7.37890625,2.7890625,0.86328125,-0.689453125,-1.29296875,-4.42578125,-1.29296875,3.9453125,1.0
4257865,,,,,,,,-2.015625,-1.27734375,1.953125,0.107421875,-0.69140625,-1.634765625,-3.046875,-9.9453125,3.140625,1.0
4257866,,,,,,,,-1.40625,-6.9765625,2.44921875,-0.33203125,-0.685546875,-1.6953125,-2.359375,-15.66015625,3.63671875,1.0
4257867,,,,,,,,15.66796875,-44.9921875,26.46875,0.048828125,-0.51953125,-0.990234375,14.99609375,-53.6953125,27.578125,1.0
4257868,,,,,,,,4.5703125,-11.4375,3.8359375,0.78125,-0.34765625,0.23828125,3.9609375,-20.140625,5.015625,1.0
4257869,,,,,,,,-5.9921875,-7.921875,1.7265625,1.345703125,-0.248046875,0.869140625,-6.6484375,-16.6171875,2.984375,1.0
4257870,36.013166500000004,129.31911833333334,46.727075100572506,85.050379939378,3.5,52.0,,-4.796875,-11.16015625,0.98046875,1.470703125,-0.431640625,1.3125,-5.5390625,-19.828125,2.37109375,1.0
4257871,,,,,,,,-1.4375,-13.796875,2.34375,1.640625,-0.501953125,1.201171875,-2.28125,-22.4375,3.8671875,1.0
4257872,,,,,,,,-0.47265625,-13.69140625,2.51953125,1.45703125,-0.318359375,1.392578125,-1.36328125,-22.3203125,4.09765625,1.0
4257873,,,,,,,,2.91796875,-10.15234375,0.125,1.724609375,-0.03125,0.341796875,1.93359375,-18.7578125,1.8359375,1.0
4257874,,,,,,,,4.7890625,-8.7734375,0.4609375,1.13671875,-0.0234375,-4.19921875,4.0,-17.38671875,2.296875,1.0
4257875,,,,,,,,6.17578125,-8.4140625,1.01171875,1.6171875,-0.201171875,-4.318359375,5.76171875,-17.04296875,2.94921875,1.0
4257876,,,,,,,,5.1796875,-7.921875,0.3125,2.630859375,0.1015625,-2.779296875,4.921875,-16.54296875,2.3359375,1.0
4257877,,,,,,,,4.41015625,-6.18359375,-1.08203125,3.53125,1.076171875,0.623046875,4.23046875,-14.69921875,1.37890625,1.0
4257878,,,,,,,,4.296875,-0.671875,-3.78515625,2.859375,1.21875,0.271484375,4.0390625,-9.109375,-1.03515625,1.0
4257879,,,,,,,,4.48828125,0.1015625,-4.28125,2.951171875,1.326171875,0.0703125,4.19140625,-8.265625,-1.3046875,1.0
4257880,36.01316833333333,129.31912116666666,46.982495322696636,85.25380658279127,3.5,52.0,,4.4765625,3.80859375,-3.30078125,2.810546875,1.546875,0.15234375,4.078125,-4.390625,0.15234375,1.0
4257881,,,,,,,,4.109375,7.12109375,-3.015625,2.564453125,1.546875,0.060546875,3.65625,-0.98828125,0.6484375,1.0
4257882,,,,,,,,4.25390625,7.8125,-3.34765625,2.501953125,1.5234375,0.021484375,3.765625,-0.2578125,0.41796875,1.0
4257883,,,,,,,,3.8359375,10.62890625,-4.84375,2.412109375,1.392578125,0.228515625,3.2734375,2.69140625,-0.8046875,1.0
4257884,,,,,,,,3.57421875,11.4609375,-5.3984375,2.33984375,1.330078125,0.40234375,2.96484375,3.5703125,-1.265625,1.0
4257885,,,,,,,,3.8515625,12.25,-6.55859375,2.080078125,1.22265625,0.654296875,3.15625,4.45703125,-2.26171875,1.0
4257886,,,,,,,,4.66796875,11.40625,-7.54296875,1.705078125,1.10546875,0.62109375,3.8828125,3.6875,-3.10546875,1.0
4257887,,,,,,,,5.75,9.296875,-7.7890625,1.501953125,1.041015625,0.53515625,4.92578125,1.6171875,-3.296875,1.0
4257888,,,,,,,,6.5859375,6.21484375,-7.140625,0.8125,0.765625,0.078125,5.65234375,-1.37109375,-2.4921875,1.0
4257889,,,,,,,,5.69140625,5.734375,-6.16796875,0.736328125,0.701171875,0.04296875,4.7265625,-1.828125,-1.49609375,1.0
4257890,36.0131705,129.31912416666668,47.25294011845524,85.49421973096344,3.8000000000000003,50.0,,1.69921875,5.37890625,-1.43359375,0.60546875,0.6640625,0.1015625,0.70703125,-2.13671875,3.29296875,1.0
4257891,,,,,,,,-1.94140625,5.01171875,1.5625,0.416015625,0.556640625,0.3046875,-2.97265625,-2.48046875,6.32421875,1.0
4257892,,,,,,,,-2.94140625,7.5546875,-1.2890625,-0.09765625,0.333984375,0.705078125,-4.04296875,0.0859375,3.484375,1.0
4257893,,,,,,,,-2.63671875,8.703125,-2.61328125,-0.341796875,0.265625,0.8125,-3.77734375,1.234375,2.14453125,1.0
4257894,,,,,,,,-1.078125,11.24609375,-5.40234375,-1.080078125,0.3125,0.763671875,-1.1328125,4.49609375,-0.9609375,1.0
4257895,,,,,,,,0.44140625,12.0078125,-5.34765625,-1.271484375,0.52734375,0.291015625,-0.51953125,4.41796875,-0.5390625,1.0
4257896,,,,,,,,1.16015625,11.6015625,-4.90234375,-0.810546875,0.74609375,-0.646484375,0.09375,3.57421875,-0.421875,1.0
4257897,,,,,,,,1.7109375,10.61328125,-4.70703125,-0.3671875,0.740234375,-1.552734375,0.8203125,2.2265625,0.2265625,1.0
4257898,,,,,,,,2.0546875,9.85546875,-4.1953125,-0.244140625,0.66796875,-1.7890625,1.77734375,0.046875,2.6015625,1.0
4257899,,,,,,,,5.6015625,2.88671875,-2.8359375,-0.130859375,0.548828125,-1.7890625,4.5390625,-4.77734375,1.53125,1.0
4257900,36.013173,129.3191273333333,47.538409475857165,85.7716193828537,3.7,49.0,0.0,5.60546875,-9.81640625,1.32421875,-0.26953125,0.50390625,-1.45703125,0.70703125,-2.13671875,3.29296875,1.0
4257901,,,,,,,,-5.66015625,-57.1796875,22.5390625,-0.416015625,0.46484375,-1.083984375,-6.53515625,-64.8828125,26.8515625,1.0
4257902,,,,,,,,-9.71875,-68.234375,23.43359375,-0.4296875,0.43359375,-0.880859375,-10.5546875,-75.953125,27.73046875,1.0
4257903,,,,,,,,-7.26171875,-25.23046875,10.13671875,-0.232421875,0.373046875,-0.291015625,-8.06640625,-32.96875,14.40234375,1.0
4257904,,,,,,,,-2.81640625,-12.8125,6.47265625,-0.056640625,0.330078125,0.119140625,-3.62109375,-20.5625,10.72265625,1.0
4257905,,,,,,,,8.203125,-5.80859375,-12.16796875,0.146484375,0.197265625,1.447265625,7.296875,-13.546875,-7.89453125,1.0
4257906,,,,,,,,15.8984375,-9.515625,-9.66796875,-1.208984375,0.197265625,2.3359375,14.84375,-17.265625,-5.44140625,1.0
4257907,,,,,,,,14.296875,-12.84375,-2.16015625,-0.994140625,0.0078125,2.625,13.15625,-20.6015625,2.02734375,1.0
4257908,,,,,,,,8.15625,-15.73046875,2.33203125,0.876953125,-0.197265625,2.015625,6.8359375,-23.47265625,6.51171875,1.0
4257909,,,,,,,,6.75390625,-16.24609375,2.734375,-0.111328125,0.1796875,0.74609375,5.37890625,-23.96875,6.9296875,1.0
4257910,36.01317483333333,129.3191305,47.823879224310325,85.97504621412816,3.5,52.0,,3.90234375,-12.18359375,-1.30078125,-1.642578125,0.41015625,-3.447265625,0.70703125,-2.13671875,3.29296875,1.0
4257911,,,,,,,,1.390625,-9.4765625,-2.74609375,-0.6015625,-0.384765625,-4.5859375,0.4765625,-17.38671875,1.26171875,1.0
4257912,,,,,,,,-1.2578125,-5.94921875,-3.38671875,-1.90625,-0.716796875,-1.359375,-1.8984375,-13.9296875,0.53515625,1.0
4257913,,,,,,,,-4.3828125,-2.1171875,-2.82421875,-3.453125,-0.8828125,2.205078125,-5.0390625,-10.21875,0.87890625,1.0
4257914,,,,,,,,-5.125,-0.12109375,-3.8359375,-3.423828125,-0.970703125,1.921875,-5.921875,-8.3359375,-0.421875,1.0
4257915,,,,,,,,-6.08203125,3.2109375,-4.109375,-3.08984375,-0.99609375,0.13671875,-6.9140625,-5.125,-0.9609375,1.0
4257916,,,,,,,,-6.1875,4.30859375,-3.3125,-3.79296875,-1.69140625,-0.669921875,-7.0703125,-2.94140625,-0.00390625,1.0
4257917,,,,,,,,-6.0625,7.30078125,-1.74609375,-4.033203125,-1.736328125,-0.484375,-6.45703125,-0.640625,0.95703125,1.0
4257918,,,,,,,,-5.54296875,8.64453125,-1.37890625,-3.857421875,-1.64453125,-0.35546875,-5.73046875,1.96484375,0.95703125,1.0
4257919,,,,,,,,-4.6640625,13.00390625,-0.20703125,-3.1484375,-1.48046875,-0.029296875,-5.12109375,4.18359375,1.37890625,1.0
4257920,36.01317683333333,129.31913183333333,47.94407626421946,86.19696535960429,3.2,46.0,,-3.67578125,14.01171875,-1.4140625,-2.546875,-1.32421875,0.4296875,0.70703125,-2.13671875,3.29296875,1.0
4257921,,,,,,,,-2.953125,13.0078125,-2.33203125,-1.998046875,-1.109375,0.583984375,-3.4296875,4.109375,-1.19140625,1.0
4257922,,,,,,,,-2.78515625,10.28515625,-2.75,-1.796875,-0.982421875,0.509765625,-3.27734375,1.38671875,-1.6875,1.0
4257923,,,,,,,,-3.375,7.4296875,-1.78125,-1.587890625,-0.8203125,0.279296875,-3.890625,-1.484375,-0.8828125,1.0
4257924,,,,,,,,-3.91015625,5.7578125,-0.29296875,-1.52734375,-0.771484375,0.177734375,-4.421875,-3.171875,0.53515625,1.0
4257925,,,,,,,,-3.87109375,5.8359375,0.20703125,-0.96875,-0.630859375,-0.037109375,-4.0,-2.7109375,1.37890625,1.0
4257926,,,,,,,,-2.41796875,6.92578125,0.8046875,-0.4765625,-0.533203125,-0.025390625,-2.1640625,-1.484375,1.4140625,1.0
4257927,,,,,,,,-1.66015625,7.4609375,0.8203125,-0.330078125,-0.49609375,0.046875,-1.36328125,-0.87109375,1.30078125,1.0
4257928,,,,,,,,0.5234375,9.3359375,0.28515625,-0.19921875,-0.41015625,0.314453125,0.5546875,0.97265625,0.609375,1.0
4257929,,,,,,,,1.0703125,9.90625,0.0703125,0.123046875,-0.15234375,0.615234375,1.12890625,2.078125,-0.0390625,1.0
4257930,36.01317866666667,129.31913433333332,48.169446864125234,86.4003918752424,3.1,46.0,,-3.67578125,14.01171875,-1.4140625,0.509765625,-0.080078125,0.298828125,0.3984375,3.7265625,1.109375,1.0
4257931,,,,,,,,0.63671875,12.5625,0.875,0.771484375,-0.21484375,-0.072265625,-0.44140625,3.37890625,1.68359375,1.0
4257932,,,,,,,,-0.17578125,11.93359375,1.08203125,0.953125,-0.37890625,-0.484375,-1.20703125,2.5703125,1.76171875,1.0
4257933,,,,,,,,-1.265625,10.04296875,1.109375,0.982421875,-0.470703125,-0.8671875,-2.20703125,0.046875,2.06640625,1.0
4257934,,,,,,,,-3.06640625,6.546875,3.3671875,0.8125,-0.4140625,-1.072265625,-3.58203125,-2.328125,4.171875,1.0
4257935,,,,,,,,-4.00390625,1.32421875,3.23046875,0.537109375,-0.3125,-1.115234375,-4.42578125,-7.53125,4.09765625,1.0
4257936,,,,,,,,-3.4453125,-1.671875,1.51171875,0.45703125,-0.267578125,-1.119140625,-3.8125,-10.52734375,2.41015625,1.0
4257937,,,,,,,,-0.0625,-19.87890625,3.41015625,0.458984375,-0.240234375,-1.0,-0.2890625,-28.72265625,4.36328125,1.0
4257938,,,,,,,,23.83984375,-59.76171875,23.29296875,0.66015625,-0.24609375,-0.607421875,23.69140625,-68.59765625,24.28515625,1.0
4257939,,,,,,,,17.296875,-32.2265625,23.875,1.056640625,-0.150390625,0.224609375,7.21875,-24.58203125,4.59375,1.0
4257940,36.01318066666667,129.31913766666668,48.469941253447715,86.62231201784148,3.1,50.0,,3.13671875,-12.66015625,1.29296875,1.6640625,-0.087890625,0.564453125,-5.69140625,-18.68359375,2.71875,1.0
4257941,,,,,,,,-7.35546875,-10.5078125,1.94921875,1.640625,-0.265625,0.84765625,-6.265625,-19.21875,2.83203125,1.0
4257942,,,,,,,,-3.9609375,-10.59375,1.140625,1.703125,-0.283203125,0.716796875,-4.1953125,-19.375,2.6015625,1.0
4257943,,,,,,,,2.4296875,-12.77734375,3.3515625,2.125,0.291015625,1.326171875,2.0859375,-21.515625,5.0546875,1.0
4257944,,,,,,,,3.1875,-12.9453125,2.75,1.978515625,0.498046875,1.3515625,2.7734375,-21.67578125,4.5546875,1.0
4257945,,,,,,,,3.515625,-8.37109375,-0.35546875,1.45703125,0.552734375,-3.068359375,3.15625,-17.07421875,1.60546875,1.0
4257946,,,,,,,,3.75,-6.88671875,-1.6796875,1.23046875,0.140625,-4.279296875,3.734375,-15.58203125,0.3828125,1.0
4257947,,,,,,,,4.08203125,-6.48046875,-1.1015625,2.1796875,0.32421875,-3.529296875,4.23046875,-15.16015625,1.03125,1.0
4257948,,,,,,,,3.83984375,-5.29296875,0.6796875,4.255859375,0.7734375,-0.62109375,4.15234375,-13.890625,3.1015625,1.0
4257949,,,,,,,,3.75,-4.73046875,0.44921875,3.34375,1.091796875,0.482421875,4.0390625,-13.24609375,3.21484375,1.0
4257950,36.013182666666665,129.31914049999997,48.72536128473921,86.84423191996815,3.3000000000000003,51.0,,3.7265625,0.1484375,-2.74609375,2.41796875,1.51953125,-0.416015625,3.9609375,-8.23046875,0.45703125,1.0
4257951,,,,,,,,4.41796875,4.21484375,-4.640625,2.5859375,1.66796875,0.181640625,4.61328125,-4.08984375,-1.2265625,1.0
4257952,,,,,,,,4.7265625,6.4765625,-4.875,2.509765625,1.71484375,0.53125,4.8828125,-1.7890625,-1.34375,1.0
4257953,,,,,,,,4.8828125,8.37890625,-4.45703125,2.177734375,1.720703125,0.75,4.921875,0.19921875,-0.73046875,1.0
4257954,,,,,,,,4.33203125,9.8515625,-4.19140625,1.88671875,1.58984375,0.427734375,4.26953125,1.734375,-0.30859375,1.0
4257955,,,,,,,,3.64453125,9.85546875,-4.9921875,1.7734375,1.3828125,0.05859375,3.5,1.80859375,-0.9609375,1.0
4257956,,,,,,,,3.3515625,9.7890625,-5.25390625,1.775390625,1.275390625,-0.0234375,3.19921875,1.7734375,-1.15234375,1.0
4257957,,,,,,,,2.7734375,8.56640625,-6.046875,1.8203125,0.95703125,0.232421875,2.55078125,0.66015625,-1.7265625,1.0
4257958,,,,,,,,3.515625,7.0078125,-6.265625,1.296875,0.59765625,0.53125,3.1953125,-0.796875,-1.765625,1.0
4257959,,,,,,,,3.90234375,6.51953125,-6.3125,1.072265625,0.501953125,0.521484375,3.5390625,-1.25390625,-1.765625,1.0
4257960,36.01318466666667,129.31914333333333,48.98078130925786,87.06615183052827,3.5,49.0,,4.16796875,6.05859375,-5.5703125,2.41796875,1.51953125,-0.416015625,3.76953125,-1.67578125,-0.9609375,1.0
4257961,,,,,,,,2.9453125,6.82421875,-4.58984375,0.419921875,0.361328125,0.126953125,2.51171875,-0.87109375,0.07421875,1.0
4257962,,,,,,,,2.30859375,7.19921875,-4.296875,0.37890625,0.3515625,0.0625,1.8515625,-0.48828125,0.3828125,1.0
4257963,,,,,,,,-1.20703125,8.859375,-1.52734375,0.1015625,0.3125,-0.0234375,-1.66796875,1.1953125,3.171875,1.0
4257964,,,,,,,,-1.8515625,10.4765625,-1.43359375,-0.349609375,0.28125,-0.033203125,-2.3203125,2.8046875,3.25390625,1.0
4257965,,,,,,,,-1.15234375,12.453125,-3.5625,-0.921875,0.224609375,-0.1328125,-1.62890625,4.76171875,1.0703125,1.0
4257966,,,,,,,,-0.90234375,12.78515625,-4.01953125,-1.1484375,0.22265625,-0.220703125,-1.36328125,5.0625,0.57421875,1.0
4257967,,,,,,,,-0.39453125,12.6484375,-4.890625,-1.369140625,0.404296875,-0.603515625,-0.82421875,4.8359375,-0.4609375,1.0
4257968,,,,,,,,-0.51171875,11.23828125,-4.4453125,-1.0625,0.5625,-0.849609375,-0.90234375,3.37890625,-0.1171875,1.0
4257969,,,,,,,,-0.65625,9.4921875,-2.8828125,-0.826171875,0.63671875,-0.982421875,-1.015625,1.6171875,1.4140625,1.0
4257970,36.013187,129.3191465,49.26625066770386,87.32505833331793,3.6,48.0,,0.4296875,3.1640625,-1.9609375,-0.3515625,0.576171875,-1.291015625,0.171875,-4.74609375,2.2578125,1.0
4257971,,,,,,,,0.92578125,-18.81640625,7.6171875,-0.4296875,0.455078125,-1.228515625,0.74609375,-26.73046875,11.796875,1.0
4257972,,,,,,,,-0.03515625,-32.375,15.8671875,-0.525390625,0.421875,-1.115234375,-0.17578125,-40.2890625,20.03125,1.0
4257973,,,,,,,,-7.4609375,-52.03515625,7.00390625,-0.75,0.380859375,-0.755859375,-7.53125,-59.98046875,11.10546875,1.0
4257974,,,,,,,,-9.46875,-35.046875,4.26953125,-0.80078125,0.361328125,-0.466796875,-9.5234375,-43.0078125,8.34765625,1.0
4257975,,,,,,,,4.32421875,-3.27734375,-6.9453125,-0.107421875,0.2890625,1.302734375,4.19140625,-11.29296875,-2.953125,1.0
4257976,,,,,,,,14.125,-3.27734375,-9.34765625,0.060546875,0.271484375,1.83984375,13.921875,-11.29296875,-5.36328125,1.0
4257977,,,,,,,,12.09375,-10.9140625,1.53515625,0.98046875,0.064453125,3.203125,11.5859375,-18.91796875,5.55078125,1.0
4257978,,,,,,,,9.3359375,-14.00390625,2.1796875,1.431640625,-0.283203125,2.654296875,8.7109375,-21.98046875,6.2421875,1.0
4257979,,,,,,,,3.9765625,-15.3671875,1.3359375,-0.896484375,-0.552734375,-0.9296875,3.3125,-23.3203125,5.4375,1.0
4257980,36.01318916666666,129.31914966666668,49.55172011490036,87.56547163617007,3.5,49.0,,1.91015625,-8.421875,-2.22265625,-1.197265625,-0.087890625,-3.591796875,1.47265625,-16.46484375,1.76171875,1.0
4257981,,,,,,,,0.73828125,-6.5234375,-3.1875,-1.21484375,-0.658203125,-2.046875,0.74609375,-14.625,0.7265625,1.0
4257982,,,,,,,,0.16015625,-6.0703125,-3.1171875,-3.017578125,-0.474609375,0.119140625,0.20703125,-14.203125,0.7265625,1.0
4257983,,,,,,,,-2.6875,-4.3046875,-1.296875,-4.345703125,-0.591796875,2.333984375,-2.7421875,-12.59765625,2.21875,1.0
4257984,,,,,,,,-4.1484375,-2.578125,-0.578125,-4.16796875,-0.669921875,1.931640625,-4.2734375,-10.94921875,2.7578125,1.0
4257985,,,,,,,,-5.7265625,0.81640625,-1.58984375,-2.79296875,-1.3125,0.099609375,-5.921875,-7.7265625,1.30078125,1.0
4257986,,,,,,,,-6.73828125,5.76953125,-3.1484375,-2.94921875,-1.677734375,-0.24609375,-6.87890625,-2.86328125,-0.5,1.0
4257987,,,,,,,,-6.640625,6.58984375,-3.21875,-3.263671875,-1.91796875,0.046875,-6.73046875,-2.13671875,-0.84375,1.0
4257988,,,,,,,,-6.21875,9.265625,-3.20703125,-3.0703125,-1.912109375,0.375,-6.265625,0.46875,-1.11328125,1.0
4257989,,,,,,,,-5.63671875,10.30078125,-2.4609375,-2.958984375,-1.80078125,0.376953125,-5.69140625,1.46484375,-0.5,1.0
4257990,36.01319133333333,129.31915183333334,49.747040876615216,87.80588443831587,3.4000000000000004,46.0,,-4.81640625,11.8828125,-1.42578125,-2.841796875,-1.400390625,-0.03125,-4.84375,2.9609375,0.15234375,1.0
4257991,,,,,,,,-3.5234375,10.88671875,-1.67578125,-2.697265625,-0.8671875,-0.015625,-3.5078125,1.88671875,-0.61328125,1.0
4257992,,,,,,,,-3.1328125,9.03125,-1.78125,-2.396484375,-0.642578125,0.263671875,-3.125,0.0078125,-0.9609375,1.0
4257993,,,,,,,,-3.21484375,6.4453125,-0.8203125,-1.884765625,-0.501953125,0.59375,-3.23828125,-2.59375,-0.1953125,1.0
4257994,,,,,,,,-3.26171875,5.8671875,-0.46484375,-1.57421875,-0.46875,0.7109375,-3.31640625,-3.171875,0.07421875,1.0
4257995,,,,,,,,-2.85546875,5.30859375,0.91796875,-0.96484375,-0.41796875,0.765625,-2.97265625,-3.74609375,1.33984375,1.0
4257996,,,,,,,,-2.4765625,5.875,1.69140625,-0.701171875,-0.3828125,0.716796875,-2.625,-3.171875,2.06640625,1.0
4257997,,,,,,,,-1.45703125,7.72265625,1.15625,-0.279296875,-0.40234375,0.619140625,-1.66796875,-1.33203125,1.4921875,1.0
4257998,,,,,,,,-0.94921875,8.7109375,0.75,-0.025390625,-0.4453125,0.568359375,-1.203125,-0.3359375,1.0703125,1.0
4257999,,,,,,,,0.328125,10.84765625,-0.484375,0.177734375,-0.44140625,0.546875,0.015625,1.8046875,-0.15625,1.0
4258000,36.013193333333334,129.319155,50.0325103988108,88.02780455021608,3.5,47.0,0.0,0.54296875,12.11328125,-0.63671875,-2.841796875,-1.400390625,-0.03125,-4.84375,2.9609375,0.15234375,1.0
4258001,,,,,,,,0.24609375,13.70703125,-0.171875,0.794921875,-0.2421875,0.06640625,-0.13671875,4.68359375,0.2265625,1.0
4258002,,,,,,,,-0.2734375,13.96484375,0.171875,0.990234375,-0.251953125,-0.53515625,-0.6328125,4.9453125,0.6484375,1.0
4258003,,,,,,,,-1.1875,12.08203125,0.35546875,1.013671875,-0.314453125,-1.11328125,-1.4765625,3.0703125,0.91796875,1.0
4258004,,,,,,,,-1.8046875,10.38671875,1.2265625,0.81640625,-0.390625,-1.423828125,-1.9765625,1.38671875,1.875,1.0
4258005,,,,,,,,-3.80859375,6.87890625,3.953125,0.373046875,-0.501953125,-1.474609375,-3.77734375,-2.09765625,4.67578125,1.0
4258006,,,,,,,,-5.515625,2.65625,6.3984375,0.3046875,-0.47265625,-1.40625,-5.421875,-6.3125,7.12890625,1.0
4258007,,,,,,,,-5.2109375,-6.3203125,2.99609375,0.451171875,-0.326171875,-1.16015625,-5.0,-15.2734375,3.75390625,1.0
4258008,,,,,,,,-0.6953125,-16.87109375,2.984375,0.693359375,-0.263671875,-0.705078125,-0.40625,-25.80859375,3.7890625,1.0
4258009,,,,,,,,19.53125,-46.875,18.09375,0.744140625,-0.25,-0.09375,19.859375,-55.8046875,18.9609375,1.0
4258010,36.0131955,129.31915833333332,50.33300457945948,88.2682179644476,3.4000000000000004,51.0,,22.22265625,-37.61328125,29.20703125,0.91796875,-0.197265625,0.333984375,22.54296875,-46.53125,30.14453125,1.0
4258011,,,,,,,,9.3515625,-17.39453125,8.3125,1.296875,-0.1171875,0.525390625,9.6328125,-26.30859375,9.34375,1.0
4258012,,,,,,,,-7.2265625,-9.14453125,2.890625,2.1171875,-0.330078125,0.923828125,-7.03125,-18.03125,4.171875,1.0
4258013,,,,,,,,-5.25,-10.4765625,0.453125,1.951171875,-0.21484375,0.43359375,-5.1171875,-19.33984375,1.9140625,1.0
4258014,,,,,,,,-0.25390625,-13.296875,2.12109375,1.728515625,0.453125,-0.080078125,-0.13671875,-22.13671875,3.75390625,1.0
4258015,,,,,,,,3.859375,-12.0859375,2.8671875,1.70703125,0.8515625,-0.025390625,3.9609375,-20.91015625,4.6328125,1.0
4258016,,,,,,,,3.94140625,-10.34765625,0.859375,0.7734375,0.51171875,-3.26171875,4.19140625,-19.14453125,2.7578125,1.0
4258017,,,,,,,,2.18359375,-8.0703125,-0.58984375,1.546875,0.501953125,-3.009765625,2.69921875,-16.84765625,1.37890625,1.0
4258018,,,,,,,,1.453125,-6.1796875,0.30078125,3.484375,0.529296875,-0.708984375,2.125,-14.89453125,2.52734375,1.0
4258019,,,,,,,,1.64453125,-5.03515625,0.26953125,3.28515625,1.01171875,0.443359375,2.27734375,-13.62890625,2.94921875,1.0
4258020,36.013197500000004,129.31916116666667,50.588424520361514,88.49013792228779,3.3000000000000003,51.0,,2.17578125,-2.23046875,-1.88671875,2.552734375,1.388671875,0.0703125,2.73828125,-10.71484375,1.18359375,1.0
4258021,,,,,,,,3.1953125,2.37890625,-5.13671875,2.466796875,1.591796875,0.232421875,3.6953125,-6.04296875,-1.83984375,1.0
4258022,,,,,,,,3.34765625,3.796875,-5.4375,2.47265625,1.640625,0.3828125,3.80859375,-4.5859375,-2.03125,1.0
4258023,,,,,,,,3.265625,7.65625,-5.04296875,2.365234375,1.662109375,0.6015625,3.6171875,-0.640625,-1.41796875,1.0
4258024,,,,,,,,3.484375,7.96875,-4.6484375,2.09765625,1.603515625,0.544921875,3.73828125,-0.2578125,-0.84375,1.0
4258025,,,,,,,,3.1484375,10.3203125,-3.98046875,1.943359375,1.4453125,0.326171875,3.3125,2.15625,-0.00390625,1.0
4258026,,,,,,,,3.1953125,10.43359375,-4.171875,1.91015625,1.3671875,0.24609375,3.31640625,2.30859375,-0.1171875,1.0
4258027,,,,,,,,3.296875,10.66015625,-5.0546875,1.884765625,1.2109375,0.248046875,3.35546875,2.61328125,-0.84375,1.0
4258028,,,,,,,,3.3359375,10.62109375,-5.40234375,1.890625,1.134765625,0.359375,3.35546875,2.61328125,-1.11328125,1.0
4258029,,,,,,,,3.11328125,10.50390625,-5.88671875,1.693359375,0.91015625,0.6796875,3.04296875,2.57421875,-1.45703125,1.0
4258030,36.01319933333333,129.319164,50.84384455269709,88.69356467983388,3.7,50.0,,3.46875,10.046875,-6.2578125,2.552734375,1.388671875,0.0703125,2.73828125,-10.71484375,1.18359375,1.0
4258031,,,,,,,,5.75390625,6.2421875,-6.98828125,1.083984375,0.59765625,0.796875,5.4921875,-1.5625,-2.33984375,1.0
4258032,,,,,,,,6.09375,5.140625,-6.98046875,0.916015625,0.53515625,0.40625,5.7265625,-2.59375,-2.22265625,1.0
4258033,,,,,,,,4.97265625,4.9453125,-6.35546875,0.6328125,0.42578125,0.203125,4.5703125,-2.75,-1.53515625,1.0
4258034,,,,,,,,2.0546875,5.23046875,-4.42578125,0.22265625,0.34375,0.0390625,1.625,-2.44140625,0.41796875,1.0
4258035,,,,,,,,-2.2578125,7.10546875,0.44140625,-0.11328125,0.2890625,-0.05859375,-2.703125,-0.56640625,5.28125,1.0
4258036,,,,,,,,-3.26171875,8.09375,1.21484375,-0.234375,0.232421875,-0.087890625,-3.69921875,0.4296875,6.046875,1.0
4258037,,,,,,,,-3.375,10.45703125,-1.04296875,-0.412109375,0.056640625,-0.060546875,-3.8125,2.76953125,3.75390625,1.0
4258038,,,,,,,,-0.47265625,12.77734375,-5.5859375,-0.75,0.125,-0.0859375,-0.90234375,5.06640625,-0.84375,1.0
4258039,,,,,,,,0.24609375,12.86328125,-6.23828125,-1.369140625,0.2109375,-0.306640625,-0.17578125,5.1015625,-1.57421875,1.0
4258040,36.013202,129.31916733333335,51.14433836802458,88.98945774522204,3.7,49.0,,-0.53515625,10.7109375,-4.8671875,-2.103515625,0.416015625,-0.9140625,-0.90234375,2.84765625,-0.421875,1.0
4258041,,,,,,,,-0.4609375,-0.81640625,-2.765625,-1.359375,0.515625,-1.53125,-0.75,-8.76171875,1.53125,1.0
4258042,,,,,,,,-4.2578125,-17.40234375,7.48046875,-0.35546875,0.412109375,-2.00390625,-4.3515625,-25.38671875,11.68359375,1.0
4258043,,,,,,,,-7.65234375,-52.09375,17.77734375,-0.505859375,0.359375,-1.806640625,-7.60546875,-60.09375,21.94921875,1.0
4258044,,,,,,,,-3.3203125,-30.19921875,13.2734375,-0.880859375,0.34375,-1.3203125,-3.1640625,-38.21875,17.390625,1.0
4258045,,,,,,,,2.5546875,-9.625,3.58203125,-0.994140625,0.33203125,-0.3828125,2.7734375,-17.6875,7.62109375,1.0
4258046,,,,,,,,5.0078125,-6.8828125,-1.2421875,-0.822265625,0.310546875,0.296875,5.2265625,-14.97265625,2.7578125,1.0
4258047,,,,,,,,11.3828125,-10.98828125,-3.03515625,-0.587890625,0.18359375,1.76953125,11.5078125,-19.1015625,0.91796875,1.0
4258048,,,,,,,,9.2421875,-14.796875,2.21484375,-0.041015625,-0.06640625,2.986328125,9.171875,-22.94140625,6.12890625,1.0
4258049,,,,,,,,6.60546875,-16.51953125,3.4375,1.880859375,-0.388671875,2.755859375,6.30078125,-24.62109375,7.4296875,1.0
4258050,36.013204333333334,129.31917066666668,51.44483237499554,89.24836440584117,3.5,49.0,,4.4375,-13.9921875,1.2734375,-0.2265625,-0.234375,-0.22265625,4.0390625,-22.05859375,5.359375,1.0
4258051,,,,,,,,1.40234375,-9.42578125,-1.3515625,-0.892578125,0.06640625,-3.623046875,1.16796875,-17.53125,2.6796875,1.0
4258052,,,,,,,,-1.2109375,-7.1171875,-2.0625,-1.625,-0.314453125,-2.841796875,-1.1328125,-15.2734375,1.875,1.0
4258053,,,,,,,,-1.51953125,-6.3046875,-2.0546875,-2.49609375,-0.423828125,-1.123046875,-1.36328125,-14.5078125,1.796875,1.0
4258054,,,,,,,,-1.984375,-4.1796875,-2.09375,-3.51171875,-0.68359375,1.302734375,-1.8203125,-12.51953125,1.4921875,1.0
4258055,,,,,,,,-3.4765625,-1.71875,-3.23046875,-3.490234375,-0.87109375,0.974609375,-3.390625,-10.1796875,0.07421875,1.0
4258056,,,,,,,,-4.8203125,-0.18359375,-3.1953125,-3.138671875,-1.181640625,0.060546875,-4.734375,-8.76171875,-0.1953125,1.0
4258057,,,,,,,,-6.08984375,3.546875,-1.86328125,-3.263671875,-1.427734375,-0.06640625,-5.953125,-5.125,0.87890625,1.0
4258058,,,,,,,,-6.046875,6.70703125,-2.9296875,-3.75,-1.693359375,0.19140625,-5.8828125,-2.05859375,-0.5,1.0
4258059,,,,,,,,-6.13671875,8.83984375,-3.27734375,-3.6875,-1.7890625,0.3203125,-5.95703125,-0.02734375,-1.19140625,1.0
4258060,36.013206,129.3191728333333,51.640153371530566,89.43329762754685,3.5,48.0,,-5.953125,11.70703125,-1.921875,-0.2265625,-0.234375,-0.22265625,-5.76953125,2.76953125,-0.15625,1.0
4258061,,,,,,,,-5.7265625,13.30078125,-0.7421875,-3.03515625,-1.57421875,0.427734375,-5.54296875,4.30078125,0.7265625,1.0
4258062,,,,,,,,-5.44921875,13.62109375,-0.43359375,-2.908203125,-1.48046875,0.5078125,-5.26953125,4.60546875,0.91796875,1.0
4258063,,,,,,,,-4.796875,13.01953125,-1.2109375,-2.5859375,-1.310546875,0.48828125,-4.65625,3.95703125,-0.1171875,1.0
4258064,,,,,,,,-4.58203125,10.7421875,-1.3984375,-2.337890625,-1.123046875,0.2734375,-4.4609375,1.65625,-0.5390625,1.0
4258065,,,,,,,,-4.62890625,7.77734375,-0.51171875,-2.2578125,-0.912109375,0.314453125,-4.54296875,-1.33203125,0.03515625,1.0
4258066,,,,,,,,-4.3125,7.43359375,-0.1796875,-2.0703125,-0.83984375,0.4296875,-4.23828125,-1.67578125,0.265625,1.0
4258067,,,,,,,,-1.98828125,7.44140625,-0.02734375,-0.541015625,-0.56640625,0.486328125,-2.01171875,-1.67578125,0.15234375,1.0
4258068,,,,,,,,-0.3046875,7.6328125,0.4921875,0.03515625,-0.50390625,0.390625,-0.3671875,-1.48828125,0.6484375,1.0
4258069,,,,,,,,0.83203125,8.3515625,0.68359375,0.15234375,-0.478515625,0.3984375,0.74609375,-0.7578125,0.8359375,1.0
4258070,36.013208166666665,129.31917583333333,51.91059791103561,89.67371091940811,3.8000000000000003,47.0,,1.69140625,9.578125,0.25390625,0.47265625,-0.29296875,0.44921875,1.55078125,0.46875,0.45703125,1.0
4258071,,,,,,,,1.421875,10.875,0.55859375,0.59375,-0.19921875,0.294921875,1.2421875,1.7734375,0.80078125,1.0
4258072,,,,,,,,0.44140625,11.43359375,1.28125,0.591796875,-0.255859375,0.140625,0.24609375,2.34375,1.5703125,1.0
4258073,,,,,,,,-0.5,11.46875,0.95703125,0.58203125,-0.30078125,0.046875,-0.7109375,2.38671875,1.30078125,1.0
4258074,,,,,,,,-1.9921875,10.6484375,0.75,0.541015625,-0.419921875,-0.236328125,-2.203125,1.578125,1.1484375,1.0
4258075,,,,,,,,-3.19140625,9.29296875,1.97265625,0.4375,-0.46875,-0.626953125,-3.35546875,0.23828125,2.41015625,1.0
4258076,,,,,,,,-4.0625,8.22265625,3.22265625,0.337890625,-0.46484375,-0.7890625,-4.1953125,-0.83203125,3.67578125,1.0
4258077,,,,,,,,-4.75390625,3.46484375,4.32421875,0.06640625,-0.4453125,-1.029296875,-4.80859375,-5.578125,4.78515625,1.0
4258078,,,,,,,,1.07421875,-8.07421875,1.328125,-0.064453125,-0.4921875,-1.185546875,1.12890625,-17.109375,1.796875,1.0
4258079,,,,,,,,7.71484375,-28.078125,11.98828125,0.091796875,-0.52734375,-1.091796875,7.87109375,-37.109375,12.44921875,1.0
4258080,36.01321016666667,129.319179,52.196067317401,89.89563110296105,3.4000000000000004,52.0,,10.8515625,-51.109375,20.4765625,0.306640625,-0.49609375,-0.66796875,11.0859375,-60.13671875,20.953125,1.0
4258081,,,,,,,,5.23046875,-12.84765625,9.1953125,0.646484375,-0.388671875,0.185546875,5.49609375,-21.86328125,9.7265625,1.0
4258082,,,,,,,,-0.140625,-8.05859375,5.04296875,1.287109375,-0.251953125,0.451171875,0.09375,-17.07421875,5.66796875,1.0
4258083,,,,,,,,-3.6640625,-8.94921875,2.328125,1.927734375,-0.185546875,0.40234375,-3.46875,-17.953125,3.1015625,1.0
4258084,,,,,,,,-3.34765625,-14.05859375,2.9453125,0.55078125,-0.19921875,1.154296875,-2.85546875,-23.5078125,4.2109375,1.0
4258085,,,,,,,,-1.02734375,-13.75390625,2.3671875,1.185546875,0.251953125,0.84375,1.77734375,-21.51953125,3.67578125,1.0
4258086,,,,,,,,1.77734375,-12.52734375,2.63671875,1.568359375,0.482421875,-0.3203125,2.546875,-20.7109375,3.9453125,1.0
4258087,,,,,,,,3.1171875,-11.00390625,2.51171875,1.375,0.228515625,-3.6640625,3.46484375,-19.3359375,3.1015625,1.0
4258088,,,,,,,,3.17578125,-9.75390625,1.11328125,2.12109375,0.2109375,-2.333984375,3.2734375,-17.1875,1.4921875,1.0
4258089,,,,,,,,2.7421875,-8.26171875,0.0,2.53125,0.484375,-1.0,3.1953125,-16.26953125,1.26171875,1.0
4258090,36.01321233333333,129.31918166666668,52.436462281928975,90.13604423238924,3.4000000000000004,51.0,,2.22265625,-4.33203125,-0.92578125,2.84765625,0.982421875,0.32421875,2.73828125,-13.20703125,0.95703125,1.0
4258091,,,,,,,,2.3125,-1.22265625,-1.5,2.84765625,1.138671875,0.0625,2.7734375,-10.0234375,0.765625,1.0
4258092,,,,,,,,2.23046875,0.171875,-2.2265625,2.84375,1.27734375,-0.0234375,2.66015625,-8.57421875,0.3046875,1.0
4258093,,,,,,,,2.72265625,2.66796875,-3.48046875,2.77734375,1.37890625,0.0390625,3.12109375,-6.0,-0.69140625,1.0
4258094,,,,,,,,2.828125,3.59375,-3.796875,2.7109375,1.4296875,0.12890625,3.1953125,-5.05078125,-0.8828125,1.0
4258095,,,,,,,,3.57421875,6.93359375,-4.359375,2.580078125,1.44140625,0.333984375,3.88671875,-1.63671875,-1.2265625,1.0
4258096,,,,,,,,4.33984375,8.80078125,-4.2109375,2.439453125,1.380859375,0.43359375,4.5703125,0.31640625,-0.84375,1.0
4258097,,,,,,,,4.54296875,10.76953125,-4.421875,2.3515625,1.333984375,0.416015625,4.7265625,2.30859375,-0.9609375,1.0
4258098,,,,,,,,4.3125,11.87109375,-4.85546875,2.13671875,1.201171875,0.30859375,4.421875,3.49609375,-1.19140625,1.0
4258099,,,,,,,,3.76953125,12.22265625,-5.484375,2.037109375,1.138671875,0.251953125,3.84765625,3.875,-1.7265625,1.0
4258100,36.013214,129.319184,52.6468080110001,90.32097756697716,3.4000000000000004,50.0,0.0,4.26171875,9.4375,-6.8984375,1.685546875,0.859375,0.220703125,4.23046875,1.234375,-2.8359375,1.0
4258101,,,,,,,,4.984375,6.609375,-6.94140625,1.359375,0.578125,0.2734375,4.88671875,-1.484375,-2.68359375,1.0
4258102,,,,,,,,4.73046875,6.47265625,-6.3359375,1.21875,0.4921875,0.236328125,4.61328125,-1.59765625,-2.03125,1.0
4258103,,,,,,,,2.46484375,6.15625,-3.2421875,1.056640625,0.400390625,0.1328125,2.3125,-1.8671875,1.1484375,1.0
4258104,,,,,,,,0.14453125,6.0546875,-1.0234375,0.921875,0.423828125,0.083984375,-0.01953125,-1.9453125,3.41015625,1.0
4258105,,,,,,,,-1.89453125,7.12109375,-0.10546875,0.369140625,0.392578125,0.013671875,-2.08984375,-0.83203125,4.3984375,1.0
4258106,,,,,,,,-1.80078125,8.94140625,-1.421875,-0.0234375,0.275390625,0.072265625,-2.01171875,1.00390625,3.1015625,1.0
4258107,,,,,,,,-1.48828125,9.90234375,-2.44921875,-0.30859375,0.232421875,0.125,-1.70703125,1.96484375,2.0625,1.0
4258108,,,,,,,,-0.4765625,11.609375,-4.625,-0.966796875,0.2578125,0.083984375,-0.48046875,3.95703125,-0.23046875,1.0
4258109,,,,,,,,-0.23828125,11.93359375,-4.66015625,-0.986328125,0.341796875,-0.06640625,-0.2890625,4.15234375,-0.15625,1.0
4258110,36.0132165,129.31918716666667,52.93227704588574,90.59837739685622,3.6,48.0,,4.26171875,9.4375,-6.8984375,-0.712890625,0.48828125,-0.55078125,0.09375,4.30078125,0.3046875,1.0
4258111,,,,,,,,0.55078125,10.890625,-2.859375,-0.22265625,0.63671875,-1.1171875,0.36328125,2.84765625,1.4140625,1.0
4258112,,,,,,,,0.6015625,9.85546875,-2.3125,-0.021484375,0.65234375,-1.3359375,0.4375,1.80859375,1.95703125,1.0
4258113,,,,,,,,1.0078125,6.25,-2.16796875,0.1015625,0.56640625,-1.546875,0.9375,-1.7890625,2.10546875,1.0
4258114,,,,,,,,-1.09375,-10.96875,5.8359375,-0.123046875,0.478515625,-1.43359375,-1.0546875,-18.99609375,10.109375,1.0
4258115,,,,,,,,-2.3984375,-42.41015625,17.55078125,-0.46875,0.37890625,-1.166015625,-2.28125,-50.44140625,21.79296875,1.0
4258116,,,,,,,,-4.62109375,-45.92578125,15.26953125,-0.5859375,0.349609375,-1.015625,-4.46484375,-53.9609375,19.49609375,1.0
4258117,,,,,,,,-4.5625,-20.12109375,7.703125,-0.640625,0.28515625,-0.58203125,-4.3515625,-28.18359375,11.875,1.0
4258118,,,,,,,,3.62109375,-4.69921875,0.26953125,-0.4296875,0.220703125,0.060546875,3.84765625,-12.78515625,4.40234375,1.0
4258119,,,,,,,,6.49609375,-5.44921875,-2.84765625,-0.26171875,0.197265625,0.82421875,6.68359375,-13.546875,1.26171875,1.0
4258120,36.01321900000001,129.31919033333332,53.21774606027469,90.87577723624136,3.6,48.0,,9.7109375,-15.2109375,2.203125,0.912109375,0.158203125,1.546875,9.671875,-23.32421875,6.3203125,1.0
4258121,,,,,,,,5.99609375,-15.65625,0.84375,-0.109375,-0.34765625,0.4765625,5.87890625,-23.74609375,5.015625,1.0
4258122,,,,,,,,3.421875,-13.33984375,-0.08984375,-1.185546875,-0.2890625,-0.501953125,3.3125,-21.4375,4.05859375,1.0
4258123,,,,,,,,0.28515625,-9.953125,-1.18359375,-0.798828125,-0.26171875,-2.900390625,0.32421875,-18.109375,2.87109375,1.0
4258124,,,,,,,,-1.16015625,-8.2890625,-1.7734375,-1.734375,-0.42578125,-0.3984375,-0.82421875,-16.5,2.1796875,1.0
4258125,,,,,,,,-2.5,-4.6640625,-2.984375,-2.884765625,-0.58984375,1.541015625,-2.203125,-12.98046875,0.765625,1.0
4258126,,,,,,,,-3.13671875,-2.05859375,-3.56640625,-3.09765625,-0.697265625,1.423828125,-2.89453125,-10.44921875,0.03515625,1.0
4258127,,,,,,,,-3.98046875,-0.0625,-3.49609375,-3.16796875,-1.109375,0.140625,-3.77734375,-8.61328125,-0.26953125,1.0
4258128,,,,,,,,-4.62890625,2.16015625,-2.94140625,-3.55078125,-1.31640625,0.0234375,-4.38671875,-6.5,-0.00390625,1.0
4258129,,,,,,,,-4.80078125,2.7890625,-2.390625,-3.74609375,-1.421875,0.1484375,-4.54296875,-5.93359375,0.3828125,1.0
4258130,36.013220833333335,129.31919283333335,53.44311642013484,91.07920388839062,3.4000000000000004,48.0,,-5.23828125,6.08984375,-1.984375,-3.9296875,-1.607421875,0.421875,-4.96484375,-2.78515625,0.265625,1.0
4258131,,,,,,,,-5.11328125,7.70703125,-2.7109375,-3.634765625,-1.537109375,0.517578125,-4.84375,-1.25390625,-0.8046875,1.0
4258132,,,,,,,,-5.3046875,10.98046875,-1.640625,-2.986328125,-1.41796875,0.734375,-5.08203125,1.92578125,-0.1953125,1.0
4258133,,,,,,,,-5.01953125,12.6640625,-0.72265625,-2.666015625,-1.189453125,0.8203125,-4.84375,3.5703125,0.45703125,1.0
4258134,,,,,,,,-4.8671875,12.11328125,-1.06640625,-2.546875,-1.10546875,0.77734375,-4.73828125,2.99609375,-0.00390625,1.0
4258135,,,,,,,,-4.359375,9.6484375,-1.95703125,-2.3671875,-0.93359375,0.53515625,-4.27734375,0.5078125,-1.11328125,1.0
4258136,,,,,,,,-4.3515625,6.953125,-1.50390625,-2.28515625,-0.6875,0.267578125,-4.31640625,-2.2109375,-0.99609375,1.0
4258137,,,,,,,,-4.10546875,6.22265625,-1.09765625,-2.27734375,-0.62890625,0.275390625,-4.078125,-2.94140625,-0.69140625,1.0
4258138,,,,,,,,-3.62109375,6.15625,-0.3203125,-2.052734375,-0.51953125,0.322265625,-3.62109375,-3.015625,-0.1171875,1.0
4258139,,,,,,,,-3.26953125,6.578125,0.46484375,-1.79296875,-0.486328125,0.296875,-3.27734375,-2.59375,0.57421875,1.0
4258140,36.01322316666666,129.3191955,53.68351120020847,91.33811026011591,3.8000000000000003,46.0,,-1.62890625,7.6796875,1.0546875,-3.9296875,-1.607421875,0.421875,-1.6640625,-1.484375,1.03125,1.0
4258141,,,,,,,,-0.37890625,8.875,1.171875,-0.5625,-0.47265625,0.201171875,-0.44140625,-0.296875,1.07421875,1.0
4258142,,,,,,,,0.5625,10.70703125,1.51953125,-0.21484375,-0.470703125,0.375,0.4765625,1.5390625,1.37890625,1.0
4258143,,,,,,,,0.37890625,11.76953125,2.29296875,0.123046875,-0.28125,0.37109375,0.24609375,2.609375,2.14453125,1.0
4258144,,,,,,,,-0.5546875,13.2265625,3.38671875,0.33984375,-0.173828125,0.13671875,-0.7109375,4.07421875,3.25390625,1.0
