time,latitude,longitude,enu_x,enu_y,speed,course,ecg,accX,accY,accZ,gyrX,gyrY,gyrZ,eulR,eulP,eulY,prediction
2434500,36.01295267,129.3188027,18.27018546,61.32348992,0,65535,0,0.8671875,-0.77734375,-1.1640625,0.193359375,0.126953125,0.05859375,0.2578125,-9.61328125,1.546875,
2434501,,,,,,,,0.71484375,-0.81640625,-1.1953125,-0.1171875,0.09765625,0.04296875,0.10546875,-9.65234375,1.5078125,
2434502,,,,,,,,0.63671875,-0.77734375,-1.1328125,-0.19921875,0.078125,0.0078125,0.02734375,-9.61328125,1.546875,
2434503,,,,,,,,0.5546875,-0.72265625,-1.15625,-0.25,0.060546875,-0.005859375,-0.046875,-9.5703125,1.5078125,
2434504,,,,,,,,0.515625,-0.75390625,-1.0546875,-0.2890625,0.029296875,-0.01953125,-0.125,-9.609375,1.66015625,
2434505,,,,,,,,0.34765625,-0.77734375,-0.75,-0.3203125,0.005859375,-0.02734375,-0.23828125,-9.6484375,1.8515625,
2434506,,,,,,,,0.22265625,-0.59765625,-0.625,-0.337890625,-0.013671875,-0.02734375,-0.35546875,-9.4921875,1.9296875,
2434507,,,,,,,,0.17578125,-0.5546875,-0.6640625,-0.330078125,-0.017578125,-0.01953125,-0.39453125,-9.46484375,1.8515625,
2434508,,,,,,,,0.16796875,-0.46875,-0.66796875,-0.298828125,-0.0234375,-0.02734375,-0.39453125,-9.3828125,1.81640625,
2434509,,,,,,,,0.125,-0.375,-0.5703125,-0.263671875,-0.033203125,-0.0390625,-0.4296875,-9.3046875,1.890625,
2434510,36.01295267,129.3188027,18.27018546,61.32348992,0,65535,,0.15234375,-0.4375,-0.4296875,-0.244140625,-0.04296875,-0.041015625,-0.39453125,-9.38671875,2.0078125,
2434511,,,,,,,,0.26171875,-0.4765625,-0.37890625,-0.21484375,-0.048828125,-0.037109375,-0.27734375,-9.421875,2.04296875,
2434512,,,,,,,,0.3359375,-0.421875,-0.28515625,-0.1875,-0.05078125,-0.029296875,-0.203125,-9.38671875,2.12109375,
2434513,,,,,,,,0.24609375,-0.390625,-0.30859375,-0.095703125,-0.052734375,0.005859375,-0.27734375,-9.34765625,2.08203125,
2434514,,,,,,,,0.3203125,-0.3828125,-0.453125,-0.01171875,-0.048828125,0.03515625,-0.203125,-9.34375,1.9296875,
2434515,,,,,,,,0.3203125,-0.34375,-0.33984375,0.021484375,-0.05078125,0.041015625,-0.203125,-9.3046875,2.04296875,
2434516,,,,,,,,0.24609375,-0.3359375,-0.18359375,0.0234375,-0.052734375,0.029296875,-0.27734375,-9.30859375,2.19921875,
2434517,,,,,,,,0.19921875,-0.3359375,-0.1171875,0.064453125,-0.05859375,0.03125,-0.35546875,-9.30859375,2.12109375,
2434518,,,,,,,,0.23828125,-0.375,-0.35546875,0.099609375,-0.04296875,0.052734375,-0.1640625,-9.34375,1.9296875,
2434519,,,,,,,,0.3515625,-0.375,-0.46875,0.123046875,-0.03515625,0.064453125,-0.01171875,-9.4609375,1.96875,
2434520,36.01295267,129.3188028,18.28521029,61.32348995,0.1,65535,,0.15234375,-0.4375,-0.4296875,-0.244140625,-0.04296875,-0.041015625,0.296875,-9.53125,1.9296875,
2434521,,,,,,,,0.8125,-0.57421875,-0.453125,0.203125,-0.01953125,0.08203125,0.296875,-9.53515625,2.04296875,
2434522,,,,,,,,0.703125,-0.453125,-0.31640625,0.2265625,-0.025390625,0.078125,0.1796875,-9.34375,2.12109375,
2434523,,,,,,,,0.66796875,-0.34375,-0.33203125,0.203125,-0.021484375,0.06640625,0.10546875,-9.2265625,2.08203125,
2434524,,,,,,,,0.703125,-0.15234375,-0.44140625,0.1640625,-0.005859375,0.064453125,0.21875,-9.07421875,1.96875,
2434525,,,,,,,,0.7421875,-0.12109375,-0.67578125,0.16015625,-0.009765625,0.078125,0.296875,-9.11328125,1.77734375,
2434526,,,,,,,,0.828125,-0.16015625,-0.72265625,0.166015625,-0.013671875,0.083984375,0.2578125,-9.109375,1.77734375,
2434527,,,,,,,,0.90234375,-0.24609375,-0.77734375,0.16796875,-0.025390625,0.091796875,0.3359375,-9.26953125,1.69921875,
2434528,,,,,,,,0.91015625,-0.4375,-0.79296875,0.150390625,-0.025390625,0.125,0.41015625,-9.421875,1.73828125,
2434529,,,,,,,,0.99609375,-0.58203125,-0.80859375,0.130859375,-0.0234375,0.142578125,0.44921875,-9.61328125,1.77734375,
2434530,36.01295267,129.3188028,18.28521029,61.32348995,0,65535,,0.91796875,-0.67578125,-0.77734375,0.12890625,-0.0234375,0.150390625,0.296875,-9.61328125,1.77734375,
2434531,,,,,,,,0.8125,-0.70703125,-0.74609375,0.126953125,-0.0234375,0.16796875,0.1796875,-9.53125,1.81640625,
2434532,,,,,,,,0.64453125,-0.55078125,-0.7265625,0.091796875,-0.02734375,0.169921875,0.06640625,-9.42578125,1.73828125,
2434533,,,,,,,,0.69140625,-0.515625,-0.88671875,0.05078125,-0.02734375,0.150390625,0.10546875,-9.49609375,1.62109375,
2434534,,,,,,,,0.765625,-0.55078125,-1.03125,0.033203125,-0.029296875,0.125,0.1796875,-9.4921875,1.546875,
2434535,,,,,,,,0.7734375,-0.55078125,-1.0390625,0.03125,-0.021484375,0.10546875,0.1796875,-9.4921875,1.546875,
2434536,,,,,,,,0.78125,-0.58984375,-1,0.0390625,-0.017578125,0.095703125,0.1796875,-9.53515625,1.5859375,
2434537,,,,,,,,0.859375,-0.66796875,-0.97265625,0.064453125,-0.01953125,0.103515625,0.2578125,-9.609375,1.62109375,
2434538,,,,,,,,0.859375,-0.66796875,-1,0.068359375,-0.017578125,0.111328125,0.2578125,-9.609375,1.5859375,
2434539,,,,,,,,0.875,-0.62890625,-1.0078125,0.05859375,-0.01171875,0.111328125,0.2578125,-9.57421875,1.5859375,
2434540,36.01295267,129.3188028,18.28521029,61.32348995,0,65535,,0.875,-0.62109375,-1.0859375,0.05078125,-0.013671875,0.107421875,0.2578125,-9.57421875,1.5078125,
2434541,,,,,,,,0.84375,-0.62890625,-1.09375,0.052734375,-0.013671875,0.103515625,0.21875,-9.57421875,1.5078125,
2434542,,,,,,,,0.921875,-0.62890625,-1.171875,0.056640625,-0.017578125,0.087890625,0.296875,-9.57421875,1.4296875,
2434543,,,,,,,,0.96875,-0.66015625,-1.20703125,0.052734375,-0.017578125,0.078125,0.3359375,-9.609375,1.39453125,
2434544,,,,,,,,0.96875,-0.70703125,-1.1875,0.046875,-0.02734375,0.080078125,0.3359375,-9.65234375,1.4296875,
2434545,,,,,,,,0.890625,-0.58203125,-1.0625,0.0390625,-0.033203125,0.0859375,0.2578125,-9.53515625,1.546875,
2434546,,,,,,,,0.859375,-0.58203125,-1.1015625,0.033203125,-0.03125,0.083984375,0.21875,-9.53125,1.5078125,
2434547,,,,,,,,0.66796875,-0.5078125,-1.1796875,0.01953125,-0.0390625,0.0859375,0.02734375,-9.4609375,1.4296875,
2434548,,,,,,,,0.62890625,-0.54296875,-1.22265625,0.021484375,-0.03515625,0.08203125,-0.01171875,-9.49609375,1.39453125,
2434549,,,,,,,,0.62890625,-0.58203125,-1.21484375,0.03125,-0.041015625,0.0703125,-0.01171875,-9.53515625,1.39453125,
2434550,36.0129525,129.3188028,18.28521032,61.30499674,0,65535,,0.66796875,-0.57421875,-1.140625,0.05078125,-0.013671875,0.107421875,0.2578125,-9.57421875,1.5078125,
2434551,,,,,,,,0.67578125,-0.58203125,-1.0234375,0.080078125,-0.015625,0.072265625,0.02734375,-9.53125,1.5859375,
2434552,,,,,,,,0.72265625,-0.5,-1.0390625,0.119140625,-0.01171875,0.11328125,0.06640625,-9.4609375,1.5859375,
2434553,,,,,,,,0.72265625,-0.5078125,-1.046875,0.13671875,-0.005859375,0.123046875,0.06640625,-9.4609375,1.5859375,
2434554,,,,,,,,0.84375,-0.46875,-1.24609375,0.150390625,-0.009765625,0.111328125,0.1796875,-9.42578125,1.39453125,
2434555,,,,,,,,0.81640625,-0.46875,-1.37890625,0.16015625,-0.01171875,0.103515625,0.14453125,-9.421875,1.27734375,
2434556,,,,,,,,0.8515625,-0.4296875,-1.38671875,0.1796875,-0.01171875,0.087890625,0.1796875,-9.3828125,1.27734375,
2434557,,,,,,,,0.8984375,-0.4375,-1.44140625,0.1953125,-0.01171875,0.08984375,0.21875,-9.38671875,1.23828125,
2434558,,,,,,,,0.9375,-0.515625,-1.41015625,0.20703125,-0.013671875,0.095703125,0.2578125,-9.46484375,1.27734375,
2434559,,,,,,,,1.0234375,-0.515625,-1.41796875,0.20703125,-0.013671875,0.11328125,0.3359375,-9.46484375,1.27734375,
2434560,36.0129525,129.3188028,18.28521032,61.30499674,0,65535,,0.9921875,-0.55078125,-1.44140625,0.203125,-0.013671875,0.125,0.296875,-9.49609375,1.27734375,
2434561,,,,,,,,0.9609375,-0.67578125,-1.37890625,0.21875,-0.005859375,0.125,0.2578125,-9.61328125,1.35546875,
2434562,,,,,,,,1.15234375,-0.68359375,-1.43359375,0.2265625,0.001953125,0.1328125,0.44921875,-9.609375,1.31640625,
2434563,,,,,,,,1.3203125,-0.72265625,-1.48828125,0.22265625,0,0.126953125,0.6015625,-9.6484375,1.27734375,
2434564,,,,,,,,1.20703125,-0.8046875,-1.42578125,0.224609375,0.01171875,0.123046875,0.48828125,-9.7265625,1.35546875,
2434565,,,,,,,,0.90625,-0.69140625,-1.44140625,0.2265625,0.0078125,0.107421875,0.1796875,-9.609375,1.35546875,
2434566,,,,,,,,0.72265625,-0.5078125,-1.49609375,0.2109375,0.00390625,0.0859375,-0.01171875,-9.421875,1.31640625,
2434567,,,,,,,,0.80078125,-0.390625,-1.58984375,0.173828125,0.01171875,0.05859375,0.06640625,-9.30859375,1.23828125,
2434568,,,,,,,,0.83984375,-0.4296875,-1.671875,0.166015625,0.025390625,0.064453125,0.10546875,-9.34375,1.1640625,
2434569,,,,,,,,0.9609375,-0.515625,-1.61328125,0.22265625,0.033203125,0.09375,0.21875,-9.421875,1.23828125,
2434570,36.0129525,129.3188028,18.28521032,61.30499674,0,65535,,1.0390625,-0.5625,-1.6640625,0.267578125,0.029296875,0.111328125,0.296875,-9.4609375,1.203125,
2434571,,,,,,,,1.12890625,-0.68359375,-1.61328125,0.28125,0.03515625,0.1484375,0.37109375,-9.57421875,1.27734375,
2434572,,,,,,,,1.14453125,-0.65234375,-1.68359375,0.275390625,0.05078125,0.1796875,0.37109375,-9.53125,1.23828125,
2434573,,,,,,,,1.15234375,-0.65234375,-1.65234375,0.267578125,0.046875,0.185546875,0.37109375,-9.53125,1.27734375,
2434574,,,,,,,,1.1328125,-0.66015625,-1.70703125,0.259765625,0.044921875,0.177734375,0.3359375,-9.53125,1.23828125,
2434575,,,,,,,,1.109375,-0.66015625,-1.8046875,0.25,0.044921875,0.16015625,0.296875,-9.53515625,1.1640625,
2434576,,,,,,,,1.0703125,-0.70703125,-1.8125,0.23046875,0.041015625,0.126953125,0.2578125,-9.57421875,1.1640625,
2434577,,,,,,,,1.0390625,-0.71484375,-1.875,0.2109375,0.029296875,0.123046875,0.21875,-9.57421875,1.125,
2434578,,,,,,,,1.046875,-0.71484375,-1.8828125,0.205078125,0.025390625,0.1171875,0.21875,-9.57421875,1.125,
2434579,,,,,,,,1.0546875,-0.64453125,-1.859375,0.1953125,0.025390625,0.119140625,0.21875,-9.4921875,1.1640625,
2434580,36.0129525,129.3188028,18.28521032,61.30499674,0,65535,,1.1015625,-0.609375,-2.01953125,0.267578125,0.029296875,0.111328125,0.2578125,-9.4609375,1.01171875,
2434581,,,,,,,,1.15625,-0.5703125,-2.11328125,0.197265625,0.0078125,0.158203125,0.296875,-9.42578125,0.93359375,
2434582,,,,,,,,1.15625,-0.578125,-2.234375,0.208984375,-0.001953125,0.16015625,0.296875,-9.421875,0.8203125,
2434583,,,,,,,,1.171875,-0.69921875,-2.4140625,0.22265625,0,0.15625,0.296875,-9.53515625,0.6640625,
2434584,,,,,,,,1.140625,-0.82421875,-2.3828125,0.22265625,0,0.162109375,0.2578125,-9.6484375,0.703125,
2434585,,,,,,,,1.1484375,-0.9375,-2.4375,0.21484375,-0.005859375,0.19140625,0.2578125,-9.765625,0.6640625,
2434586,,,,,,,,1.2421875,-1.09765625,-2.453125,0.2109375,-0.005859375,0.216796875,0.3359375,-9.9140625,0.6640625,
2434587,,,,,,,,1.41015625,-1.17578125,-2.49609375,0.203125,-0.0078125,0.2421875,0.48828125,-9.99609375,0.62890625,
2434588,,,,,,,,1.51171875,-1.23046875,-2.51953125,0.20703125,-0.03515625,0.265625,0.56640625,-10.03125,0.62890625,
2434589,,,,,,,,1.640625,-1.19140625,-2.57421875,0.236328125,-0.041015625,0.25390625,0.6796875,-9.9921875,0.58984375,
2434590,36.0129525,129.318803,18.30023515,61.30499677,0,65535,,1.6640625,-1.16015625,-2.66015625,0.267578125,0.029296875,0.111328125,0.2578125,-9.4609375,1.01171875,
2434591,,,,,,,,1.7109375,-1.0546875,-2.7890625,0.248046875,-0.0625,0.189453125,0.71875,-9.84765625,0.3984375,
2434592,,,,,,,,1.6484375,-1.08984375,-2.8515625,0.21484375,-0.05859375,0.142578125,0.640625,-9.87890625,0.359375,
2434593,,,,,,,,1.56640625,-1.10546875,-2.8203125,0.13671875,-0.0546875,0.099609375,0.56640625,-9.87890625,0.3984375,
2434594,,,,,,,,1.45703125,-1.17578125,-2.80078125,0.10546875,-0.05078125,0.09375,0.44921875,-9.95703125,0.43359375,
2434595,,,,,,,,1.37890625,-1.13671875,-2.828125,0.078125,-0.05078125,0.08984375,0.37109375,-9.9140625,0.3984375,
2434596,,,,,,,,1.3515625,-1.17578125,-2.8671875,0.0703125,-0.052734375,0.087890625,0.3359375,-9.953125,0.359375,
2434597,,,,,,,,1.53515625,-1.09765625,-3.05859375,0.060546875,-0.052734375,0.080078125,0.52734375,-9.87890625,0.16796875,
2434598,,,,,,,,1.65625,-1.0625,-3.08984375,0.07421875,-0.0625,0.068359375,0.640625,-9.84765625,0.12890625,
2434599,,,,,,,,1.6171875,-1.0234375,-3.01171875,0.1015625,-0.068359375,0.05078125,0.6015625,-9.80859375,0.20703125,
2434600,36.0129525,129.318803,18.30023515,61.30499677,0,65535,0,1.48828125,-0.9140625,-3.01953125,0.267578125,0.029296875,0.111328125,0.48828125,-9.6875,0.20703125,2
2434601,,,,,,,,1.37109375,-0.87109375,-2.72265625,0.091796875,-0.080078125,0.015625,0.37109375,-9.65234375,0.51171875,2
2434602,,,,,,,,1.40234375,-0.8984375,-2.64453125,0.0703125,-0.080078125,0,0.41015625,-9.6875,0.58984375,2
2434603,,,,,,,,1.39453125,-0.8984375,-2.62890625,-0.021484375,-0.083984375,-0.03515625,0.41015625,-9.6875,0.58984375,2
2434604,,,,,,,,1.37890625,-0.81640625,-2.58203125,-0.087890625,-0.078125,-0.0546875,0.41015625,-9.61328125,0.62890625,2
2434605,,,,,,,,1.33203125,-0.73046875,-2.53125,-0.111328125,-0.09375,-0.0625,0.37109375,-9.53125,0.6640625,2
2434606,,,,,,,,1.30859375,-0.6484375,-2.515625,-0.09375,-0.091796875,-0.056640625,0.37109375,-9.46484375,0.6640625,2
2434607,,,,,,,,1.30078125,-0.76171875,-2.65234375,-0.091796875,-0.083984375,-0.052734375,0.37109375,-9.5703125,0.51171875,2
2434608,,,,,,,,1.29296875,-1.015625,-2.40625,-0.1015625,-0.0859375,-0.044921875,0.37109375,-9.84765625,0.7421875,2
2434609,,,,,,,,1.28515625,-1.08203125,-2.28515625,-0.107421875,-0.095703125,-0.0390625,0.37109375,-9.91796875,0.85546875,2
2434610,36.0129525,129.318803,18.30023515,61.30499677,0,65535,,1.26953125,-0.921875,-2.18359375,0.267578125,0.029296875,0.111328125,0.48828125,-9.6875,0.20703125,2
2434611,,,,,,,,1.30078125,-0.72265625,-2.28125,-0.072265625,-0.087890625,0.03125,0.41015625,-9.5703125,0.8203125,2
2434612,,,,,,,,1.26171875,-0.6015625,-2.34375,-0.037109375,-0.0859375,0.01171875,0.37109375,-9.46484375,0.7421875,2
2434613,,,,,,,,1.1328125,-0.63671875,-2.14453125,-0.0234375,-0.07421875,-0.041015625,0.2578125,-9.4921875,0.93359375,2
2434614,,,,,,,,1.125,-0.63671875,-2.05859375,-0.05078125,-0.078125,-0.072265625,0.2578125,-9.49609375,1.01171875,2
2434615,,,,,,,,1.1484375,-0.70703125,-2.11328125,-0.083984375,-0.068359375,-0.048828125,0.296875,-9.5703125,0.93359375,2
2434616,,,,,,,,1.21484375,-0.73828125,-2.14453125,-0.087890625,-0.064453125,-0.02734375,0.37109375,-9.609375,0.89453125,2
2434617,,,,,,,,1.28515625,-0.76953125,-2.1953125,-0.048828125,-0.056640625,-0.009765625,0.44921875,-9.6484375,0.8203125,2
2434618,,,,,,,,1.27734375,-0.72265625,-2.1875,-0.0078125,-0.052734375,-0.0234375,0.44921875,-9.609375,0.8203125,2
2434619,,,,,,,,1.1484375,-0.72265625,-2.14453125,-0.03515625,-0.0625,-0.03515625,0.3359375,-9.61328125,0.85546875,2
2434620,36.0129525,129.3188032,18.31525997,61.3049968,0,65535,,1.16796875,-0.71484375,-2.05078125,-0.0390625,-0.06640625,-0.05078125,0.37109375,-9.609375,0.93359375,2
2434621,,,,,,,,1.15234375,-0.70703125,-1.95703125,-0.052734375,-0.064453125,-0.056640625,0.37109375,-9.61328125,1.01171875,2
2434622,,,,,,,,1.22265625,-0.73828125,-1.94140625,-0.0703125,-0.07421875,-0.072265625,0.44921875,-9.6484375,1.01171875,2
2434623,,,,,,,,1.21484375,-0.73828125,-1.93359375,-0.0625,-0.078125,-0.0703125,0.44921875,-9.6484375,1.01171875,2
2434624,,,,,,,,1.19921875,-0.73046875,-2.07421875,-0.048828125,-0.078125,-0.076171875,0.44921875,-9.6484375,0.85546875,2
2434625,,,,,,,,0.9765625,-0.7578125,-2.1796875,-0.00390625,-0.0859375,-0.07421875,0.2578125,-9.69140625,0.7421875,2
2434626,,,,,,,,0.9296875,-0.8359375,-2.203125,0.013671875,-0.0859375,-0.0625,0.21875,-9.765625,0.703125,2
2434627,,,,,,,,1.0390625,-0.94140625,-2.26953125,0.0234375,-0.078125,-0.05078125,0.3359375,-9.87890625,0.62890625,2
2434628,,,,,,,,1.10546875,-0.8671875,-2.26953125,0.033203125,-0.07421875,-0.037109375,0.41015625,-9.80859375,0.62890625,2
2434629,,,,,,,,1.13671875,-0.7890625,-2.26171875,0.072265625,-0.060546875,-0.025390625,0.44921875,-9.73046875,0.62890625,2
2434630,36.0129525,129.3188032,18.31525997,61.3049968,0,65535,,1.24609375,-0.8203125,-2.26171875,0.125,-0.04296875,-0.029296875,0.56640625,-9.765625,0.62890625,2
2434631,,,,,,,,1.23828125,-0.859375,-2.15625,0.173828125,-0.02734375,-0.060546875,0.56640625,-9.80859375,0.7421875,2
2434632,,,,,,,,1.14453125,-0.859375,-2.01171875,0.1953125,-0.025390625,-0.08203125,0.48828125,-9.8046875,0.89453125,2
2434633,,,,,,,,1.12890625,-0.828125,-2.05859375,0.201171875,-0.009765625,-0.09375,0.48828125,-9.76953125,0.85546875,2
2434634,,,,,,,,1.19921875,-0.7890625,-2.06640625,0.189453125,0.00390625,-0.099609375,0.56640625,-9.73046875,0.85546875,2
2434635,,,,,,,,1.2890625,-0.8671875,-2.07421875,0.17578125,0.01171875,-0.12109375,0.6796875,-9.8046875,0.85546875,2
2434636,,,,,,,,1.2734375,-0.828125,-2.08203125,0.1640625,0.021484375,-0.13671875,0.6796875,-9.765625,0.85546875,2
2434637,,,,,,,,1.1796875,-0.71484375,-2.08203125,0.169921875,0.017578125,-0.14453125,0.6015625,-9.65234375,0.85546875,2
2434638,,,,,,,,1.13671875,-0.70703125,-2.08203125,0.166015625,0.01953125,-0.154296875,0.56640625,-9.6484375,0.85546875,2
2434639,,,,,,,,1.02734375,-0.62890625,-2.05078125,0.12109375,0.03125,-0.173828125,0.48828125,-9.57421875,0.89453125,2
2434640,36.0129525,129.3188032,18.31525997,61.3049968,0,65535,,1.00390625,-0.55078125,-1.97265625,0.125,-0.04296875,-0.029296875,0.48828125,-9.49609375,0.97265625,2
2434641,,,,,,,,1.05859375,-0.62890625,-2.01171875,0.048828125,0.044921875,-0.203125,0.56640625,-9.5703125,0.93359375,2
2434642,,,,,,,,1.00390625,-0.70703125,-1.8515625,0.0234375,0.0546875,-0.208984375,0.52734375,-9.6484375,1.0859375,2
2434643,,,,,,,,0.94140625,-0.66015625,-1.8515625,0.03515625,0.064453125,-0.20703125,0.48828125,-9.609375,1.0859375,2
2434644,,,,,,,,0.91015625,-0.765625,-1.796875,0.0234375,0.056640625,-0.22265625,0.48828125,-9.73046875,1.125,2
2434645,,,,,,,,1.03125,-0.796875,-2.01953125,-0.00390625,0.064453125,-0.24609375,0.640625,-9.76953125,0.89453125,2
2434646,,,,,,,,0.984375,-0.8359375,-2.05078125,-0.017578125,0.06640625,-0.248046875,0.6015625,-9.80859375,0.85546875,2
2434647,,,,,,,,0.91796875,-0.71875,-2.00390625,-0.0234375,0.068359375,-0.251953125,0.56640625,-9.6875,0.89453125,2
2434648,,,,,,,,0.76953125,-0.51953125,-1.765625,-0.017578125,0.0625,-0.24609375,0.44921875,-9.49609375,1.125,2
2434649,,,,,,,,0.79296875,-0.2890625,-1.93359375,-0.046875,0.060546875,-0.24609375,0.48828125,-9.265625,0.93359375,2
2434650,36.0129525,129.3188033,18.33028479,61.30499684,0.1,65535,,0.859375,-0.23828125,-1.91015625,-0.142578125,0.076171875,-0.283203125,0.6015625,-9.23046875,0.93359375,2
2434651,,,,,,,,0.90625,-0.296875,-1.83984375,-0.17578125,0.076171875,-0.328125,0.6796875,-9.3046875,0.97265625,2
2434652,,,,,,,,0.9140625,-0.296875,-1.703125,-0.20703125,0.07421875,-0.3359375,0.71875,-9.3046875,1.0859375,2
2434653,,,,,,,,0.8046875,-0.2421875,-1.640625,-0.234375,0.08203125,-0.27734375,0.640625,-9.26953125,1.125,2
2434654,,,,,,,,0.69921875,-0.19921875,-1.5703125,-0.251953125,0.08984375,-0.23828125,0.56640625,-9.2265625,1.1640625,2
2434655,,,,,,,,0.7109375,-0.19140625,-1.5,-0.27734375,0.099609375,-0.23828125,0.6015625,-9.23046875,1.203125,2
2434656,,,,,,,,0.61328125,-0.2109375,-1.38671875,-0.3203125,0.08984375,-0.259765625,0.52734375,-9.265625,1.27734375,2
2434657,,,,,,,,0.47265625,-0.43359375,-1.1953125,-0.35546875,0.083984375,-0.267578125,0.41015625,-9.49609375,1.4296875,2
2434658,,,,,,,,0.45703125,-0.46484375,-1.09375,-0.380859375,0.080078125,-0.267578125,0.41015625,-9.53125,1.5078125,2
2434659,,,,,,,,0.359375,-0.52734375,-0.92578125,-0.4140625,0.072265625,-0.255859375,0.3359375,-9.609375,1.62109375,2
2434660,36.0129525,129.3188033,18.33028479,61.30499684,0,65535,,0.1796875,-0.40234375,-0.76171875,-0.4296875,0.07421875,-0.22265625,0.1796875,-9.49609375,1.73828125,2
2434661,,,,,,,,-0.1484375,-0.15625,-0.63671875,-0.412109375,0.064453125,-0.19921875,-0.125,-9.26953125,1.81640625,2
2434662,,,,,,,,-0.28515625,-0.06640625,-0.62890625,-0.404296875,0.052734375,-0.20703125,-0.23828125,-9.19140625,1.77734375,2
2434663,,,,,,,,-0.34765625,-0.01171875,-0.62890625,-0.404296875,0.0390625,-0.22265625,-0.27734375,-9.1484375,1.73828125,2
2434664,,,,,,,,-0.37109375,-0.1171875,-0.3984375,-0.390625,0.037109375,-0.236328125,-0.27734375,-9.26953125,1.9296875,2
2434665,,,,,,,,-0.39453125,-0.265625,-0.19921875,-0.33203125,0.037109375,-0.19921875,-0.23828125,-9.46484375,2.16015625,2
2434666,,,,,,,,-0.37109375,-0.296875,-0.09765625,-0.30078125,0.037109375,-0.169921875,-0.23828125,-9.49609375,2.234375,2
2434667,,,,,,,,-0.47265625,-0.32421875,0.015625,-0.22265625,0.033203125,-0.11328125,-0.27734375,-9.4609375,2.234375,2
2434668,,,,,,,,-0.3359375,-0.234375,-0.09765625,-0.181640625,0.03125,-0.09765625,-0.125,-9.38671875,1.96875,2
2434669,,,,,,,,-0.3046875,-0.203125,-0.1953125,-0.162109375,0.029296875,-0.1015625,-0.01171875,-9.34765625,1.81640625,2
2434670,36.0129525,129.3188035,18.34530962,61.30499687,0.1,65535,,0.1796875,-0.40234375,-0.76171875,-0.4296875,0.07421875,-0.22265625,0.21875,-9.265625,1.5859375,2
2434671,,,,,,,,0.0859375,-0.0625,-0.5390625,-0.025390625,0.02734375,-0.087890625,0.3359375,-9.23046875,1.5078125,2
2434672,,,,,,,,0.15234375,0.04296875,-0.53125,0,0.017578125,-0.095703125,0.3359375,-9.07421875,1.5859375,2
2434673,,,,,,,,0.14453125,0.08984375,-0.48828125,-0.037109375,0.017578125,-0.103515625,0.37109375,-9.109375,1.66015625,2
2434674,,,,,,,,0.12890625,0.09765625,-0.44140625,-0.103515625,0.01953125,-0.119140625,0.37109375,-9.109375,1.66015625,2
2434675,,,,,,,,0.10546875,-0.01953125,-0.44921875,-0.138671875,0.0234375,-0.12109375,0.37109375,-9.23046875,1.62109375,2
2434676,,,,,,,,0.0703125,-0.125,-0.515625,-0.146484375,0.0234375,-0.119140625,0.3359375,-9.34375,1.546875,2
2434677,,,,,,,,0.12890625,-0.36328125,-0.76953125,-0.12890625,0.021484375,-0.119140625,0.41015625,-9.57421875,1.27734375,2
2434678,,,,,,,,0.3046875,-0.5,-0.78515625,-0.119140625,0.025390625,-0.115234375,0.6015625,-9.73046875,1.23828125,2
2434679,,,,,,,,0.3671875,-0.5,-0.65234375,-0.119140625,0.029296875,-0.095703125,0.6796875,-9.73046875,1.35546875,2
2434680,36.01295233,129.3188035,18.34530966,61.28650366,0,65535,,0.3203125,-0.38671875,-0.4375,-0.4296875,0.07421875,-0.22265625,0.21875,-9.265625,1.5859375,2
2434681,,,,,,,,0.15234375,-0.33984375,-0.453125,-0.173828125,0.02734375,-0.078125,0.48828125,-9.57421875,1.5078125,2
2434682,,,,,,,,-0.015625,-0.171875,-0.52734375,-0.255859375,0.041015625,-0.12890625,0.3359375,-9.421875,1.39453125,2
2434683,,,,,,,,-0.1875,0.2890625,-0.4296875,-0.27734375,0.05078125,-0.15625,0.1796875,-8.9609375,1.46875,2
2434684,,,,,,,,-0.203125,0.3359375,-0.4375,-0.177734375,0.068359375,-0.15234375,0.1796875,-8.8828125,1.23828125,2
2434685,,,,,,,,-0.1796875,0.3359375,-0.71875,-0.095703125,0.07421875,-0.119140625,0.21875,-8.921875,1.125,2
2434686,,,,,,,,-0.1875,0.296875,-0.7890625,-0.05859375,0.07421875,-0.107421875,0.21875,-8.9609375,1.046875,2
2434687,,,,,,,,0.03515625,0.2265625,-0.81640625,-0.0078125,0.068359375,-0.068359375,0.44921875,-9.04296875,1.01171875,2
2434688,,,,,,,,0.41015625,0,-0.7578125,0.009765625,0.05859375,0.00390625,0.83203125,-9.26953125,1.046875,2
2434689,,,,,,,,0.52734375,0,-0.765625,0.0234375,0.044921875,0.103515625,0.94921875,-9.265625,1.046875,2
2434690,36.01295233,129.3188035,18.34530966,61.28650366,0,65535,,0.53515625,0.04296875,-0.91015625,0.04296875,0.025390625,0.18359375,0.94921875,-9.2265625,0.89453125,2
2434691,,,,,,,,0.47265625,0,-1.1015625,0.0703125,0.009765625,0.236328125,0.87109375,-9.265625,0.703125,2
2434692,,,,,,,,0.45703125,0.12109375,-1.33203125,0.1015625,0.015625,0.283203125,0.83203125,-9.15234375,0.47265625,2
2434693,,,,,,,,0.43359375,0.12109375,-1.4140625,0.125,0.017578125,0.296875,0.79296875,-9.1484375,0.3984375,2
2434694,,,,,,,,0.24609375,0.12109375,-1.5390625,0.16015625,0.029296875,0.330078125,0.56640625,-9.15234375,0.28125,2
2434695,,,,,,,,0.19921875,0.04296875,-1.39453125,0.162109375,0.0390625,0.3671875,0.48828125,-9.23046875,0.43359375,2
2434696,,,,,,,,0.26171875,0.0078125,-1.32421875,0.162109375,0.060546875,0.416015625,0.52734375,-9.26953125,0.51171875,2
2434697,,,,,,,,0.4609375,0,-1.37109375,0.189453125,0.091796875,0.484375,0.6796875,-9.265625,0.47265625,2
2434698,,,,,,,,0.5234375,-0.0390625,-1.41796875,0.1953125,0.103515625,0.509765625,0.71875,-9.3046875,0.43359375,2
2434699,,,,,,,,0.72265625,-0.26953125,-1.625,0.23046875,0.115234375,0.548828125,0.87109375,-9.53125,0.2421875,2
2434700,36.01295233,129.3188035,18.34530966,61.28650366,0.1,65535,0,0.77734375,-0.5390625,-1.71484375,0.04296875,0.025390625,0.18359375,0.94921875,-9.2265625,0.89453125,2
2434701,,,,,,,,0.78515625,-0.8046875,-1.65625,0.265625,0.130859375,0.53515625,0.83203125,-10.07421875,0.2421875,2
2434702,,,,,,,,0.7421875,-0.8125,-1.6484375,0.255859375,0.15234375,0.490234375,0.71875,-10.07421875,0.28125,2
2434703,,,,,,,,0.6875,-0.62890625,-1.578125,0.25390625,0.16796875,0.48046875,0.640625,-9.87890625,0.359375,2
2434704,,,,,,,,0.45703125,-0.28515625,-1.703125,0.228515625,0.181640625,0.455078125,0.37109375,-9.53125,0.2421875,2
2434705,,,,,,,,0.4296875,-0.0234375,-1.83984375,0.1875,0.193359375,0.3828125,0.296875,-9.265625,0.12890625,2
2434706,,,,,,,,0.31640625,0.359375,-2.14453125,0.09375,0.208984375,0.25390625,0.14453125,-8.8828125,-0.17578125,2
2434707,,,,,,,,0.0703125,0.7109375,-2.4921875,0.048828125,0.21875,0.1796875,-0.125,-8.5390625,-0.5234375,2
2434708,,,,,,,,-0.03515625,0.78515625,-2.453125,0.029296875,0.224609375,0.1484375,-0.23828125,-8.4609375,-0.484375,2
2434709,,,,,,,,-0.328125,0.625,-2.4453125,0.013671875,0.2421875,0.083984375,-0.546875,-8.62109375,-0.484375,2
2434710,36.01295217,129.3188037,18.36033452,61.26801049,0.1,65535,,-0.7109375,0.2109375,-2.21484375,0.04296875,0.025390625,0.18359375,-0.9296875,-9.0390625,-0.25390625,2
2434711,,,,,,,,-0.93359375,-0.78515625,-1.9296875,-0.0234375,0.3046875,-0.046875,-1.16015625,-10.45703125,0.16796875,2
2434712,,,,,,,,-0.97265625,-1.54296875,-1.703125,-0.064453125,0.337890625,-0.099609375,-1.12109375,-11.41796875,0.3203125,2
2434713,,,,,,,,-0.82421875,-2.4296875,-1.5703125,-0.083984375,0.365234375,-0.15234375,-1.08203125,-11.87109375,0.359375,2
2434714,,,,,,,,-0.83203125,-2.73828125,-1.515625,-0.07421875,0.376953125,-0.197265625,-1.12109375,-11.9453125,0.55078125,2
2434715,,,,,,,,-1.23046875,-1.95703125,-1.30859375,-0.0703125,0.392578125,-0.28125,-1.42578125,-11.21875,0.58984375,2
2434716,,,,,,,,-1.29296875,-1.02734375,-1.6328125,-0.12890625,0.412109375,-0.3203125,-1.46484375,-10.30078125,0.2421875,2
2434717,,,,,,,,-1.09375,-0.68359375,-2,-0.16015625,0.412109375,-0.384765625,-1.234375,-9.953125,-0.140625,2
2434718,,,,,,,,-0.7734375,-0.40625,-2.359375,-0.146484375,0.40625,-0.458984375,-0.890625,-9.69140625,-0.5234375,2
2434719,,,,,,,,-0.3515625,-0.484375,-2.640625,-0.123046875,0.38671875,-0.486328125,-0.4296875,-9.765625,-0.828125,2
2434720,36.01295233,129.3188038,18.3753593,61.28650372,0.2,59,,-0.1796875,-0.62890625,-2.80859375,0.04296875,0.025390625,0.18359375,-0.9296875,-9.0390625,-0.25390625,2
2434721,,,,,,,,-0.02734375,-0.78125,-2.83203125,-0.041015625,0.326171875,-0.3359375,-0.01171875,-10.07421875,-1.05859375,2
2434722,,,,,,,,0.04296875,-0.7734375,-2.9453125,-0.021484375,0.314453125,-0.279296875,0.06640625,-10.0703125,-1.171875,2
2434723,,,,,,,,0.140625,-0.7734375,-2.9375,0.01953125,0.28125,-0.203125,0.1796875,-10.0703125,-1.171875,2
2434724,,,,,,,,0.08984375,-0.62109375,-2.9296875,0.06640625,0.24609375,-0.15234375,0.14453125,-9.9140625,-1.171875,2
2434725,,,,,,,,-0.1875,-0.390625,-2.85546875,0.115234375,0.1484375,-0.12890625,-0.125,-9.69140625,-1.09765625,2
2434726,,,,,,,,-0.2421875,-0.3828125,-2.85546875,0.1015625,0.125,-0.140625,-0.1640625,-9.69140625,-1.09765625,2
2434727,,,,,,,,-0.6015625,-0.35546875,-2.90234375,0.025390625,0.064453125,-0.18359375,-0.5078125,-9.6484375,-1.13671875,2
2434728,,,,,,,,-0.73828125,-0.34765625,-2.9609375,-0.091796875,0.0078125,-0.248046875,-0.62109375,-9.65234375,-1.2109375,2
2434729,,,,,,,,-0.90234375,-0.30859375,-2.79296875,-0.1484375,-0.017578125,-0.296875,-0.77734375,-9.61328125,-1.05859375,2
2434730,36.01295233,129.3188042,18.40540895,61.28650379,0.2,57,,-1.171875,-0.30078125,-2.125,0.04296875,0.025390625,0.18359375,-0.9296875,-9.0390625,-0.25390625,2
2434731,,,,,,,,-1.45703125,-0.25390625,-1.7421875,-0.322265625,-0.14453125,-0.537109375,-1.19921875,-9.5703125,-0.1015625,2
2434732,,,,,,,,-1.625,-0.09375,-1.625,-0.380859375,-0.173828125,-0.60546875,-1.3125,-9.42578125,-0.0234375,2
2434733,,,,,,,,-1.6796875,0.48828125,-1.6953125,-0.451171875,-0.201171875,-0.67578125,-1.3125,-8.84375,-0.140625,2
2434734,,,,,,,,-1.7578125,0.765625,-1.83984375,-0.5,-0.21875,-0.771484375,-1.3125,-8.58203125,-0.33203125,2
2434735,,,,,,,,-2.05859375,0.765625,-2.04296875,-0.505859375,-0.228515625,-0.845703125,-1.54296875,-8.58203125,-0.59765625,2
2434736,,,,,,,,-2.2265625,0.6953125,-1.97265625,-0.5078125,-0.234375,-0.884765625,-1.65625,-8.66015625,-0.55859375,2
2434737,,,,,,,,-2.57421875,0.390625,-1.52734375,-0.4921875,-0.25390625,-0.9140625,-1.92578125,-8.96484375,-0.17578125,2
2434738,,,,,,,,-2.75390625,0.16015625,-1.2578125,-0.517578125,-0.26953125,-0.94921875,-1.96484375,-9.19140625,0.015625,2
2434739,,,,,,,,-2.76171875,-0.109375,-1.00390625,-0.525390625,-0.2734375,-0.908203125,-1.88671875,-9.4609375,0.20703125,2
2434740,36.01295283,129.318805,18.48053295,61.34198356,0.6,50,,-2.50390625,0.0078125,-1.02734375,-0.46484375,-0.275390625,-0.8984375,-1.54296875,-9.34375,0.12890625,2
2434741,,,,,,,,-2.3203125,0.34375,-0.97265625,-0.37890625,-0.27734375,-0.89453125,-1.2734375,-9.00390625,0.12890625,2
2434742,,,,,,,,-2.25390625,0.49609375,-1.01171875,-0.306640625,-0.27734375,-0.880859375,-1.12109375,-8.84765625,0.05078125,2
2434743,,,,,,,,-2.30078125,0.375,-0.91015625,-0.279296875,-0.271484375,-0.83203125,-1.04296875,-8.9609375,0.08984375,2
2434744,,,,,,,,-2.328125,0.25390625,-0.87890625,-0.275390625,-0.2578125,-0.7578125,-1.0078125,-9.0703125,0.08984375,2
2434745,,,,,,,,-2.48046875,-0.28515625,-0.72265625,-0.265625,-0.271484375,-0.642578125,-1.08203125,-9.61328125,0.20703125,2
2434746,,,,,,,,-2.65625,-0.4453125,-0.625,-0.251953125,-0.28125,-0.580078125,-1.234375,-9.76953125,0.28125,2
2434747,,,,,,,,-2.90234375,-0.9140625,-0.41015625,-0.232421875,-0.3125,-0.482421875,-1.42578125,-10.23046875,0.47265625,2
2434748,,,,,,,,-3.2890625,-1.3359375,-0.140625,-0.205078125,-0.35546875,-0.404296875,-1.7734375,-10.65234375,0.703125,2
2434749,,,,,,,,-3.625,-1.91796875,0.19921875,-0.1875,-0.396484375,-0.361328125,-2.078125,-11.21875,1.01171875,2
2434750,36.01295367,129.318806,18.5706817,61.43444979,1.1,50,,-3.92578125,-2.8359375,0.60546875,-0.166015625,-0.435546875,-0.333984375,-2.34765625,-12.14453125,1.39453125,2
2434751,,,,,,,,-3.59765625,-3.10546875,1.37890625,-0.107421875,-0.466796875,-0.376953125,-1.96484375,-12.41015625,2.12109375,2
2434752,,,,,,,,-3.24609375,-2.421875,1.2109375,-0.03515625,-0.470703125,-0.40234375,-1.58203125,-11.72265625,1.9296875,2
2434753,,,,,,,,-3.15234375,-2.125,1.03515625,0.0703125,-0.4296875,-0.44140625,-1.42578125,-11.41796875,1.73828125,2
2434754,,,,,,,,-3.09375,-2.015625,0.92578125,0.060546875,-0.40625,-0.4609375,-1.3515625,-11.30078125,1.62109375,2
2434755,,,,,,,,-2.7890625,-1.671875,1.203125,-0.01171875,-0.35546875,-0.490234375,-1.0078125,-10.95703125,1.890625,2
2434756,,,,,,,,-2.7109375,-1.3359375,1.71875,-0.07421875,-0.3125,-0.427734375,-0.890625,-10.609375,2.390625,2
2434757,,,,,,,,-3.46875,-0.26171875,1.625,-0.083984375,-0.279296875,-0.259765625,-1.6171875,-9.53125,2.2734375,2
2434758,,,,,,,,-3.82421875,-0.0703125,1.47265625,-0.08203125,-0.267578125,-0.158203125,-1.96484375,-9.34765625,2.12109375,2
2434759,,,,,,,,-4.86328125,-0.109375,1.10546875,-0.0546875,-0.279296875,-0.021484375,-2.99609375,-9.3828125,1.73828125,2
2434760,36.01295417,129.3188072,18.67585535,61.48992963,1.2,56,,-5.05859375,-0.60546875,0.9765625,-0.07421875,-0.279296875,0.0390625,-3.19140625,-9.875,1.5859375,2
2434761,,,,,,,,-4.3515625,-3.85546875,1.83203125,-0.111328125,-0.259765625,0.166015625,-2.5,-13.13671875,2.42578125,2
2434762,,,,,,,,-3.453125,-4.61328125,2.64453125,-0.09375,-0.232421875,0.279296875,-1.6171875,-13.90234375,3.23046875,2
2434763,,,,,,,,-0.49609375,-5.296875,4.921875,0.1484375,-0.146484375,0.76953125,4.43359375,-14.40234375,7.67578125,2
2434764,,,,,,,,3.45703125,-4.70703125,7.01171875,0.42578125,-0.095703125,1.197265625,4.77734375,-12.67578125,5.72265625,2
2434765,,,,,,,,1.36328125,-2.03125,3.84765625,0.84765625,0.033203125,1.140625,1.98046875,-10.91796875,4.3828125,2
2434766,,,,,,,,0.50390625,-1.5625,3.703125,0.8515625,0.029296875,0.900390625,1.0234375,-9.875,4.34375,2
2434767,,,,,,,,-0.609375,-0.0546875,3.72265625,0.119140625,0.03515625,-0.01953125,0.3359375,-9.15234375,4.83984375,2
2434768,,,,,,,,-1.1015625,0.14453125,4.16015625,-0.265625,-0.05859375,-0.33203125,0.10546875,-9.265625,4.91796875,2
2434769,,,,,,,,-1.26953125,0.1015625,4.13671875,-0.330078125,-0.154296875,-0.486328125,-0.0859375,-9.3828125,4.2265625,2
2434770,36.01295467,129.3188085,18.79605381,61.54540951,1.2,59,,-1.30859375,-0.09375,3.1328125,-0.140625,-0.30859375,-0.5859375,0.3359375,-9.49609375,3.65234375,2
2434771,,,,,,,,-0.859375,-0.0546875,2.734375,0.1875,-0.345703125,-0.4453125,1.17578125,-9.49609375,3.1953125,2
2434772,,,,,,,,-0.0078125,-0.28515625,2.2890625,0.51171875,-0.32421875,-0.25,1.75390625,-9.875,2.96484375,2
2434773,,,,,,,,0.390625,-1.01953125,2.2890625,0.66796875,-0.2265625,-0.126953125,1.90625,-10.375,3.078125,2
2434774,,,,,,,,-0.1640625,-0.875,1.73046875,0.646484375,-0.10546875,-0.060546875,1.3671875,-10.2265625,2.58203125,2
2434775,,,,,,,,-0.65234375,-0.26171875,1.359375,0.599609375,0.0078125,0.0078125,0.87109375,-9.61328125,2.2734375,2
2434776,,,,,,,,-0.765625,0.8125,1.2734375,0.55078125,0.087890625,0.037109375,0.7578125,-8.5390625,2.234375,2
2434777,,,,,,,,-1.02734375,1.4921875,0.984375,0.52734375,0.111328125,-0.08203125,0.48828125,-7.85546875,2.0078125,2
2434778,,,,,,,,-1.265625,1.71484375,0.68359375,0.486328125,0.12109375,-0.224609375,0.2578125,-7.6171875,1.77734375,2
2434779,,,,,,,,-1.43359375,2.51953125,0.55859375,0.4453125,0.126953125,-0.2890625,0.10546875,-6.81640625,1.69921875,2
2434780,36.01295483,129.3188093,18.87117789,61.56390288,0.9,60,,-1.53515625,3.5859375,0.3984375,0.423828125,0.13671875,-0.30859375,0.02734375,-5.74609375,1.5859375,2
2434781,,,,,,,,-1.56640625,4.11328125,0.2578125,0.369140625,0.17578125,-0.3125,0.02734375,-5.20703125,1.5078125,2
2434782,,,,,,,,-1.53515625,4.44921875,0.2421875,0.337890625,0.18359375,-0.33203125,0.06640625,-4.859375,1.5078125,2
2434783,,,,,,,,-1.40625,4.56640625,-0.05859375,0.291015625,0.189453125,-0.3515625,0.21875,-4.74609375,1.23828125,2
2434784,,,,,,,,-1.16015625,4.39453125,-0.32421875,0.296875,0.185546875,-0.34765625,0.48828125,-4.8984375,1.01171875,2
2434785,,,,,,,,-0.625,3.99609375,-0.44921875,0.3984375,0.1875,-0.302734375,1.0625,-5.28515625,0.93359375,2
2434786,,,,,,,,-0.25,3.65234375,-0.28125,0.4453125,0.18359375,-0.283203125,1.4453125,-5.62890625,1.125,2
2434787,,,,,,,,0.1875,3.32421875,-0.16796875,0.591796875,0.17578125,-0.189453125,1.90625,-5.9296875,1.31640625,2
2434788,,,,,,,,0.30078125,3.0859375,-0.34375,0.6328125,0.158203125,-0.134765625,2.01953125,-6.1640625,1.203125,2
2434789,,,,,,,,0.33984375,3.0390625,-0.375,0.615234375,0.142578125,-0.126953125,2.05859375,-6.203125,1.203125,2
2434790,36.0129555,129.3188107,18.99137631,61.63787596,1.2,58,,0.32421875,2.91015625,-0.546875,0.525390625,0.126953125,-0.162109375,0.02734375,-5.74609375,1.5859375,2
2434791,,,,,,,,0.203125,2.73828125,-0.9921875,0.333984375,0.080078125,-0.21484375,1.9453125,-6.47265625,0.703125,2
2434792,,,,,,,,0.0625,2.1953125,-1.08984375,0.203125,0.048828125,-0.212890625,1.828125,-7.01171875,0.62890625,2
2434793,,,,,,,,-0.05859375,1.61328125,-1.0234375,0.15625,0.04296875,-0.205078125,1.71484375,-7.578125,0.703125,2
2434794,,,,,,,,-0.06640625,0.9140625,-0.83984375,0.095703125,0.01953125,-0.205078125,1.71484375,-8.27734375,0.89453125,2
2434795,,,,,,,,-0.04296875,0.06640625,-0.625,0.044921875,0.009765625,-0.15234375,1.75390625,-9.109375,1.125,2
2434796,,,,,,,,-0.015625,-1.20703125,-0.05078125,-0.001953125,0.021484375,-0.060546875,1.7890625,-10.375,1.69921875,2
2434797,,,,,,,,-0.12109375,-1.8125,0.2578125,-0.013671875,0.029296875,0.052734375,1.67578125,-10.99609375,2.0078125,2
2434798,,,,,,,,-0.45703125,-2.26953125,0.484375,-0.015625,0.03125,0.1015625,1.33203125,-11.44921875,2.234375,2
2434799,,,,,,,,-0.7890625,-2.42578125,0.984375,-0.03515625,0.029296875,0.173828125,0.984375,-11.6015625,2.734375,2
2434800,36.0129565,129.3188122,19.12659948,61.7488355,1.6,57,0,-0.78515625,-2.15625,1.22265625,-0.099609375,0.02734375,0.16015625,0.94921875,-11.33984375,2.96484375,2
2434801,,,,,,,,-0.81640625,-2.109375,0.9609375,-0.146484375,0.03125,0.0859375,0.91015625,-11.30078125,2.6953125,2
2434802,,,,,,,,-0.5703125,-2.21875,0.8984375,-0.158203125,0.04296875,-0.03125,1.140625,-11.4140625,2.6171875,2
2434803,,,,,,,,-0.08203125,-2.37890625,0.6484375,-0.166015625,0.0625,-0.115234375,1.63671875,-11.5625,2.3515625,2
2434804,,,,,,,,-0.08984375,-2.0703125,0.43359375,-0.12109375,0.103515625,-0.056640625,1.63671875,-11.2578125,2.12109375,2
2434805,,,,,,,,-0.07421875,-1.48828125,0.203125,-0.06640625,0.1484375,0.11328125,1.63671875,-10.6796875,1.890625,2
2434806,,,,,,,,-0.2109375,-1.296875,0.05078125,-0.0859375,0.16015625,0.146484375,1.484375,-10.49609375,1.73828125,2
2434807,,,,,,,,-0.2265625,-1.21484375,0.09765625,-0.12109375,0.1640625,0.185546875,1.4453125,-10.4140625,1.77734375,2
2434808,,,,,,,,0.02734375,-1.90234375,0.6875,-0.125,0.158203125,0.34765625,1.5625,-12.0234375,2.42578125,2
2434809,,,,,,,,-0.0703125,-2.81640625,0.76171875,-0.1171875,0.154296875,0.447265625,1.29296875,-13.171875,2.54296875,2
2434810,36.01295717,129.3188133,19.23177308,61.82280855,1.5,55,,-0.78515625,-2.15625,1.22265625,-0.060546875,0.138671875,0.669921875,0.44921875,-16.19921875,3.69140625,2
2434811,,,,,,,,-1.7265625,-6.69921875,4.44921875,-0.046875,0.12890625,0.841796875,-0.203125,-15.9296875,6.10546875,2
2434812,,,,,,,,-1.79296875,-3.88671875,6.02734375,0.013671875,0.14453125,1.087890625,-0.35546875,-13.13671875,7.67578125,2
2434813,,,,,,,,-1.64453125,-1.375,4.74609375,0.173828125,0.099609375,1.2265625,-0.31640625,-10.65234375,6.41015625,2
2434814,,,,,,,,-1.40234375,-1.96875,3.890625,0.0234375,-0.03515625,0.798828125,-0.23828125,-11.26171875,5.5703125,2
2434815,,,,,,,,0.359375,-3.2265625,4.31640625,-0.162109375,-0.07421875,-0.138671875,1.484375,-12.5234375,5.98828125,2
2434816,,,,,,,,-0.17578125,-1.80078125,3.75,-0.078125,-0.044921875,0.005859375,0.94921875,-11.10546875,5.4140625,2
2434817,,,,,,,,-0.8203125,-1.06640625,3.4921875,-0.138671875,-0.017578125,0.17578125,0.296875,-10.37890625,5.1484375,2
2434818,,,,,,,,-0.7734375,-0.67578125,3.1328125,-0.517578125,-0.083984375,0.091796875,0.3359375,-9.9921875,4.765625,2
2434819,,,,,,,,-0.22265625,-0.69921875,2.96484375,-0.87890625,-0.14453125,-0.03125,0.87109375,-10.03515625,4.53515625,2
2434820,36.01295783,129.3188143,19.32192185,61.89678158,1.3,51,,-0.5078125,-1.1328125,2.78125,-0.80859375,-0.125,-0.0546875,0.6015625,-10.49609375,4.2265625,2
2434821,,,,,,,,-1.1875,-1.2734375,2.9921875,-0.54296875,-0.1484375,0.05078125,-0.0859375,-10.65234375,4.3828125,2
2434822,,,,,,,,-1.41015625,-1.109375,2.8828125,-0.466796875,-0.208984375,0.1953125,-0.31640625,-10.3359375,4,2
2434823,,,,,,,,-1.40234375,-0.94921875,2.6796875,-0.478515625,-0.2265625,0.244140625,-0.27734375,-10.1484375,3.69140625,2
2434824,,,,,,,,-1.05859375,-0.28125,1.9140625,-0.51953125,-0.2578125,0.27734375,-0.01171875,-9.6875,3.1953125,2
2434825,,,,,,,,-0.88671875,0.72265625,1.34765625,-0.494140625,-0.279296875,0.216796875,0.14453125,-8.69140625,2.58203125,2
2434826,,,,,,,,-0.6640625,1.46484375,0.94921875,-0.439453125,-0.302734375,0.13671875,0.3359375,-7.9609375,2.12109375,2
2434827,,,,,,,,-0.54296875,2.19921875,0.68359375,-0.48046875,-0.29296875,0.10546875,0.44921875,-7.234375,1.81640625,2
2434828,,,,,,,,-0.3828125,2.66015625,0.62890625,-0.51171875,-0.287109375,0.09765625,0.6015625,-6.7734375,1.73828125,2
2434829,,,,,,,,-0.296875,3.39453125,0.67578125,-0.515625,-0.26953125,0.095703125,0.6796875,-6.05078125,1.73828125,2
2434830,36.01295833,129.318815,19.38202102,61.95226133,1.1,47,,-0.39453125,3.83203125,0.53125,-0.80859375,-0.125,-0.0546875,0.56640625,-5.62890625,1.546875,2
2434831,,,,,,,,-0.609375,4.33984375,0.37109375,-0.404296875,-0.2578125,0.177734375,0.3359375,-5.125,1.35546875,2
2434832,,,,,,,,-0.75,4.57421875,0.171875,-0.3671875,-0.287109375,0.15625,0.1796875,-4.8984375,1.125,2
2434833,,,,,,,,-0.9765625,4.76953125,-0.03515625,-0.353515625,-0.30078125,0.1328125,-0.046875,-4.703125,0.89453125,2
2434834,,,,,,,,-1.14453125,4.8125,-0.1171875,-0.345703125,-0.337890625,0.078125,-0.23828125,-4.67578125,0.78125,2
2434835,,,,,,,,-1.52734375,4.62109375,-0.27734375,-0.333984375,-0.37109375,0.041015625,-0.62109375,-4.859375,0.58984375,2
2434836,,,,,,,,-1.94140625,4.390625,-0.1640625,-0.3046875,-0.396484375,0.0234375,-1.04296875,-5.09375,0.6640625,2
2434837,,,,,,,,-2.1328125,4.125,-0.125,-0.265625,-0.390625,0.015625,-1.234375,-5.359375,0.6640625,2
2434838,,,,,,,,-2.2890625,3.86328125,-0.22265625,-0.2578125,-0.369140625,0.013671875,-1.390625,-5.625,0.55078125,2
2434839,,,,,,,,-2.5859375,3.55859375,-0.23828125,-0.216796875,-0.330078125,0.015625,-1.6953125,-5.93359375,0.51171875,2
2434840,36.01295933,129.3188163,19.50221935,62.06322084,1.5,49,,-2.85546875,2.9453125,-0.13671875,-0.1640625,-0.2421875,-0.052734375,-1.96484375,-6.55078125,0.58984375,2
2434841,,,,,,,,-2.78515625,2.36328125,-0.08984375,-0.142578125,-0.1796875,-0.1015625,-1.88671875,-7.12109375,0.62890625,2
2434842,,,,,,,,-2.41015625,1.82421875,-0.22265625,-0.099609375,-0.0703125,-0.154296875,-1.50390625,-7.66015625,0.47265625,2
2434843,,,,,,,,-2.03515625,1.44140625,-0.19140625,-0.05859375,-0.041015625,-0.1640625,-1.12109375,-8.0390625,0.51171875,2
2434844,,,,,,,,-1.73828125,1.05078125,-0.15234375,0.048828125,0.01171875,-0.18359375,-0.81640625,-8.42578125,0.55078125,2
2434845,,,,,,,,-1.40625,-0.02734375,0.03125,0.154296875,0.056640625,-0.1875,-0.46875,-9.4921875,0.7421875,2
2434846,,,,,,,,-1.33984375,-0.6015625,0.15234375,0.24609375,0.08984375,-0.1328125,-0.39453125,-10.07421875,0.89453125,2
2434847,,,,,,,,-1.34765625,-1.1875,0.54296875,0.333984375,0.109375,-0.052734375,-0.39453125,-10.65234375,1.31640625,2
2434848,,,,,,,,-1.33984375,-1.5,0.65625,0.365234375,0.123046875,0.01953125,-0.39453125,-10.953125,1.46875,2
2434849,,,,,,,,-1.1328125,-1.578125,0.80859375,0.380859375,0.134765625,0.0625,-0.203125,-11.03125,1.66015625,2
2434850,36.01296017,129.3188177,19.62241772,62.15568714,1.5,52,,-0.89453125,-1.39453125,0.77734375,0.37890625,0.13671875,0.052734375,0.02734375,-10.8359375,1.66015625,2
2434851,,,,,,,,-0.6171875,-1.0859375,0.65625,0.34765625,0.125,0.005859375,0.296875,-10.53515625,1.5859375,2
2434852,,,,,,,,-0.54296875,-1.0546875,0.6015625,0.3203125,0.125,-0.013671875,0.37109375,-10.49609375,1.546875,2
2434853,,,,,,,,-0.53515625,-0.86328125,0.484375,0.271484375,0.1015625,-0.048828125,0.37109375,-10.30078125,1.46875,2
2434854,,,,,,,,-0.91796875,-0.3359375,0.22265625,0.19140625,0.05078125,0.01171875,-0.01171875,-9.76953125,1.23828125,2
2434855,,,,,,,,-0.9765625,0.19921875,-0.10546875,0.173828125,0.021484375,0.12890625,-0.0859375,-9.23046875,0.93359375,2
2434856,,,,,,,,-1.16015625,0.7734375,-0.11328125,0.15625,0.00390625,0.173828125,-0.27734375,-8.66015625,0.93359375,2
2434857,,,,,,,,-1.48046875,1.37890625,0.140625,0.107421875,-0.025390625,0.275390625,-0.62109375,-8.04296875,1.203125,2
2434858,,,,,,,,-2.1640625,2.03125,1.12109375,0.046875,-0.044921875,0.41015625,-1.3515625,-7.39453125,2.19921875,2
2434859,,,,,,,,-2.3828125,2.0390625,1.3125,0.025390625,-0.025390625,0.580078125,-1.6171875,-7.390625,2.390625,2
2434860,36.01296117,129.3188193,19.7726657,62.26664672,1.7,54,,-2.51171875,0.546875,1.296875,0.01953125,-0.001953125,0.724609375,0.02734375,-10.8359375,1.66015625,2
2434861,,,,,,,,-1.59375,-1.24609375,1.91015625,0.06640625,0.037109375,0.8203125,-0.96875,-10.68359375,3.00390625,2
2434862,,,,,,,,1.09765625,-5.1171875,3.80859375,0.24609375,0.111328125,0.90625,3.8984375,-18.4609375,6.10546875,2
2434863,,,,,,,,3.3984375,-9.0234375,4.98046875,0.318359375,0.130859375,0.970703125,5.27734375,-20.80078125,6.3359375,2
2434864,,,,,,,,7.4609375,-15.11328125,6.09765625,0.609375,0.1328125,1.189453125,8.9921875,-24.8984375,8.36328125,2
2434865,,,,,,,,9.078125,-11.75,7.58203125,0.8359375,0.072265625,1.208984375,8.03515625,-18.2265625,6.94921875,2
2434866,,,,,,,,6.35546875,-5.890625,3.93359375,0.826171875,0.064453125,1.287109375,5.0859375,-13.1328125,4.6875,2
2434867,,,,,,,,1.99609375,-1.76953125,3.7421875,0.486328125,0.033203125,1.1015625,0.79296875,-11.4140625,5.453125,4
2434868,,,,,,,,0.87109375,-2,4.0078125,0.162109375,-0.068359375,0.46875,-0.046875,-12.06640625,5.68359375,4
2434869,,,,,,,,0.09765625,-3.9921875,4.3828125,-0.5234375,-0.314453125,-1.14453125,0.56640625,-13.90234375,5.53125,1
2434870,36.01296167,129.3188208,19.90788897,62.32212664,1.6,58,,0.7578125,-4.44140625,3.50390625,-0.625,-0.302734375,-1.376953125,0.02734375,-10.8359375,1.66015625,1
2434871,,,,,,,,-0.12890625,-2.359375,2.4375,-0.015625,-0.185546875,-0.748046875,-0.01171875,-11.796875,3.8046875,1
2434872,,,,,,,,-0.60546875,-0.93359375,1.6875,0.4140625,-0.099609375,-0.412109375,-0.39453125,-10.37890625,3.078125,1
2434873,,,,,,,,-0.734375,-0.08984375,0.984375,0.41796875,-0.048828125,-0.4609375,-0.5078125,-9.53515625,2.390625,1
2434874,,,,,,,,-0.59765625,-0.05859375,0.484375,0.21875,0.029296875,-0.611328125,-0.31640625,-9.4921875,1.9296875,1
2434875,,,,,,,,-0.15625,-0.0234375,0.453125,0.17578125,0.1484375,-0.5625,0.1796875,-9.46484375,1.9296875,1
2434876,,,,,,,,0.11328125,0.4375,0.390625,0.294921875,0.294921875,-0.3828125,0.48828125,-9,1.890625,1
2434877,,,,,,,,0.328125,1.734375,0.11328125,0.4375,0.43359375,-0.173828125,0.71875,-7.69921875,1.66015625,0
2434878,,,,,,,,0.2890625,2.15234375,-0.0625,0.4921875,0.486328125,-0.083984375,0.6796875,-7.27734375,1.5078125,0
2434879,,,,,,,,0.14453125,3.2578125,-0.42578125,0.58984375,0.544921875,-0.021484375,0.52734375,-6.16796875,1.23828125,0
2434880,36.01296233,129.318822,20.01306255,62.39609971,1.5,53,,-0.046875,4.19921875,-0.79296875,-0.625,-0.302734375,-1.376953125,0.3359375,-5.20703125,0.93359375,0
2434881,,,,,,,,-0.01171875,4.4609375,-1.078125,0.544921875,0.552734375,-0.18359375,0.37109375,-4.9375,0.7421875,0
2434882,,,,,,,,0.10546875,4.7265625,-1.26171875,0.517578125,0.560546875,-0.193359375,0.48828125,-4.671875,0.58984375,0
2434883,,,,,,,,0.359375,5.09375,-1.53125,0.421875,0.55078125,-0.173828125,0.7578125,-4.2890625,0.3984375,0
2434884,,,,,,,,0.5859375,5.203125,-1.6640625,0.40234375,0.537109375,-0.154296875,0.984375,-4.171875,0.28125,0
2434885,,,,,,,,0.89453125,5.38671875,-1.765625,0.341796875,0.482421875,-0.080078125,1.29296875,-3.9765625,0.2421875,0
2434886,,,,,,,,1.20703125,5.65234375,-1.58984375,0.30859375,0.45703125,-0.06640625,1.59765625,-3.7109375,0.43359375,0
2434887,,,,,,,,1.59765625,4.94921875,-1.91796875,0.169921875,0.33203125,-0.052734375,1.98046875,-4.3984375,0.16796875,0
2434888,,,,,,,,1.59765625,4.7578125,-1.98046875,0.1015625,0.271484375,-0.052734375,1.98046875,-4.59765625,0.12890625,0
2434889,,,,,,,,1.71484375,4.12890625,-1.875,0.052734375,0.21875,-0.0859375,2.09765625,-5.20703125,0.2421875,0
2434890,36.012963,129.3188232,20.11823614,62.47007278,1.3,53,,1.74609375,3.82421875,-1.8359375,-0.056640625,0.18359375,-0.095703125,2.13671875,-5.51171875,0.28125,0
2434891,,,,,,,,1.62890625,3.36328125,-1.91015625,-0.1875,0.130859375,-0.087890625,2.01953125,-5.97265625,0.20703125,0
2434892,,,,,,,,1.58984375,3.09375,-1.859375,-0.234375,0.107421875,-0.09375,1.98046875,-6.24609375,0.2421875,0
2434893,,,,,,,,1.57421875,2.2578125,-1.7578125,-0.34765625,0.072265625,-0.1171875,1.98046875,-7.0859375,0.3203125,0
2434894,,,,,,,,1.53125,0.84375,-1.3046875,-0.44140625,0.048828125,-0.142578125,1.9453125,-8.50390625,0.7421875,0
2434895,,,,,,,,1.24609375,-0.91015625,-0.953125,-0.49609375,0.046875,-0.134765625,1.67578125,-10.2578125,1.046875,0
2434896,,,,,,,,1.0546875,-1.48828125,-0.78125,-0.5234375,0.05078125,-0.107421875,1.484375,-10.83984375,1.203125,0
2434897,,,,,,,,0.08984375,-2.62890625,-0.0390625,-0.5703125,0.04296875,-0.0546875,0.52734375,-11.984375,1.890625,0
2434898,,,,,,,,-0.41796875,-2.6953125,0.32421875,-0.568359375,0.013671875,-0.029296875,0.02734375,-12.06640625,2.19921875,0
2434899,,,,,,,,-0.76171875,-2,0.56640625,-0.572265625,0,-0.03515625,-0.31640625,-11.375,2.42578125,0
2434900,36.01296383,129.3188245,20.2384345,62.56253909,1.5,53,0,-0.65625,-0.95703125,0.53125,-0.056640625,0.18359375,-0.095703125,2.13671875,-5.51171875,0.28125,1
2434901,,,,,,,,0.01171875,-0.796875,0.171875,-0.646484375,-0.083984375,-0.240234375,0.48828125,-10.1875,1.890625,1
2434902,,,,,,,,-0.05078125,-0.796875,-0.1484375,-0.64453125,-0.107421875,-0.369140625,0.44921875,-10.1875,1.5078125,3
2434903,,,,,,,,-0.296875,-1.125,-0.22265625,-0.513671875,-0.046875,-0.361328125,0.2578125,-10.53515625,1.35546875,3
2434904,,,,,,,,0.0859375,-2.421875,0.60546875,-0.515625,0.068359375,-0.1171875,0.6796875,-11.83984375,2.12109375,3
2434905,,,,,,,,0.390625,-2.3828125,0.68359375,-0.50390625,0.146484375,0.0546875,0.984375,-11.796875,2.16015625,3
2434906,,,,,,,,0.515625,-2.02734375,0.74609375,-0.44140625,0.166015625,0.150390625,1.1015625,-11.44921875,2.19921875,3
2434907,,,,,,,,0.5859375,-0.95703125,0.8515625,-0.265625,0.16015625,0.33984375,1.140625,-10.375,2.2734375,3
2434908,,,,,,,,0.42578125,-0.94921875,0.875,-0.16015625,0.1171875,0.4453125,0.94921875,-10.375,2.2734375,3
2434909,,,,,,,,-0.37109375,-2.625,0.73046875,-0.169921875,0.080078125,0.42578125,0.10546875,-12.06640625,2.12109375,3
2434910,36.012965,129.3188258,20.35863277,62.69199181,1.6,48,,-0.67578125,-3.5390625,1.0234375,-0.298828125,0.09375,0.390625,-0.23828125,-12.984375,2.390625,3
2434911,,,,,,,,-1.3671875,-2.04296875,3,-0.34375,0.154296875,0.546875,-0.96875,-11.484375,4.34375,3
2434912,,,,,,,,-1.53515625,-1.5,3.94140625,-0.20703125,0.19921875,0.841796875,-1.19921875,-10.953125,5.26171875,3
2434913,,,,,,,,-1.515625,-2.2578125,4.1328125,-0.078125,0.1875,0.974609375,-1.234375,-11.72265625,5.453125,3
2434914,,,,,,,,-1.4296875,-6.05078125,4.5546875,0.046875,0.072265625,0.984375,-1.234375,-15.51171875,5.875,2
2434915,,,,,,,,-2.11328125,-7.23046875,5.7421875,-0.171875,-0.01171875,0.587890625,-2.00390625,-16.6953125,7.0625,2
2434916,,,,,,,,-2.45703125,-5.73828125,6.0625,-0.220703125,0.01953125,0.4921875,-2.38671875,-15.20703125,7.3671875,2
2434917,,,,,,,,-1.42578125,-2.328125,5.34375,-0.013671875,0.072265625,0.7578125,-1.42578125,-11.80078125,6.640625,2
2434918,,,,,,,,-0.859375,-1.33203125,5.15234375,0.046875,0.076171875,0.783203125,-0.890625,-10.80078125,6.44921875,2
2434919,,,,,,,,-0.015625,-0.01953125,3.8515625,-0.169921875,0.001953125,-0.033203125,-0.125,-9.4921875,5.1484375,2
2434920,36.01296583,129.3188268,20.44878148,62.78445806,1.5,48,,0.05859375,-0.39453125,3.25390625,-0.298828125,0.09375,0.390625,-0.23828125,-12.984375,2.390625,2
2434921,,,,,,,,-0.1328125,-1.5390625,3.16015625,-0.34375,-0.09765625,-0.892578125,-0.125,-11.03515625,4.41796875,2
2434922,,,,,,,,-0.37109375,-1.84375,3.22265625,-0.4140625,-0.109375,-0.560546875,-0.27734375,-11.33984375,4.45703125,2
2434923,,,,,,,,-0.40234375,-1.4140625,2.92578125,-0.298828125,-0.138671875,-0.015625,-0.27734375,-10.91796875,4.11328125,2
2434924,,,,,,,,-0.2890625,-0.52734375,2.05859375,-0.171875,-0.203125,0.103515625,-0.1640625,-10.03125,3.23046875,2
2434925,,,,,,,,-0.2734375,0.09375,1.5703125,-0.083984375,-0.26953125,0.12109375,-0.1640625,-9.42578125,2.734375,2
2434926,,,,,,,,-0.3125,0.28515625,1.37890625,-0.029296875,-0.30078125,0.11328125,-0.203125,-9.23046875,2.54296875,2
2434927,,,,,,,,-0.1875,0.9765625,0.94921875,0.046875,-0.349609375,0.10546875,-0.0859375,-8.54296875,2.12109375,2
2434928,,,,,,,,-0.06640625,1.7109375,0.51171875,0.119140625,-0.384765625,0.138671875,0.02734375,-7.8125,1.69921875,2
2434929,,,,,,,,0.1015625,2.32421875,-0.0078125,0.173828125,-0.3828125,0.14453125,0.1796875,-7.1953125,1.203125,2
2434930,36.01296667,129.318827,20.46380608,62.87692413,1.2,43,,0.30078125,2.69921875,-0.1953125,0.171875,-0.357421875,0.0703125,0.37109375,-6.8125,1.046875,2
2434931,,,,,,,,0.33203125,3.42578125,-0.41015625,0.103515625,-0.314453125,0.025390625,0.41015625,-6.0859375,0.85546875,2
2434932,,,,,,,,0.41796875,3.93359375,-0.53125,0.033203125,-0.28515625,0.01171875,0.48828125,-5.58984375,0.7421875,2
2434933,,,,,,,,0.45703125,4.01171875,-0.4921875,0.013671875,-0.2734375,0.0078125,0.52734375,-5.51171875,0.78125,2
2434934,,,,,,,,0.33203125,4.203125,-0.5078125,-0.01171875,-0.26171875,-0.01953125,0.41015625,-5.3203125,0.78125,2
2434935,,,,,,,,0.01953125,4.35546875,-0.578125,-0.005859375,-0.24609375,-0.052734375,0.10546875,-5.1640625,0.703125,2
2434936,,,,,,,,-0.1796875,4.4296875,-0.5546875,0.005859375,-0.25,-0.087890625,-0.0859375,-5.09375,0.7421875,2
2434937,,,,,,,,-0.80078125,4.5390625,-0.75390625,0.025390625,-0.25,-0.1015625,-0.69921875,-4.98046875,0.55078125,2
2434938,,,,,,,,-0.92578125,4.5078125,-0.83203125,0.033203125,-0.240234375,-0.125,-0.81640625,-5.01953125,0.47265625,2
2434939,,,,,,,,-1.40625,4.1953125,-1.03125,-0.017578125,-0.1953125,-0.208984375,-1.2734375,-5.32421875,0.28125,2
2434940,36.0129675,129.3188285,20.59902926,62.96939048,1.5,44,,-1.890625,3.8125,-1.10546875,0.171875,-0.357421875,0.0703125,0.37109375,-6.8125,1.046875,2
2434941,,,,,,,,-2.03515625,3.50390625,-1.23046875,-0.087890625,-0.099609375,-0.302734375,-1.84765625,-6.0078125,0.08984375,2
2434942,,,,,,,,-2.02734375,3.12109375,-1.3671875,-0.0859375,-0.037109375,-0.32421875,-1.80859375,-6.39453125,-0.0625,2
2434943,,,,,,,,-1.8984375,2.76953125,-1.51953125,-0.005859375,0.029296875,-0.298828125,-1.65625,-6.73828125,-0.21484375,2
2434944,,,,,,,,-1.69921875,1.46484375,-1.3359375,0.0703125,0.119140625,-0.26171875,-1.42578125,-8.04296875,-0.0234375,2
2434945,,,,,,,,-1.6796875,0.6171875,-1.12109375,0.138671875,0.185546875,-0.25,-1.390625,-8.88671875,0.20703125,2
2434946,,,,,,,,-1.609375,0.15625,-0.9765625,0.171875,0.205078125,-0.22265625,-1.3125,-9.34765625,0.359375,2
2434947,,,,,,,,-1.51171875,-0.703125,-0.80859375,0.248046875,0.25390625,-0.16796875,-1.19921875,-10.1875,0.55078125,2
2434948,,,,,,,,-0.94140625,-1.35546875,-0.734375,0.365234375,0.28515625,-0.072265625,-0.62109375,-10.8359375,0.6640625,2
2434949,,,,,,,,-0.140625,-1.484375,-0.98828125,0.509765625,0.330078125,-0.083984375,0.1796875,-10.953125,0.47265625,2
2434950,36.0129685,129.3188297,20.70420274,63.08034997,1.5,47,,0.7421875,-1.03125,-0.27734375,0.55859375,0.3203125,-0.154296875,1.0625,-10.4921875,1.23828125,2
2434951,,,,,,,,1.109375,-0.625,-0.109375,0.576171875,0.3125,-0.275390625,1.4453125,-10.07421875,1.46875,2
2434952,,,,,,,,1.1640625,-0.21484375,-0.1640625,0.546875,0.314453125,-0.34375,1.5234375,-9.65234375,1.46875,2
2434953,,,,,,,,0.328125,-0.45703125,-0.25,0.478515625,0.2734375,-0.39453125,0.71875,-9.87890625,1.4296875,2
2434954,,,,,,,,-0.203125,-0.7734375,-0.48046875,0.35546875,0.216796875,-0.431640625,0.21875,-10.19140625,1.23828125,2
2434955,,,,,,,,-0.65625,-0.89453125,-0.546875,0.130859375,0.111328125,-0.396484375,-0.203125,-10.30078125,1.203125,2
2434956,,,,,,,,-0.76171875,-0.94140625,-0.6328125,-0.13671875,0.001953125,-0.23828125,-0.27734375,-10.3359375,1.125,2
2434957,,,,,,,,-1.0390625,-0.94140625,-0.6484375,-0.234375,-0.10546875,-0.033203125,-0.546875,-10.33984375,1.0859375,2
2434958,,,,,,,,-1.30078125,-0.58984375,-0.30859375,-0.203125,-0.20703125,0.171875,-0.81640625,-9.99609375,1.39453125,2
2434959,,,,,,,,-1.58984375,-0.28125,-0.06640625,-0.2109375,-0.232421875,0.271484375,-1.12109375,-9.69140625,1.62109375,2
2434960,36.01296967,129.3188308,20.80937618,63.20980266,1.6,49,,0.7421875,-1.03125,-0.27734375,0.55859375,0.3203125,-0.154296875,-1.734375,-10.65234375,2.3515625,2
2434961,,,,,,,,-2.27734375,-2.02734375,0.94140625,-0.359375,-0.1328125,0.568359375,-1.6953125,-13.0234375,3.30859375,2
2434962,,,,,,,,-1.54296875,-4.09765625,2.08203125,-0.38671875,-0.107421875,0.609375,0.37109375,-13.25390625,4.57421875,2
2434963,,,,,,,,0.97265625,-3.62890625,3.30078125,-0.322265625,-0.095703125,0.697265625,1.90625,-13.17578125,5.03125,2
2434964,,,,,,,,2.1484375,-5.109375,3.72265625,0.041015625,-0.072265625,0.96484375,2.86328125,-16.69921875,6.41015625,2
2434965,,,,,,,,3.19921875,-7.7890625,5.4296875,0.32421875,-0.068359375,0.763671875,3.7421875,-17.0390625,7.3671875,2
2434966,,,,,,,,3.6953125,-7.59765625,5.8046875,0.400390625,-0.099609375,0.556640625,4.35546875,-15.47265625,6.6015625,2
2434967,,,,,,,,4.1640625,-4.96484375,4.46484375,0.40234375,-0.177734375,0.427734375,3.515625,-13.4765625,5.72265625,2
2434968,,,,,,,,1.5703125,-3.20703125,4.45703125,0.294921875,-0.134765625,0.609375,1.5234375,-12.63671875,6.10546875,2
2434969,,,,,,,,-1.6328125,-3.3984375,4.578125,0.08203125,-0.23828125,0.166015625,-1.734375,-12.828125,6.2578125,2
2434970,36.01297017,129.3188323,20.94459943,63.2652826,1.6,52,,0.7421875,-1.03125,-0.27734375,-0.267578125,-0.37109375,-0.541015625,-1.734375,-10.65234375,2.3515625,2
2434971,,,,,,,,-0.1015625,-2.43359375,2.1328125,-0.390625,-0.326171875,-0.736328125,-0.1640625,-11.87109375,3.8046875,2
2434972,,,,,,,,0.5859375,-2.16015625,1.66796875,-0.12109375,-0.21484375,-0.626953125,0.6015625,-11.60546875,3.30859375,2
2434973,,,,,,,,0.48046875,-2.04296875,1.70703125,0.10546875,-0.158203125,-0.5546875,0.52734375,-11.48828125,3.34765625,2
2434974,,,,,,,,0.30859375,-1.5390625,1.58203125,0.46484375,-0.07421875,-0.451171875,0.41015625,-10.9921875,3.23046875,2
2434975,,,,,,,,0.0546875,-0.625,0.96875,0.49609375,0.021484375,-0.341796875,0.21875,-10.07421875,2.6953125,2
2434976,,,,,,,,-0.16015625,0.36328125,0.30859375,0.396484375,0.103515625,-0.201171875,0.02734375,-9.07421875,2.08203125,2
2434977,,,,,,,,-0.015625,0.8203125,0.0390625,0.376953125,0.185546875,-0.1796875,0.1796875,-8.6171875,1.8515625,2
2434978,,,,,,,,0.28515625,1.3515625,-0.13671875,0.384765625,0.232421875,-0.177734375,0.48828125,-8.078125,1.69921875,2
2434979,,,,,,,,0.5,1.83984375,-0.34375,0.404296875,0.341796875,-0.1328125,0.71875,-7.58203125,1.546875,2
2434980,36.01297117,129.3188333,21.03474808,63.37624206,1.5,47,,0.5390625,2.453125,-0.66015625,-0.267578125,-0.37109375,-0.541015625,-1.734375,-10.65234375,2.3515625,2
2434981,,,,,,,,0.34765625,3.25,-0.96875,0.46875,0.41015625,-0.107421875,0.56640625,-6.16796875,1.046875,2
2434982,,,,,,,,0.26171875,3.47265625,-1.06640625,0.458984375,0.419921875,-0.1171875,0.48828125,-5.93359375,0.97265625,2
2434983,,,,,,,,0.109375,3.96875,-1.19140625,0.41015625,0.421875,-0.1484375,0.3359375,-5.4375,0.89453125,2
2434984,,,,,,,,0.015625,4.26171875,-1.34375,0.31640625,0.421875,-0.177734375,0.2578125,-5.12890625,0.78125,2
2434985,,,,,,,,0.23828125,4.59765625,-1.65234375,0.12890625,0.404296875,-0.19921875,0.48828125,-4.78125,0.51171875,2
2434986,,,,,,,,0.421875,4.63671875,-1.5078125,0.076171875,0.400390625,-0.205078125,0.6796875,-4.7421875,0.6640625,2
2434987,,,,,,,,0.84375,4.51953125,-1.859375,-0.015625,0.38671875,-0.208984375,1.1015625,-4.859375,0.3203125,2
2434988,,,,,,,,1.09375,4.2890625,-1.8125,-0.109375,0.349609375,-0.177734375,1.3671875,-5.09765625,0.359375,2
2434989,,,,,,,,1.28125,3.984375,-1.65234375,-0.103515625,0.333984375,-0.16015625,1.5625,-5.3984375,0.51171875,2
2434990,36.012972,129.3188345,21.1399216,63.46870835,1.5,45,,1.45703125,3.75390625,-1.53515625,-0.083984375,0.283203125,-0.142578125,1.75390625,-5.625,0.62890625,2
2434991,,,,,,,,1.53125,3.59375,-1.4921875,-0.142578125,0.244140625,-0.154296875,1.828125,-5.78125,0.6640625,2
2434992,,,,,,,,1.28515625,3.33203125,-1.484375,-0.20703125,0.197265625,-0.201171875,1.59765625,-6.046875,0.6640625,2
2434993,,,,,,,,0.8125,2.95703125,-1.3359375,-0.267578125,0.154296875,-0.232421875,1.140625,-6.43359375,0.78125,2
2434994,,,,,,,,0.51953125,2.4140625,-1.28125,-0.326171875,0.1171875,-0.234375,0.87109375,-6.96875,0.8203125,2
2434995,,,,,,,,0.50390625,1.3125,-1.09765625,-0.37890625,0.091796875,-0.23046875,0.87109375,-8.078125,0.97265625,2
2434996,,,,,,,,0.52734375,0.54296875,-0.84375,-0.392578125,0.0859375,-0.203125,0.91015625,-8.84765625,1.203125,2
2434997,,,,,,,,0.59375,-0.22265625,-0.65234375,-0.408203125,0.078125,-0.12890625,0.984375,-9.609375,1.35546875,2
2434998,,,,,,,,0.65625,-1.2109375,-0.27734375,-0.392578125,0.07421875,-0.064453125,1.0625,-10.61328125,1.69921875,2
2434999,,,,,,,,0.54296875,-1.73828125,-0.0546875,-0.369140625,0.0625,-0.00390625,0.94921875,-11.14453125,1.890625,2
2435000,36.0129725,129.3188355,21.23007039,63.52418819,1.3,46,0,0.28125,-1.96875,0.3203125,-0.083984375,0.283203125,-0.142578125,1.75390625,-5.625,0.62890625,2
2435001,,,,,,,,-0.33203125,-1.1953125,0.67578125,-0.359375,0.05078125,0.0390625,0.06640625,-10.61328125,2.54296875,2
2435002,,,,,,,,-0.4453125,-0.87890625,0.5234375,-0.3984375,0.0390625,-0.017578125,-0.046875,-10.296875,2.3515625,2
2435003,,,,,,,,-0.4453125,-0.60546875,0.140625,-0.431640625,0.015625,-0.12890625,-0.046875,-10.03125,1.9296875,2
2435004,,,,,,,,-0.42578125,-0.640625,0.05859375,-0.443359375,0.017578125,-0.265625,-0.01171875,-10.07421875,1.81640625,2
2435005,,,,,,,,-0.109375,-1.015625,0.44140625,-0.40625,0.01953125,-0.2890625,0.3359375,-10.453125,2.16015625,2
2435006,,,,,,,,-0.125,-1.24609375,0.53125,-0.39453125,0.02734375,-0.244140625,0.3359375,-10.6796875,2.234375,2
2435007,,,,,,,,-0.21875,-1.39453125,0.48828125,-0.3671875,0.05078125,-0.08984375,0.2578125,-10.8359375,2.16015625,2
2435008,,,,,,,,-0.33203125,-0.89453125,0.41015625,-0.337890625,0.06640625,0.0546875,0.14453125,-10.3359375,2.04296875,2
2435009,,,,,,,,-0.44140625,-0.50390625,0.6328125,-0.279296875,0.0625,0.18359375,0.02734375,-9.95703125,2.234375,2
2435010,36.01297317,129.3188365,21.32021913,63.59816123,1.2,46,,-0.5625,-1.23046875,1.0703125,-0.083984375,0.283203125,-0.142578125,-0.125,-10.6796875,2.65625,2
2435011,,,,,,,,-0.72265625,-3.953125,1.41015625,-0.22265625,-0.025390625,0.349609375,-0.31640625,-13.40625,2.96484375,2
2435012,,,,,,,,-0.8515625,-5.1328125,2.18359375,-0.22265625,-0.04296875,0.408203125,-0.46875,-14.59765625,3.73046875,2
2435013,,,,,,,,-1.6953125,-3.58984375,4.11328125,-0.193359375,-0.076171875,0.58203125,-1.3515625,-13.0546875,5.64453125,2
2435014,,,,,,,,-2.54296875,-0.91015625,3.5859375,-0.03125,-0.078125,0.822265625,-2.26953125,-10.37890625,5.109375,2
2435015,,,,,,,,-2.41796875,-0.6015625,3.26953125,0.158203125,-0.115234375,0.923828125,-2.26953125,-10.0703125,4.80078125,2
2435016,,,,,,,,-2.03515625,-2.203125,3.02734375,0.080078125,-0.13671875,0.744140625,-1.92578125,-11.6796875,4.57421875,2
2435017,,,,,,,,-1.13671875,-4.88671875,4.0234375,-0.080078125,-0.138671875,0.27734375,-1.08203125,-14.36328125,5.5703125,2
2435018,,,,,,,,-1.0390625,-4.80859375,4.671875,0.033203125,-0.099609375,0.2421875,-1.0078125,-14.28125,6.21875,2
2435019,,,,,,,,-1.0234375,-4.04296875,4.6328125,0.06640625,-0.06640625,0.3359375,-1.0078125,-13.51953125,6.1796875,2
2435020,36.01297417,129.3188372,21.38031813,63.70912062,1.3,40,,-0.67578125,-1.8984375,3.625,-0.083984375,0.283203125,-0.142578125,-0.69921875,-11.375,5.1875,2
2435021,,,,,,,,-0.29296875,-1.0078125,3.046875,-0.1328125,-0.021484375,0.212890625,-0.35546875,-10.49609375,4.609375,2
2435022,,,,,,,,-0.4609375,-1.15625,3.05078125,-0.439453125,-0.095703125,-0.3203125,-0.5078125,-10.6484375,4.57421875,2
2435023,,,,,,,,-0.875,-1.453125,2.8515625,-0.439453125,-0.14453125,-0.28125,-0.890625,-10.953125,4.34375,2
2435024,,,,,,,,-1.16796875,-1.140625,2.4609375,-0.375,-0.171875,-0.123046875,-1.16015625,-10.6484375,3.921875,2
2435025,,,,,,,,-1.21484375,-0.328125,1.91796875,-0.345703125,-0.208984375,-0.078125,-1.19921875,-9.84375,3.34765625,2
2435026,,,,,,,,-1.17578125,-0.01953125,1.703125,-0.337890625,-0.23046875,-0.087890625,-1.16015625,-9.53515625,3.1171875,2
2435027,,,,,,,,-1.0390625,0.67578125,1.03515625,-0.298828125,-0.263671875,-0.078125,-1.0078125,-8.84375,2.42578125,2
2435028,,,,,,,,-0.890625,0.953125,0.75390625,-0.248046875,-0.275390625,-0.07421875,-0.8515625,-8.58203125,2.12109375,2
2435029,,,,,,,,-0.6328125,1.421875,0.578125,-0.2109375,-0.279296875,-0.08203125,-0.5859375,-8.1171875,1.9296875,2
2435030,36.01297483,129.3188382,21.47046687,63.78309367,1.3,40,,-0.5625,1.7265625,0.515625,-0.208984375,-0.2890625,-0.064453125,-0.5078125,-7.81640625,1.8515625,2
2435031,,,,,,,,-0.4921875,2.34765625,0.265625,-0.205078125,-0.27734375,-0.03125,-0.4296875,-7.1953125,1.5859375,2
2435032,,,,,,,,-0.2734375,2.96875,0.00390625,-0.181640625,-0.267578125,-0.01171875,-0.203125,-6.5859375,1.31640625,2
2435033,,,,,,,,-0.15625,3.19921875,-0.1015625,-0.169921875,-0.267578125,-0.005859375,-0.0859375,-6.35546875,1.203125,2
2435034,,,,,,,,-0.1640625,3.7421875,-0.31640625,-0.134765625,-0.265625,-0.03125,-0.0859375,-5.82421875,0.97265625,2
2435035,,,,,,,,-0.5859375,4.1640625,-0.35546875,-0.115234375,-0.27734375,-0.087890625,-0.5078125,-5.40234375,0.93359375,2
2435036,,,,,,,,-0.9921875,4.35546875,-0.37890625,-0.0859375,-0.28125,-0.138671875,-0.890625,-5.203125,0.89453125,2
2435037,,,,,,,,-1.16015625,4.39453125,-0.609375,-0.11328125,-0.2734375,-0.142578125,-1.04296875,-5.16796875,0.6640625,2
2435038,,,,,,,,-1.28515625,4.2421875,-0.83203125,-0.12890625,-0.26953125,-0.138671875,-1.16015625,-5.3203125,0.43359375,2
2435039,,,,,,,,-1.484375,3.93359375,-1.05078125,-0.142578125,-0.259765625,-0.109375,-1.3515625,-5.625,0.20703125,2
2435040,36.01297583,129.3188392,21.56061552,63.89405313,1.3,40,,-1.57421875,3.63671875,-1.04296875,-0.10546875,-0.2421875,-0.103515625,-1.42578125,-5.9296875,0.20703125,2
2435041,,,,,,,,-1.5234375,3.0546875,-0.8515625,-0.078125,-0.201171875,-0.1015625,-1.3515625,-6.51171875,0.3984375,2
2435042,,,,,,,,-1.453125,2.86328125,-0.76171875,-0.05078125,-0.169921875,-0.099609375,-1.2734375,-6.69921875,0.47265625,2
2435043,,,,,,,,-1.421875,2.69921875,-0.69140625,-0.00390625,-0.140625,-0.099609375,-1.234375,-6.8515625,0.55078125,2
2435044,,,,,,,,-1.46875,2.35546875,-0.66015625,0.1015625,-0.103515625,-0.10546875,-1.2734375,-7.19921875,0.58984375,2
2435045,,,,,,,,-1.515625,1.8515625,-0.6015625,0.19140625,-0.072265625,-0.123046875,-1.3125,-7.69921875,0.6640625,2
2435046,,,,,,,,-1.4921875,1.4296875,-0.625,0.234375,-0.0390625,-0.13671875,-1.2734375,-8.1171875,0.6640625,2
2435047,,,,,,,,-1.5,0.69140625,-0.80078125,0.25390625,-0.0078125,-0.15625,-1.2734375,-8.84765625,0.51171875,2
2435048,,,,,,,,-1.46875,0.42578125,-0.82421875,0.263671875,0.005859375,-0.1640625,-1.234375,-9.109375,0.51171875,2
2435049,,,,,,,,-1.2578125,-0.3203125,-0.6953125,0.3125,0.0390625,-0.154296875,-1.0078125,-9.84765625,0.6640625,2
2435050,36.0129765,129.3188402,21.65076425,63.96802618,1.3,44,,-1.109375,-0.625,-0.6484375,-0.10546875,-0.2421875,-0.103515625,-1.42578125,-5.9296875,0.20703125,2
2435051,,,,,,,,-0.96484375,-0.79296875,-0.57421875,0.39453125,0.0859375,-0.140625,-0.69921875,-10.30078125,0.85546875,2
2435052,,,,,,,,-0.78125,-0.80078125,-0.25390625,0.404296875,0.095703125,-0.166015625,-0.5078125,-10.30078125,1.23828125,2
2435053,,,,,,,,-0.52734375,-0.6171875,-0.0234375,0.39453125,0.08984375,-0.1640625,-0.23828125,-10.109375,1.5078125,2
2435054,,,,,,,,-0.421875,-0.40234375,-0.03125,0.388671875,0.0859375,-0.1484375,-0.125,-9.87890625,1.546875,2
2435055,,,,,,,,-0.4375,-0.6015625,-0.31640625,0.3515625,0.04296875,-0.150390625,-0.125,-10.0703125,1.31640625,2
2435056,,,,,,,,-0.4453125,-0.87109375,-0.6015625,0.333984375,0.017578125,-0.154296875,-0.125,-10.33984375,1.046875,2
2435057,,,,,,,,-0.5,-1.078125,-0.66796875,0.28125,-0.03515625,-0.158203125,-0.1640625,-10.53515625,1.01171875,2
2435058,,,,,,,,-0.5078125,-0.84765625,-0.69140625,0.236328125,-0.08984375,-0.0859375,-0.1640625,-10.296875,1.01171875,2
2435059,,,,,,,,-0.5078125,-0.7421875,-0.79296875,0.185546875,-0.142578125,0.046875,-0.1640625,-10.19140625,0.93359375,2
2435060,36.0129775,129.3188417,21.78598734,64.07898575,1.6,51,,-0.57421875,-0.58984375,-0.80859375,-0.10546875,-0.2421875,-0.103515625,-1.42578125,-5.9296875,0.20703125,2
2435061,,,,,,,,-0.55078125,-0.08984375,-0.47265625,0.025390625,-0.21484375,0.27734375,-0.23828125,-9.53125,1.27734375,2
2435062,,,,,,,,-0.88671875,0.24609375,-0.08203125,-0.107421875,-0.220703125,0.4375,-0.62109375,-9.19140625,1.66015625,2
2435063,,,,,,,,-1.5390625,-0.703125,0.65625,-0.1484375,-0.197265625,0.57421875,-1.3125,-10.15234375,2.390625,2
2435064,,,,,,,,-1.73828125,-2.00390625,1.12890625,-0.146484375,-0.16796875,0.64453125,-1.58203125,-11.4453125,2.84765625,2
2435065,,,,,,,,-0.9921875,-3,2.05859375,-0.1796875,-0.15234375,0.669921875,-0.890625,-12.4453125,3.76953125,2
2435066,,,,,,,,-0.34765625,-2.83984375,2.37109375,-0.185546875,-0.142578125,0.677734375,-0.27734375,-12.29296875,4.07421875,2
2435067,,,,,,,,1.71484375,-3.33984375,3,-0.125,-0.142578125,0.767578125,1.71484375,-12.7890625,4.6875,2
2435068,,,,,,,,3.24609375,-6.6796875,2.73828125,0.048828125,-0.134765625,0.873046875,3.16796875,-16.125,4.41796875,2
2435069,,,,,,,,4.78125,-7.33203125,4.25,0.296875,-0.115234375,0.78515625,4.625,-16.77734375,5.953125,2
2435070,36.012978,129.318843,21.90618576,64.13446567,1.5,54,,5.15625,-5.921875,4.23828125,0.541015625,-0.142578125,0.576171875,4.9296875,-15.36328125,5.98828125,2
2435071,,,,,,,,3.44140625,-3.66796875,3.07421875,0.57421875,-0.14453125,0.5859375,3.16796875,-13.09765625,4.87890625,2
2435072,,,,,,,,2.5546875,-3.4375,3.1640625,0.52734375,-0.12109375,0.705078125,2.25,-12.8671875,4.9921875,2
2435073,,,,,,,,-0.02734375,-3.1875,3.73046875,0.392578125,-0.14453125,0.623046875,-0.39453125,-12.60546875,5.60546875,2
2435074,,,,,,,,-0.609375,-2.83984375,3.5078125,0.08203125,-0.2265625,-0.109375,-1.0078125,-12.25390625,5.4140625,2
2435075,,,,,,,,0.2890625,-2.3359375,2.328125,-0.205078125,-0.216796875,-0.576171875,-0.046875,-11.7578125,4.2265625,2
2435076,,,,,,,,1.08984375,-1.828125,0.8046875,-0.16796875,-0.1953125,-0.560546875,0.79296875,-11.2578125,2.6953125,2
2435077,,,,,,,,0.8984375,-1.28515625,0.3359375,0.16796875,-0.0859375,-0.568359375,0.6796875,-10.71875,2.234375,2
2435078,,,,,,,,0.59765625,-0.91015625,0.328125,0.404296875,0.099609375,-0.341796875,0.44921875,-10.3359375,2.2734375,2
2435079,,,,,,,,0.4296875,-0.83203125,0.3359375,0.376953125,0.1640625,-0.255859375,0.296875,-10.26171875,2.3125,2
2435080,36.01297883,129.3188443,22.02638408,64.22693201,1.4,53,,0.23046875,-0.11328125,0.07421875,0.28515625,0.26953125,-0.1328125,0.10546875,-9.53515625,2.08203125,2
2435081,,,,,,,,0.22265625,1.3046875,-0.5,0.28125,0.40625,-0.12109375,0.10546875,-8.12109375,1.546875,2
2435082,,,,,,,,0.21484375,1.91796875,-0.76171875,0.30078125,0.458984375,-0.134765625,0.10546875,-7.5,1.31640625,2
2435083,,,,,,,,0.2890625,2.4453125,-1.09765625,0.267578125,0.46875,-0.171875,0.1796875,-6.97265625,1.01171875,2
2435084,,,,,,,,0.3203125,2.71484375,-1.20703125,0.24609375,0.46875,-0.20703125,0.21875,-6.69921875,0.93359375,2
2435085,,,,,,,,0.3515625,3.1640625,-1.22265625,0.224609375,0.46875,-0.232421875,0.2578125,-6.24609375,0.93359375,2
2435086,,,,,,,,0.375,3.80859375,-1.453125,0.220703125,0.47265625,-0.228515625,0.296875,-5.5859375,0.7421875,2
2435087,,,,,,,,0.3984375,4.19140625,-1.5546875,0.171875,0.462890625,-0.216796875,0.3359375,-5.20703125,0.6640625,2
2435088,,,,,,,,0.58203125,4.3828125,-1.76171875,0.08984375,0.455078125,-0.240234375,0.52734375,-5.015625,0.47265625,2
2435089,,,,,,,,0.8046875,4.34375,-1.953125,0.0078125,0.443359375,-0.2578125,0.7578125,-5.05859375,0.28125,2
2435090,36.0129795,129.3188452,22.10150798,64.30090502,1.3,48,,1.0078125,4.26953125,-1.9609375,-0.05078125,0.421875,-0.251953125,0.984375,-5.125,0.28125,2
2435091,,,,,,,,1.22265625,3.73046875,-1.953125,-0.10546875,0.38671875,-0.24609375,1.21484375,-5.66796875,0.28125,2
2435092,,,,,,,,1.59765625,3.578125,-1.74609375,-0.140625,0.345703125,-0.228515625,1.59765625,-5.82421875,0.47265625,2
2435093,,,,,,,,1.58984375,3.578125,-1.74609375,-0.158203125,0.326171875,-0.220703125,1.59765625,-5.82421875,0.47265625,2
2435094,,,,,,,,1.84375,3.38671875,-1.76953125,-0.1796875,0.283203125,-0.2421875,1.8671875,-6.0078125,0.43359375,2
2435095,,,,,,,,1.8984375,3.15625,-1.62890625,-0.208984375,0.216796875,-0.263671875,1.9453125,-6.24609375,0.55078125,2
2435096,,,,,,,,1.65234375,2.62890625,-1.57421875,-0.2265625,0.150390625,-0.267578125,1.71484375,-6.77734375,0.58984375,2
2435097,,,,,,,,1.390625,2.20703125,-1.4765625,-0.26171875,0.1015625,-0.265625,1.484375,-7.1953125,0.6640625,2
2435098,,,,,,,,1.19140625,1.9375,-1.390625,-0.30078125,0.087890625,-0.267578125,1.29296875,-7.47265625,0.7421875,2
2435099,,,,,,,,0.8515625,1.06640625,-1.10546875,-0.443359375,0.03125,-0.244140625,0.984375,-8.34765625,0.97265625,2
2435100,36.01298017,129.3188463,22.20668152,64.37487811,1.3,51,0,0.5859375,-0.19140625,-0.69921875,-0.5625,-0.017578125,-0.17578125,0.7578125,-9.61328125,1.31640625,2
2435101,,,,,,,,0.18359375,-1.24609375,-0.19140625,-0.591796875,-0.048828125,-0.103515625,0.37109375,-10.68359375,1.73828125,2
2435102,,,,,,,,-0.43359375,-1.578125,0.28515625,-0.560546875,-0.064453125,-0.078125,-0.23828125,-11.03125,2.16015625,2
2435103,,,,,,,,-0.59765625,-1.65234375,0.421875,-0.546875,-0.076171875,-0.08203125,-0.39453125,-11.10546875,2.2734375,2
2435104,,,,,,,,-0.87890625,-1.33984375,0.8203125,-0.515625,-0.0859375,-0.1015625,-0.66015625,-10.796875,2.6171875,2
2435105,,,,,,,,-0.7734375,-1.0625,0.70703125,-0.513671875,-0.09375,-0.15234375,-0.546875,-10.53515625,2.46484375,2
2435106,,,,,,,,-0.6796875,-0.75,0.33984375,-0.51171875,-0.087890625,-0.224609375,-0.4296875,-10.2265625,2.04296875,2
2435107,,,,,,,,-0.7109375,-0.6328125,0.42578125,-0.48828125,-0.068359375,-0.279296875,-0.4296875,-10.11328125,2.08203125,2
2435108,,,,,,,,-0.71875,-0.703125,0.56640625,-0.466796875,-0.05859375,-0.296875,-0.4296875,-10.19140625,2.19921875,2
2435109,,,,,,,,-0.765625,-1.0390625,0.7421875,-0.40625,0.017578125,-0.19140625,-0.4296875,-10.53515625,2.3125,2
2435110,36.0129815,129.3188475,22.31185488,64.52282404,1.5,49,,-0.46875,-1.1171875,0.8203125,-0.380859375,0.07421875,-0.078125,-0.125,-10.609375,2.3515625,2
2435111,,,,,,,,-0.0078125,0.41796875,0.57421875,-0.294921875,0.111328125,0.041015625,0.3359375,-9.07421875,2.08203125,2
2435112,,,,,,,,0.4296875,0.76953125,0.28515625,-0.12109375,0.12109375,0.205078125,0.7578125,-8.73046875,1.77734375,2
2435113,,,,,,,,0.6640625,0.578125,0.33203125,-0.03125,0.109375,0.267578125,0.984375,-8.921875,1.81640625,2
2435114,,,,,,,,1.1953125,-1.68359375,0.62890625,0.072265625,0.056640625,0.330078125,1.484375,-11.1796875,2.12109375,2
2435115,,,,,,,,0.7734375,-3.484375,0.55078125,0.05859375,0.033203125,0.353515625,1.0234375,-12.984375,2.04296875,2
2435116,,,,,,,,-0.3515625,-2.984375,2.11328125,-0.015625,0.064453125,0.708984375,-0.1640625,-12.484375,3.61328125,2
2435117,,,,,,,,-0.76953125,-1.0703125,2.34375,-0.009765625,0.09765625,1.021484375,-0.66015625,-10.5703125,3.84375,2
2435118,,,,,,,,-0.984375,-0.609375,2.15234375,0.037109375,0.099609375,1.138671875,-0.9296875,-10.109375,3.65234375,2
2435119,,,,,,,,-0.796875,-2.79296875,2.56640625,0.1015625,0.009765625,1.146484375,-0.8515625,-12.29296875,4.07421875,2
2435120,36.01298233,129.3188488,22.43205319,64.61529038,1.5,47,,-0.7421875,-5.66796875,3.40234375,-0.380859375,0.07421875,-0.078125,-0.125,-10.609375,2.3515625,2
2435121,,,,,,,,-2.19140625,-7.390625,4.55859375,-0.216796875,-0.166015625,0.33984375,-2.38671875,-16.890625,6.06640625,2
2435122,,,,,,,,-2.75,-6.73046875,4.91015625,-0.248046875,-0.1484375,0.359375,-2.9609375,-16.234375,6.41015625,2
2435123,,,,,,,,-2.89453125,-3.20703125,4.55078125,-0.158203125,-0.107421875,0.703125,-3.15234375,-12.7109375,6.02734375,2
2435124,,,,,,,,-1.0625,-0.44921875,3.79296875,-0.21875,-0.11328125,0.654296875,-1.390625,-9.953125,5.26171875,2
2435125,,,,,,,,-0.1015625,0.203125,2.8671875,-0.353515625,-0.126953125,0.064453125,-0.46875,-9.3046875,4.3046875,2
2435126,,,,,,,,0.1640625,-0.5859375,2.1796875,-0.37109375,-0.13671875,-0.923828125,-0.125,-10.11328125,3.578125,2
2435127,,,,,,,,-0.16015625,-1.56640625,2.609375,-0.392578125,-0.1328125,-0.693359375,-0.31640625,-11.1015625,3.9609375,2
2435128,,,,,,,,-0.51171875,-1.09375,2.6484375,-0.345703125,-0.099609375,-0.23828125,-0.62109375,-10.65234375,3.9609375,2
2435129,,,,,,,,-0.51953125,-0.82421875,2.46484375,-0.30859375,-0.099609375,-0.107421875,-0.62109375,-10.37890625,3.76953125,2
2435130,36.01298333,129.3188498,22.52220181,64.72624985,1.5,45,,-0.4921875,-0.01171875,1.8828125,-0.265625,-0.16015625,-0.03125,-0.5859375,-9.5703125,3.15625,2
2435131,,,,,,,,-0.34375,0.76171875,1.17578125,-0.205078125,-0.21484375,-0.0546875,-0.4296875,-8.8046875,2.42578125,2
2435132,,,,,,,,-0.31640625,1.19140625,0.9921875,-0.08984375,-0.275390625,-0.064453125,-0.39453125,-8.3828125,2.234375,2
2435133,,,,,,,,-0.3515625,1.4140625,0.84765625,-0.037109375,-0.3046875,-0.056640625,-0.4296875,-8.15625,2.08203125,2
2435134,,,,,,,,-0.28515625,2.1875,0.56640625,0.078125,-0.326171875,-0.03515625,-0.35546875,-7.390625,1.81640625,2
2435135,,,,,,,,-0.0703125,2.83984375,0.28125,0.103515625,-0.3046875,-0.05078125,-0.125,-6.73828125,1.546875,2
2435136,,,,,,,,-0.0078125,3.22265625,-0.03515625,0.0546875,-0.27734375,-0.0859375,-0.046875,-6.3515625,1.23828125,2
2435137,,,,,,,,0.2890625,3.8359375,-0.42578125,-0.041015625,-0.263671875,-0.103515625,0.2578125,-5.7421875,0.85546875,2
2435138,,,,,,,,0.2890625,4.01953125,-0.4609375,-0.08984375,-0.25390625,-0.103515625,0.2578125,-5.55078125,0.8203125,2
2435139,,,,,,,,0.16796875,4.37109375,-0.578125,-0.1640625,-0.2578125,-0.05859375,0.14453125,-5.20703125,0.703125,2
2435140,36.01298383,129.3188508,22.61235057,64.7817297,1.2,44,,-0.0703125,4.33203125,-0.59375,-0.265625,-0.16015625,-0.03125,-0.0859375,-5.24609375,0.6640625,2
2435141,,,,,,,,-0.64453125,4.109375,-0.546875,-0.185546875,-0.29296875,0.03515625,-0.66015625,-5.4765625,0.703125,2
2435142,,,,,,,,-0.80859375,3.91796875,-0.60546875,-0.2109375,-0.29296875,0.0546875,-0.81640625,-5.66796875,0.62890625,2
2435143,,,,,,,,-0.9921875,3.71875,-0.71484375,-0.240234375,-0.30078125,0.0546875,-1.0078125,-5.859375,0.51171875,2
2435144,,,,,,,,-1.10546875,3.421875,-0.9140625,-0.31640625,-0.30078125,0.0390625,-1.12109375,-6.16796875,0.28125,2
2435145,,,,,,,,-1.296875,3.19921875,-1.21875,-0.345703125,-0.287109375,-0.00390625,-1.3125,-6.390625,-0.0625,2
2435146,,,,,,,,-1.41796875,2.625,-1.1015625,-0.296875,-0.271484375,-0.076171875,-1.42578125,-6.96875,0.015625,2
2435147,,,,,,,,-1.43359375,2.38671875,-0.96484375,-0.228515625,-0.24609375,-0.10546875,-1.42578125,-7.19921875,0.12890625,2
2435148,,,,,,,,-1.3984375,2.01171875,-0.87890625,-0.201171875,-0.2265625,-0.099609375,-1.390625,-7.578125,0.20703125,2
2435149,,,,,,,,-1.296875,1.28515625,-0.7109375,-0.142578125,-0.181640625,-0.0625,-1.2734375,-8.30859375,0.359375,2
2435150,36.01298467,129.3188515,22.67244961,64.87419589,1.2,43,,-1.22265625,0.73828125,-0.63671875,-0.01171875,-0.1328125,-0.00390625,-1.19921875,-8.84375,0.43359375,2
2435151,,,,,,,,-1.3046875,-0.02734375,-0.48828125,0.130859375,-0.08984375,0.03515625,-1.2734375,-9.609375,0.58984375,2
2435152,,,,,,,,-1.22265625,-0.41796875,-0.390625,0.232421875,-0.04296875,0.041015625,-1.16015625,-10.19140625,0.78125,2
2435153,,,,,,,,-1.18359375,-0.609375,-0.328125,0.24609375,-0.029296875,0.025390625,-1.08203125,-10.33984375,0.85546875,2
2435154,,,,,,,,-0.90625,-1.03125,-0.16015625,0.259765625,-0.037109375,0.005859375,-0.77734375,-10.61328125,1.046875,2
2435155,,,,,,,,-0.6015625,-1.0390625,-0.0546875,0.294921875,-0.00390625,-0.033203125,-0.5859375,-10.609375,1.125,2
2435156,,,,,,,,0.05078125,-0.73828125,-0.0078125,0.349609375,0.01953125,-0.0859375,0.06640625,-10.296875,1.203125,2
2435157,,,,,,,,0.33984375,-0.671875,-0.01171875,0.380859375,0.0390625,-0.1640625,0.37109375,-10.23046875,1.23828125,2
2435158,,,,,,,,0.33984375,-0.6796875,-0.02734375,0.369140625,0.044921875,-0.26171875,0.296875,-10.26171875,1.23828125,2
2435159,,,,,,,,0.15625,-0.75390625,0.01171875,0.3203125,0.03515625,-0.345703125,0.02734375,-10.33984375,1.35546875,2
2435160,36.01298517,129.3188523,22.74757355,64.92967571,1.1,44,,-0.41796875,-0.9609375,-0.06640625,0.2734375,0.01171875,-0.35546875,-0.31640625,-10.49609375,1.27734375,2
2435161,,,,,,,,-0.296875,-1.046875,-0.328125,0.23046875,-0.01953125,-0.294921875,-0.1640625,-10.5703125,1.046875,2
2435162,,,,,,,,-0.17578125,-1.0078125,-0.6640625,0.109375,-0.078125,-0.169921875,-0.01171875,-10.53515625,0.7421875,2
2435163,,,,,,,,-0.296875,-0.85546875,-0.625,0.099609375,-0.095703125,-0.103515625,-0.125,-10.375,0.78125,2
2435164,,,,,,,,-0.56640625,-0.5859375,-0.44140625,0.103515625,-0.125,0.017578125,-0.39453125,-10.11328125,0.97265625,2
2435165,,,,,,,,-0.75,-0.28125,-0.14453125,0.0703125,-0.146484375,0.115234375,-0.5859375,-9.8046875,1.27734375,2
2435166,,,,,,,,-0.88671875,-0.05859375,0.5390625,0.0078125,-0.150390625,0.234375,-0.73828125,-9.57421875,1.96875,2
2435167,,,,,,,,-1.03125,-1.015625,0.34765625,-0.00390625,-0.1171875,0.474609375,-0.9296875,-10.53515625,1.77734375,2
2435168,,,,,,,,-1.0859375,-2.39453125,0.53125,-0.005859375,-0.109375,0.541015625,-1.0078125,-11.91015625,1.96875,2
2435169,,,,,,,,-0.453125,-3.0859375,1.6015625,0.015625,-0.091796875,0.625,-0.4296875,-12.6015625,3.0390625,2
2435170,36.01298533,129.318853,22.80767277,64.94816907,0.9,46,,1.1015625,-2.28125,3.25,0.06640625,-0.06640625,0.693359375,1.0625,-11.796875,4.6875,2
2435171,,,,,,,,2.55859375,-2.90234375,2.7734375,0.16015625,-0.0234375,0.85546875,2.44140625,-12.40625,4.2265625,2
2435172,,,,,,,,3.53515625,-5.015625,2.84375,0.376953125,0.0078125,0.806640625,3.28515625,-14.515625,4.34375,2
2435173,,,,,,,,4.1796875,-5.51171875,3.70703125,0.431640625,-0.0234375,0.638671875,3.8984375,-15.01171875,5.22265625,2
2435174,,,,,,,,4.44921875,-4.6796875,3.81640625,0.435546875,-0.083984375,0.375,4.12890625,-14.171875,5.37890625,2
2435175,,,,,,,,2.08984375,-3.26953125,3.4609375,0.40234375,-0.11328125,0.580078125,1.71484375,-12.75,5.0703125,2
2435176,,,,,,,,0.28125,-2.94140625,3.13671875,0.41015625,-0.220703125,0.447265625,-0.1640625,-12.41015625,4.80078125,2
2435177,,,,,,,,-0.16015625,-2.7109375,1.8359375,0.19921875,-0.314453125,-0.072265625,-0.62109375,-12.1796875,3.5390625,2
2435178,,,,,,,,0.09765625,-2.5859375,1.55859375,0.03125,-0.345703125,-0.30078125,-0.35546875,-12.0625,3.26953125,2
2435179,,,,,,,,0.42578125,-2.3125,1.29296875,-0.06640625,-0.314453125,-0.51171875,0.02734375,-11.80078125,3.00390625,2
2435180,36.01298567,129.3188543,22.92787121,64.9851558,1.1,49,,0.38671875,-1.62109375,1,0.06640625,-0.06640625,0.693359375,1.0625,-11.796875,4.6875,2
2435181,,,,,,,,0.41796875,-0.55859375,0.5,0.443359375,-0.08984375,-0.40625,0.14453125,-10.03515625,2.2734375,2
2435182,,,,,,,,0.40234375,-0.2109375,0.32421875,0.4453125,-0.0390625,-0.37890625,0.14453125,-9.69140625,2.12109375,2
2435183,,,,,,,,0.484375,0.27734375,-0.06640625,0.42578125,0.08203125,-0.32421875,0.2578125,-9.19140625,1.77734375,2
2435184,,,,,,,,0.75390625,1.16015625,-0.62890625,0.462890625,0.2265625,-0.279296875,0.56640625,-8.30859375,1.27734375,2
2435185,,,,,,,,0.8046875,1.6484375,-0.9140625,0.513671875,0.302734375,-0.20703125,0.640625,-7.81640625,1.046875,2
2435186,,,,,,,,0.875,2.0625,-1.09765625,0.541015625,0.341796875,-0.162109375,0.71875,-7.390625,0.89453125,2
2435187,,,,,,,,0.68359375,2.5546875,-1.3828125,0.568359375,0.384765625,-0.09375,0.52734375,-6.890625,0.6640625,2
2435188,,,,,,,,0.56640625,2.84375,-1.61328125,0.5625,0.421875,-0.091796875,0.41015625,-6.5859375,0.51171875,2
2435189,,,,,,,,0.56640625,2.875,-1.68359375,0.53515625,0.423828125,-0.099609375,0.41015625,-6.55078125,0.47265625,2
2435190,36.012986,129.318855,22.98797038,65.02214237,0.9,45,,0.68359375,3.2890625,-1.73046875,0.5,0.431640625,-0.09375,0.52734375,-6.125,0.47265625,2
2435191,,,,,,,,0.875,3.6640625,-1.859375,0.43359375,0.44140625,-0.087890625,0.71875,-5.74609375,0.3984375,2
2435192,,,,,,,,1.06640625,3.83984375,-1.9375,0.353515625,0.443359375,-0.080078125,0.91015625,-5.546875,0.359375,2
2435193,,,,,,,,1.296875,3.87890625,-1.984375,0.3125,0.44140625,-0.0703125,1.140625,-5.51171875,0.3203125,2
2435194,,,,,,,,1.6015625,3.87109375,-1.9375,0.24609375,0.43359375,-0.0625,1.4453125,-5.51171875,0.3984375,2
2435195,,,,,,,,1.87890625,3.5546875,-1.92578125,0.12109375,0.408203125,-0.06640625,1.71484375,-5.8203125,0.43359375,2
2435196,,,,,,,,2.0625,3.32421875,-1.93359375,0.04296875,0.369140625,-0.083984375,1.90625,-6.05078125,0.43359375,2
2435197,,,,,,,,2.1015625,3.09375,-1.96875,-0.02734375,0.33203125,-0.095703125,1.9453125,-6.28515625,0.3984375,2
2435198,,,,,,,,2.0625,3.05859375,-1.89453125,-0.056640625,0.30859375,-0.099609375,1.90625,-6.31640625,0.47265625,2
2435199,,,,,,,,1.90234375,2.62890625,-2,-0.126953125,0.248046875,-0.126953125,1.75390625,-6.734375,0.359375,2
2435200,36.0129865,129.3188563,23.10816878,65.0776223,1.2,51,0,1.9296875,2.4453125,-1.984375,-0.1640625,0.193359375,-0.1484375,0.52734375,-6.125,0.47265625,2
2435201,,,,,,,,1.88671875,1.9453125,-2.0078125,-0.220703125,0.150390625,-0.171875,1.75390625,-7.43359375,0.3203125,2
2435202,,,,,,,,1.78515625,1.53125,-1.984375,-0.265625,0.11328125,-0.193359375,1.67578125,-7.85546875,0.3203125,2
2435203,,,,,,,,1.5859375,1.03515625,-1.85546875,-0.28125,0.107421875,-0.1953125,1.484375,-8.34375,0.43359375,2
2435204,,,,,,,,1.24609375,0.19921875,-1.5,-0.298828125,0.07421875,-0.16015625,1.17578125,-9.1875,0.7421875,2
2435205,,,,,,,,1.046875,-0.6796875,-1.015625,-0.330078125,0.05859375,-0.1171875,0.984375,-10.0703125,1.203125,2
2435206,,,,,,,,0.54296875,-1.37109375,-0.640625,-0.359375,0.037109375,-0.1171875,0.48828125,-10.76171875,1.546875,2
2435207,,,,,,,,0.18359375,-1.625,-0.33984375,-0.37890625,0.013671875,-0.140625,0.14453125,-11.03515625,1.81640625,2
2435208,,,,,,,,-0.140625,-1.5859375,-0.171875,-0.384765625,0.00390625,-0.16015625,-0.1640625,-10.9921875,1.96875,2
2435209,,,,,,,,-0.15625,-1.1953125,-0.1640625,-0.369140625,-0.00390625,-0.205078125,-0.1640625,-10.61328125,1.9296875,2
2435210,36.0129875,129.3188577,23.22836702,65.18858186,1.4,56,,0.3203125,-0.8125,-0.36328125,-0.1640625,0.193359375,-0.1484375,0.3359375,-10.2265625,1.69921875,2
2435211,,,,,,,,0.7109375,-0.6484375,-0.41015625,-0.322265625,-0.0078125,-0.294921875,0.7578125,-10.07421875,1.62109375,3
2435212,,,,,,,,0.76953125,-0.60546875,-0.35546875,-0.294921875,-0.005859375,-0.302734375,0.83203125,-10.03125,1.66015625,3
2435213,,,,,,,,0.578125,-0.7578125,-0.24609375,-0.201171875,0.052734375,-0.267578125,0.6796875,-10.1875,1.73828125,2
2435214,,,,,,,,0.44921875,-1.0625,-0.046875,-0.1953125,0.076171875,-0.228515625,0.56640625,-10.4921875,1.9296875,2
2435215,,,,,,,,0.30859375,-1.1015625,0.015625,-0.2265625,0.11328125,-0.115234375,0.44921875,-10.53515625,1.96875,2
2435216,,,,,,,,0.26953125,-0.2890625,0.078125,-0.2734375,0.146484375,-0.013671875,0.41015625,-9.73046875,2.0078125,2
2435217,,,,,,,,0.23046875,0.0546875,0.0546875,-0.244140625,0.15625,0.0390625,0.37109375,-9.38671875,1.96875,2
2435218,,,,,,,,0.44140625,0.58984375,-0.08203125,-0.03125,0.138671875,0.197265625,0.56640625,-8.84765625,1.81640625,2
2435219,,,,,,,,0.30859375,-2.234375,0.22265625,0.009765625,0.087890625,0.255859375,0.41015625,-11.68359375,2.12109375,2
2435220,36.0129885,129.3188587,23.31851563,65.29954134,1.4,51,,0.1875,-3.46875,1.1484375,0.001953125,0.056640625,0.576171875,0.21875,-12.90625,3.0390625,2
2435221,,,,,,,,-0.4765625,-2.58984375,2.63671875,0.0859375,0.083984375,0.828125,-0.5078125,-12.0234375,4.53515625,2
2435222,,,,,,,,-1.42578125,-2.98046875,2.359375,0.203125,0.11328125,0.986328125,-1.54296875,-12.41015625,4.265625,2
2435223,,,,,,,,-1.66796875,-5.46875,2.98828125,0.1875,0.08203125,0.95703125,-1.88671875,-14.90234375,4.91796875,2
2435224,,,,,,,,-1.67578125,-6.12109375,4.51171875,-0.0078125,0.041015625,0.677734375,-1.96484375,-15.546875,6.44921875,2
2435225,,,,,,,,-1.17578125,-3.859375,3.82421875,-0.05078125,0.07421875,0.513671875,-1.54296875,-13.2890625,5.76171875,2
2435226,,,,,,,,0.06640625,-1.75390625,2.828125,0.04296875,0.083984375,0.62109375,-0.35546875,-11.1796875,4.765625,2
2435227,,,,,,,,0.7734375,-0.98828125,1.984375,-0.009765625,0.068359375,0.365234375,0.296875,-10.41796875,3.921875,2
2435228,,,,,,,,0.62109375,-1.09375,1.9921875,-0.115234375,0.06640625,-0.16796875,0.14453125,-10.53125,3.921875,2
2435229,,,,,,,,0.2890625,-1.515625,2.078125,-0.22265625,0.009765625,-0.509765625,-0.1640625,-10.95703125,4,2
2435230,36.01298933,129.31886,23.43871391,65.3920077,1.5,48,,-0.1875,-1.8515625,2.0234375,0.001953125,0.056640625,0.576171875,-0.5859375,-11.30078125,3.921875,2
2435231,,,,,,,,-0.41015625,-1.76953125,1.921875,-0.248046875,-0.01171875,-0.181640625,-0.77734375,-11.21875,3.8046875,2
2435232,,,,,,,,-0.45703125,-1.0625,1.41015625,-0.17578125,-0.072265625,-0.021484375,-0.81640625,-10.53125,3.26953125,2
2435233,,,,,,,,-0.45703125,-0.71875,1.21875,-0.11328125,-0.103515625,0,-0.81640625,-10.19140625,3.078125,2
2435234,,,,,,,,-0.2265625,0.1640625,0.61328125,-0.0234375,-0.16796875,0.01171875,-0.5859375,-9.3046875,2.46484375,2
2435235,,,,,,,,0.02734375,0.546875,0.1484375,0.009765625,-0.212890625,-0.015625,-0.31640625,-8.92578125,2.0078125,2
2435236,,,,,,,,0.36328125,1.203125,-0.12109375,0.041015625,-0.240234375,-0.05078125,0.02734375,-8.27734375,1.73828125,2
2435237,,,,,,,,0.546875,1.58984375,-0.20703125,0.060546875,-0.25,-0.05859375,0.21875,-7.8828125,1.66015625,2
2435238,,,,,,,,0.5390625,1.7421875,-0.2890625,0.072265625,-0.25390625,-0.044921875,0.21875,-7.734375,1.5859375,2
2435239,,,,,,,,0.5703125,2.5078125,-0.61328125,0.03125,-0.220703125,-0.03125,0.2578125,-6.97265625,1.27734375,2
2435240,36.01299,129.3188607,23.49881298,65.46598068,1.2,46,,0.515625,2.890625,-0.765625,-0.033203125,-0.205078125,-0.068359375,0.21875,-6.58984375,1.125,2
2435241,,,,,,,,0.35546875,3.46484375,-0.95703125,-0.1015625,-0.205078125,-0.095703125,0.06640625,-6.0078125,0.93359375,2
2435242,,,,,,,,0.02734375,4.09375,-1.35546875,-0.19140625,-0.203125,-0.0859375,-0.23828125,-5.3984375,0.51171875,2
2435243,,,,,,,,-0.10546875,4.09375,-1.22265625,-0.244140625,-0.224609375,-0.080078125,-0.35546875,-5.40234375,0.62890625,2
2435244,,,,,,,,-0.42578125,3.796875,-1.35546875,-0.28515625,-0.2421875,-0.076171875,-0.66015625,-5.703125,0.47265625,2
2435245,,,,,,,,-0.59765625,3.640625,-1.32421875,-0.328125,-0.263671875,-0.08203125,-0.81640625,-5.86328125,0.47265625,2
2435246,,,,,,,,-0.98828125,3.45703125,-1.453125,-0.3828125,-0.263671875,-0.107421875,-1.19921875,-6.046875,0.3203125,2
2435247,,,,,,,,-1.23046875,3.3125,-1.65234375,-0.375,-0.27734375,-0.12890625,-1.42578125,-6.20703125,0.08984375,2
2435248,,,,,,,,-1.28515625,3.3203125,-1.8046875,-0.35546875,-0.2578125,-0.181640625,-1.46484375,-6.20703125,-0.1015625,2
2435249,,,,,,,,-1.546875,2.859375,-1.703125,-0.310546875,-0.25390625,-0.2578125,-1.6953125,-6.6640625,-0.0234375,2
2435250,36.01299083,129.3188617,23.58896164,65.55844696,1.2,46,,-1.96875,2.09375,-1.3984375,-0.287109375,-0.224609375,-0.3046875,-2.078125,-7.43359375,0.2421875,2
2435251,,,,,,,,-2.0390625,1.48828125,-1.06640625,-0.248046875,-0.19140625,-0.2890625,-2.1171875,-8.0390625,0.55078125,2
2435252,,,,,,,,-2.0234375,1.3359375,-0.97265625,-0.08203125,-0.1171875,-0.1953125,-2.00390625,-8.3828125,0.62890625,2
2435253,,,,,,,,-1.91796875,0.875,-1.00390625,-0.001953125,-0.080078125,-0.171875,-1.96484375,-8.65625,0.58984375,2
2435254,,,,,,,,-1.81640625,0.33984375,-1.12109375,0.16796875,-0.03515625,-0.134765625,-1.80859375,-9.49609375,0.43359375,2
2435255,,,,,,,,-1.6796875,-0.47265625,-1.2109375,0.248046875,0.009765625,-0.146484375,-1.6171875,-10.2265625,0.43359375,2
2435256,,,,,,,,-1.50390625,-0.9375,-1.16015625,0.267578125,0.041015625,-0.193359375,-1.2734375,-10.80078125,0.62890625,2
2435257,,,,,,,,-0.9921875,-1.33203125,-0.890625,0.30859375,0.080078125,-0.1953125,-0.69921875,-10.71875,0.85546875,2
2435258,,,,,,,,-0.46875,-1.03125,-0.76953125,0.33984375,0.099609375,-0.185546875,-0.4296875,-10.53515625,0.93359375,2
2435259,,,,,,,,0.05078125,-0.49609375,-0.6875,0.408203125,0.123046875,-0.19921875,0.10546875,-9.9921875,1.046875,2
2435260,36.01299167,129.318863,23.70915992,65.65091332,1.4,50,,0.1484375,-0.3203125,-0.7265625,-0.287109375,-0.224609375,-0.3046875,0.21875,-9.80859375,1.046875,2
2435261,,,,,,,,-0.10546875,-0.6015625,-0.80859375,0.431640625,0.140625,-0.2734375,-0.01171875,-10.07421875,1.01171875,2
2435262,,,,,,,,-0.3203125,-1.21484375,-0.765625,0.30078125,0.109375,-0.314453125,-0.203125,-10.68359375,1.0859375,2
2435263,,,,,,,,-0.37890625,-1.4921875,-0.7890625,0.162109375,0.052734375,-0.259765625,-0.23828125,-10.953125,1.0859375,2
2435264,,,,,,,,-0.40234375,-1.4921875,-0.91015625,0.080078125,-0.009765625,-0.130859375,-0.23828125,-10.95703125,0.97265625,2
2435265,,,,,,,,-0.375,-1.34765625,-1.0703125,0.078125,-0.072265625,-0.015625,-0.203125,-10.796875,0.8203125,2
2435266,,,,,,,,-0.3671875,-1.0703125,-0.99609375,0.080078125,-0.095703125,0.02734375,-0.203125,-10.53125,0.89453125,2
2435267,,,,,,,,-0.44140625,-0.58203125,-0.88671875,0.060546875,-0.154296875,0.060546875,-0.27734375,-10.03515625,1.01171875,2
2435268,,,,,,,,-0.89453125,0.30078125,-0.859375,0.00390625,-0.17578125,0.126953125,-0.73828125,-9.15234375,1.046875,2
2435269,,,,,,,,-1.4140625,0.63671875,-0.359375,-0.07421875,-0.181640625,0.224609375,-1.2734375,-8.8046875,1.546875,2
2435270,36.01299217,129.3188645,23.84438311,65.7063933,1.5,58,,-2.3203125,0.1796875,0.1171875,-0.287109375,-0.224609375,-0.3046875,-2.1953125,-9.265625,2.0078125,2
2435271,,,,,,,,-2.6171875,-0.390625,-0.08984375,-0.177734375,-0.154296875,0.359375,-2.5390625,-9.84375,1.77734375,2
2435272,,,,,,,,-2.140625,-0.42578125,0.4140625,-0.203125,-0.146484375,0.37109375,-2.078125,-9.875,2.2734375,2
2435273,,,,,,,,-0.0625,0.76953125,0.8984375,-0.16796875,-0.123046875,0.3984375,-0.046875,-8.69140625,2.734375,2
2435274,,,,,,,,0.265625,-0.41796875,1.44140625,0.0859375,-0.111328125,0.693359375,0.21875,-9.87890625,3.26953125,2
2435275,,,,,,,,0.7578125,-4.51953125,2.5,0.310546875,-0.083984375,0.759765625,0.640625,-13.98046875,4.34375,2
2435276,,,,,,,,2.27734375,-7.33203125,2.52734375,0.609375,-0.0625,0.564453125,2.09765625,-16.7734375,4.41796875,2
2435277,,,,,,,,6.4609375,-8.41015625,3.5,0.76953125,-0.09375,0.525390625,6.234375,-17.84375,5.453125,2
2435278,,,,,,,,6.67578125,-4.61328125,1.69140625,1.025390625,-0.04296875,1.013671875,6.34765625,-14.01953125,3.76953125,2
2435279,,,,,,,,5.23828125,-3.859375,1.18359375,1.1328125,-0.03515625,1.115234375,4.85546875,-13.25390625,3.30859375,2
2435280,36.01299267,129.318866,23.97960631,65.76187329,1.4,61,,1.65234375,-2.66796875,2.03125,0.953125,-0.099609375,0.83203125,1.17578125,-12.0234375,4.265625,2
2435281,,,,,,,,0.11328125,-2.4375,2.62109375,0.22265625,-0.189453125,-0.02734375,-0.39453125,-11.796875,4.91796875,2
2435282,,,,,,,,0.3828125,-2.359375,1.33203125,-0.37890625,-0.251953125,-0.71875,-0.0859375,-11.72265625,3.61328125,2
2435283,,,,,,,,0.57421875,-2.3125,0.8515625,-0.51171875,-0.26171875,-0.82421875,0.14453125,-11.6796875,3.1171875,2
2435284,,,,,,,,0.83203125,-1.984375,-0.3671875,-0.359375,-0.28125,-0.830078125,0.48828125,-11.375,1.8515625,2
2435285,,,,,,,,0.67578125,-1.515625,-0.55078125,0.09765625,-0.248046875,-0.703125,0.41015625,-10.9140625,1.66015625,2
2435286,,,,,,,,0.3671875,-0.95703125,-0.11328125,0.578125,-0.064453125,-0.330078125,0.1796875,-10.33984375,2.16015625,2
2435287,,,,,,,,0.30078125,-0.57421875,-0.3125,0.47265625,0.0703125,-0.28125,0.14453125,-9.953125,2.0078125,2
2435288,,,,,,,,0.09375,-0.12109375,-0.56640625,0.375,0.13671875,-0.30078125,-0.046875,-9.49609375,1.77734375,2
2435289,,,,,,,,0.22265625,0.94140625,-0.859375,0.228515625,0.271484375,-0.3203125,0.10546875,-8.42578125,1.5078125,2
2435290,36.01299333,129.3188672,24.08477981,65.83584641,1.4,58,,0.50390625,1.6015625,-1.07421875,0.953125,-0.099609375,0.83203125,1.17578125,-12.0234375,4.265625,2
2435291,,,,,,,,0.796875,2.4375,-1.625,0.189453125,0.431640625,-0.291015625,0.71875,-6.9296875,0.78125,2
2435292,,,,,,,,0.84765625,3.0859375,-1.91796875,0.201171875,0.45703125,-0.330078125,0.79296875,-6.28125,0.51171875,2
2435293,,,,,,,,0.75,3.625,-1.93359375,0.22265625,0.4453125,-0.40234375,0.71875,-5.7421875,0.51171875,2
2435294,,,,,,,,0.71875,3.921875,-1.99609375,0.228515625,0.4296875,-0.4375,0.71875,-5.44140625,0.47265625,2
2435295,,,,,,,,0.7265625,4.06640625,-2.01171875,0.17578125,0.416015625,-0.423828125,0.7578125,-5.28125,0.47265625,2
2435296,,,,,,,,0.78515625,4.10546875,-2.09375,0.138671875,0.41015625,-0.40234375,0.83203125,-5.24609375,0.3984375,2
2435297,,,,,,,,1.12890625,4.19140625,-2.265625,0.0546875,0.376953125,-0.31640625,1.21484375,-5.16796875,0.2421875,2
2435298,,,,,,,,1.421875,4.03125,-2.2265625,0.04296875,0.345703125,-0.2421875,1.5234375,-5.32421875,0.28125,2
2435299,,,,,,,,1.671875,3.609375,-2.1953125,0.001953125,0.30859375,-0.177734375,1.7890625,-5.74609375,0.3203125,2
2435300,36.01299333,129.3188678,24.14487907,65.83584657,0.9,55,0,1.734375,3.30078125,-2.00390625,0.953125,-0.099609375,0.83203125,1.8671875,-6.046875,0.51171875,2
2435301,,,,,,,,1.57421875,2.95703125,-1.8359375,-0.134765625,0.203125,-0.162109375,1.71484375,-6.390625,0.6640625,2
2435302,,,,,,,,1.44921875,2.7265625,-1.51171875,-0.20703125,0.173828125,-0.193359375,1.59765625,-6.625,0.97265625,2
2435303,,,,,,,,1.359375,2.66015625,-1.45703125,-0.25390625,0.1484375,-0.208984375,1.5234375,-6.69921875,1.01171875,2
2435304,,,,,,,,1.21875,2.734375,-1.43359375,-0.34765625,0.10546875,-0.259765625,1.40625,-6.62890625,1.01171875,2
2435305,,,,,,,,1.08203125,2.4765625,-1.51171875,-0.41796875,0.048828125,-0.275390625,1.29296875,-6.890625,0.89453125,2
2435306,,,,,,,,1.05859375,2.17578125,-1.50390625,-0.451171875,0.0078125,-0.287109375,1.29296875,-7.1953125,0.85546875,2
2435307,,,,,,,,0.8359375,1.46484375,-1.5390625,-0.4453125,-0.0390625,-0.2890625,1.1015625,-7.92578125,0.78125,2
2435308,,,,,,,,0.66015625,1.1171875,-1.4765625,-0.44140625,-0.04296875,-0.283203125,0.94921875,-8.27734375,0.8203125,2
2435309,,,,,,,,0.2734375,-0.828125,-0.55859375,-0.455078125,-0.060546875,-0.171875,0.6015625,-10.23046875,1.66015625,2
2435310,36.012994,129.3188688,24.23502777,65.90981965,1.1,55,,0.10546875,-1.73828125,0.26171875,0.953125,-0.099609375,0.83203125,0.44921875,-11.14453125,2.42578125,2
2435311,,,,,,,,-0.37890625,-1.453125,0.6484375,-0.59375,-0.05078125,-0.0703125,-0.01171875,-10.875,2.734375,2
2435312,,,,,,,,-0.5390625,-1.1484375,0.45703125,-0.615234375,-0.048828125,-0.076171875,-0.1640625,-10.57421875,2.50390625,2
2435313,,,,,,,,-0.4765625,-0.97265625,0.16015625,-0.640625,-0.04296875,-0.1953125,-0.0859375,-10.4140625,2.12109375,2
2435314,,,,,,,,-0.26953125,-0.65625,0.17578125,-0.6171875,-0.03125,-0.3203125,0.14453125,-10.109375,2.08203125,2
2435315,,,,,,,,0.05859375,-0.83984375,0.53125,-0.490234375,0.01171875,-0.294921875,0.52734375,-10.30078125,2.3515625,3
2435316,,,,,,,,0.08203125,-1.0703125,0.66796875,-0.455078125,0.02734375,-0.23828125,0.56640625,-10.53515625,2.46484375,2
2435317,,,,,,,,-0.203125,-1.29296875,0.74609375,-0.39453125,0.052734375,-0.140625,0.296875,-10.76171875,2.50390625,2
2435318,,,,,,,,-0.44921875,-0.51171875,0.32421875,-0.33984375,0.0859375,-0.05078125,0.06640625,-9.99609375,2.04296875,2
2435319,,,,,,,,-0.44921875,-0.08984375,0.265625,-0.3046875,0.099609375,0.01171875,0.06640625,-9.5703125,1.96875,2
2435320,36.01299483,129.31887,24.34020122,66.00228598,1.3,55,,-0.2109375,0.4453125,0.328125,0.953125,-0.099609375,0.83203125,0.296875,-9.0390625,2.0078125,2
2435321,,,,,,,,0.140625,0.1484375,0.5703125,-0.154296875,0.0625,0.173828125,0.640625,-9.34765625,2.234375,2
2435322,,,,,,,,0.01171875,-2.07421875,0.2421875,-0.1484375,0.033203125,0.220703125,0.48828125,-11.56640625,1.890625,2
2435323,,,,,,,,-0.01953125,-2.76171875,0.2890625,-0.158203125,0.017578125,0.27734375,0.44921875,-12.25390625,1.9296875,3
2435324,,,,,,,,-0.25,-2.53515625,1.8046875,-0.130859375,0.02734375,0.509765625,0.1796875,-12.0234375,3.421875,2
2435325,,,,,,,,-1.25,-0.45703125,2.9921875,0.083984375,0.08984375,0.9609375,-0.9296875,-9.95703125,4.609375,2
2435326,,,,,,,,-1.75390625,-2.9453125,2.48046875,0.30859375,0.056640625,1.14453125,-1.54296875,-12.44921875,4.11328125,2
2435327,,,,,,,,-1.1328125,-4.90234375,2.53515625,0.109375,-0.07421875,0.91796875,-1.0078125,-14.3984375,4.19140625,2
2435328,,,,,,,,-0.953125,-5.859375,3.56640625,-0.181640625,-0.115234375,0.5859375,-0.890625,-15.359375,5.22265625,2
2435329,,,,,,,,-1.28125,-5.66796875,4.38671875,-0.0546875,-0.08984375,0.607421875,-1.2734375,-15.16796875,6.02734375,2
2435330,36.012996,129.3188715,24.4754242,66.1317388,1.5,54,,-1.671875,-3.5234375,4.21875,0.953125,-0.099609375,0.83203125,-1.734375,-13.0234375,5.875,2
2435331,,,,,,,,-0.55078125,-1.68359375,2.80078125,0.330078125,-0.0546875,0.7890625,-0.69921875,-11.18359375,4.49609375,2
2435332,,,,,,,,0.30078125,-0.953125,2.06640625,-0.15625,-0.02734375,-0.103515625,0.10546875,-10.453125,3.76953125,2
2435333,,,,,,,,0.4375,-1.03125,1.95703125,-0.228515625,-0.0390625,-0.361328125,0.2578125,-10.53515625,3.65234375,2
2435334,,,,,,,,0.8984375,-1.67578125,2.01171875,-0.25390625,-0.048828125,-0.546875,0.7578125,-11.18359375,3.69140625,2
2435335,,,,,,,,0.62109375,-1.58984375,1.765625,-0.22265625,-0.025390625,-0.3515625,0.52734375,-11.1015625,3.421875,2
2435336,,,,,,,,0.0078125,-0.96875,1.58984375,-0.177734375,-0.091796875,-0.154296875,-0.046875,-10.49609375,3.23046875,2
2435337,,,,,,,,-0.546875,-0.35546875,1.4921875,-0.193359375,-0.16015625,-0.203125,-0.5859375,-9.87890625,3.1171875,2
2435338,,,,,,,,-0.5625,-0.1953125,1.4296875,-0.18359375,-0.171875,-0.220703125,-0.5859375,-9.7265625,3.0390625,2
2435339,,,,,,,,-0.4296875,0.41796875,0.7890625,-0.134765625,-0.203125,-0.220703125,-0.4296875,-9.109375,2.390625,2
2435340,36.01299683,129.3188727,24.58059765,66.22420513,1.4,52,,-0.26171875,0.8828125,0.375,0.953125,-0.099609375,0.83203125,-1.734375,-13.0234375,5.875,2
2435341,,,,,,,,-0.05078125,1.62109375,-0.046875,0.041015625,-0.240234375,-0.126953125,-0.01171875,-7.92578125,1.546875,2
2435342,,,,,,,,0.1953125,2.38671875,-0.171875,0.0546875,-0.234375,-0.09375,0.2578125,-7.16015625,1.4296875,2
2435343,,,,,,,,0.30078125,2.5,-0.25390625,0.013671875,-0.228515625,-0.08984375,0.37109375,-7.05078125,1.35546875,2
2435344,,,,,,,,0.33203125,2.921875,-0.3984375,-0.072265625,-0.208984375,-0.0703125,0.41015625,-6.62890625,1.203125,2
2435345,,,,,,,,0.203125,3.265625,-0.4375,-0.1484375,-0.208984375,-0.041015625,0.296875,-6.28125,1.1640625,2
2435346,,,,,,,,0.1171875,3.421875,-0.4609375,-0.158203125,-0.212890625,-0.0234375,0.21875,-6.12890625,1.125,2
2435347,,,,,,,,-0.42578125,3.8125,-0.484375,-0.14453125,-0.234375,-0.041015625,-0.31640625,-5.7421875,1.0859375,2
2435348,,,,,,,,-0.5390625,3.8125,-0.58203125,-0.150390625,-0.240234375,-0.0546875,-0.4296875,-5.74609375,0.97265625,2
2435349,,,,,,,,-0.81640625,3.7421875,-0.8515625,-0.14453125,-0.2578125,-0.08984375,-0.69921875,-5.82421875,0.703125,2
2435350,36.01299767,129.3188737,24.67074628,66.31667142,1.4,48,,-1.25390625,3.51171875,-1.140625,-0.142578125,-0.2578125,-0.130859375,-1.12109375,-6.046875,0.3984375,2
2435351,,,,,,,,-1.5,3.3984375,-1.203125,-0.1328125,-0.248046875,-0.17578125,-1.3515625,-6.1640625,0.3203125,2
2435352,,,,,,,,-1.68359375,3.359375,-1.15625,-0.103515625,-0.234375,-0.177734375,-1.6171875,-6.28125,0.3984375,2
2435353,,,,,,,,-1.73828125,3.16796875,-1.1484375,-0.072265625,-0.177734375,-0.154296875,-1.54296875,-6.390625,0.359375,2
2435354,,,,,,,,-1.68359375,2.9765625,-1.21875,-0.052734375,-0.115234375,-0.130859375,-1.46484375,-6.69921875,0.2421875,2
2435355,,,,,,,,-1.65234375,2.6640625,-1.2578125,-0.0078125,-0.046875,-0.134765625,-1.390625,-7.05078125,0.359375,2
2435356,,,,,,,,-1.625,2.5078125,-1.1328125,0.044921875,-0.015625,-0.140625,-1.3125,-7.1171875,0.3984375,2
2435357,,,,,,,,-1.41015625,2.203125,-1.140625,0.126953125,0.037109375,-0.130859375,-1.16015625,-7.35546875,0.359375,2
2435358,,,,,,,,-1.265625,1.8125,-1.1953125,0.197265625,0.083984375,-0.087890625,-0.8515625,-7.96484375,0.3203125,2
2435359,,,,,,,,-1.00390625,0.84765625,-1.2890625,0.22265625,0.1171875,-0.048828125,-0.69921875,-9.0390625,0.28125,2
2435360,36.01299817,129.3188745,24.7458702,66.37215125,1.1,50,,-1.25390625,3.51171875,-1.140625,-0.142578125,-0.2578125,-0.130859375,-0.66015625,-9.84765625,0.3984375,2
2435361,,,,,,,,-0.93359375,-1,-1.02734375,0.330078125,0.138671875,-0.015625,-0.66015625,-10.53125,0.55078125,2
2435362,,,,,,,,-0.92578125,-1.46875,-0.7890625,0.36328125,0.13671875,0.025390625,-0.5078125,-11.140625,1.046875,2
2435363,,,,,,,,-0.6875,-1.58984375,-0.5625,0.359375,0.13671875,0.0625,-0.35546875,-11.06640625,1.1640625,2
2435364,,,,,,,,-0.3046875,-1.3671875,-0.2421875,0.353515625,0.125,0.02734375,-0.046875,-10.875,1.4296875,2
2435365,,,,,,,,-0.14453125,-1.30859375,-0.33203125,0.3671875,0.09765625,-0.09375,0.14453125,-10.65234375,1.31640625,2
2435366,,,,,,,,-0.078125,-1.0859375,-0.44921875,0.35546875,0.06640625,-0.181640625,0.10546875,-10.33984375,1.23828125,2
2435367,,,,,,,,-0.20703125,-0.78515625,-0.55859375,0.30859375,0.0234375,-0.228515625,-0.046875,-10.03515625,1.0859375,2
2435368,,,,,,,,-0.3828125,-0.56640625,-0.89453125,0.23046875,-0.015625,-0.2109375,-0.0859375,-10.03125,0.93359375,2
2435369,,,,,,,,-0.40625,-0.54296875,-1.00390625,0.13671875,-0.072265625,-0.10546875,-0.046875,-10.03125,0.85546875,2
2435370,36.01299867,129.318876,24.88109338,66.42763125,1.3,57,,-1.25390625,3.51171875,-1.140625,0.072265625,-0.107421875,-0.01953125,-0.66015625,-9.84765625,0.3984375,2
2435371,,,,,,,,-0.64453125,0.4921875,-0.64453125,0.01171875,-0.13671875,0.125,-0.31640625,-8.9609375,1.23828125,2
2435372,,,,,,,,-0.90625,0.796875,-0.40625,-0.01171875,-0.142578125,0.216796875,-0.5859375,-8.66015625,1.46875,2
2435373,,,,,,,,-2.0234375,-0.0078125,0.24609375,-0.03515625,-0.130859375,0.384765625,-1.734375,-9.4609375,2.12109375,2
2435374,,,,,,,,-2.05859375,-0.88671875,0.16796875,-0.0625,-0.126953125,0.486328125,-1.80859375,-10.33984375,2.04296875,2
2435375,,,,,,,,-1.171875,-2.45703125,0.71484375,-0.08984375,-0.119140625,0.552734375,-0.96875,-11.91015625,2.58203125,2
2435376,,,,,,,,-0.12109375,-1.9609375,1.75390625,-0.033203125,-0.095703125,0.62109375,0.02734375,-11.41796875,3.61328125,2
2435377,,,,,,,,0.984375,-1.84375,2.63671875,0.03515625,-0.080078125,0.67578125,1.1015625,-11.296875,4.49609375,2
2435378,,,,,,,,1.8671875,-3.140625,2.0546875,0.15625,-0.037109375,0.849609375,1.90625,-12.60546875,3.921875,2
2435379,,,,,,,,2.7109375,-5.29296875,1.77734375,0.212890625,-0.0234375,0.89453125,2.7109375,-14.7421875,3.65234375,2
2435380,36.01299917,129.3188773,25.00129174,66.48311121,1.2,59,,4.015625,-7.24609375,3.25,0.072265625,-0.107421875,-0.01953125,-0.66015625,-9.84765625,0.3984375,2
2435381,,,,,,,,4.7578125,-6.80078125,4.0078125,0.52734375,-0.1015625,0.421875,4.625,-16.23828125,5.953125,2
2435382,,,,,,,,3.1875,-4.16796875,3.38671875,0.53125,-0.12109375,0.548828125,3.015625,-13.59375,5.37890625,2
2435383,,,,,,,,0.37890625,-3.1484375,2.48828125,0.54296875,-0.14453125,0.724609375,0.14453125,-12.56640625,4.53515625,2
2435384,,,,,,,,0.05859375,-3.15625,1.91796875,0.330078125,-0.271484375,0.0859375,-0.23828125,-12.56640625,4.03515625,2
2435385,,,,,,,,0.4921875,-2.3125,1.015625,0.060546875,-0.32421875,-0.568359375,0.2578125,-11.72265625,3.15625,2
2435386,,,,,,,,0.515625,-1.890625,0.609375,0.29296875,-0.234375,-0.494140625,0.3359375,-11.296875,2.7734375,2
2435387,,,,,,,,0.58203125,-1.0546875,-0.04296875,0.5078125,-0.150390625,-0.427734375,0.44921875,-10.45703125,2.16015625,2
2435388,,,,,,,,0.58203125,-0.6796875,-0.28125,0.51171875,-0.05078125,-0.42578125,0.48828125,-10.07421875,1.96875,2
2435389,,,,,,,,0.58203125,-0.375,-0.52734375,0.486328125,0.060546875,-0.34375,0.52734375,-9.765625,1.77734375,2
2435390,36.01299967,129.3188787,25.12149009,66.53859118,1.3,61,,0.7109375,0.18359375,-0.8359375,0.072265625,-0.107421875,-0.01953125,-0.66015625,-9.84765625,0.3984375,2
2435391,,,,,,,,0.84765625,1.05859375,-1.12109375,0.53515625,0.240234375,-0.162109375,0.83203125,-8.3046875,1.27734375,2
2435392,,,,,,,,0.95703125,1.35546875,-1.2890625,0.5625,0.31640625,-0.072265625,0.94921875,-8,1.1640625,2
2435393,,,,,,,,0.80859375,2.375,-1.65234375,0.564453125,0.3671875,-0.05078125,0.79296875,-6.96875,0.85546875,2
2435394,,,,,,,,0.6484375,2.78125,-1.859375,0.541015625,0.396484375,-0.072265625,0.640625,-6.55078125,0.703125,2
2435395,,,,,,,,0.53515625,3.1171875,-1.97265625,0.474609375,0.3984375,-0.11328125,0.52734375,-6.203125,0.62890625,2
2435396,,,,,,,,0.45703125,3.33984375,-2.16796875,0.408203125,0.408203125,-0.138671875,0.44921875,-5.97265625,0.47265625,2
2435397,,,,,,,,0.57421875,3.78515625,-2.3359375,0.271484375,0.427734375,-0.134765625,0.56640625,-5.5078125,0.359375,2
2435398,,,,,,,,0.9921875,3.859375,-2.51171875,0.185546875,0.423828125,-0.126953125,0.984375,-5.4375,0.20703125,2
2435399,,,,,,,,1.109375,3.890625,-2.59765625,0.107421875,0.423828125,-0.1171875,1.1015625,-5.3984375,0.12890625,2
2435400,36.0130005,129.3188793,25.18158909,66.63105738,1.1,54,0,1.4453125,3.73828125,-2.56640625,0.048828125,0.404296875,-0.09765625,1.4453125,-5.55078125,0.16796875,2
2435401,,,,,,,,1.72265625,3.5078125,-2.453125,0.0078125,0.373046875,-0.1015625,1.71484375,-5.78515625,0.28125,2
2435402,,,,,,,,1.875,3.23828125,-2.375,-0.025390625,0.337890625,-0.11328125,1.8671875,-6.05078125,0.359375,2
2435403,,,,,,,,1.98046875,2.92578125,-2.26171875,-0.048828125,0.291015625,-0.134765625,1.98046875,-6.3515625,0.47265625,2
2435404,,,,,,,,2.01171875,2.703125,-2.21484375,-0.095703125,0.2421875,-0.169921875,2.01953125,-6.58984375,0.51171875,2
2435405,,,,,,,,1.921875,2.43359375,-2.3125,-0.1484375,0.19140625,-0.185546875,1.9453125,-6.85546875,0.3984375,2
2435406,,,,,,,,1.875,2.28125,-2.3046875,-0.17578125,0.154296875,-0.1875,1.90625,-7.0078125,0.3984375,2
2435407,,,,,,,,1.5234375,1.71484375,-2.21484375,-0.2265625,0.107421875,-0.19921875,1.5625,-7.58203125,0.47265625,2
2435408,,,,,,,,1.22265625,1.21875,-2.14453125,-0.283203125,0.064453125,-0.22265625,1.29296875,-8.078125,0.51171875,2
2435409,,,,,,,,0.81640625,0.265625,-1.8046875,-0.333984375,0.03515625,-0.240234375,0.91015625,-9.0390625,0.8203125,2
2435410,36.013001,129.318881,25.33183708,66.68653744,1.4,56,,0.6484375,-0.421875,-1.5546875,0.048828125,0.404296875,-0.09765625,0.7578125,-9.7265625,1.046875,2
2435411,,,,,,,,0.453125,-1.171875,-1.1015625,-0.451171875,0.015625,-0.203125,0.6015625,-10.49609375,1.4296875,2
2435412,,,,,,,,0.1328125,-1.39453125,-0.5625,-0.46875,0.0234375,-0.203125,0.296875,-10.71875,1.9296875,2
2435413,,,,,,,,0.03125,-1.3125,-0.4765625,-0.46875,-0.00390625,-0.220703125,0.21875,-10.6484375,1.96875,2
2435414,,,,,,,,-0.18359375,-0.8359375,-0.35546875,-0.455078125,-0.03125,-0.275390625,0.02734375,-10.19140625,2.04296875,2
2435415,,,,,,,,-0.21484375,-0.64453125,-0.4609375,-0.455078125,-0.0546875,-0.36328125,0.02734375,-9.99609375,1.890625,2
2435416,,,,,,,,-0.14453125,-0.4453125,-0.69140625,-0.453125,-0.037109375,-0.43359375,0.14453125,-9.8046875,1.62109375,2
2435417,,,,,,,,-0.03125,-0.46875,-0.56640625,-0.462890625,-0.01171875,-0.45703125,0.296875,-9.84765625,1.69921875,2
2435418,,,,,,,,-0.015625,-0.66796875,-0.53515625,-0.46484375,0.009765625,-0.431640625,0.3359375,-10.03515625,1.69921875,2
2435419,,,,,,,,-0.171875,-1.1875,-0.49609375,-0.416015625,0.07421875,-0.326171875,0.21875,-10.5703125,1.69921875,2
2435420,36.013002,129.3188823,25.45203527,66.79749702,1.4,56,,-0.4609375,-1.67578125,-0.1875,0.048828125,0.404296875,-0.09765625,-0.046875,-11.06640625,1.96875,2
2435421,,,,,,,,-0.35546875,-1.32421875,0.07421875,-0.291015625,0.158203125,-0.01953125,0.06640625,-10.71875,2.19921875,2
2435422,,,,,,,,-0.15625,-0.671875,-0.25,-0.171875,0.1796875,0.140625,0.2578125,-10.07421875,1.8515625,2
2435423,,,,,,,,-0.09375,-0.55078125,-0.2421875,-0.005859375,0.15625,0.240234375,0.296875,-9.95703125,1.8515625,2
2435424,,,,,,,,-0.078125,-1.70703125,0.06640625,0.09765625,0.11328125,0.26171875,0.296875,-11.10546875,2.16015625,2
2435425,,,,,,,,-0.5078125,-4.234375,0.48046875,0.09765625,0.091796875,0.28125,-0.1640625,-13.63671875,2.58203125,2
2435426,,,,,,,,-0.859375,-4.0078125,1.390625,0.076171875,0.109375,0.3984375,-0.546875,-13.41015625,3.5,2
2435427,,,,,,,,-1.0859375,-1.66796875,2.2265625,0.162109375,0.2109375,0.728515625,-0.8515625,-11.06640625,4.34375,2
2435428,,,,,,,,-1.125,-1.21875,1.98046875,0.212890625,0.22265625,0.814453125,-0.9296875,-10.609375,4.11328125,2
2435429,,,,,,,,-1.3515625,-2.20703125,2.04296875,0.275390625,0.173828125,0.822265625,-1.234375,-11.60546875,4.19140625,2
2435430,36.01300317,129.3188833,25.54218378,66.92694973,1.4,52,,-1.3203125,-3.8984375,3.2421875,0.166015625,0.111328125,0.521484375,-1.2734375,-13.2890625,5.4140625,2
2435431,,,,,,,,-1.13671875,-4.28125,3.6171875,0.05859375,0.1328125,0.1640625,-1.12109375,-13.67578125,5.796875,2
2435432,,,,,,,,-0.421875,-3.40234375,3.15234375,0.1171875,0.185546875,0.267578125,-0.4296875,-12.79296875,5.33984375,2
2435433,,,,,,,,-0.1796875,-2.91015625,2.953125,0.1875,0.2109375,0.35546875,-0.203125,-12.29296875,5.1484375,2
2435434,,,,,,,,0.19921875,-2.0234375,2.4765625,0.20703125,0.18359375,0.236328125,0.14453125,-11.41796875,4.6875,2
2435435,,,,,,,,0.12890625,-1.609375,2.421875,0.080078125,0.1328125,-0.1796875,0.06640625,-10.99609375,4.6484375,2
2435436,,,,,,,,-0.37890625,-1.41015625,2.3828125,-0.2109375,0.068359375,-0.56640625,-0.39453125,-10.80078125,4.609375,2
2435437,,,,,,,,-0.8984375,-1.39453125,1.99609375,-0.337890625,0.0390625,-0.537109375,-0.8515625,-10.80078125,4.19140625,2
2435438,,,,,,,,-0.9609375,-1.46875,1.89453125,-0.37109375,0.0234375,-0.482421875,-0.890625,-10.87890625,4.07421875,2
2435439,,,,,,,,-1.03125,-1.5,1.8515625,-0.330078125,-0.0078125,-0.337890625,-0.9296875,-10.9140625,4,2
2435440,36.01300383,129.3188845,25.64735726,67.00092287,1.4,49,,-0.84765625,-1.0625,1.3828125,0.166015625,0.111328125,0.521484375,-0.69921875,-10.4921875,3.5,2
2435441,,,,,,,,-0.75,-0.4140625,0.88671875,0.017578125,-0.154296875,-0.134765625,-0.5859375,-9.84765625,3.00390625,2
2435442,,,,,,,,-0.57421875,0.46875,0.33984375,0.09765625,-0.205078125,-0.078125,-0.39453125,-8.96484375,2.46484375,2
2435443,,,,,,,,-0.43359375,1.04296875,0.06640625,0.14453125,-0.23828125,-0.08984375,-0.23828125,-8.3828125,2.19921875,2
2435444,,,,,,,,-0.25,1.625,-0.33203125,0.1640625,-0.244140625,-0.107421875,-0.046875,-7.81640625,1.81640625,2
2435445,,,,,,,,0.03125,2.15234375,-0.578125,0.14453125,-0.244140625,-0.119140625,0.2578125,-7.2734375,1.5859375,2
2435446,,,,,,,,0.1015625,2.30859375,-0.6640625,0.12890625,-0.23046875,-0.123046875,0.3359375,-7.1171875,1.5078125,2
2435447,,,,,,,,0.23828125,2.8828125,-0.94140625,0.076171875,-0.208984375,-0.115234375,0.48828125,-6.546875,1.23828125,2
2435448,,,,,,,,0.19140625,3.33984375,-1.109375,0.01953125,-0.19921875,-0.083984375,0.44921875,-6.0859375,1.0859375,2
2435449,,,,,,,,0.0703125,3.5703125,-1.109375,0.00390625,-0.197265625,-0.080078125,0.3359375,-5.86328125,1.0859375,2
2435450,36.0130045,129.3188853,25.72248111,67.07489592,1.3,47,,-0.375,3.75390625,-1.22265625,0,-0.23828125,-0.078125,-0.0859375,-5.6640625,0.97265625,2
2435451,,,,,,,,-1.00390625,3.76171875,-1.3671875,-0.0234375,-0.263671875,-0.103515625,-0.69921875,-5.66796875,0.8203125,2
2435452,,,,,,,,-1.44140625,3.7265625,-1.4453125,-0.046875,-0.298828125,-0.12890625,-1.12109375,-5.70703125,0.7421875,2
2435453,,,,,,,,-1.6484375,3.7265625,-1.515625,-0.060546875,-0.310546875,-0.146484375,-1.3125,-5.70703125,0.6640625,2
2435454,,,,,,,,-2.0625,3.80078125,-1.62109375,-0.12890625,-0.314453125,-0.197265625,-1.6953125,-5.62890625,0.55078125,2
2435455,,,,,,,,-2.21484375,3.609375,-1.8671875,-0.166015625,-0.283203125,-0.259765625,-1.80859375,-5.82421875,0.28125,2
2435456,,,,,,,,-2.2109375,3.46484375,-1.890625,-0.181640625,-0.2265625,-0.29296875,-1.7734375,-5.96875,0.2421875,2
2435457,,,,,,,,-2.1640625,3.2265625,-1.875,-0.12890625,-0.166015625,-0.3046875,-1.6953125,-6.20703125,0.2421875,2
2435458,,,,,,,,-2.140625,2.99609375,-1.75,-0.103515625,-0.14453125,-0.30078125,-1.65625,-6.43359375,0.359375,2
2435459,,,,,,,,-2.08984375,2.73046875,-1.58984375,-0.044921875,-0.080078125,-0.275390625,-1.58203125,-6.6953125,0.51171875,2
2435460,36.0130055,129.3188865,25.82765449,67.18585547,1.3,49,,-1.8515625,1.9921875,-1.54296875,0.009765625,-0.025390625,-0.228515625,-1.3125,-7.4296875,0.55078125,2
2435461,,,,,,,,-1.5625,1.07421875,-1.3125,0.0546875,0.005859375,-0.193359375,-1.0078125,-8.34765625,0.78125,2
2435462,,,,,,,,-1.26953125,0.26171875,-1.51171875,0.068359375,0.01171875,-0.17578125,-0.69921875,-9.1484375,0.58984375,2
2435463,,,,,,,,-1.19921875,-0.46484375,-1.40625,0.109375,0.033203125,-0.158203125,-0.62109375,-9.875,0.703125,2
2435464,,,,,,,,-1.29296875,-1.2421875,-0.80859375,0.162109375,0.025390625,-0.130859375,-0.69921875,-10.6484375,1.31640625,2
2435465,,,,,,,,-1.1484375,-1.28515625,-0.51953125,0.232421875,0.021484375,-0.1171875,-0.546875,-10.6796875,1.62109375,2
2435466,,,,,,,,-1.0390625,-1.2109375,-0.6796875,0.23828125,0.021484375,-0.1015625,-0.4296875,-10.61328125,1.46875,2
2435467,,,,,,,,-0.85546875,-1.0703125,-0.92578125,0.1640625,0.0078125,-0.12890625,-0.23828125,-10.453125,1.23828125,2
2435468,,,,,,,,-0.8359375,-1.109375,-1.0234375,0.1171875,-0.0390625,-0.25,-0.203125,-10.4921875,1.1640625,2
2435469,,,,,,,,-0.92578125,-1.1171875,-0.984375,0.12109375,-0.0546875,-0.296875,-0.27734375,-10.4921875,1.203125,2
2435470,36.01300633,129.3188878,25.94785272,67.27832186,1.4,52,,-0.95703125,-1.09375,-0.9921875,0.009765625,-0.025390625,-0.228515625,-0.27734375,-10.453125,1.203125,2
2435471,,,,,,,,-0.9140625,-1.32421875,-0.94921875,-0.009765625,-0.17578125,-0.197265625,-0.203125,-10.68359375,1.23828125,2
2435472,,,,,,,,-0.58203125,-1.9765625,-0.94921875,0.01171875,-0.1953125,-0.080078125,0.14453125,-11.3359375,1.23828125,2
2435473,,,,,,,,-0.36328125,-2.3203125,-0.91015625,0.03125,-0.208984375,-0.02734375,0.37109375,-11.68359375,1.27734375,2
2435474,,,,,,,,-0.0859375,-2.17578125,-0.6484375,0.03515625,-0.23046875,0.185546875,0.640625,-11.52734375,1.546875,2
2435475,,,,,,,,-0.0625,-1.75390625,-0.41015625,-0.00390625,-0.20703125,0.34375,0.640625,-11.10546875,1.77734375,2
2435476,,,,,,,,-1.01953125,-2.08984375,-0.01953125,-0.0703125,-0.19140625,0.48828125,-0.35546875,-11.44921875,2.16015625,2
2435477,,,,,,,,-1.9375,-3.76953125,1.13671875,-0.125,-0.154296875,0.55859375,-1.3125,-13.1328125,3.30859375,2
2435478,,,,,,,,-1.8828125,-4.375,1.3125,-0.212890625,-0.146484375,0.529296875,-1.3125,-13.75,3.4609375,2
2435479,,,,,,,,-0.48828125,-4.51953125,1.796875,-0.34765625,-0.15625,0.54296875,0.02734375,-13.8984375,3.921875,2
2435480,36.013007,129.3188892,26.06805101,67.35229504,1.4,57,,1.67578125,-3.1640625,2.2109375,0.009765625,-0.025390625,-0.228515625,2.13671875,-12.5625,4.3046875,2
2435481,,,,,,,,1.97265625,-3.26953125,2.5390625,-0.06640625,-0.12890625,0.74609375,2.36328125,-12.67578125,4.609375,2
2435482,,,,,,,,1.9140625,-4.03515625,3.421875,0.130859375,-0.115234375,0.625,2.25,-13.4375,5.4921875,2
2435483,,,,,,,,1.73828125,-3.23046875,4.171875,0.099609375,-0.1015625,0.349609375,2.01953125,-12.6328125,6.2578125,2
2435484,,,,,,,,0.65234375,-2.46484375,4.32421875,-0.060546875,-0.109375,0.27734375,0.91015625,-11.87109375,6.41015625,2
2435485,,,,,,,,-0.8203125,-1.26171875,3.51953125,-0.060546875,-0.0859375,0.220703125,-0.5859375,-10.6796875,5.60546875,2
2435486,,,,,,,,-1.078125,-1.0703125,3.03125,-0.033203125,-0.095703125,0.119140625,-0.8515625,-10.4921875,5.109375,2
2435487,,,,,,,,-1.35546875,-0.87890625,2.6484375,-0.07421875,-0.13671875,-0.23046875,-1.12109375,-10.296875,4.7265625,2
