time,latitude,longitude,enu_x,enu_y,speed,course,ecg,accX,accY,accZ,gyrX,gyrY,gyrZ,eulR,eulP,eulY,validity
3323550,36.01302033333333,129.31896766666665,33.144732468675365,68.83177544817974,3.1,236.0,,2.203125,4.0,7.83203125,-0.140625,-0.771484375,0.212890625,-0.8515625,-0.921875,1.640625,1.0
3323551,,,,,,,,0.41015625,2.20703125,9.15625,-0.041015625,-0.75,0.23828125,-2.69140625,-2.72265625,3.02734375,1.0
3323552,,,,,,,,0.51171875,1.01953125,8.55078125,0.03515625,-0.716796875,0.28125,-2.61328125,-3.90625,2.44921875,1.0
3323553,,,,,,,,2.328125,-8.609375,5.578125,0.3203125,-0.662109375,0.416015625,-0.8515625,-13.56640625,-0.4609375,1.0
3323554,,,,,,,,3.609375,-34.7109375,10.09375,0.494140625,-0.736328125,0.787109375,0.375,-39.6875,4.1328125,1.0
3323555,,,,,,,,13.77734375,-58.828125,36.6015625,0.31640625,-0.9296875,1.2578125,10.44921875,-63.82421875,30.71875,1.0
3323556,,,,,,,,13.75390625,-39.26171875,29.32421875,0.26171875,-0.939453125,1.42578125,10.37109375,-44.24609375,23.48046875,1.0
3323557,,,,,,,,6.86328125,-7.734375,10.92578125,0.736328125,-0.650390625,1.861328125,3.36328125,-12.71875,5.16796875,1.0
3323558,,,,,,,,-8.65625,-11.33984375,7.8984375,-1.10546875,-0.1953125,-3.8359375,-12.0,-16.46875,2.21875,1.0
3323559,,,,,,,,-5.80078125,-14.43359375,7.62890625,-0.291015625,-0.29296875,-3.259765625,-9.05078125,-19.609375,1.94921875,1.0
3323560,36.013019,129.318965,32.904336051609434,68.68382888915554,2.9000000000000004,237.0,,-2.64453125,-13.7578125,6.2421875,1.732421875,0.005859375,-0.63671875,-5.79296875,-19.08203125,0.6484375,1.0
3323561,,,,,,,,0.93359375,-12.1328125,6.0703125,2.00390625,0.166015625,0.37890625,-2.19140625,-17.5859375,0.609375,1.0
3323562,,,,,,,,4.88671875,-11.78515625,9.33984375,1.720703125,0.064453125,0.099609375,1.75390625,-17.35546875,4.01953125,1.0
3323563,,,,,,,,7.08984375,-12.88671875,10.203125,1.80859375,0.26171875,0.23046875,3.97265625,-18.578125,5.015625,1.0
3323564,,,,,,,,5.734375,-11.65625,7.48046875,1.755859375,0.6640625,0.63671875,2.6328125,-17.51171875,2.48828125,1.0
3323565,,,,,,,,5.95703125,-7.9140625,6.625,1.744140625,0.779296875,0.623046875,2.86328125,-13.8671875,1.7578125,1.0
3323566,,,,,,,,6.546875,-5.9453125,6.1328125,1.66796875,0.69921875,0.466796875,3.4765625,-11.99609375,1.375,1.0
3323567,,,,,,,,6.30859375,-4.7109375,5.55078125,1.60546875,0.564453125,0.48046875,3.24609375,-10.84765625,0.91796875,1.0
3323568,,,,,,,,6.26953125,-4.0859375,5.296875,1.568359375,0.5,0.51171875,3.20703125,-10.265625,0.7265625,1.0
3323569,,,,,,,,5.92578125,-1.55859375,4.7578125,1.41015625,0.423828125,0.546875,2.86328125,-7.8125,0.3046875,1.0
3323570,36.01301816666667,129.318962,32.63388979610767,68.5913618446062,2.9000000000000004,244.0,,6.23046875,0.3828125,4.5625,1.181640625,0.33984375,0.509765625,-5.79296875,-19.08203125,0.6484375,1.0
3323571,,,,,,,,7.04296875,3.39453125,3.93359375,1.005859375,0.232421875,0.431640625,3.96875,-2.98828125,-0.30859375,1.0
3323572,,,,,,,,7.2734375,4.51953125,3.83984375,0.986328125,0.177734375,0.41015625,4.203125,-1.87890625,-0.34765625,1.0
3323573,,,,,,,,7.63671875,7.03515625,3.77734375,0.955078125,0.052734375,0.4296875,4.55078125,0.57421875,-0.30859375,1.0
3323574,,,,,,,,7.49609375,9.37109375,3.98046875,0.734375,-0.091796875,0.486328125,4.390625,2.87109375,-0.00390625,1.0
3323575,,,,,,,,7.51953125,10.31640625,4.140625,0.390625,-0.23046875,0.576171875,4.39453125,3.79296875,0.2265625,1.0
3323576,,,,,,,,7.61328125,10.16015625,3.98828125,0.248046875,-0.26171875,0.623046875,4.46875,3.63671875,0.11328125,1.0
3323577,,,,,,,,7.98046875,8.109375,2.3671875,0.146484375,-0.291015625,0.671875,4.77734375,1.5703125,-1.421875,1.0
3323578,,,,,,,,7.25390625,6.4140625,2.0390625,0.03125,-0.248046875,0.720703125,4.01171875,-0.1171875,-1.6875,1.0
3323579,,,,,,,,5.82421875,5.56640625,2.62890625,-0.140625,-0.205078125,0.759765625,2.5546875,-0.95703125,-1.07421875,1.0
3323580,36.01301733333333,129.318959,32.36344353760025,68.49889480924455,3.0,248.0,,2.96484375,4.8359375,4.57421875,1.181640625,0.33984375,0.509765625,-5.79296875,-19.08203125,0.6484375,1.0
3323581,,,,,,,,0.98828125,4.4765625,7.80078125,-1.37890625,0.326171875,0.490234375,-2.34765625,-1.953125,4.05859375,1.0
3323582,,,,,,,,1.78515625,4.95703125,7.6796875,-1.294921875,0.525390625,0.056640625,-1.54296875,-1.41796875,3.87109375,1.0
3323583,,,,,,,,3.6484375,5.9453125,6.63671875,-0.41796875,0.634765625,-0.53125,0.375,-0.421875,2.7890625,1.0
3323584,,,,,,,,5.70703125,7.546875,6.59765625,-0.0390625,0.572265625,-0.962890625,2.51953125,1.1484375,2.75390625,1.0
3323585,,,,,,,,6.53125,8.046875,7.85546875,-0.33203125,0.44140625,-1.064453125,3.4375,1.609375,4.015625,1.0
3323586,,,,,,,,6.16015625,8.10546875,8.015625,-0.994140625,0.3125,-0.90625,3.16796875,1.64453125,4.171875,1.0
3323587,,,,,,,,5.78515625,8.0390625,6.9296875,-1.79296875,0.158203125,-0.53515625,2.86328125,1.609375,3.02734375,1.0
3323588,,,,,,,,5.5234375,6.328125,4.9921875,-2.154296875,0.01953125,0.046875,2.63671875,-0.0390625,0.9921875,1.0
3323589,,,,,,,,4.26953125,-6.1015625,5.70703125,-2.2890625,-0.1796875,0.712890625,1.37109375,-12.37890625,1.60546875,1.0
3323590,36.01301616666667,129.31895600000001,32.09299740813459,68.36944136789737,3.1,245.0,,2.74609375,-28.3359375,9.76953125,-2.470703125,-0.201171875,1.392578125,-0.23828125,-34.4375,5.51171875,1.0
3323591,,,,,,,,-10.453125,-66.69921875,23.65625,-2.033203125,-0.03515625,1.8984375,-13.53125,-72.66796875,19.3046875,1.0
3323592,,,,,,,,-10.84375,-32.03515625,12.6171875,0.20703125,-0.55078125,1.517578125,-14.03125,-37.92578125,8.234375,1.0
3323593,,,,,,,,-0.4609375,-14.0546875,7.58203125,1.46484375,-0.703125,1.01953125,-3.6875,-19.9609375,3.25390625,1.0
3323594,,,,,,,,6.47265625,-10.0390625,1.703125,-3.38671875,0.107421875,-1.017578125,3.24609375,-15.9375,-2.609375,1.0
3323595,,,,,,,,16.89453125,-9.265625,3.6640625,-2.4765625,-0.20703125,-3.470703125,13.93359375,-15.09375,-0.921875,1.0
3323596,,,,,,,,16.29296875,-6.8515625,12.3984375,-2.310546875,-1.205078125,-1.6484375,13.47265625,-12.6796875,7.734375,1.0
3323597,,,,,,,,8.7890625,-13.20703125,11.89453125,-4.490234375,-1.89453125,0.6640625,5.9296875,-18.92578125,7.12109375,1.0
3323598,,,,,,,,6.46875,-13.98046875,9.30859375,-4.8203125,-1.91015625,0.806640625,3.5546875,-19.57421875,4.44140625,1.0
3323599,,,,,,,,1.87109375,-10.66796875,5.2109375,-3.87890625,-1.57421875,-0.29296875,-1.12109375,-16.08984375,0.1875,1.0
3323600,36.0130155,129.31895316666666,31.837575878967804,68.29546761100002,2.7,247.0,0.0,0.30859375,-8.5390625,5.6953125,-2.470703125,-0.201171875,1.392578125,-2.73046875,-13.828125,0.5703125,1.0
3323601,,,,,,,,-0.8984375,-6.4765625,7.3515625,-2.958984375,-1.91015625,-0.091796875,-3.9921875,-11.65234375,2.140625,1.0
3323602,,,,,,,,-1.04296875,-2.73046875,6.11328125,-2.8984375,-1.890625,0.28515625,-4.22265625,-7.7734375,0.83984375,1.0
3323603,,,,,,,,-1.1484375,-0.12109375,5.02734375,-3.1640625,-1.6328125,0.10546875,-4.453125,-4.9765625,-0.34765625,1.0
3323604,,,,,,,,-0.88671875,3.109375,2.42578125,-3.431640625,-1.48046875,0.009765625,-4.26171875,-1.609375,-3.02734375,1.0
3323605,,,,,,,,-0.671875,4.9375,2.05859375,-3.53515625,-1.30078125,0.224609375,-4.109375,0.3828125,-3.48828125,1.0
3323606,,,,,,,,-0.2578125,6.82421875,3.1484375,-3.3515625,-1.1640625,0.861328125,-3.765625,2.44921875,-2.4921875,1.0
3323607,,,,,,,,-0.3828125,7.87109375,4.6796875,-2.92578125,-1.005859375,1.50390625,-3.99609375,3.67578125,-1.0390625,1.0
3323608,,,,,,,,-0.48046875,7.1953125,5.234375,-2.4609375,-0.88671875,1.83203125,-4.1796875,3.1796875,-0.5390625,1.0
3323609,,,,,,,,-0.6796875,5.23046875,5.05078125,-1.98828125,-0.755859375,1.81640625,-4.49609375,1.37890625,-0.76953125,1.0
3323610,36.013015333333335,129.31894983333333,31.537079712446086,68.27697332014284,3.0,257.0,,-0.81640625,4.1015625,5.3046875,-1.525390625,-0.666015625,1.67578125,-4.72265625,0.3828125,-0.5390625,1.0
3323611,,,,,,,,-0.66015625,2.4609375,5.6171875,-1.232421875,-0.638671875,1.5234375,-4.64453125,-1.1484375,-0.234375,1.0
3323612,,,,,,,,0.70703125,1.56640625,5.6484375,-0.759765625,-0.513671875,1.134765625,-3.375,-1.91796875,-0.1953125,1.0
3323613,,,,,,,,1.1484375,1.515625,5.52734375,-0.556640625,-0.4609375,1.01953125,-2.96484375,-1.953125,-0.30859375,1.0
3323614,,,,,,,,2.22265625,1.22265625,5.55078125,-0.0703125,-0.375,0.857421875,-1.92578125,-2.22265625,-0.26953125,1.0
3323615,,,,,,,,2.5234375,2.2265625,6.66015625,0.2109375,-0.30859375,0.572265625,-1.65625,-1.2265625,0.87890625,1.0
3323616,,,,,,,,2.15625,3.3203125,8.4296875,0.107421875,-0.265625,0.119140625,-2.0390625,-0.15625,2.6796875,1.0
3323617,,,,,,,,2.30859375,4.00390625,8.90234375,0.009765625,-0.193359375,-0.38671875,-1.88671875,0.49609375,3.171875,1.0
3323618,,,,,,,,2.53125,4.1875,8.83984375,0.107421875,-0.16015625,-0.564453125,-1.65625,0.6484375,3.13671875,1.0
3323619,,,,,,,,4.03125,4.8046875,9.77734375,0.49609375,-0.07421875,-0.771484375,-0.125,1.1875,4.09765625,1.0
3323620,36.013015,129.31894683333334,31.26663323476332,68.23998593960033,2.8000000000000003,260.0,,5.1796875,4.1328125,9.57421875,0.763671875,-0.11328125,-0.6796875,1.0625,0.421875,3.9375,1.0
3323621,,,,,,,,6.4609375,0.1953125,8.02734375,0.724609375,-0.2265625,-0.353515625,2.3671875,-3.60546875,2.44921875,1.0
3323622,,,,,,,,6.16015625,-4.15625,8.46875,0.234375,-0.427734375,0.25,2.05859375,-8.01171875,2.9453125,1.0
3323623,,,,,,,,5.5703125,-16.29296875,9.54296875,-0.35546875,-0.68359375,0.806640625,1.4453125,-20.15234375,4.05859375,1.0
3323624,,,,,,,,7.25,-43.9140625,11.76171875,-0.822265625,-0.90234375,1.396484375,3.015625,-47.6953125,6.31640625,1.0
3323625,,,,,,,,12.859375,-58.28515625,19.9296875,-0.8828125,-0.88671875,1.98828125,8.53125,-61.98046875,14.515625,1.0
3323626,,,,,,,,16.9375,-25.28515625,28.44921875,-0.123046875,-0.111328125,2.10546875,12.515625,-28.88671875,23.05859375,1.0
3323627,,,,,,,,2.24609375,-13.37890625,7.171875,-0.6015625,0.103515625,-0.478515625,-2.19140625,-16.97265625,1.796875,1.0
3323628,,,,,,,,-4.23046875,-12.87109375,3.53515625,-2.3984375,0.3125,-3.91015625,-8.55078125,-16.5078125,-1.87890625,1.0
3323629,,,,,,,,-6.21875,-15.49609375,4.4375,-1.349609375,-0.224609375,-2.9921875,-10.390625,-19.2265625,-1.0390625,1.0
3323630,36.013015,129.31894400000002,31.011211436145672,68.23998503447653,2.5,262.0,,-5.1015625,-17.5859375,8.31640625,0.482421875,-0.587890625,-0.61328125,-9.203125,-21.41796875,2.87109375,1.0
3323631,,,,,,,,-2.7890625,-15.578125,9.0703125,1.287109375,-0.1953125,0.576171875,-6.90625,-19.50390625,3.7109375,1.0
3323632,,,,,,,,0.515625,-11.78515625,7.0546875,0.806640625,0.009765625,0.140625,-3.609375,-15.78125,1.7578125,1.0
3323633,,,,,,,,1.953125,-10.77734375,6.49609375,0.54296875,0.013671875,-0.283203125,-2.15625,-14.82421875,1.22265625,1.0
3323634,,,,,,,,6.7734375,-9.55859375,6.5703125,0.40234375,0.32421875,-0.740234375,2.7109375,-13.67578125,1.3359375,1.0
3323635,,,,,,,,9.57421875,-8.421875,8.80078125,0.748046875,0.736328125,-0.322265625,5.58203125,-12.64453125,3.59765625,1.0
3323636,,,,,,,,8.71484375,-7.76953125,9.6953125,0.779296875,0.962890625,0.36328125,4.77734375,-12.0625,4.515625,1.0
3323637,,,,,,,,6.109375,-6.91796875,7.92578125,0.150390625,0.927734375,0.677734375,2.2109375,-11.26171875,2.75390625,1.0
3323638,,,,,,,,5.6640625,-6.55859375,7.12109375,-0.123046875,0.921875,0.666015625,1.7890625,-10.9140625,1.94921875,1.0
3323639,,,,,,,,5.12890625,-4.65234375,5.64453125,-0.314453125,0.822265625,0.486328125,1.29296875,-9.0,0.45703125,1.0
3323640,36.01301566666667,129.31894116666666,30.755789376483236,68.31395696431505,2.8000000000000003,276.0,,5.6640625,-2.90625,5.0390625,0.482421875,-0.587890625,-0.61328125,-9.203125,-21.41796875,2.87109375,1.0
3323641,,,,,,,,5.80859375,0.55859375,4.6484375,0.03515625,0.125,0.763671875,2.01953125,-3.828125,-0.5390625,1.0
3323642,,,,,,,,6.0703125,4.3125,5.19140625,0.0234375,-0.15625,0.890625,2.25,-0.078125,0.03515625,1.0
3323643,,,,,,,,6.09375,5.59375,5.57421875,-0.166015625,-0.287109375,0.892578125,2.25,1.1875,0.45703125,1.0
3323644,,,,,,,,7.015625,7.1015625,6.62109375,-0.55859375,-0.38671875,0.76953125,3.1328125,2.71875,1.52734375,1.0
3323645,,,,,,,,7.55078125,7.4609375,6.453125,-0.7421875,-0.455078125,0.16015625,3.62890625,3.1015625,1.375,1.0
3323646,,,,,,,,8.0859375,6.45703125,5.17578125,-0.638671875,-0.466796875,-0.318359375,4.16796875,2.10546875,0.11328125,1.0
3323647,,,,,,,,7.7734375,5.67578125,4.1640625,-0.69921875,-0.412109375,-0.484375,3.859375,1.30078125,-0.8828125,1.0
3323648,,,,,,,,6.875,4.48828125,3.81640625,-0.849609375,-0.388671875,-0.404296875,2.98046875,0.11328125,-1.23046875,1.0
3323649,,,,,,,,6.37109375,3.64453125,4.20703125,-1.232421875,-0.345703125,-0.01953125,2.4765625,-0.73046875,-0.84765625,1.0
3323650,36.013016666666665,129.31893833333334,30.50036719405056,68.42491531474575,2.8000000000000003,286.0,,6.06640625,3.63671875,5.6875,-1.45703125,-0.185546875,0.310546875,2.17578125,-0.69140625,0.609375,1.0
3323651,,,,,,,,4.68359375,4.30078125,6.77734375,-1.607421875,0.12890625,0.337890625,0.79296875,0.07421875,1.640625,1.0
3323652,,,,,,,,4.06640625,4.69921875,7.3828125,-1.634765625,0.232421875,0.244140625,0.18359375,0.49609375,2.21875,1.0
3323653,,,,,,,,3.53515625,5.203125,7.8671875,-1.8359375,0.40625,-0.005859375,-0.31640625,1.0703125,2.640625,1.0
3323654,,,,,,,,4.3984375,6.06640625,6.91796875,-1.890625,0.25,-0.34765625,0.640625,2.06640625,1.56640625,1.0
3323655,,,,,,,,6.046875,5.859375,7.5546875,-1.8203125,0.033203125,-0.43359375,2.33203125,1.9140625,2.140625,1.0
3323656,,,,,,,,6.64453125,5.75,7.6171875,-1.8984375,-0.107421875,-0.41015625,2.94140625,1.8359375,2.1796875,1.0
3323657,,,,,,,,6.734375,4.44140625,7.05078125,-2.35546875,-0.376953125,-0.201171875,3.05859375,0.61328125,1.56640625,1.0
3323658,,,,,,,,7.125,-0.80078125,7.7265625,-2.994140625,-0.53515625,0.271484375,3.4375,-4.51953125,2.1796875,1.0
3323659,,,,,,,,7.33203125,-3.76953125,8.75390625,-3.080078125,-0.541015625,0.62109375,3.62890625,-7.390625,3.17578125,1.0
3323660,36.01301683333334,129.3189355,30.244945337258862,68.44340763963997,2.6,280.0,,3.1953125,-18.84375,11.8125,-3.123046875,-0.44140625,1.38671875,-0.546875,-22.296875,6.1640625,1.0
3323661,,,,,,,,-2.06640625,-41.6328125,18.08984375,-3.1640625,-0.181640625,2.30859375,-5.87109375,-44.859375,12.37109375,1.0
3323662,,,,,,,,-10.69921875,-63.41015625,18.48828125,-2.458984375,-0.21484375,2.431640625,-14.56640625,-66.42578125,12.71484375,1.0
3323663,,,,,,,,-11.171875,-25.48046875,12.21484375,0.2578125,-0.3828125,1.05859375,-15.1015625,-28.38671875,6.43359375,1.0
3323664,,,,,,,,2.03515625,-14.38671875,0.0546875,-3.6953125,-0.265625,-3.34765625,-1.84765625,-17.35546875,-5.7109375,1.0
3323665,,,,,,,,5.3125,-12.76171875,3.3203125,-3.005859375,-0.05859375,-4.3359375,1.5625,-15.703125,-2.53125,1.0
3323666,,,,,,,,7.27734375,-11.6484375,13.54296875,-2.298828125,-0.73046875,-2.677734375,3.62890625,-14.6328125,7.66015625,1.0
3323667,,,,,,,,4.20703125,-17.78125,14.8984375,-2.21484375,-1.123046875,-0.392578125,0.56640625,-20.7265625,9.0,1.0
3323668,,,,,,,,1.37890625,-18.25,12.15625,-3.451171875,-1.095703125,0.5625,-2.30859375,-21.0703125,6.2421875,1.0
3323669,,,,,,,,0.28515625,-16.40625,6.640625,-4.0234375,-1.234375,0.208984375,-3.45703125,-19.04296875,0.6875,1.0
3323670,36.013017500000004,129.3189335,30.064647346708234,68.51737984869033,2.1,282.0,,-0.2265625,-15.0546875,7.21484375,-3.197265625,-1.603515625,0.078125,-0.546875,-22.296875,6.1640625,1.0
3323671,,,,,,,,0.3203125,-12.5625,8.38671875,-2.9140625,-1.580078125,0.69140625,-3.609375,-14.79296875,2.41015625,1.0
3323672,,,,,,,,0.98828125,-10.984375,6.9921875,-2.763671875,-1.46484375,0.943359375,-3.03515625,-13.06640625,1.03125,1.0
3323673,,,,,,,,1.45703125,-7.83984375,4.6875,-2.8359375,-1.337890625,0.8125,-2.65234375,-9.76953125,-1.265625,1.0
3323674,,,,,,,,1.49609375,-4.83984375,3.26171875,-3.349609375,-1.2421875,0.693359375,-2.69140625,-6.58984375,-2.68359375,1.0
3323675,,,,,,,,1.328125,-0.6484375,3.94140625,-3.8125,-1.23828125,1.013671875,-2.96484375,-2.109375,-1.99609375,1.0
3323676,,,,,,,,1.1328125,0.39453125,4.171875,-3.751953125,-1.2265625,1.251953125,-3.19140625,-0.95703125,-1.765625,1.0
3323677,,,,,,,,0.8203125,1.74609375,4.6171875,-3.330078125,-1.16796875,1.66015625,-3.57421875,0.61328125,-1.3046875,1.0
3323678,,,,,,,,0.3984375,3.15625,4.4765625,-2.740234375,-1.12109375,1.890625,-4.0703125,2.2578125,-1.421875,1.0
3323679,,,,,,,,0.31640625,2.89453125,4.078125,-2.44140625,-1.09765625,1.904296875,-4.18359375,2.06640625,-1.8046875,1.0
3323680,36.01301933333333,129.318931,29.839274484659903,68.72080435679436,2.9000000000000004,299.0,,0.24609375,2.23828125,3.52734375,-1.654296875,-0.96484375,1.82421875,-4.33984375,1.64453125,-2.30078125,1.0
3323681,,,,,,,,-0.73046875,0.3515625,3.9921875,-1.322265625,-0.828125,1.77734375,-5.37109375,-0.1171875,-1.8046875,1.0
3323682,,,,,,,,-1.8203125,-1.6328125,4.5078125,-1.28125,-0.744140625,1.759765625,-6.484375,-2.03125,-1.265625,1.0
3323683,,,,,,,,-2.00390625,-4.42578125,7.26953125,-1.361328125,-0.55078125,1.6015625,-6.71484375,-4.67578125,1.52734375,1.0
3323684,,,,,,,,0.2421875,-6.2890625,10.0078125,-1.08984375,-0.419921875,1.435546875,-4.4921875,-6.44140625,4.2890625,1.0
3323685,,,,,,,,2.86328125,-3.859375,9.6015625,-0.349609375,-0.34765625,0.85546875,-1.88671875,-3.9453125,3.90625,1.0
3323686,,,,,,,,3.484375,-2.328125,8.85546875,0.251953125,-0.328125,-0.65234375,-1.2734375,-2.453125,3.171875,1.0
3323687,,,,,,,,4.57421875,2.1015625,7.60546875,0.53515625,-0.3671875,-2.05859375,-0.19921875,1.8359375,1.9453125,1.0
3323688,,,,,,,,4.37890625,5.5859375,7.62890625,0.564453125,-0.341796875,-2.755859375,-0.39453125,5.1328125,1.98828125,1.0
3323689,,,,,,,,4.07421875,6.68359375,7.921875,0.50390625,-0.330078125,-2.833984375,-0.69921875,6.12890625,2.296875,1.0
3323690,36.013021,129.31892933333333,29.68902575154074,68.90573591889499,2.5,307.0,,4.09765625,7.9140625,7.78125,-1.654296875,-0.96484375,1.82421875,-4.33984375,1.64453125,-2.30078125,1.0
3323691,,,,,,,,5.4375,6.75,7.0234375,0.12109375,-0.5078125,-1.57421875,0.6796875,5.859375,1.453125,1.0
3323692,,,,,,,,5.3671875,2.8046875,7.375,0.0234375,-0.681640625,-0.107421875,0.6015625,1.8359375,1.83984375,1.0
3323693,,,,,,,,4.796875,-0.21875,7.296875,-0.314453125,-0.830078125,1.138671875,-0.0078125,-1.1875,1.80078125,1.0
3323694,,,,,,,,4.0625,-7.40234375,6.453125,-0.66796875,-1.021484375,1.728515625,-0.8125,-8.27734375,1.03125,1.0
3323695,,,,,,,,4.0859375,-21.9375,7.125,-0.94140625,-1.15234375,1.916015625,-0.8515625,-22.71875,1.7578125,1.0
3323696,,,,,,,,3.55078125,-30.39453125,7.37109375,-1.1328125,-1.220703125,2.0859375,-1.42578125,-31.1015625,2.02734375,1.0
3323697,,,,,,,,10.35546875,-54.65234375,15.69921875,-1.591796875,-1.3359375,2.18359375,5.31640625,-55.23828125,10.41796875,1.0
3323698,,,,,,,,18.15625,-54.57421875,25.671875,-1.15234375,-0.765625,1.97265625,13.0546875,-55.01171875,20.453125,1.0
3323699,,,,,,,,11.3125,-21.5,15.48046875,1.34765625,-0.310546875,0.91015625,6.1953125,-21.91796875,10.30078125,1.0
3323700,36.013022500000005,129.31892833333333,29.598876326967776,69.07217447673368,2.0,315.0,0.0,-3.7109375,-16.40234375,5.4609375,-1.654296875,-0.96484375,1.82421875,-4.33984375,1.64453125,-2.30078125,1.0
3323701,,,,,,,,-9.65625,-15.06640625,6.1640625,-2.53515625,0.390625,-4.974609375,-14.71875,-15.78515625,0.9921875,1.0
3323702,,,,,,,,-8.9140625,-15.84375,6.5234375,-1.2734375,0.052734375,-2.9765625,-13.9140625,-16.70703125,1.3359375,1.0
3323703,,,,,,,,-2.3125,-18.20703125,9.23046875,0.947265625,-0.33203125,-0.490234375,-7.2890625,-19.19140625,4.05859375,1.0
3323704,,,,,,,,0.37109375,-18.78125,8.38671875,1.482421875,-0.052734375,0.552734375,-4.60546875,-19.8828125,3.25390625,1.0
3323705,,,,,,,,3.1875,-16.91796875,7.20703125,1.1328125,0.015625,0.04296875,-1.7734375,-18.12109375,2.10546875,1.0
3323706,,,,,,,,5.52734375,-14.95703125,8.0390625,0.955078125,0.14453125,-0.373046875,0.56640625,-16.20703125,2.9453125,1.0
3323707,,,,,,,,8.58984375,-13.3125,10.30078125,0.86328125,0.951171875,-0.341796875,3.70703125,-14.75390625,5.20703125,1.0
3323708,,,,,,,,9.23828125,-12.8359375,11.08984375,0.70703125,1.130859375,0.185546875,4.43359375,-14.3671875,5.97265625,1.0
3323709,,,,,,,,7.03125,-13.078125,8.90625,0.318359375,1.119140625,0.384765625,2.328125,-14.71484375,3.75,1.0
3323710,36.013024333333334,129.31892699999997,29.478677159608765,69.2755993501975,2.2,323.0,,6.5234375,-10.5625,5.875,0.35546875,0.74609375,0.541015625,1.90625,-12.2578125,0.6875,1.0
3323711,,,,,,,,6.58984375,-7.62109375,5.0703125,0.5625,0.32421875,0.740234375,2.01953125,-9.38671875,-0.1171875,1.0
3323712,,,,,,,,6.69921875,-6.33203125,6.2421875,0.578125,0.232421875,0.880859375,2.13671875,-8.1171875,1.0703125,1.0
3323713,,,,,,,,6.765625,-5.0,7.3359375,0.37890625,0.107421875,1.166015625,2.2109375,-6.8203125,2.1796875,1.0
3323714,,,,,,,,6.8046875,-4.2265625,7.6640625,0.234375,0.0390625,1.19140625,2.25,-6.05859375,2.5234375,1.0
3323715,,,,,,,,7.6953125,-1.4296875,8.21875,0.01171875,-0.08984375,1.033203125,3.1328125,-3.2578125,3.1015625,1.0
3323716,,,,,,,,8.0859375,0.234375,8.00390625,-0.0390625,-0.1640625,0.669921875,3.51953125,-1.609375,2.91015625,1.0
3323717,,,,,,,,8.69921875,3.34375,6.68359375,0.017578125,-0.2109375,0.439453125,4.125,1.4921875,1.60546875,1.0
3323718,,,,,,,,9.08984375,5.0,5.80078125,0.138671875,-0.326171875,-0.009765625,4.5078125,3.1015625,0.76171875,1.0
3323719,,,,,,,,9.15625,6.05859375,5.1640625,0.1953125,-0.3359375,-0.177734375,4.58984375,4.13671875,0.1484375,1.0
3323720,36.013026833333335,129.31892683333334,29.46365142171907,69.55299740457778,2.8000000000000003,338.0,,9.07421875,6.3515625,4.4140625,0.35546875,0.74609375,0.541015625,4.51171875,4.328125,-0.5390625,1.0
3323721,,,,,,,,8.03125,5.27734375,3.84765625,-0.412109375,-0.25390625,-0.197265625,3.4765625,3.21484375,-1.07421875,1.0
3323722,,,,,,,,6.29296875,3.38671875,3.5703125,-0.853515625,-0.14453125,0.09375,1.75390625,1.30078125,-1.34375,1.0
3323723,,,,,,,,5.52734375,2.69140625,3.5625,-1.083984375,-0.072265625,0.240234375,0.98828125,0.61328125,-1.34765625,1.0
3323724,,,,,,,,3.79296875,1.42578125,4.18359375,-1.478515625,0.0625,0.490234375,-0.73828125,-0.61328125,-0.73046875,1.0
3323725,,,,,,,,2.5078125,1.15625,6.0546875,-1.98046875,0.21484375,0.716796875,-2.0,-0.765625,1.109375,1.0
3323726,,,,,,,,2.56640625,1.48828125,7.33984375,-1.9609375,0.240234375,0.689453125,-1.92578125,-0.34765625,2.37109375,1.0
3323727,,,,,,,,3.96875,1.99609375,7.171875,-1.4765625,0.255859375,0.443359375,-0.5078125,0.23046875,2.1796875,1.0
3323728,,,,,,,,4.796875,2.57421875,6.72265625,-1.189453125,0.240234375,0.234375,0.3359375,0.83984375,1.71875,1.0
3323729,,,,,,,,5.6015625,3.16015625,6.1171875,-0.841796875,0.126953125,-0.498046875,1.1796875,1.4140625,1.109375,1.0
3323730,36.013028999999996,129.318926,29.388526569724263,69.79340884370455,2.5,341.0,,7.5234375,2.63671875,6.26953125,-1.0546875,-0.02734375,-0.701171875,3.1328125,0.87890625,1.26171875,1.0
3323731,,,,,,,,8.140625,0.875,7.80078125,-1.44921875,-0.201171875,-0.4921875,3.78125,-0.8828125,2.79296875,1.0
3323732,,,,,,,,6.07421875,-8.40234375,9.05859375,-2.478515625,-0.521484375,0.35546875,1.71484375,-10.0703125,4.05859375,1.0
3323733,,,,,,,,2.13671875,-22.73828125,14.84375,-2.703125,-0.525390625,0.681640625,-2.23046875,-24.36328125,9.84375,1.0
3323734,,,,,,,,-1.48828125,-42.69140625,22.28125,-2.453125,-0.27734375,1.37109375,-5.87109375,-44.16796875,17.2734375,1.0
3323735,,,,,,,,-5.53125,-52.37890625,11.48046875,-1.244140625,-0.134765625,1.587890625,-9.9296875,-53.7421875,6.47265625,1.0
3323736,,,,,,,,-4.3359375,-21.87890625,13.0625,0.041015625,-0.279296875,0.474609375,-8.7421875,-23.2109375,8.078125,1.0
3323737,,,,,,,,3.77734375,-16.2421875,5.2265625,-2.654296875,-0.287109375,-0.998046875,-0.62109375,-17.5859375,0.265625,1.0
3323738,,,,,,,,7.0234375,-16.44140625,2.62890625,-3.140625,-0.171875,-2.234375,2.6328125,-17.77734375,-2.33984375,1.0
3323739,,,,,,,,11.60546875,-19.1796875,12.4453125,-1.8125,-0.21875,-3.13671875,7.26953125,-20.5703125,7.46875,1.0
3323740,36.013030666666666,129.3189255,29.343451525166778,69.97834076457283,2.0,344.0,,7.84375,-22.0078125,16.06640625,-3.34765625,-1.107421875,0.072265625,3.515625,-23.41015625,11.10546875,1.0
3323741,,,,,,,,5.1328125,-20.80859375,9.26171875,-3.5546875,-1.25390625,0.666015625,0.7578125,-22.0625,4.32421875,1.0
3323742,,,,,,,,2.3828125,-16.3359375,5.44140625,-3.21875,-1.353515625,-0.125,-2.0390625,-17.46875,0.53515625,1.0
3323743,,,,,,,,1.5546875,-15.9921875,5.9921875,-3.125,-1.44140625,-0.3203125,-2.8828125,-17.08984375,1.109375,1.0
3323744,,,,,,,,1.10546875,-15.3203125,6.5703125,-3.373046875,-1.7265625,-0.056640625,-3.41796875,-16.28515625,1.7578125,1.0
3323745,,,,,,,,0.78515625,-13.24609375,5.88671875,-3.37109375,-1.83203125,0.13671875,-3.80078125,-14.09765625,1.14453125,1.0
3323746,,,,,,,,-0.02734375,-10.25390625,4.41015625,-3.12109375,-1.77734375,0.169921875,-4.68359375,-10.99609375,-0.26953125,1.0
3323747,,,,,,,,-1.46484375,-7.2421875,3.54296875,-3.103515625,-1.615234375,0.228515625,-6.17578125,-7.89453125,-1.07421875,1.0
3323748,,,,,,,,-1.7109375,-6.44140625,3.35546875,-3.1171875,-1.509765625,0.298828125,-6.4453125,-7.046875,-1.23046875,1.0
3323749,,,,,,,,-1.984375,-4.19140625,3.5546875,-3.021484375,-1.142578125,0.630859375,-6.79296875,-4.63671875,-0.9609375,1.0
3323750,36.013033,129.318926,29.38852508491963,70.23724581375585,2.6,354.0,,-1.9921875,-0.28515625,4.28125,-2.87109375,-0.951171875,0.77734375,-6.83203125,-0.61328125,-0.1953125,1.0
3323751,,,,,,,,-1.31640625,1.64453125,4.16796875,-2.595703125,-0.828125,0.861328125,-6.17578125,1.41796875,-0.26953125,1.0
3323752,,,,,,,,-0.56640625,2.390625,4.328125,-2.08203125,-0.7265625,0.890625,-5.4453125,2.2578125,-0.078125,1.0
3323753,,,,,,,,1.02734375,2.7265625,4.47265625,-1.2265625,-0.68359375,0.88671875,-3.87890625,2.6796875,0.11328125,1.0
3323754,,,,,,,,1.38671875,1.65234375,4.32421875,-0.67578125,-0.64453125,0.806640625,-3.53515625,1.64453125,-0.00390625,1.0
3323755,,,,,,,,1.1640625,-1.296875,5.22265625,-0.34375,-0.537109375,0.658203125,-3.765625,-1.3046875,0.91796875,1.0
3323756,,,,,,,,1.2109375,-2.0625,5.7890625,-0.291015625,-0.474609375,0.591796875,-3.73046875,-2.0703125,1.4921875,1.0
3323757,,,,,,,,2.1015625,-3.39453125,7.05859375,-0.341796875,-0.365234375,0.427734375,-2.84375,-3.41015625,2.79296875,1.0
3323758,,,,,,,,3.671875,-2.51171875,7.234375,-0.150390625,-0.291015625,-0.1875,-1.2734375,-2.56640625,2.984375,1.0
3323759,,,,,,,,5.04296875,0.8125,6.1171875,-0.16015625,-0.310546875,-0.84765625,0.10546875,0.6875,1.87890625,1.0
3323760,36.01303533333333,129.31892683333334,29.46364825856402,70.49615096332175,2.7,1.0,,5.6171875,2.5546875,5.78515625,-2.87109375,-0.951171875,0.77734375,-6.83203125,-0.61328125,-0.1953125,1.0
3323761,,,,,,,,5.84765625,4.6015625,6.5,-0.1328125,-0.341796875,-1.13671875,0.91015625,4.29296875,2.296875,1.0
3323762,,,,,,,,4.99609375,4.19140625,6.63671875,-0.134765625,-0.37890625,-0.7265625,0.06640625,3.7890625,2.44921875,1.0
3323763,,,,,,,,4.99609375,4.23046875,6.62109375,-0.251953125,-0.4609375,-0.1953125,-0.31640625,2.140625,2.10546875,1.0
3323764,,,,,,,,4.5078125,1.77734375,6.13671875,-0.146484375,-0.5078125,0.19140625,-0.62109375,-1.45703125,2.02734375,1.0
3323765,,,,,,,,4.4375,-2.91015625,6.2734375,0.107421875,-0.541015625,0.42578125,-0.27734375,-6.01953125,2.71484375,1.0
3323766,,,,,,,,5.2421875,-13.3046875,9.34765625,0.306640625,-0.58984375,0.6875,0.98828125,-19.921875,7.66015625,1.0
3323767,,,,,,,,7.01953125,-26.7734375,14.40234375,0.23046875,-0.59765625,1.0546875,3.32421875,-34.82421875,12.1796875,1.0
3323768,,,,,,,,8.29296875,-34.27734375,16.2265625,0.12890625,-0.61328125,1.2734375,7.3828125,-45.55078125,17.734375,1.0
3323769,,,,,,,,13.28125,-43.9375,23.16796875,-0.11328125,-0.486328125,1.505859375,6.46484375,-34.86328125,16.1640625,1.0
3323770,36.01303766666667,129.31892783333333,29.553796235193097,70.75505616542637,2.6,13.0,,5.6171875,2.5546875,5.78515625,-0.279296875,-0.166015625,0.935546875,1.21484375,-15.515625,5.89453125,1.0
3323771,,,,,,,,4.35546875,-14.32421875,9.88671875,-0.51171875,0.228515625,-2.40625,-5.41015625,-15.82421875,6.43359375,1.0
3323772,,,,,,,,-0.44921875,-15.21875,10.39453125,-0.619140625,0.158203125,-2.599609375,-5.37109375,-19.15625,6.31640625,1.0
3323773,,,,,,,,0.30078125,-19.55859375,10.578125,0.830078125,-0.0390625,-0.451171875,-4.0703125,-20.37890625,6.28125,1.0
3323774,,,,,,,,1.39453125,-19.10546875,9.94140625,1.43359375,0.0859375,0.0234375,-2.15625,-19.5390625,5.859375,1.0
3323775,,,,,,,,3.48046875,-18.31640625,9.96484375,1.279296875,0.31640625,-0.08984375,-0.23828125,-19.1875,6.01171875,1.0
3323776,,,,,,,,4.61328125,-18.09765625,9.91015625,1.291015625,0.57421875,0.052734375,-0.0078125,-19.0390625,5.62890625,1.0
3323777,,,,,,,,4.86328125,-16.80078125,8.63671875,1.455078125,0.818359375,0.193359375,0.02734375,-17.47265625,4.36328125,1.0
3323778,,,,,,,,5.1171875,-14.4765625,7.49609375,1.38671875,1.029296875,0.326171875,0.87109375,-14.8984375,3.4453125,1.0
3323779,,,,,,,,5.59765625,-13.51171875,7.34375,1.310546875,1.08203125,0.361328125,1.29296875,-13.8671875,3.40625,1.0
3323780,36.0130395,129.3189285,29.613894777982445,70.95848164527979,2.2,15.0,,5.6171875,2.5546875,5.78515625,1.240234375,1.1171875,0.466796875,2.48046875,-11.375,2.5625,1.0
3323781,,,,,,,,7.59375,-9.28125,6.1796875,1.216796875,0.990234375,0.5234375,3.58984375,-9.6875,1.68359375,1.0
3323782,,,,,,,,8.25390625,-7.6015625,5.3828125,1.12890625,0.8203125,0.607421875,3.78125,-8.390625,0.91796875,1.0
3323783,,,,,,,,8.48046875,-6.07421875,4.6171875,0.982421875,0.66015625,0.65625,4.08984375,-6.4375,0.5703125,1.0
3323784,,,,,,,,8.640625,-2.953125,4.37890625,0.84765625,0.494140625,0.671875,4.125,-3.83203125,0.2265625,1.0
3323785,,,,,,,,8.49609375,-1.08984375,4.046875,0.689453125,0.322265625,0.677734375,4.05078125,-2.14453125,0.03515625,1.0
3323786,,,,,,,,8.48828125,-0.26953125,3.92578125,0.6171875,0.251953125,0.67578125,3.51953125,-0.34765625,-0.1953125,1.0
3323787,,,,,,,,7.66796875,1.9609375,3.48046875,0.5703125,0.1796875,0.6875,2.8203125,0.95703125,-0.65234375,1.0
3323788,,,,,,,,7.046875,3.60546875,3.02734375,0.494140625,0.115234375,0.6796875,2.37109375,1.9140625,-0.9609375,1.0
3323789,,,,,,,,6.54296875,4.3671875,2.765625,0.302734375,0.14453125,0.658203125,1.4453125,2.68359375,-0.9609375,1.0
3323790,36.013041333333334,129.3189305,29.794191773706586,71.16190753291764,2.6,21.0,,5.60546875,4.47265625,2.7890625,0.001953125,0.1796875,0.65625,1.1015625,2.02734375,-1.0390625,1.0
3323791,,,,,,,,5.74609375,2.8515625,2.8046875,-0.314453125,0.21484375,0.685546875,1.63671875,-0.0390625,-0.73046875,1.0
3323792,,,,,,,,6.578125,0.55078125,3.90625,-0.498046875,0.244140625,0.755859375,2.2890625,-2.14453125,0.609375,1.0
3323793,,,,,,,,6.6484375,-0.61328125,4.93359375,-0.671875,0.294921875,0.689453125,2.2109375,-2.8359375,1.68359375,1.0
3323794,,,,,,,,5.828125,-0.3515625,6.55078125,-0.802734375,0.408203125,0.326171875,1.0625,-2.03125,3.2109375,1.0
3323795,,,,,,,,5.15234375,0.375,7.25,-0.876953125,0.548828125,-0.236328125,0.44921875,-0.4609375,3.7109375,1.0
3323796,,,,,,,,4.74609375,1.5625,7.484375,-0.8671875,0.595703125,-0.56640625,0.3359375,0.34375,3.5546875,1.0
3323797,,,,,,,,4.6171875,3.36328125,7.08984375,-0.796875,0.611328125,-1.103515625,0.640625,2.06640625,2.90625,1.0
3323798,,,,,,,,5.39453125,6.0625,6.0703125,-0.75,0.541015625,-1.314453125,1.5234375,4.4765625,2.10546875,1.0
3323799,,,,,,,,5.87109375,7.07421875,5.625,-0.966796875,0.380859375,-1.03515625,1.75390625,4.8984375,1.796875,1.0
