time,latitude,longitude,enu_x,enu_y,speed,course,ecg,accX,accY,accZ,gyrX,gyrY,gyrZ,eulR,eulP,eulY,validity
3320080,36.0130215,129.31896566666668,32.964434255660464,68.96122721858255,2.9000000000000004,244.0,,6.359375,3.45703125,-1.9296875,1.169921875,0.1015625,0.33203125,0.640625,-16.46875,2.640625,1.0
3320081,,,,,,,,6.11328125,6.65234375,-2.52734375,0.470703125,-0.12890625,0.568359375,2.78515625,2.8671875,0.03515625,1.0
3320082,,,,,,,,6.58203125,7.53515625,-3.33984375,0.265625,-0.19921875,0.1953125,3.24609375,3.75390625,-0.73046875,1.0
3320083,,,,,,,,6.96484375,7.3046875,-3.609375,0.185546875,-0.2109375,0.10546875,3.62890625,3.5234375,-1.0,1.0
3320084,,,,,,,,8.94140625,5.3984375,-4.3125,0.12109375,-0.234375,0.00390625,5.62109375,1.609375,-1.6875,1.0
3320085,,,,,,,,9.35546875,4.30078125,-4.2890625,0.044921875,-0.263671875,0.029296875,6.04296875,0.49609375,-1.6484375,1.0
3320086,,,,,,,,8.375,2.02734375,-4.453125,-0.46875,-0.25,0.251953125,5.08984375,-1.80078125,-1.8046875,1.0
3320087,,,,,,,,6.0,1.20703125,-3.96875,-1.083984375,-0.16796875,0.259765625,2.71484375,-2.64453125,-1.34375,1.0
3320088,,,,,,,,5.109375,1.3359375,-3.5234375,-1.474609375,-0.1171875,0.185546875,1.828125,-2.53125,-0.921875,1.0
3320089,,,,,,,,2.6875,2.3203125,-1.5,-2.267578125,-0.048828125,0.01171875,-0.5859375,-1.61328125,1.03125,1.0
3320090,36.01302033333333,129.3189625,32.67896333652594,68.8317737030893,3.1,245.0,,1.53125,3.5078125,0.69921875,1.169921875,0.1015625,0.33203125,-1.734375,-0.5,3.1328125,1.0
3320091,,,,,,,,0.89453125,4.8203125,1.921875,-2.30078125,0.142578125,-0.443359375,-2.34765625,0.7265625,4.25390625,1.0
3320092,,,,,,,,1.73046875,6.453125,0.93359375,-1.24609375,0.265625,-0.890625,-1.46484375,2.2578125,3.1328125,1.0
3320093,,,,,,,,3.21484375,7.93359375,0.29296875,-0.6796875,0.24609375,-1.1171875,0.06640625,3.67578125,2.44921875,1.0
3320094,,,,,,,,4.1953125,7.3828125,0.62890625,-0.76953125,0.146484375,-1.068359375,1.1015625,3.06640625,2.75390625,1.0
3320095,,,,,,,,3.2578125,1.65234375,0.53125,-1.396484375,0.00390625,-0.787109375,0.21875,-2.72265625,2.6015625,1.0
3320096,,,,,,,,2.70703125,-1.80078125,0.1015625,-1.830078125,-0.07421875,-0.55078125,-0.31640625,-6.20703125,2.140625,1.0
3320097,,,,,,,,0.31640625,-16.37890625,2.6171875,-2.48828125,-0.154296875,0.240234375,-2.69140625,-20.8359375,4.5546875,1.0
3320098,,,,,,,,-12.41796875,-55.078125,22.75390625,-2.318359375,0.0703125,1.671875,-15.44921875,-59.5703125,24.58984375,1.0
3320099,,,,,,,,-9.06640625,-45.36328125,4.4921875,-1.103515625,-0.134765625,2.6953125,-12.19140625,-49.8359375,6.2421875,1.0
3320100,36.01301866666667,129.31895966666667,32.42354223769103,68.6468406877118,3.2,240.0,0.0,-6.8359375,-16.00390625,3.46484375,1.169921875,0.1015625,0.33203125,-10.046875,-20.41796875,5.24609375,1.0
3320101,,,,,,,,4.640625,-11.33984375,-4.84765625,-2.552734375,-0.099609375,-1.611328125,1.4453125,-15.78515625,-3.06640625,1.0
3320102,,,,,,,,15.35546875,-17.578125,-0.609375,-2.44140625,0.384765625,-3.314453125,12.28515625,-22.18359375,1.03125,1.0
3320103,,,,,,,,10.08203125,-15.9453125,11.50390625,-1.890625,-0.341796875,-0.6796875,7.19140625,-20.73046875,13.01953125,1.0
3320104,,,,,,,,6.86328125,-16.45703125,5.35546875,-4.544921875,-0.8515625,0.833984375,3.97265625,-21.296875,6.73828125,1.0
3320105,,,,,,,,4.18359375,-14.81640625,-0.79296875,-4.63671875,-0.916015625,0.1328125,1.29296875,-19.7265625,0.37890625,1.0
3320106,,,,,,,,4.09765625,-13.93359375,-2.31640625,-4.3359375,-1.029296875,-0.28125,1.21484375,-18.88671875,-1.23046875,1.0
3320107,,,,,,,,1.0625,-11.05078125,-2.25,-3.76953125,-1.521484375,-0.533203125,-1.7734375,-16.0859375,-1.34375,1.0
3320108,,,,,,,,-0.58984375,-10.60546875,0.41015625,-3.44921875,-1.73828125,-0.091796875,-3.37890625,-15.70703125,1.18359375,1.0
3320109,,,,,,,,-1.01171875,-8.47265625,0.96484375,-3.75,-1.654296875,0.818359375,-3.80078125,-13.63671875,1.52734375,1.0
3320110,36.01301816666667,129.31895716666668,32.19817027584565,68.59136023657263,2.5,246.0,,-2.0625,-6.3828125,0.04296875,-3.5390625,-1.548828125,0.6953125,-4.875,-11.5703125,0.45703125,1.0
3320111,,,,,,,,-2.96484375,-3.140625,-1.72265625,-3.5625,-1.453125,0.34375,-5.79296875,-8.35546875,-1.45703125,1.0
3320112,,,,,,,,-3.9609375,-1.00390625,-2.82421875,-3.791015625,-1.21875,0.166015625,-6.7890625,-6.24609375,-2.72265625,1.0
3320113,,,,,,,,-4.3046875,0.8515625,-3.7109375,-3.8671875,-1.076171875,0.302734375,-7.1328125,-4.40625,-3.796875,1.0
3320114,,,,,,,,-3.515625,3.234375,-3.1484375,-3.65625,-0.869140625,0.73046875,-6.3671875,-2.03125,-3.4140625,1.0
3320115,,,,,,,,-2.89453125,5.36328125,-1.7578125,-3.208984375,-0.75,1.302734375,-5.7890625,0.11328125,-2.1875,1.0
3320116,,,,,,,,-2.55078125,6.796875,-1.02734375,-2.93359375,-0.734375,1.544921875,-5.484375,1.5703125,-1.53515625,1.0
3320117,,,,,,,,-0.12109375,8.47265625,0.0234375,-2.337890625,-0.77734375,1.802734375,-3.15234375,3.2890625,-0.6171875,1.0
3320118,,,,,,,,0.96484375,8.140625,-0.73828125,-1.21875,-0.81640625,1.509765625,-2.19140625,3.02734375,-1.49609375,1.0
3320119,,,,,,,,1.0390625,7.66015625,-1.05859375,-0.8359375,-0.806640625,1.328125,-2.15625,2.56640625,-1.83984375,1.0
3320120,36.01301766666666,129.3189545,31.95777349752497,68.53587973770244,2.7,252.0,,0.63671875,5.4609375,-1.05078125,-3.5390625,-1.548828125,0.6953125,-2.61328125,0.3828125,-1.83984375,1.0
3320121,,,,,,,,0.69140625,3.3359375,-0.43359375,-0.169921875,-0.578125,1.021484375,-2.609375,-1.7265625,-1.23046875,1.0
3320122,,,,,,,,2.3984375,-0.171875,0.83203125,-0.271484375,-0.556640625,1.076171875,-0.96875,-5.21484375,0.03515625,1.0
3320123,,,,,,,,4.0390625,0.48828125,2.52734375,0.013671875,-0.650390625,0.66796875,0.6015625,-4.515625,1.72265625,1.0
3320124,,,,,,,,4.171875,2.1796875,4.2421875,0.021484375,-0.6796875,0.08203125,0.71875,-2.8359375,3.44921875,1.0
3320125,,,,,,,,3.8203125,4.234375,5.375,0.02734375,-0.58203125,-0.533203125,0.375,-0.8046875,4.59375,1.0
3320126,,,,,,,,3.6640625,6.80859375,4.6015625,0.125,-0.36328125,-1.26171875,0.2578125,1.72265625,3.83203125,1.0
3320127,,,,,,,,2.91796875,9.16796875,3.14453125,-0.095703125,-0.193359375,-1.919921875,-0.39453125,4.01953125,2.37109375,1.0
3320128,,,,,,,,1.30078125,10.08984375,3.3828125,-1.287109375,-0.19921875,-2.103515625,-1.84765625,4.8203125,2.5625,1.0
3320129,,,,,,,,0.05078125,8.375,3.23828125,-1.736328125,-0.263671875,-1.626953125,-2.99609375,3.0625,2.33203125,1.0
3320130,36.01301733333333,129.31895133333333,31.672302216716993,68.4988922903279,2.7,259.0,,-0.25,5.1875,3.32421875,-1.392578125,-0.3125,-0.861328125,-3.23046875,-0.15625,2.33203125,1.0
3320131,,,,,,,,0.21484375,1.91015625,2.3828125,-0.857421875,-0.44140625,-0.017578125,-2.73046875,-3.44921875,1.3359375,1.0
3320132,,,,,,,,-0.11328125,-2.91796875,1.98046875,-0.650390625,-0.529296875,0.35546875,-3.07421875,-8.2734375,0.91796875,1.0
3320133,,,,,,,,-0.51171875,-15.25,3.05078125,-0.6875,-0.865234375,1.16015625,-3.53515625,-20.57421875,1.94921875,1.0
3320134,,,,,,,,2.5546875,-37.67578125,3.48046875,-0.880859375,-0.953125,1.328125,-0.5078125,-42.9765625,2.37109375,1.0
3320135,,,,,,,,17.86328125,-61.40625,13.7109375,-0.84375,-0.9609375,1.037109375,14.69921875,-66.65625,12.5625,1.0
3320136,,,,,,,,10.3359375,-29.00390625,18.64453125,0.599609375,-0.484375,0.83203125,7.1171875,-34.2421875,17.50390625,1.0
3320137,,,,,,,,3.68359375,-24.9453125,7.6640625,1.33984375,-0.63671875,0.841796875,0.44921875,-30.1875,6.546875,1.0
3320138,,,,,,,,-8.64453125,-14.35546875,0.953125,-1.296875,0.43359375,-2.97265625,-11.84765625,-19.6484375,-0.15625,1.0
3320139,,,,,,,,-10.20703125,-12.6171875,0.42578125,-1.58203125,0.443359375,-4.115234375,-13.30078125,-17.97265625,-0.73046875,1.0
3320140,36.013017,129.31894833333334,31.401855746500026,68.46190490590456,2.7,259.0,,-10.45703125,-9.6875,0.2734375,-0.34765625,0.642578125,-3.5703125,-13.33984375,-15.17578125,-0.9609375,1.0
3320141,,,,,,,,-7.05078125,-7.28515625,0.51953125,1.587890625,0.375,-1.26171875,-9.77734375,-12.8671875,-0.69140625,1.0
3320142,,,,,,,,-3.015625,-5.4296875,3.62890625,1.23046875,0.41015625,0.32421875,-5.71875,-11.07421875,2.48828125,1.0
3320143,,,,,,,,1.0234375,-4.53515625,2.5625,0.201171875,0.369140625,0.4765625,-1.6953125,-10.19140625,1.453125,1.0
3320144,,,,,,,,4.1640625,-3.546875,2.30078125,0.34375,0.517578125,-0.078125,1.4453125,-9.23828125,1.18359375,1.0
3320145,,,,,,,,9.07421875,-2.91796875,3.98046875,1.26171875,1.134765625,0.03515625,6.38671875,-8.66015625,2.91015625,1.0
3320146,,,,,,,,7.23046875,-1.96484375,4.0546875,1.25,1.1640625,0.513671875,4.55078125,-7.73828125,3.0234375,1.0
3320147,,,,,,,,4.953125,-1.61328125,3.07421875,0.443359375,0.91015625,0.89453125,2.25,-7.390625,2.06640625,1.0
3320148,,,,,,,,4.00390625,-0.76953125,1.59375,-0.30859375,0.568359375,0.95703125,1.25390625,-6.55078125,0.5703125,1.0
3320149,,,,,,,,4.88671875,1.06640625,0.8125,-0.1015625,0.265625,0.90234375,2.09765625,-4.71484375,-0.234375,1.0
3320150,36.01301766666666,129.31894516666668,31.11638406995445,68.53587671692642,3.0,273.0,,5.1015625,3.7890625,0.37890625,0.49609375,-0.216796875,0.82421875,2.25390625,-1.9921875,-0.65234375,1.0
3320151,,,,,,,,5.59375,5.40625,0.5,0.52734375,-0.599609375,0.765625,2.67578125,-0.3828125,-0.4609375,1.0
3320152,,,,,,,,6.4140625,6.32421875,0.8203125,0.474609375,-0.650390625,0.73828125,3.4765625,0.53515625,-0.1171875,1.0
3320153,,,,,,,,7.71875,7.51953125,1.69140625,0.337890625,-0.69140625,0.69921875,4.7421875,1.72265625,0.80078125,1.0
3320154,,,,,,,,8.73828125,8.0078125,2.28125,0.29296875,-0.70703125,0.71484375,5.734375,2.21875,1.4140625,1.0
3320155,,,,,,,,7.75,6.75390625,1.015625,-0.10546875,-0.712890625,0.48828125,4.70703125,0.95703125,0.1875,1.0
3320156,,,,,,,,6.38671875,5.03125,-0.33203125,-0.333984375,-0.65625,0.349609375,3.32421875,-0.765625,-1.15234375,1.0
3320157,,,,,,,,5.05078125,4.37890625,-0.69921875,-0.814453125,-0.4921875,0.13671875,1.9765625,-1.41796875,-1.53515625,1.0
3320158,,,,,,,,3.8203125,4.76953125,-0.453125,-1.080078125,-0.412109375,0.09375,0.7578125,-1.03515625,-1.3046875,1.0
3320159,,,,,,,,2.78515625,5.7265625,0.296875,-1.615234375,-0.30078125,0.107421875,-0.27734375,-0.078125,-0.62109375,1.0
3320160,36.0130185,129.31894216666666,30.845937140171948,68.62834179844488,2.8000000000000003,282.0,,2.6328125,6.140625,1.140625,0.49609375,-0.216796875,0.82421875,-0.4296875,0.34375,0.1875,1.0
3320161,,,,,,,,4.1171875,5.6796875,2.515625,-1.798828125,-0.111328125,-0.041015625,1.0625,-0.1171875,1.453125,1.0
3320162,,,,,,,,6.36328125,5.56640625,4.1015625,-1.4296875,0.01953125,-0.21484375,3.3203125,-0.23046875,2.9453125,1.0
3320163,,,,,,,,7.21875,6.25390625,7.046875,-1.314453125,0.05859375,-0.38671875,4.203125,0.45703125,5.82421875,1.0
3320164,,,,,,,,4.921875,6.79296875,6.91796875,-2.138671875,-0.01953125,-0.36328125,1.9453125,0.99609375,5.5859375,1.0
3320165,,,,,,,,3.96875,6.4609375,5.15234375,-3.07421875,-0.134765625,-0.13671875,1.0234375,0.6875,3.59375,1.0
3320166,,,,,,,,7.25,-0.203125,4.015625,-2.6875,-0.240234375,0.015625,4.3203125,-5.9375,2.296875,1.0
3320167,,,,,,,,4.7265625,-18.109375,2.9609375,-2.00390625,-0.14453125,0.78125,1.7890625,-23.79296875,1.0703125,1.0
3320168,,,,,,,,-22.7890625,-61.84375,31.38671875,-2.169921875,0.13671875,1.458984375,-25.7890625,-67.46484375,29.37890625,1.0
3320169,,,,,,,,-24.22265625,-55.32421875,15.84375,-2.234375,0.015625,1.48046875,-27.28515625,-60.8671875,13.7109375,1.0
3320170,36.01301866666667,129.3189395,30.605540098737137,68.64683416556959,2.5,277.0,,-17.30859375,-23.37109375,10.7265625,0.9765625,-0.185546875,0.177734375,-20.42578125,-28.8828125,8.578125,1.0
3320171,,,,,,,,9.67578125,-11.140625,-0.609375,-2.072265625,0.296875,-3.904296875,6.84765625,-16.78125,-2.953125,1.0
3320172,,,,,,,,15.12109375,-11.30078125,6.609375,-1.630859375,0.134765625,-3.361328125,12.40234375,-16.97265625,4.2109375,1.0
3320173,,,,,,,,6.21484375,-14.43359375,14.75390625,-2.4765625,-0.544921875,-1.16015625,3.62890625,-20.1484375,12.25390625,1.0
3320174,,,,,,,,1.79296875,-17.296875,8.58203125,-3.6171875,-0.828125,-0.01953125,-0.77734375,-22.984375,6.01171875,1.0
3320175,,,,,,,,0.72265625,-16.55078125,4.703125,-4.5234375,-0.84765625,0.65625,-1.88671875,-22.14453125,1.9140625,1.0
3320176,,,,,,,,-0.08203125,-14.96484375,4.51171875,-3.810546875,-0.935546875,0.080078125,-2.73046875,-20.453125,1.52734375,1.0
3320177,,,,,,,,-0.72265625,-14.4296875,5.09765625,-3.3359375,-1.080078125,-0.076171875,-3.37890625,-19.8828125,2.02734375,1.0
3320178,,,,,,,,-1.4296875,-12.00390625,6.37890625,-2.82421875,-1.24609375,-0.072265625,-4.109375,-17.390625,3.17578125,1.0
3320179,,,,,,,,-1.34375,-11.19140625,6.42578125,-2.837890625,-1.33203125,0.00390625,-4.03125,-16.546875,3.17578125,1.0
3320180,36.01301933333333,129.31893733333334,30.410217301530736,68.7208063150367,2.2,285.0,,-2.5703125,-6.47265625,4.828125,-3.171875,-1.18359375,0.005859375,-5.3359375,-11.68359375,1.3359375,1.0
3320181,,,,,,,,-2.7890625,-3.11328125,2.16015625,-3.349609375,-1.166015625,-0.119140625,-5.6015625,-8.19921875,-1.53515625,1.0
3320182,,,,,,,,-2.26171875,-1.1015625,1.83203125,-3.3203125,-1.091796875,0.1484375,-5.10546875,-6.09375,-1.99609375,1.0
3320183,,,,,,,,-1.6640625,0.33984375,2.4765625,-3.26171875,-1.044921875,0.369140625,-4.53125,-4.59375,-1.421875,1.0
3320184,,,,,,,,-1.33203125,1.9453125,2.71875,-3.044921875,-1.029296875,0.841796875,-4.26171875,-2.875,-1.3046875,1.0
3320185,,,,,,,,-1.28515625,3.74609375,2.7890625,-2.712890625,-1.001953125,1.162109375,-4.296875,-0.95703125,-1.34375,1.0
3320186,,,,,,,,-1.11328125,6.5390625,3.41015625,-2.3984375,-0.9921875,1.302734375,-4.21875,1.953125,-0.80859375,1.0
3320187,,,,,,,,-1.44140625,7.65625,3.98046875,-2.099609375,-1.013671875,1.47265625,-4.640625,3.1796875,-0.30859375,1.0
3320188,,,,,,,,-1.578125,8.05859375,4.125,-1.95703125,-0.986328125,1.533203125,-4.83984375,3.63671875,-0.1953125,1.0
3320189,,,,,,,,-1.59375,7.7265625,4.09765625,-1.576171875,-0.93359375,1.56640625,-4.95703125,3.40625,-0.26953125,1.0
3320190,36.01302116666667,129.31893483333334,30.18484443872424,68.92423081407672,2.9000000000000004,299.0,,-1.7109375,7.09765625,4.90234375,-0.951171875,-0.75390625,1.4609375,-5.21875,2.91015625,0.49609375,1.0
3320191,,,,,,,,-0.546875,4.1640625,4.6796875,-0.560546875,-0.6640625,1.505859375,-4.1484375,0.0390625,0.265625,1.0
3320192,,,,,,,,0.91015625,2.4765625,4.10546875,-0.2265625,-0.60546875,1.16015625,-2.765625,-1.609375,-0.30859375,1.0
3320193,,,,,,,,2.8828125,1.6875,4.28125,-0.1875,-0.615234375,0.30859375,-0.8515625,-2.375,-0.1171875,1.0
3320194,,,,,,,,4.58984375,1.546875,5.56640625,-0.18359375,-0.728515625,-0.298828125,0.83203125,-2.53515625,1.18359375,1.0
3320195,,,,,,,,4.9453125,2.57421875,6.73046875,-0.01953125,-0.763671875,-0.62109375,1.1796875,-1.53515625,2.3671875,1.0
3320196,,,,,,,,5.203125,4.61328125,8.26953125,0.12109375,-0.7734375,-0.84765625,1.4453125,0.45703125,3.94140625,1.0
3320197,,,,,,,,4.78125,5.7890625,8.5390625,-0.037109375,-0.76953125,-1.041015625,1.0234375,1.5703125,4.25,1.0
3320198,,,,,,,,4.19140625,7.3671875,7.7578125,-0.40625,-0.814453125,-1.18359375,0.44921875,3.1015625,3.48828125,1.0
3320199,,,,,,,,3.78515625,7.90625,6.8984375,-0.69921875,-0.84375,-1.03125,0.06640625,3.60546875,2.640625,1.0
3320200,36.013022666666664,129.31893316666668,30.03459576464688,69.0906691626149,2.4000000000000004,307.0,0.0,3.08984375,7.1171875,5.640625,-0.91796875,-0.82421875,-0.5703125,-0.62109375,2.796875,1.375,1.0
3320201,,,,,,,,2.64453125,6.203125,5.57421875,-1.052734375,-0.8515625,-0.03125,-1.08203125,1.91796875,1.30078125,1.0
3320202,,,,,,,,1.609375,4.2578125,5.88671875,-1.04296875,-0.865234375,0.373046875,-2.15625,0.0,1.60546875,1.0
3320203,,,,,,,,1.6640625,1.94140625,5.3125,-0.810546875,-0.859375,0.62109375,-2.15625,-2.2578125,1.03125,1.0
3320204,,,,,,,,1.0703125,-4.48828125,4.9609375,-0.5859375,-0.837890625,0.71484375,-2.8046875,-8.65625,0.6875,1.0
3320205,,,,,,,,0.94140625,-14.9921875,5.7109375,-0.54296875,-0.869140625,0.916015625,-2.99609375,-19.1171875,1.453125,1.0
3320206,,,,,,,,1.5078125,-19.765625,5.89453125,-0.521484375,-0.87890625,1.115234375,-2.4609375,-23.8671875,1.64453125,1.0
3320207,,,,,,,,5.65234375,-37.6328125,10.12890625,-0.2734375,-0.869140625,1.58203125,1.59765625,-41.6796875,5.89453125,1.0
3320208,,,,,,,,18.20703125,-48.64453125,22.12109375,-0.037109375,-0.771484375,1.81640625,14.05078125,-52.63671875,17.92578125,1.0
3320209,,,,,,,,9.02734375,-27.734375,18.94140625,0.5546875,-0.439453125,1.751953125,4.77734375,-31.6796875,14.78515625,1.0
3320210,36.013024,129.31893200000002,29.929421588569113,69.23861446038015,1.8,312.0,,-7.12890625,-16.796875,3.203125,-1.33203125,-0.07421875,-1.294921875,-11.42578125,-20.73046875,-0.921875,1.0
3320211,,,,,,,,-8.6171875,-16.3359375,5.125,-1.025390625,-0.138671875,-3.158203125,-9.546875,-20.30859375,1.60546875,1.0
3320212,,,,,,,,-5.4296875,-16.234375,5.79296875,-0.01953125,-0.421875,-2.24609375,-7.40234375,-20.109375,2.44921875,1.0
3320213,,,,,,,,-2.57421875,-15.34375,7.75390625,1.783203125,-0.380859375,-0.14453125,-6.59765625,-19.34765625,2.9453125,1.0
3320214,,,,,,,,-1.578125,-14.52734375,5.0546875,1.279296875,-0.447265625,-0.36328125,-4.796875,-18.50390625,0.53515625,1.0
3320215,,,,,,,,0.09765625,-13.66796875,4.35546875,1.025390625,-0.017578125,-0.408203125,-2.61328125,-17.55078125,0.45703125,1.0
3320216,,,,,,,,1.38671875,-13.046875,4.36328125,1.06640625,0.193359375,-0.140625,-1.04296875,-16.890625,0.49609375,1.0
3320217,,,,,,,,5.58203125,-10.28515625,5.6171875,1.0390625,0.51171875,0.48046875,1.59765625,-14.859375,1.7578125,1.0
3320218,,,,,,,,8.640625,-8.203125,7.6015625,0.81640625,0.59765625,0.814453125,4.6640625,-12.83984375,3.7890625,1.0
3320219,,,,,,,,8.984375,-7.609375,7.703125,0.76171875,0.568359375,0.83203125,5.125,-11.45703125,3.55859375,1.0
3320220,36.01302583333334,129.31893083333335,29.82424722775965,69.4420393801336,2.2,323.0,,-7.12890625,-16.796875,3.203125,0.693359375,0.400390625,0.7109375,-11.42578125,-20.73046875,-0.921875,1.0
3320221,,,,,,,,7.7734375,-3.7265625,3.77734375,0.53515625,0.16015625,0.701171875,3.78125,-8.4296875,0.03515625,1.0
3320222,,,,,,,,7.453125,-2.9375,3.5078125,0.572265625,-0.048828125,0.9609375,3.4375,-7.6640625,-0.1953125,1.0
3320223,,,,,,,,7.875,-1.3125,4.2734375,0.67578125,-0.244140625,1.341796875,3.8203125,-6.0546875,0.609375,1.0
3320224,,,,,,,,8.25390625,0.14453125,4.703125,0.720703125,-0.3828125,1.587890625,4.12890625,-4.59765625,1.109375,1.0
3320225,,,,,,,,8.32421875,1.9765625,5.03125,0.6953125,-0.505859375,1.595703125,4.12890625,-2.7578125,1.4921875,1.0
3320226,,,,,,,,8.3984375,2.703125,4.8828125,0.65234375,-0.5390625,1.5234375,4.16796875,-2.03125,1.375,1.0
3320227,,,,,,,,8.2109375,4.02734375,4.19921875,0.556640625,-0.55078125,1.259765625,3.8984375,-0.69140625,0.76171875,1.0
3320228,,,,,,,,8.5703125,4.6328125,3.2578125,0.5078125,-0.572265625,0.990234375,4.16796875,-0.078125,-0.078125,1.0
3320229,,,,,,,,8.93359375,4.6640625,2.3125,0.345703125,-0.537109375,0.771484375,4.47265625,-0.0390625,-0.9609375,1.0
3320230,36.013028166666665,129.31893033333333,29.779171919628872,69.70094412487595,2.7,336.0,,8.94140625,3.8203125,1.90625,0.693359375,0.400390625,0.7109375,4.43359375,-0.8828125,-1.3046875,1.0
3320231,,,,,,,,7.625,3.32421875,2.00390625,-0.677734375,-0.390625,0.3671875,3.09765625,-1.37890625,-1.19140625,1.0
3320232,,,,,,,,4.9140625,3.8359375,2.671875,-1.205078125,-0.228515625,0.13671875,0.375,-0.84765625,-0.5390625,1.0
3320233,,,,,,,,3.640625,4.234375,3.3984375,-1.560546875,-0.083984375,-0.1640625,-0.890625,-0.421875,0.1484375,1.0
3320234,,,,,,,,2.8515625,4.9921875,4.83984375,-1.650390625,0.09375,-0.494140625,-1.66015625,0.34375,1.52734375,1.0
3320235,,,,,,,,3.109375,5.3671875,6.40625,-1.474609375,0.275390625,-0.73828125,-1.3515625,0.7265625,3.02734375,1.0
3320236,,,,,,,,3.5,5.6796875,7.15625,-1.310546875,0.333984375,-0.81640625,-0.9296875,1.03125,3.75390625,1.0
3320237,,,,,,,,5.8046875,6.80859375,6.953125,-0.958984375,0.41015625,-0.927734375,1.4453125,2.14453125,3.484375,1.0
3320238,,,,,,,,6.37890625,7.4453125,6.30078125,-0.818359375,0.40625,-0.974609375,2.09765625,2.7578125,2.7890625,1.0
3320239,,,,,,,,6.5859375,7.54296875,5.6953125,-1.267578125,0.318359375,-0.787109375,2.3671875,2.828125,2.140625,1.0
3320240,36.01303033333333,129.318929,29.658972634680275,69.94135540995514,2.5,338.0,,6.515625,4.80078125,4.80078125,-1.8203125,0.13671875,-0.080078125,4.43359375,-0.8828125,-1.3046875,1.0
3320241,,,,,,,,7.5390625,-4.109375,4.61328125,-2.005859375,0.0390625,0.46875,3.3984375,-8.734375,0.87890625,1.0
3320242,,,,,,,,9.6953125,-27.984375,5.640625,-1.9609375,0.13671875,0.87109375,5.546875,-32.5234375,1.8359375,1.0
3320243,,,,,,,,-10.35546875,-53.9453125,26.6875,-2.17578125,0.4296875,1.1953125,-14.52734375,-58.3828125,22.7890625,1.0
3320244,,,,,,,,-9.10546875,-36.30078125,16.9140625,-2.9140625,0.064453125,1.16796875,-13.30078125,-40.6015625,12.90625,1.0
3320245,,,,,,,,2.33984375,-15.43359375,8.6171875,-1.17578125,-0.2421875,0.396484375,-1.88671875,-19.6484375,4.5546875,1.0
3320246,,,,,,,,6.69921875,-13.83984375,6.45703125,-1.994140625,-0.052734375,-0.283203125,2.48046875,-18.04296875,2.37109375,1.0
3320247,,,,,,,,14.48046875,-16.875,5.125,-2.494140625,-0.04296875,-2.564453125,10.33203125,-21.0703125,0.953125,1.0
3320248,,,,,,,,12.21875,-17.88671875,7.78515625,-3.001953125,-0.2109375,-2.212890625,8.1875,-22.10546875,3.51953125,1.0
3320249,,,,,,,,7.72265625,-20.63671875,9.734375,-4.03515625,-0.76171875,-0.083984375,3.74609375,-24.78125,5.359375,1.0
3320250,36.01303233333333,129.318928,29.56882303449487,70.16327358994772,2.2,340.0,,5.546875,-17.58984375,7.1796875,-1.8203125,0.13671875,-0.080078125,4.43359375,-0.8828125,-1.3046875,1.0
3320251,,,,,,,,5.30859375,-16.90625,6.17578125,-3.9609375,-1.10546875,-0.29296875,0.7578125,-19.9921875,1.109375,1.0
3320252,,,,,,,,3.2265625,-15.24609375,5.92578125,-3.916015625,-1.283203125,-0.2265625,-1.58203125,-18.46484375,1.52734375,1.0
3320253,,,,,,,,1.953125,-14.421875,6.33984375,-4.1875,-1.51953125,-0.078125,-2.76953125,-16.51171875,1.14453125,1.0
3320254,,,,,,,,0.8203125,-11.7734375,5.453125,-4.130859375,-1.595703125,-0.154296875,-4.18359375,-13.56640625,-0.15625,1.0
3320255,,,,,,,,-0.88671875,-9.140625,3.80078125,-3.869140625,-1.55859375,-0.220703125,-6.63671875,-10.65234375,-2.0703125,1.0
3320256,,,,,,,,-2.39453125,-7.49609375,2.8671875,-3.791015625,-1.494140625,-0.166015625,-7.171875,-9.69140625,-2.30078125,1.0
3320257,,,,,,,,-3.48828125,-5.7421875,2.68359375,-3.712890625,-1.298828125,0.1171875,-8.359375,-7.85546875,-1.91796875,1.0
3320258,,,,,,,,-4.36328125,-1.9921875,3.45703125,-3.53125,-1.060546875,0.439453125,-8.70703125,-4.8671875,-1.57421875,1.0
3320259,,,,,,,,-3.01953125,1.7109375,3.8046875,-3.177734375,-0.748046875,0.591796875,-7.4375,-0.921875,-1.3046875,1.0
3320260,36.01303433333333,129.31892833333333,29.598871902642344,70.38519217630325,2.5,347.0,,-2.56640625,2.5390625,3.92578125,-2.736328125,-0.4921875,0.634765625,-5.828125,1.76171875,-1.0,1.0
3320261,,,,,,,,-0.16015625,4.76171875,4.51953125,-2.263671875,-0.431640625,0.6953125,-4.64453125,2.44921875,-0.69140625,1.0
3320262,,,,,,,,1.48046875,4.4375,5.0,-1.630859375,-0.396484375,0.8203125,-3.03125,2.21875,-0.234375,1.0
3320263,,,,,,,,1.80078125,4.0859375,5.1328125,-1.318359375,-0.380859375,0.849609375,-2.73046875,1.9140625,-0.1171875,1.0
3320264,,,,,,,,1.86328125,2.1171875,5.4453125,-0.8359375,-0.322265625,0.8515625,-2.6875,0.0,0.1875,1.0
3320265,,,,,,,,1.2265625,-0.4609375,7.0546875,-0.701171875,-0.248046875,0.73828125,-3.34765625,-2.53125,1.796875,1.0
3320266,,,,,,,,1.47265625,-1.1953125,8.09765625,-0.99609375,-0.154296875,0.35546875,-3.11328125,-3.21875,2.83203125,1.0
3320267,,,,,,,,3.7265625,3.31640625,7.4609375,-0.533203125,-0.271484375,-0.701171875,-0.8515625,1.30078125,2.1796875,1.0
3320268,,,,,,,,3.94921875,4.06640625,7.38671875,-0.478515625,-0.359375,-0.91015625,-0.62109375,2.02734375,2.10546875,1.0
3320269,,,,,,,,4.66796875,6.0,7.1015625,-0.435546875,-0.498046875,-1.025390625,0.10546875,3.91015625,1.8359375,1.0
3320270,36.0130365,129.318929,29.658970324720116,70.62560407082563,2.6,356.0,,4.9375,6.54296875,6.97265625,-2.736328125,-0.4921875,0.634765625,-5.828125,1.76171875,-1.0,1.0
3320271,,,,,,,,4.37109375,5.71875,6.89453125,-0.41015625,-0.703125,-0.306640625,-0.19921875,3.52734375,1.68359375,1.0
3320272,,,,,,,,4.1484375,5.11328125,6.88671875,-0.453125,-0.734375,-0.103515625,-0.4296875,2.91015625,1.68359375,1.0
3320273,,,,,,,,3.3984375,2.0390625,6.77734375,-0.478515625,-0.787109375,0.25,-1.1953125,-0.15625,1.6015625,1.0
3320274,,,,,,,,3.328125,0.9921875,6.5859375,-0.25390625,-0.837890625,0.546875,-1.50390625,-4.17578125,1.14453125,1.0
3320275,,,,,,,,2.75390625,-4.265625,6.171875,-0.140625,-0.83203125,0.654296875,-1.96484375,-9.23828125,1.30078125,1.0
3320276,,,,,,,,2.73046875,-7.0703125,6.37890625,-0.14453125,-0.8125,0.728515625,-2.15625,-12.72265625,1.8359375,1.0
3320277,,,,,,,,3.0,-20.1484375,8.9140625,-0.25,-0.736328125,0.951171875,-1.38671875,-28.4609375,5.859375,1.0
3320278,,,,,,,,4.6171875,-33.5859375,13.85546875,-0.220703125,-0.654296875,1.18359375,2.01953125,-43.09375,14.0546875,1.0
3320279,,,,,,,,10.65625,-47.27734375,25.17578125,0.013671875,-0.5703125,1.224609375,5.8515625,-49.375,20.18359375,1.0
3320280,36.01303883333333,129.31892950000002,29.70404387347658,70.8845091220982,2.5,7.0,,4.9375,6.54296875,6.97265625,0.876953125,-0.125,0.947265625,-5.828125,1.76171875,-1.0,1.0
3320281,,,,,,,,2.4609375,-13.09765625,9.5390625,0.32421875,0.09765625,-0.576171875,-2.3828125,-15.2421875,4.6328125,1.0
3320282,,,,,,,,-1.625,-13.1875,7.8671875,-1.0859375,0.259765625,-2.744140625,-6.40625,-15.4375,2.9453125,1.0
3320283,,,,,,,,-4.1640625,-15.34765625,7.875,-0.974609375,0.115234375,-2.927734375,-8.8984375,-17.65625,2.9453125,1.0
3320284,,,,,,,,1.22265625,-19.56640625,10.3046875,1.15625,-0.072265625,-0.5234375,-3.41796875,-22.06640625,5.3984375,1.0
3320285,,,,,,,,4.00390625,-18.53125,10.7109375,1.8984375,0.158203125,0.318359375,-0.62109375,-21.1484375,5.859375,1.0
3320286,,,,,,,,4.9765625,-15.5,10.39453125,1.53125,0.2890625,-0.04296875,0.375,-18.234375,5.58984375,1.0
3320287,,,,,,,,5.13671875,-14.35546875,8.484375,1.158203125,0.58984375,-0.06640625,0.56640625,-17.1953125,3.7109375,1.0
3320288,,,,,,,,5.10546875,-14.1171875,8.125,1.193359375,0.6953125,0.03515625,0.56640625,-17.0078125,3.3671875,1.0
3320289,,,,,,,,5.36328125,-13.25,7.8359375,1.4765625,0.912109375,0.244140625,0.87109375,-16.2421875,3.1015625,1.0
3320290,36.01304066666667,129.31893033333333,29.7791672179057,71.08793465454401,2.3000000000000003,12.0,,6.6875,-10.7890625,7.47265625,0.876953125,-0.125,0.947265625,-5.828125,1.76171875,-1.0,1.0
3320291,,,,,,,,7.32421875,-7.74609375,5.8125,1.33984375,1.046875,0.482421875,2.94140625,-10.9140625,1.109375,1.0
3320292,,,,,,,,7.4375,-5.6015625,4.984375,1.322265625,0.93359375,0.5625,3.09375,-8.85546875,0.3046875,1.0
3320293,,,,,,,,7.48046875,-4.5703125,5.21875,1.25,0.80078125,0.693359375,3.16796875,-7.890625,0.5703125,1.0
3320294,,,,,,,,7.71875,-3.015625,5.54296875,1.09375,0.681640625,0.87109375,3.4375,-6.40234375,0.91796875,1.0
3320295,,,,,,,,7.93359375,-1.703125,5.46484375,0.927734375,0.537109375,0.962890625,3.66796875,-5.1328125,0.87890625,1.0
3320296,,,,,,,,8.01171875,-1.03125,5.37109375,0.8671875,0.45703125,0.94140625,3.74609375,-4.48828125,0.80078125,1.0
3320297,,,,,,,,8.23828125,1.26171875,5.2265625,0.86328125,0.29296875,0.8359375,3.97265625,-2.22265625,0.6875,1.0
3320298,,,,,,,,8.31640625,3.1484375,5.21875,0.93359375,0.1875,0.708984375,4.046875,-0.3828125,0.7265625,1.0
3320299,,,,,,,,8.0859375,5.5234375,4.79296875,0.859375,0.115234375,0.44140625,3.82421875,1.9140625,0.37890625,1.0
3320300,36.01304266666667,129.31893200000002,29.929414531889172,71.3098536492505,2.6,20.0,0.0,7.61328125,6.3046875,3.40625,0.876953125,-0.125,0.947265625,3.36328125,2.640625,-0.9609375,1.0
3320301,,,,,,,,7.12890625,4.859375,2.5703125,0.2890625,0.22265625,-0.11328125,2.90234375,1.1484375,-1.765625,1.0
3320302,,,,,,,,6.90625,4.0546875,2.546875,-0.302734375,0.384765625,-0.166015625,2.3984375,-1.1875,-1.23046875,1.0
3320303,,,,,,,,6.34375,1.93359375,4.70703125,-0.818359375,0.490234375,0.14453125,1.9453125,-1.6875,1.18359375,1.0
3320304,,,,,,,,5.43359375,3.0,6.76171875,-1.037109375,0.5234375,0.208984375,1.0625,-0.23046875,2.8671875,1.0
3320305,,,,,,,,4.94140625,4.09375,7.52734375,-1.1484375,0.55078125,0.001953125,0.6796875,0.8046875,3.37109375,1.0
3320306,,,,,,,,4.015625,5.90234375,8.1796875,-1.26953125,0.55859375,-0.3359375,-0.0078125,2.18359375,3.75,1.0
3320307,,,,,,,,3.8828125,6.4609375,8.296875,-1.453125,0.4765625,-0.57421875,0.21875,3.484375,3.83203125,1.0
3320308,,,,,,,,4.90625,7.04296875,7.79296875,-1.6015625,0.240234375,-0.4140625,1.59765625,3.0234375,3.1015625,1.0
3320309,,,,,,,,6.515625,5.40234375,7.6875,-1.552734375,0.095703125,0.076171875,2.671875,1.76171875,3.1015625,1.0
