time,latitude,longitude,enu_x,enu_y,speed,course,ecg,accX,accY,accZ,gyrX,gyrY,gyrZ,eulR,eulP,eulY,validity
3468940,36.01302866666666,129.31897916666668,34.18144081396164,69.75643977171258,3.5,39.0,,-17.875,-54.67578125,23.6171875,1.546875,0.044921875,2.53125,5.640625,-0.33984375,-1.37890625,1.0
3468941,,,,,,,,8.38671875,-20.140625,-1.8203125,2.716796875,-0.470703125,1.759765625,4.95703125,-20.26171875,2.21875,1.0
3468942,,,,,,,,12.03125,-8.7265625,-8.078125,2.435546875,0.734375,-2.626953125,8.59375,-8.80859375,-4.0234375,1.0
3468943,,,,,,,,19.671875,-11.4296875,-9.87890625,3.541015625,0.34375,-4.716796875,16.22265625,-11.5625,-5.82421875,1.0
3468944,,,,,,,,18.3828125,-9.91015625,-3.21484375,1.94140625,0.12109375,-2.951171875,14.953125,-10.14453125,0.87890625,1.0
3468945,,,,,,,,13.92578125,-15.5859375,6.109375,-1.126953125,-0.1953125,0.09765625,10.51171875,-15.89453125,10.2265625,1.0
3468946,,,,,,,,12.109375,-17.76171875,5.640625,-2.53515625,-0.255859375,1.37890625,8.7109375,-18.11328125,9.765625,1.0
3468947,,,,,,,,9.07421875,-16.328125,2.140625,-2.34375,0.0,2.0625,5.68359375,-16.77734375,6.28125,1.0
3468948,,,,,,,,5.88671875,-13.0546875,-1.1328125,-1.298828125,-0.10546875,1.33984375,2.50390625,-13.55859375,3.0234375,1.0
3468949,,,,,,,,4.1015625,-10.96875,-1.57421875,-0.81640625,-0.642578125,0.74609375,0.7421875,-11.5234375,2.60546875,1.0
3468950,36.013030666666666,129.3189808333333,34.33168803481135,69.9783588427161,3.1,38.0,,1.10546875,-7.30078125,-1.1953125,-0.7890625,-0.9609375,0.60546875,-2.20703125,-7.92578125,3.0234375,1.0
3468951,,,,,,,,0.5234375,-6.39453125,-2.8125,-1.119140625,-0.904296875,0.6640625,-2.7421875,-7.078125,1.453125,1.0
3468952,,,,,,,,-1.171875,-3.51171875,-7.32421875,-1.3203125,-0.697265625,0.576171875,-4.39453125,-4.28515625,-3.02734375,1.0
3468953,,,,,,,,-1.1796875,-3.48046875,-7.33203125,-1.20703125,-0.55078125,0.75390625,-4.734375,-3.40234375,-3.1796875,1.0
3468954,,,,,,,,-2.13671875,-0.56640625,-6.66015625,-0.783203125,-0.3671875,1.455078125,-5.921875,0.3515625,-0.65234375,1.0
3468955,,,,,,,,-2.98828125,1.04296875,-4.15234375,-0.361328125,0.029296875,2.20703125,-6.34375,1.0390625,0.49609375,1.0
3468956,,,,,,,,-2.734375,2.4765625,-3.5390625,0.1328125,0.525390625,2.41796875,-5.3046875,1.76953125,0.6484375,1.0
3468957,,,,,,,,-1.35546875,3.46875,-4.03125,0.318359375,0.638671875,2.017578125,-4.35546875,2.9921875,0.07421875,1.0
3468958,,,,,,,,-1.109375,3.8359375,-4.26953125,0.4140625,0.57421875,1.802734375,-3.890625,3.26171875,-0.0390625,1.0
3468959,,,,,,,,-0.08203125,4.2265625,-4.67578125,0.65234375,0.26171875,1.46875,-2.703125,3.30078125,-0.5390625,1.0
3468960,36.01303333333333,129.3189808333333,34.33168687859113,70.27425015441025,3.2,25.0,,1.3515625,3.30078125,-5.21875,0.953125,0.1015625,1.34375,-2.20703125,-7.92578125,3.0234375,1.0
3468961,,,,,,,,1.328125,0.9609375,-5.1484375,1.3515625,0.04296875,1.4296875,-1.98046875,0.234375,-0.8046875,1.0
3468962,,,,,,,,1.21875,-0.609375,-4.390625,1.55078125,0.0546875,1.521484375,-2.09375,-1.296875,-0.0390625,1.0
3468963,,,,,,,,0.9609375,-1.9921875,-3.1875,1.814453125,0.15625,1.697265625,-2.359375,-2.5625,1.1875,1.0
3468964,,,,,,,,0.74609375,-2.828125,-1.55078125,1.974609375,0.234375,1.60546875,-2.58984375,-3.29296875,2.83203125,1.0
3468965,,,,,,,,2.6015625,-0.9765625,-2.4453125,2.1171875,0.111328125,1.09375,-0.75,-1.3359375,1.953125,1.0
3468966,,,,,,,,2.90625,-0.31640625,-2.73046875,2.224609375,-0.052734375,0.255859375,-0.4453125,-0.60546875,1.68359375,1.0
3468967,,,,,,,,3.20703125,1.12109375,-3.05078125,2.080078125,-0.146484375,-0.548828125,-0.13671875,0.88671875,1.37890625,1.0
3468968,,,,,,,,2.00390625,3.01171875,-2.66015625,1.6640625,-0.12109375,-1.173828125,-1.32421875,2.796875,1.80078125,1.0
3468969,,,,,,,,1.19921875,3.203125,-2.09375,1.62890625,-0.06640625,-1.21875,-2.12890625,2.9921875,2.375,1.0
3468970,36.01303566666666,129.31898266666667,34.496958753422106,70.53315570103022,3.0,25.0,,-0.49609375,0.9375,0.1875,0.953125,0.1015625,1.34375,-3.81640625,0.734375,4.67578125,1.0
3468971,,,,,,,,-0.37890625,-4.07421875,0.37109375,2.408203125,0.169921875,-0.724609375,-3.69921875,-4.24609375,4.86328125,1.0
3468972,,,,,,,,6.4375,-21.54296875,-4.1171875,3.28125,0.18359375,-0.021484375,3.1171875,-21.63671875,0.3828125,1.0
3468973,,,,,,,,9.34765625,-49.3515625,-0.1796875,3.75390625,-0.1640625,0.94140625,6.02734375,-49.30078125,4.328125,1.0
3468974,,,,,,,,27.125,-78.328125,22.3984375,1.83203125,-0.94140625,1.474609375,23.84375,-78.14453125,26.9296875,1.0
3468975,,,,,,,,22.47265625,-37.1640625,13.41796875,1.318359375,-1.212890625,0.271484375,19.24609375,-36.92578125,18.00390625,1.0
3468976,,,,,,,,8.43359375,-21.26953125,-3.28515625,3.080078125,-0.666015625,-0.744140625,5.26171875,-20.98828125,1.33984375,1.0
3468977,,,,,,,,-6.20703125,-13.796875,-4.2109375,3.31640625,0.19921875,-4.248046875,-9.37109375,-13.4765625,0.421875,1.0
3468978,,,,,,,,-2.96484375,-19.08203125,-8.76171875,1.5703125,0.921875,-4.263671875,-6.15234375,-18.83984375,-4.13671875,1.0
3468979,,,,,,,,2.9296875,-18.66015625,-7.69140625,1.880859375,2.1171875,-1.97265625,-0.328125,-18.4921875,-3.10546875,1.0
3468980,36.013038333333334,129.31898416666667,34.632180856956,70.82904754673093,2.9000000000000004,26.0,,5.12109375,-17.94140625,-3.5,0.953125,0.1015625,1.34375,1.77734375,-17.73046875,1.03125,1.0
3468981,,,,,,,,10.23046875,-17.35546875,0.5703125,2.61328125,1.416015625,1.400390625,6.83203125,-17.04296875,5.0546875,1.0
3468982,,,,,,,,9.0625,-14.7578125,-1.796875,2.892578125,1.744140625,0.669921875,5.609375,-14.3203125,2.640625,1.0
3468983,,,,,,,,6.6875,-10.8828125,-4.57421875,2.6171875,2.060546875,-0.466796875,3.15625,-10.37890625,-0.19140625,1.0
3468984,,,,,,,,6.99609375,-8.6640625,-5.0703125,2.572265625,2.302734375,-0.421875,3.38671875,-8.12109375,-0.765625,1.0
3468985,,,,,,,,6.58984375,-7.62890625,-4.6875,2.99609375,2.34375,0.384765625,2.88671875,-7.00390625,-0.4609375,1.0
3468986,,,,,,,,6.31640625,-8.0,-5.13671875,2.76953125,1.861328125,1.365234375,2.50390625,-7.1953125,-1.03515625,1.0
3468987,,,,,,,,6.39453125,-6.46484375,-5.6875,2.19921875,1.54296875,1.62890625,2.54296875,-5.546875,-1.6484375,1.0
3468988,,,,,,,,6.2734375,-5.0234375,-5.2578125,1.623046875,1.28125,1.84765625,2.390625,-4.015625,-1.265625,1.0
3468989,,,,,,,,6.28125,-3.40234375,-4.4140625,1.2890625,0.95703125,2.138671875,2.39453125,-2.29296875,-0.4609375,1.0
3468990,36.013040833333335,129.31898316666667,34.54203092434413,71.10644529768554,3.1,13.0,,7.421875,-1.8203125,-3.73046875,0.953125,0.1015625,1.34375,3.54296875,-0.5703125,0.19140625,1.0
3468991,,,,,,,,8.77734375,-0.05859375,-3.67578125,1.81640625,0.162109375,2.375,4.9140625,1.30859375,0.23046875,1.0
3468992,,,,,,,,9.7265625,0.0859375,-3.6328125,2.32421875,-0.15625,2.16796875,5.9140625,1.578125,0.265625,1.0
3468993,,,,,,,,10.62109375,0.015625,-3.890625,2.560546875,-0.26171875,2.02734375,6.828125,1.578125,0.0,1.0
3468994,,,,,,,,12.3359375,-0.35546875,-5.2265625,2.90625,-0.41796875,1.595703125,8.59375,1.34765625,-1.34375,1.0
3468995,,,,,,,,12.4765625,-0.86328125,-5.59375,2.794921875,-0.54296875,1.05078125,8.7890625,0.96484375,-1.7265625,1.0
3468996,,,,,,,,11.0859375,-0.9140625,-5.1328125,1.919921875,-0.587890625,0.6015625,7.4453125,1.0,-1.265625,1.0
3468997,,,,,,,,8.90234375,-0.828125,-3.73046875,0.494140625,-0.43359375,0.306640625,5.296875,1.1171875,0.15234375,1.0
3468998,,,,,,,,6.20703125,-1.00390625,-2.375,-0.306640625,-0.318359375,0.208984375,2.62109375,0.92578125,1.53125,1.0
3468999,,,,,,,,4.04296875,-0.94140625,-0.921875,-1.693359375,-0.04296875,-0.021484375,0.47265625,0.92578125,3.0234375,1.0
3469000,36.013043333333336,129.318983,34.52700502521681,71.38384334426766,2.9000000000000004,5.0,0.0,-0.90625,-0.08984375,2.81640625,-2.490234375,0.29296875,-0.376953125,-4.46875,1.65234375,6.8125,1.0
3469001,,,,,,,,-2.19140625,0.296875,2.203125,-2.263671875,0.607421875,-0.658203125,-5.76953125,1.8828125,6.24609375,1.0
3469002,,,,,,,,-1.6640625,0.61328125,-0.1484375,-0.9296875,0.84375,-0.72265625,-5.27734375,2.07421875,3.90625,1.0
3469003,,,,,,,,0.74609375,-1.1171875,-3.2421875,0.056640625,0.763671875,-0.48046875,-2.89453125,0.2734375,0.8046875,1.0
3469004,,,,,,,,3.296875,-5.765625,-3.54296875,0.5703125,0.583984375,-0.060546875,-0.3671875,-4.40234375,0.49609375,1.0
3469005,,,,,,,,5.265625,-22.0546875,0.04296875,0.705078125,0.55859375,0.734375,1.5859375,-20.6796875,4.05859375,1.0
3469006,,,,,,,,7.296875,-31.06640625,0.55078125,0.650390625,0.615234375,0.970703125,3.6171875,-29.6796875,4.55859375,1.0
3469007,,,,,,,,-1.9375,-69.01953125,15.7734375,0.708984375,0.6875,1.44140625,-5.6171875,-67.6015625,19.765625,1.0
3469008,,,,,,,,-18.1484375,-67.078125,20.0625,2.34375,0.908203125,1.748046875,-21.8203125,-65.58203125,24.015625,1.0
3469009,,,,,,,,1.359375,-22.6796875,3.203125,2.837890625,0.126953125,-0.13671875,-2.3203125,-21.0234375,7.0859375,1.0
3469010,36.0130455,129.3189825,34.48192966323586,71.62425485971009,2.4000000000000004,1.0,,14.4375,-13.48828125,-15.26171875,-2.490234375,0.29296875,-0.376953125,-4.46875,1.65234375,6.8125,1.0
3469011,,,,,,,,26.14453125,-20.125,-12.578125,3.203125,0.072265625,-4.841796875,22.34765625,-18.6875,-8.734375,1.0
3469012,,,,,,,,24.53515625,-16.25390625,-3.015625,2.404296875,0.267578125,-1.892578125,20.69921875,-14.89453125,0.8046875,1.0
3469013,,,,,,,,19.625,-17.1953125,1.93359375,-0.314453125,-0.2421875,0.55859375,15.796875,-15.85546875,5.74609375,1.0
3469014,,,,,,,,17.12890625,-23.5,3.1640625,-3.154296875,-0.4296875,1.171875,13.34765625,-22.25390625,7.046875,1.0
3469015,,,,,,,,12.375,-18.3125,-0.56640625,-2.84765625,0.048828125,0.73828125,8.6328125,-17.1953125,3.37109375,1.0
3469016,,,,,,,,6.66796875,-11.66796875,-2.23046875,-0.572265625,-0.6484375,0.73828125,2.96484375,-10.640625,1.76171875,1.0
3469017,,,,,,,,-1.140625,-7.890625,1.28515625,0.38671875,-1.10546875,1.25,-4.7734375,-6.89453125,5.32421875,1.0
3469018,,,,,,,,-2.3671875,-10.2734375,1.6875,0.017578125,-1.3125,1.369140625,-5.921875,-9.265625,5.78125,1.0
3469019,,,,,,,,-1.87109375,-7.453125,-2.39453125,-0.54296875,-0.978515625,0.73828125,-5.34765625,-6.46875,1.76171875,1.0
3469020,36.0130475,129.31898099999998,34.34670554054631,71.84617281508947,2.5,349.0,,0.9375,-5.28515625,-5.4765625,-0.453125,-0.87109375,0.30078125,-2.4765625,-4.359375,-1.265625,1.0
3469021,,,,,,,,0.2421875,-5.34375,-6.703125,-0.384765625,-0.38671875,0.3359375,-3.125,-4.4765625,-2.453125,1.0
3469022,,,,,,,,-0.5625,-4.8046875,-6.62109375,-0.583984375,0.16015625,0.80859375,-3.890625,-4.01953125,-2.33984375,1.0
3469023,,,,,,,,-1.0625,-4.359375,-6.2734375,-0.728515625,0.416015625,1.033203125,-4.39453125,-3.59375,-1.9921875,1.0
3469024,,,,,,,,-1.5234375,-2.96484375,-4.23828125,-1.001953125,0.705078125,1.42578125,-4.8515625,-2.25390625,0.03515625,1.0
3469025,,,,,,,,-0.83203125,-1.203125,-2.6640625,-0.912109375,0.75,1.666015625,-4.15625,-0.53125,1.609375,1.0
3469026,,,,,,,,0.0546875,-0.6796875,-1.84765625,-0.39453125,0.681640625,1.5234375,-3.28515625,-0.03125,2.41015625,1.0
3469027,,,,,,,,0.79296875,-0.94921875,-2.09765625,0.876953125,0.375,0.79296875,-2.546875,-0.30078125,2.14453125,1.0
3469028,,,,,,,,1.09765625,-1.1484375,-2.28125,1.25390625,0.29296875,0.478515625,-2.24609375,-0.4921875,1.953125,1.0
3469029,,,,,,,,1.44140625,-0.359375,-3.1953125,1.732421875,0.171875,-0.205078125,-1.90234375,0.3125,1.03125,1.0
3469030,36.01304866666667,129.31897933333332,34.196456981671076,71.97562467813057,2.1,334.0,,1.20703125,0.96484375,-3.0703125,2.04296875,0.029296875,-0.7265625,-2.125,1.65234375,1.1484375,1.0
3469031,,,,,,,,0.8515625,2.23828125,-2.87109375,2.181640625,-0.16015625,-0.90234375,-2.4765625,2.95703125,1.33984375,1.0
3469032,,,,,,,,0.921875,2.3828125,-3.0703125,2.16015625,-0.158203125,-0.857421875,-2.3984375,3.11328125,1.1484375,1.0
3469033,,,,,,,,0.75390625,2.3125,-3.0546875,1.93359375,-0.02734375,-0.6328125,-2.55078125,3.0703125,1.1484375,1.0
3469034,,,,,,,,0.140625,1.26171875,-3.09375,1.5625,0.080078125,-0.404296875,-3.1640625,2.03515625,1.109375,1.0
3469035,,,,,,,,-1.20703125,-0.23828125,-2.05078125,1.30859375,0.185546875,-0.220703125,-4.5,0.54296875,2.14453125,1.0
3469036,,,,,,,,-1.9375,-1.00390625,-1.24609375,1.291015625,0.25,-0.138671875,-5.234375,-0.22265625,2.94921875,1.0
3469037,,,,,,,,-1.8515625,-10.4296875,-3.53125,1.763671875,0.37890625,0.05859375,-5.15625,-9.61328125,0.6484375,1.0
3469038,,,,,,,,-1.46875,-18.91015625,-1.8984375,2.40625,0.294921875,0.357421875,-4.7734375,-18.03515625,2.2578125,1.0
3469039,,,,,,,,3.50390625,-34.6171875,-3.0078125,2.32421875,-0.015625,0.7734375,0.20703125,-33.70703125,1.1484375,1.0
3469040,36.013050666666665,129.31897766666668,34.04620806881472,72.19754257989192,2.3000000000000003,329.0,,14.734375,-51.4375,2.5859375,2.04296875,0.029296875,-0.7265625,-2.125,1.65234375,1.1484375,1.0
3469041,,,,,,,,30.5625,-40.0859375,23.203125,3.3125,0.025390625,0.2734375,27.328125,-38.99609375,27.3515625,1.0
3469042,,,,,,,,15.46875,-23.24609375,0.82421875,4.259765625,0.212890625,-0.841796875,12.234375,-22.0546875,4.94140625,1.0
3469043,,,,,,,,7.078125,-21.1796875,-0.49609375,4.31640625,-0.1640625,-2.654296875,3.84375,-19.95703125,3.59765625,1.0
3469044,,,,,,,,-6.6328125,-17.27734375,-1.734375,2.21875,0.603515625,-4.30859375,-9.90625,-16.08203125,2.3359375,1.0
3469045,,,,,,,,1.703125,-22.03515625,-5.45703125,1.458984375,1.2421875,-3.001953125,-1.6328125,-20.9453125,-1.41796875,1.0
3469046,,,,,,,,11.7890625,-23.890625,1.5703125,3.552734375,1.412109375,0.12109375,8.3671875,-22.79296875,5.515625,1.0
3469047,,,,,,,,15.765625,-25.125,5.65625,4.0625,1.30859375,0.96875,12.3125,-23.90234375,9.5390625,1.0
3469048,,,,,,,,14.9765625,-23.38671875,4.23828125,3.94140625,1.466796875,0.876953125,11.5078125,-22.09765625,8.08203125,1.0
3469049,,,,,,,,10.33203125,-20.109375,-2.3125,2.81640625,1.912109375,0.263671875,6.83203125,-18.73046875,1.453125,1.0
3469050,36.013052333333334,129.318976,33.89595930431995,72.382474069959,2.2,325.0,,9.015625,-16.1015625,-2.79296875,2.04296875,0.029296875,-0.7265625,-2.125,1.65234375,1.1484375,1.0
3469051,,,,,,,,8.96484375,-14.37890625,-2.20703125,2.654296875,2.1875,0.244140625,5.30078125,-12.25,2.06640625,1.0
3469052,,,,,,,,8.55859375,-13.63671875,-1.5390625,2.666015625,2.046875,0.466796875,4.11328125,-11.90625,1.109375,1.0
3469053,,,,,,,,7.7421875,-13.140625,-2.71875,2.55859375,1.8203125,0.69921875,3.921875,-11.0625,0.23046875,1.0
3469054,,,,,,,,7.7734375,-11.59375,-3.703125,2.48046875,1.78125,1.05078125,4.0,-9.91796875,-0.421875,1.0
3469055,,,,,,,,7.44921875,-9.0234375,-3.5859375,2.49609375,1.609375,1.578125,3.65234375,-7.2734375,-0.3828125,1.0
3469056,,,,,,,,7.45703125,-8.02734375,-3.47265625,2.451171875,1.47265625,1.8203125,3.65234375,-5.24609375,0.0,1.0
3469057,,,,,,,,7.296875,-4.56640625,-2.48046875,2.169921875,1.212890625,2.091796875,3.5,-2.67578125,0.61328125,1.0
3469058,,,,,,,,7.16796875,-1.71875,-1.82421875,1.7421875,1.005859375,2.01953125,3.3828125,0.2734375,1.22265625,1.0
3469059,,,,,,,,6.37890625,1.3359375,-1.19140625,1.4140625,0.8359375,1.55859375,2.62109375,3.41796875,1.80078125,1.0
3469060,36.0130525,129.318973,33.62551275068124,72.40096623792525,2.6,305.0,,6.015625,3.20703125,-1.24609375,1.20703125,0.681640625,0.873046875,2.2734375,5.328125,1.72265625,1.0
3469061,,,,,,,,7.49609375,0.80078125,-1.63671875,1.369140625,0.56640625,0.16015625,3.765625,2.95703125,1.30078125,1.0
3469062,,,,,,,,8.53125,-1.5390625,-2.1953125,1.716796875,0.482421875,-0.435546875,4.80859375,0.6171875,0.7265625,1.0
3469063,,,,,,,,8.9140625,-2.49609375,-2.6484375,1.853515625,0.447265625,-0.650390625,5.19140625,-0.33984375,0.265625,1.0
3469064,,,,,,,,9.03515625,-4.2890625,-3.2734375,1.96875,0.560546875,-0.884765625,5.296875,-2.140625,-0.3828125,1.0
3469065,,,,,,,,7.43359375,-3.69140625,-1.3515625,1.35546875,0.681640625,-0.822265625,3.6484375,-1.56640625,1.4921875,1.0
3469066,,,,,,,,1.88671875,-1.03125,5.16796875,0.154296875,0.669921875,-0.568359375,-1.90234375,1.0390625,8.00390625,1.0
3469067,,,,,,,,0.76171875,0.59375,3.23046875,-0.783203125,0.595703125,-0.4921875,-3.05078125,2.5703125,6.0859375,1.0
3469068,,,,,,,,1.0390625,0.94140625,1.53515625,-0.19140625,0.654296875,-0.625,-2.78125,2.87890625,4.3984375,1.0
3469069,,,,,,,,2.13671875,1.1015625,-2.28515625,1.02734375,0.763671875,-0.814453125,-1.70703125,2.9921875,0.57421875,1.0
3469070,36.013053166666666,129.31897016666665,33.370090790280216,72.47493809203215,2.5,293.0,,1.69140625,-1.1640625,-3.48828125,1.20703125,0.681640625,0.873046875,2.2734375,5.328125,1.72265625,1.0
3469071,,,,,,,,0.7421875,-5.140625,-1.98046875,0.974609375,0.55859375,-0.05859375,-3.125,-3.29296875,0.83984375,1.0
3469072,,,,,,,,-0.64453125,-16.44140625,3.23828125,0.6875,0.564453125,0.59765625,-4.50390625,-14.5859375,6.05078125,1.0
3469073,,,,,,,,-0.26953125,-25.6484375,8.984375,0.84765625,0.458984375,1.171875,-4.12109375,-23.78125,11.796875,1.0
3469074,,,,,,,,1.99609375,-39.2578125,13.7421875,1.525390625,0.28125,1.552734375,-1.82421875,-37.34765625,16.546875,1.0
3469075,,,,,,,,6.24609375,-44.65234375,8.546875,2.47265625,0.283203125,1.271484375,2.46484375,-42.6640625,11.3359375,1.0
3469076,,,,,,,,6.77734375,-37.18359375,8.640625,2.9296875,0.30078125,0.73046875,3.00390625,-35.15625,11.4140625,1.0
3469077,,,,,,,,8.60546875,-23.82421875,6.7734375,2.5546875,0.4609375,-0.400390625,4.83984375,-21.75,9.5,1.0
3469078,,,,,,,,6.30859375,-20.6796875,0.65234375,0.419921875,0.447265625,-2.46484375,2.50390625,-18.69140625,3.37109375,1.0
3469079,,,,,,,,9.453125,-19.54296875,1.5546875,0.513671875,-0.12109375,-2.4296875,5.609375,-17.6875,4.2890625,1.0
3469080,36.01305416666666,129.31896733333332,33.11466869411237,72.58589636770613,2.4000000000000004,287.0,,10.1953125,-19.03515625,3.484375,1.20703125,0.681640625,0.873046875,2.2734375,5.328125,1.72265625,1.0
3469081,,,,,,,,10.484375,-18.69140625,3.23046875,0.638671875,-0.16015625,0.087890625,6.640625,-16.96484375,6.01171875,1.0
3469082,,,,,,,,10.078125,-18.1328125,2.76953125,-0.041015625,-0.37890625,0.322265625,6.2578125,-16.4296875,5.58984375,1.0
3469083,,,,,,,,8.9609375,-17.25,2.75390625,-0.67578125,-0.615234375,0.521484375,5.1875,-15.5859375,5.62890625,1.0
3469084,,,,,,,,7.765625,-15.69921875,1.98046875,-1.05859375,-0.955078125,0.65625,4.0390625,-14.08984375,4.94140625,1.0
3469085,,,,,,,,5.86328125,-14.61328125,0.29296875,-1.146484375,-1.181640625,0.640625,2.19921875,-13.05859375,3.33203125,1.0
3469086,,,,,,,,4.34375,-13.32421875,-0.796875,-1.173828125,-1.2578125,0.572265625,0.7421875,-11.83203125,2.3359375,1.0
3469087,,,,,,,,2.08203125,-11.1015625,-0.890625,-1.232421875,-1.25390625,0.5078125,-1.44140625,-9.69140625,2.3359375,1.0
3469088,,,,,,,,0.54296875,-9.390625,-1.23828125,-1.32421875,-1.03515625,0.625,-2.89453125,-8.078125,2.10546875,1.0
3469089,,,,,,,,-1.97265625,-7.05859375,-2.12109375,-1.26171875,-0.849609375,0.5859375,-5.34765625,-5.81640625,1.30078125,1.0
3469090,36.01305383333333,129.318964,32.81417274798362,72.54890882637415,2.9000000000000004,276.0,,-3.5234375,-3.48828125,-3.01953125,-1.33984375,-0.578125,0.419921875,-6.84765625,-2.33203125,0.45703125,1.0
3469091,,,,,,,,-4.2421875,0.19921875,-2.8046875,-1.33203125,-0.244140625,0.3515625,-7.53515625,1.26953125,0.7265625,1.0
3469092,,,,,,,,-4.06640625,4.52734375,-2.55859375,-1.28125,-0.1171875,0.396484375,-7.33984375,5.55859375,0.99609375,1.0
3469093,,,,,,,,-2.44921875,5.97265625,-4.3671875,-0.302734375,-0.015625,0.48828125,-5.69140625,6.90234375,-0.765625,1.0
3469094,,,,,,,,-2.4375,3.015625,-4.9609375,0.380859375,-0.1328125,0.34765625,-5.66015625,3.9140625,-1.34375,1.0
3469095,,,,,,,,-1.2734375,-0.265625,-4.63671875,0.458984375,-0.3828125,0.251953125,-4.47265625,0.6171875,-0.99609375,1.0
3469096,,,,,,,,0.93359375,-2.2109375,-4.0390625,0.439453125,-0.423828125,0.263671875,-2.2421875,-1.3359375,-0.3828125,1.0
3469097,,,,,,,,1.81640625,-2.5390625,-3.2578125,1.23828125,-0.552734375,0.396484375,-0.75,-1.98828125,1.53125,1.0
3469098,,,,,,,,2.78125,-2.75390625,-0.9453125,1.748046875,-0.55859375,0.3515625,-0.29296875,-1.6796875,3.1015625,1.0
3469099,,,,,,,,2.80078125,-2.5625,-0.609375,1.943359375,-0.552734375,0.240234375,-0.25390625,-1.3359375,3.2890625,1.0
3469100,36.013053,129.31896083333334,32.528701809131064,72.45644172893502,3.0,267.0,0.0,2.7109375,-1.3515625,-0.625,2.12890625,-0.412109375,-0.26171875,-0.484375,0.1953125,2.83203125,1.0
3469101,,,,,,,,1.91796875,0.609375,-1.71484375,1.814453125,-0.302734375,-0.615234375,-1.44140625,1.99609375,1.453125,1.0
3469102,,,,,,,,1.16796875,1.55859375,-2.86328125,1.39453125,-0.2265625,-0.767578125,-2.09375,2.7265625,0.34375,1.0
3469103,,,,,,,,0.890625,1.7578125,-3.4140625,1.244140625,-0.17578125,-0.72265625,-2.3984375,2.796875,0.07421875,1.0
3469104,,,,,,,,-0.50390625,1.2265625,-2.6171875,1.21484375,-0.0859375,-0.359375,-3.46875,2.1875,1.1484375,1.0
3469105,,,,,,,,0.33203125,-2.5703125,-2.89453125,1.50390625,-0.0390625,0.13671875,-2.625,-1.6015625,0.87890625,1.0
3469106,,,,,,,,3.13671875,-13.57421875,-1.20703125,2.111328125,-0.021484375,0.583984375,0.20703125,-12.5546875,2.56640625,1.0
3469107,,,,,,,,12.95703125,-35.203125,11.703125,2.162109375,-0.25390625,0.951171875,10.05078125,-34.12890625,15.4765625,1.0
3469108,,,,,,,,16.46484375,-41.9765625,15.83984375,1.98828125,-0.396484375,1.068359375,13.57421875,-40.87109375,19.61328125,1.0
3469109,,,,,,,,13.046875,-28.1328125,6.78125,1.55078125,-0.466796875,1.109375,10.203125,-26.96484375,10.5703125,1.0
3469110,36.0130535,129.31895733333334,32.21318071001948,72.51192018769063,2.8000000000000003,268.0,,3.2421875,-20.46484375,3.82421875,2.19140625,0.423828125,-0.451171875,0.4375,-19.26171875,7.62109375,1.0
3469111,,,,,,,,-0.07421875,-18.12109375,1.19921875,1.56640625,0.240234375,-2.794921875,-2.89453125,-16.921875,4.98046875,1.0
3469112,,,,,,,,5.38671875,-22.80859375,1.50390625,2.181640625,0.44140625,-2.42578125,2.54296875,-21.67578125,5.28515625,1.0
3469113,,,,,,,,6.21484375,-23.65234375,4.19921875,2.86328125,0.634765625,-1.357421875,3.34765625,-22.515625,7.96484375,1.0
3469114,,,,,,,,6.84375,-21.5546875,2.5625,3.01171875,1.154296875,0.33984375,3.9609375,-20.33984375,6.28125,1.0
3469115,,,,,,,,8.0625,-20.62109375,1.30859375,2.52734375,1.466796875,0.109375,5.1484375,-19.3359375,4.98046875,1.0
3469116,,,,,,,,8.0625,-18.76171875,0.09765625,2.697265625,1.677734375,0.302734375,5.109375,-17.421875,3.71484375,1.0
3469117,,,,,,,,6.953125,-16.6484375,-0.8359375,2.880859375,1.802734375,0.478515625,3.9609375,-15.24609375,2.71875,1.0
3469118,,,,,,,,6.546875,-15.0625,-1.265625,2.8671875,1.822265625,0.568359375,3.5390625,-13.6328125,2.2578125,1.0
3469119,,,,,,,,6.5859375,-14.25,-1.4609375,2.701171875,1.80078125,0.76953125,3.5390625,-12.75,1.9921875,1.0
3469120,36.01305283333333,129.31895433333332,31.942734498318494,72.43794637201961,2.9000000000000004,262.0,,6.80859375,-13.82421875,-1.5234375,2.19140625,0.423828125,-0.451171875,0.4375,-19.26171875,7.62109375,1.0
3469121,,,,,,,,8.171875,-12.8125,-0.9921875,2.25,1.703125,0.994140625,5.0703125,-11.1796875,2.3359375,1.0
3469122,,,,,,,,8.43359375,-9.98046875,-0.921875,2.021484375,1.498046875,0.900390625,5.30078125,-8.265625,2.3359375,1.0
3469123,,,,,,,,8.1875,-7.7265625,-1.7109375,1.96875,1.244140625,0.70703125,5.03125,-5.97265625,1.4921875,1.0
3469124,,,,,,,,7.96875,-4.39453125,-2.828125,2.03515625,1.072265625,0.466796875,4.8046875,-2.59765625,0.34375,1.0
3469125,,,,,,,,7.5546875,0.30859375,-4.3828125,2.09375,0.919921875,0.154296875,4.38671875,2.15234375,-1.265625,1.0
3469126,,,,,,,,7.1875,1.90234375,-4.45703125,1.994140625,0.779296875,-0.01953125,4.0,3.76171875,-1.37890625,1.0
3469127,,,,,,,,6.92578125,2.49609375,-4.05078125,1.595703125,0.6640625,-0.1875,3.73046875,4.37109375,-0.99609375,1.0
3469128,,,,,,,,7.43359375,0.859375,-3.96875,1.0234375,0.55859375,-0.33203125,4.23046875,2.7265625,-0.921875,1.0
3469129,,,,,,,,8.16796875,-2.3828125,-3.69140625,0.80859375,0.50390625,-0.365234375,4.953125,-0.53125,-0.65234375,1.0
3469130,36.013051499999996,129.31895116666666,31.657263743789066,72.28999968127093,3.3000000000000003,255.0,,6.94921875,-2.84765625,-1.77734375,2.19140625,0.423828125,-0.451171875,0.4375,-19.26171875,7.62109375,1.0
3469131,,,,,,,,4.53515625,-2.71875,2.16796875,0.291015625,0.564453125,0.13671875,1.31640625,-0.9140625,5.203125,1.0
3469132,,,,,,,,3.69140625,-2.12109375,2.53515625,-0.296875,0.56640625,0.3671875,0.47265625,-0.33984375,5.58984375,1.0
3469133,,,,,,,,3.30078125,0.1171875,0.0625,-0.294921875,0.689453125,0.080078125,0.08984375,1.84375,3.140625,1.0
3469134,,,,,,,,2.24609375,2.296875,-3.40234375,-0.19921875,0.66015625,-0.310546875,-0.98046875,3.953125,-0.30859375,1.0
3469135,,,,,,,,1.296875,2.16015625,-4.10546875,-0.404296875,0.5625,-0.302734375,-1.9375,3.76171875,-0.99609375,1.0
3469136,,,,,,,,0.8359375,1.953125,-3.921875,-0.484375,0.517578125,-0.201171875,-2.3984375,3.53515625,-0.8046875,1.0
3469137,,,,,,,,0.14453125,-0.0234375,-1.71484375,-0.548828125,0.38671875,0.06640625,-3.08984375,1.5,1.41796875,1.0
3469138,,,,,,,,0.67578125,-5.76953125,0.89453125,-0.4921875,0.2421875,0.416015625,-2.55078125,-4.28125,4.05859375,1.0
3469139,,,,,,,,0.78125,-14.36328125,5.890625,-0.095703125,0.181640625,0.830078125,-2.4375,-12.90234375,9.078125,1.0
3469140,36.01305033333333,129.31894766666667,31.341743306571978,72.16054610047865,3.3000000000000003,247.0,,1.171875,-28.5859375,15.03125,0.43359375,0.1171875,1.21484375,-2.015625,-27.1171875,18.234375,1.0
3469141,,,,,,,,2.98046875,-49.76171875,12.265625,1.318359375,0.0546875,1.548828125,-0.17578125,-48.2578125,15.4765625,1.0
3469142,,,,,,,,4.05078125,-50.7109375,3.8359375,2.365234375,-0.037109375,1.2578125,0.93359375,-49.14453125,7.046875,1.0
3469143,,,,,,,,2.85546875,-26.38671875,10.1171875,2.10546875,-0.056640625,0.8046875,-0.25390625,-24.7734375,13.328125,1.0
3469144,,,,,,,,6.203125,-17.9140625,3.3984375,-0.201171875,-0.02734375,-0.068359375,3.1171875,-16.31640625,6.625,1.0
3469145,,,,,,,,10.42578125,-17.30859375,-0.0859375,-1.140625,0.015625,-2.36328125,7.33203125,-15.81640625,3.1796875,1.0
3469146,,,,,,,,12.9296875,-17.3125,2.203125,-0.625,-0.4765625,-2.453125,9.8203125,-15.96875,5.515625,1.0
3469147,,,,,,,,11.23828125,-18.84375,3.83203125,-1.19921875,-0.599609375,-0.322265625,8.13671875,-17.62109375,7.19921875,1.0
3469148,,,,,,,,9.8671875,-18.52734375,3.34375,-1.623046875,-0.71875,0.591796875,6.796875,-17.34375,6.7421875,1.0
3469149,,,,,,,,5.765625,-18.08203125,0.89453125,-2.740234375,-0.8125,0.970703125,2.7734375,-17.04296875,4.40234375,1.0
3469150,36.0130495,129.31894433333335,31.041247532050754,72.0680789991653,3.1,243.0,,1.95703125,-16.7578125,-0.40625,0.43359375,0.1171875,1.21484375,-0.98046875,-15.85546875,3.1796875,1.0
3469151,,,,,,,,0.5078125,-12.55859375,-0.72265625,-2.78515625,-1.591796875,0.390625,-2.3203125,-11.8671875,2.98828125,1.0
3469152,,,,,,,,-0.375,-10.1953125,-1.8671875,-2.646484375,-1.578125,0.396484375,-3.125,-9.6484375,1.9140625,1.0
3469153,,,,,,,,-1.60546875,-6.9140625,-3.171875,-2.599609375,-1.44921875,0.201171875,-4.27734375,-6.5078125,0.6875,1.0
3469154,,,,,,,,-1.98046875,-5.80859375,-2.91015625,-2.439453125,-1.380859375,0.236328125,-4.58203125,-5.55078125,0.99609375,1.0
3469155,,,,,,,,-2.234375,-4.02734375,-3.1953125,-2.15625,-1.11328125,0.46484375,-4.77734375,-3.90234375,0.765625,1.0
3469156,,,,,,,,-2.1875,-1.93359375,-4.09375,-2.0078125,-0.96484375,0.57421875,-4.6953125,-1.87109375,-0.1171875,1.0
3469157,,,,,,,,-2.50390625,1.35546875,-3.80859375,-1.705078125,-0.693359375,0.7265625,-4.96484375,1.30859375,0.19140625,1.0
3469158,,,,,,,,-2.734375,3.25,-2.5,-1.48046875,-0.494140625,0.974609375,-5.15625,3.109375,1.53125,1.0
3469159,,,,,,,,-2.8359375,5.39453125,-1.6640625,-1.291015625,-0.275390625,1.16015625,-5.23828125,5.17578125,2.375,1.0
