time,latitude,longitude,enu_x,enu_y,speed,course,ecg,accX,accY,accZ,gyrX,gyrY,gyrZ,eulR,eulP,eulY,validity
3319700,36.013063,129.31895783333331,32.25825124925451,73.56603316034501,2.9000000000000004,55.0,0.0,0.5234375,4.296875,7.30859375,-0.0625,0.08984375,1.431640625,-3.265625,1.1875,4.32421875,1.0
3319701,,,,,,,,0.23828125,1.5703125,6.3515625,-0.10546875,-0.083984375,-0.26953125,-3.4921875,-1.609375,3.3671875,1.0
3319702,,,,,,,,3.82421875,-13.1875,2.95703125,0.3671875,-0.138671875,0.1328125,0.10546875,-16.40234375,-0.00390625,1.0
3319703,,,,,,,,4.75,-36.46875,5.24609375,0.46875,-0.3125,0.828125,1.0234375,-39.7265625,2.33203125,1.0
3319704,,,,,,,,16.12890625,-73.6640625,32.94921875,-0.587890625,-0.619140625,1.255859375,12.36328125,-76.921875,30.06640625,1.0
3319705,,,,,,,,6.67578125,-16.1796875,12.79296875,-1.029296875,-0.29296875,1.92578125,2.86328125,-19.3828125,9.91796875,1.0
3319706,,,,,,,,1.25,-7.140625,5.35546875,-0.125,0.08203125,-1.044921875,-2.578125,-10.34375,2.48828125,1.0
3319707,,,,,,,,-4.7421875,-8.40234375,2.0,-0.361328125,0.568359375,-4.76171875,-8.4375,-11.76171875,-0.8828125,1.0
3319708,,,,,,,,-7.46484375,-10.6796875,1.72265625,0.765625,0.021484375,-4.138671875,-10.96484375,-14.25390625,-1.15234375,1.0
3319709,,,,,,,,-2.34765625,-15.296875,6.5078125,2.05859375,-0.025390625,-0.72265625,-5.75390625,-19.0390625,3.7109375,1.0
3319710,36.013064500000006,129.31896066666667,32.51367228163326,73.73247296604887,2.9000000000000004,57.0,,1.2421875,-15.83203125,6.8828125,-0.0625,0.08984375,1.431640625,-2.15625,-19.65234375,4.171875,1.0
3319711,,,,,,,,5.18359375,-14.29296875,6.95703125,1.51953125,0.083984375,0.97265625,1.75390625,-18.16015625,4.32421875,1.0
3319712,,,,,,,,5.7265625,-13.921875,7.37890625,1.41015625,0.2265625,0.458984375,2.2890625,-17.8125,4.78515625,1.0
3319713,,,,,,,,5.703125,-11.78515625,7.171875,1.400390625,0.5625,0.076171875,2.2890625,-15.7421875,4.6328125,1.0
3319714,,,,,,,,5.640625,-10.71875,6.42578125,1.4453125,0.7578125,0.375,2.25,-14.75,3.94140625,1.0
3319715,,,,,,,,5.734375,-9.0078125,5.22265625,1.228515625,0.802734375,0.34375,2.3671875,-13.10546875,2.79296875,1.0
3319716,,,,,,,,6.18359375,-6.83203125,3.359375,1.2265625,0.75,0.25390625,2.82421875,-10.953125,0.953125,1.0
3319717,,,,,,,,6.8984375,-4.234375,1.23828125,1.447265625,0.53515625,0.177734375,3.5546875,-8.4296875,-1.11328125,1.0
3319718,,,,,,,,6.875,-3.18359375,1.16796875,1.482421875,0.19921875,0.5703125,3.5546875,-7.47265625,-1.07421875,1.0
3319719,,,,,,,,6.53515625,-1.16796875,2.0078125,1.349609375,0.11328125,0.810546875,3.20703125,-5.48046875,-0.1953125,1.0
3319720,36.01306533333333,129.3189635,32.769093575928466,73.82493995011083,2.8000000000000003,61.0,,6.14453125,1.46875,3.42578125,-0.0625,0.08984375,1.431640625,2.78515625,-2.875,1.30078125,1.0
3319721,,,,,,,,5.84765625,3.4375,3.66796875,0.609375,-0.216796875,1.33984375,2.44140625,-0.921875,1.60546875,1.0
3319722,,,,,,,,5.54296875,5.66015625,3.26953125,0.361328125,-0.322265625,1.10546875,2.09765625,1.30078125,1.26171875,1.0
3319723,,,,,,,,5.78125,7.828125,2.76953125,0.322265625,-0.384765625,0.71484375,2.2890625,3.44921875,0.83984375,1.0
3319724,,,,,,,,7.17578125,9.1484375,2.109375,0.328125,-0.3984375,0.51953125,3.66796875,4.75,0.2265625,1.0
3319725,,,,,,,,9.0625,9.015625,1.2890625,0.353515625,-0.46875,0.353515625,5.546875,4.59375,-0.5390625,1.0
3319726,,,,,,,,9.375,8.6484375,0.7578125,0.34375,-0.490234375,0.287109375,5.85546875,4.2109375,-1.0390625,1.0
3319727,,,,,,,,8.5390625,6.23828125,-0.765625,0.03515625,-0.46484375,0.41796875,5.0078125,1.76171875,-2.4921875,1.0
3319728,,,,,,,,7.55859375,3.171875,-1.44921875,-0.255859375,-0.36328125,0.658203125,4.01171875,-1.3046875,-3.14453125,1.0
3319729,,,,,,,,6.234375,1.74609375,-1.00390625,-0.7265625,-0.14453125,0.869140625,2.671875,-2.72265625,-2.68359375,1.0
3319730,36.013066,129.31896616666666,33.009490132216236,73.89891367971092,2.7,64.0,,3.1171875,0.69921875,0.7109375,-1.65234375,-0.013671875,0.943359375,-0.46875,-3.75390625,-1.0,1.0
3319731,,,,,,,,1.42578125,0.4609375,2.93359375,-2.548828125,0.04296875,0.830078125,-2.19140625,-3.94921875,1.14453125,1.0
3319732,,,,,,,,-2.20703125,0.87109375,10.69921875,-2.849609375,0.138671875,0.646484375,-5.83203125,-3.48828125,8.8046875,1.0
3319733,,,,,,,,-0.63671875,1.5234375,9.48828125,-2.138671875,0.208984375,0.2109375,-4.26171875,-2.796875,7.5,1.0
3319734,,,,,,,,3.96875,4.41015625,6.15625,-0.12890625,0.330078125,-0.716796875,0.375,0.07421875,4.1328125,1.0
3319735,,,,,,,,6.875,9.234375,3.28515625,0.1171875,0.1484375,-1.779296875,3.3984375,4.7890625,1.30078125,1.0
3319736,,,,,,,,6.390625,8.92578125,2.984375,-0.9609375,0.0546875,-1.7578125,3.015625,4.40234375,0.9921875,1.0
3319737,,,,,,,,3.39453125,2.6015625,0.93359375,-2.1328125,0.0234375,-0.75390625,0.10546875,-1.95703125,-1.11328125,1.0
3319738,,,,,,,,2.88671875,-9.0,3.71484375,-2.658203125,-0.005859375,0.837890625,-0.39453125,-13.5234375,1.56640625,1.0
3319739,,,,,,,,-6.296875,-46.11328125,25.29296875,-1.986328125,0.25390625,2.25,-9.625,-50.5625,23.05859375,1.0
3319740,36.013067166666666,129.31896899999998,33.26491127591248,74.02836709183265,2.7,65.0,,-7.16015625,-40.21484375,3.92578125,0.533203125,-0.1328125,2.076171875,-10.62109375,-44.55078125,1.64453125,1.0
3319741,,,,,,,,0.11328125,-15.0625,4.18359375,-0.451171875,-0.166015625,-0.318359375,-3.37890625,-19.421875,1.94921875,1.0
3319742,,,,,,,,4.875,-14.75,1.44140625,-2.31640625,-0.2265625,-1.267578125,1.40625,-19.12109375,-0.80859375,1.0
3319743,,,,,,,,12.8671875,-16.7265625,-0.30078125,-2.025390625,0.2265625,-2.6015625,9.4921875,-21.15234375,-2.64453125,1.0
3319744,,,,,,,,14.47265625,-16.6875,2.09765625,-1.169921875,0.1640625,-2.515625,11.17578125,-21.15234375,-0.26953125,1.0
3319745,,,,,,,,11.1328125,-17.2421875,11.0703125,-2.232421875,-0.564453125,-0.724609375,7.921875,-21.7578125,8.65625,1.0
3319746,,,,,,,,5.546875,-18.4765625,5.203125,-3.919921875,-1.041015625,0.595703125,2.328125,-22.9453125,2.6796875,1.0
3319747,,,,,,,,5.34765625,-17.46875,3.5859375,-3.765625,-1.099609375,0.125,2.09765625,-21.875,0.953125,1.0
3319748,,,,,,,,3.5078125,-14.7109375,2.609375,-3.076171875,-1.3125,-0.423828125,0.2578125,-19.078125,-0.1171875,1.0
3319749,,,,,,,,2.58984375,-14.07421875,3.30078125,-2.822265625,-1.419921875,-0.451171875,-0.66015625,-18.42578125,0.53515625,1.0
3319750,36.01306783333334,129.31897166666667,33.505307825070524,74.10234083506094,2.6,67.0,,0.84375,-12.296875,5.19140625,0.533203125,-0.1328125,2.076171875,-2.421875,-16.625,2.37109375,1.0
3319751,,,,,,,,0.3671875,-10.19140625,4.98828125,-3.021484375,-1.64453125,0.001953125,-2.921875,-14.4765625,2.10546875,1.0
3319752,,,,,,,,-0.60546875,-7.78125,3.70703125,-3.064453125,-1.681640625,-0.18359375,-3.91796875,-12.03125,0.76171875,1.0
3319753,,,,,,,,-2.25,-3.390625,1.58203125,-2.9765625,-1.626953125,-0.1953125,-5.6015625,-7.5859375,-1.45703125,1.0
3319754,,,,,,,,-2.6875,-2.21875,1.6875,-3.048828125,-1.490234375,0.10546875,-6.0625,-6.36328125,-1.421875,1.0
3319755,,,,,,,,-2.21875,-0.20703125,1.8046875,-2.93359375,-1.376953125,0.50390625,-5.64453125,-4.29296875,-1.3828125,1.0
3319756,,,,,,,,-1.828125,2.60546875,2.55078125,-2.662109375,-1.19140625,0.810546875,-5.30078125,-1.41796875,-0.69140625,1.0
3319757,,,,,,,,-1.2265625,5.015625,3.109375,-2.326171875,-1.123046875,1.037109375,-4.7578125,1.0703125,-0.1953125,1.0
3319758,,,,,,,,-0.66796875,7.05859375,2.67578125,-1.73828125,-1.109375,1.03125,-4.296875,3.21484375,-0.69140625,1.0
3319759,,,,,,,,-0.453125,7.2734375,2.26953125,-1.236328125,-1.11328125,0.873046875,-4.15234375,3.484375,-1.11328125,1.0
3319760,36.01306833333333,129.31897433333333,33.74570443884218,74.15782137603831,2.6,70.0,,-0.3046875,5.7578125,1.6796875,-0.59375,-1.013671875,0.693359375,-4.07421875,1.9921875,-1.6875,1.0
3319761,,,,,,,,0.00390625,3.95703125,1.30859375,-0.302734375,-0.93359375,0.62109375,-3.80078125,0.19140625,-2.03515625,1.0
3319762,,,,,,,,0.68359375,2.34765625,1.65625,-0.189453125,-0.8984375,0.591796875,-3.15234375,-1.41796875,-1.6875,1.0
3319763,,,,,,,,1.875,1.16796875,2.3828125,-0.076171875,-0.8828125,0.537109375,-2.0,-2.6015625,-0.921875,1.0
3319764,,,,,,,,2.953125,1.0,3.67578125,0.080078125,-0.93359375,0.318359375,-0.96875,-2.80078125,0.41796875,1.0
3319765,,,,,,,,3.7890625,1.71875,5.09375,0.212890625,-0.869140625,0.103515625,-0.1640625,-2.11328125,1.875,1.0
3319766,,,,,,,,4.1796875,2.921875,5.91015625,0.26171875,-0.826171875,0.005859375,0.21875,-0.921875,2.7109375,1.0
3319767,,,,,,,,4.76171875,4.1953125,6.28515625,0.337890625,-0.685546875,-0.23046875,0.79296875,0.3046875,3.1328125,1.0
3319768,,,,,,,,5.25390625,5.3984375,6.2109375,0.427734375,-0.537109375,-0.50390625,1.29296875,1.453125,3.10546875,1.0
3319769,,,,,,,,6.12109375,6.2421875,5.6484375,0.44921875,-0.44921875,-0.65234375,2.17578125,2.2578125,2.5625,1.0
3319770,36.01306833333333,129.31897783333335,34.06122527536613,74.15782259382068,2.9000000000000004,79.0,,6.25,6.58203125,5.65625,-0.59375,-1.013671875,0.693359375,-4.07421875,1.9921875,-1.6875,1.0
3319771,,,,,,,,5.2890625,5.6484375,5.36328125,0.009765625,-0.255859375,-0.62890625,1.40625,1.53125,2.33203125,1.0
3319772,,,,,,,,4.0859375,4.5703125,5.171875,-0.591796875,-0.263671875,-0.111328125,0.21875,0.421875,2.140625,1.0
3319773,,,,,,,,1.08984375,0.66015625,5.80859375,-0.72265625,-0.234375,0.224609375,-2.76953125,-3.48828125,2.75390625,1.0
3319774,,,,,,,,0.44140625,-4.44140625,4.1796875,-0.51171875,-0.244140625,0.283203125,-3.41796875,-8.578125,1.109375,1.0
3319775,,,,,,,,3.25390625,-24.09375,1.44921875,-0.076171875,-0.38671875,0.70703125,-0.62109375,-28.23828125,-1.61328125,1.0
3319776,,,,,,,,9.62890625,-45.4453125,3.92578125,-0.072265625,-0.705078125,1.642578125,5.69921875,-49.5703125,0.87890625,1.0
3319777,,,,,,,,26.1953125,-63.47265625,38.5625,-0.365234375,-0.6953125,2.744140625,22.171875,-67.53515625,35.546875,1.0
3319778,,,,,,,,16.62890625,-31.703125,17.29296875,-1.095703125,-0.33984375,2.83984375,12.48046875,-35.66796875,14.28515625,1.0
3319779,,,,,,,,2.37109375,-14.7734375,2.0625,-0.4921875,0.181640625,-1.34765625,-1.80859375,-18.6953125,-0.9609375,1.0
3319780,36.01306866666666,129.3189808333333,34.3316715566533,74.19481006012887,2.8000000000000003,84.0,,-4.90234375,-19.0234375,1.52734375,-1.384765625,0.05078125,-4.474609375,-8.93359375,-23.1015625,-1.53515625,1.0
3319781,,,,,,,,-6.71484375,-13.21875,6.8984375,-0.75,0.041015625,-3.494140625,-10.54296875,-17.46875,3.7890625,1.0
3319782,,,,,,,,-1.03125,-8.3125,10.03125,0.783203125,0.115234375,-0.658203125,-4.7578125,-12.6796875,6.9296875,1.0
3319783,,,,,,,,0.4453125,-7.859375,9.3671875,1.025390625,0.208984375,0.134765625,-3.265625,-12.2578125,6.28125,1.0
3319784,,,,,,,,2.91796875,-7.21484375,3.94921875,0.955078125,0.478515625,-0.015625,-0.77734375,-11.6796875,0.91796875,1.0
3319785,,,,,,,,3.859375,-7.78125,1.81640625,0.5546875,0.41796875,-1.11328125,0.21875,-12.3359375,-1.19140625,1.0
3319786,,,,,,,,4.6875,-8.8671875,3.6796875,0.767578125,0.921875,-0.783203125,1.140625,-13.52734375,0.6875,1.0
3319787,,,,,,,,5.828125,-8.0,6.3515625,0.703125,1.25,0.560546875,2.328125,-12.71875,3.3671875,1.0
3319788,,,,,,,,5.96484375,-7.44921875,6.4296875,0.404296875,1.279296875,0.98828125,2.48046875,-12.18359375,3.4453125,1.0
3319789,,,,,,,,6.4609375,-5.37109375,5.87890625,-0.216796875,1.1015625,0.806640625,3.4765625,-7.8125,1.8359375,1.0
3319790,36.013068,129.31898366666667,34.58709347539551,74.12083823479206,2.7,91.0,,-4.90234375,-19.0234375,1.52734375,-1.384765625,0.05078125,-4.474609375,4.1640625,-4.41015625,0.49609375,1.0
3319791,,,,,,,,7.87109375,1.33203125,3.11328125,0.26953125,0.396484375,0.34765625,4.97265625,-1.76171875,-0.234375,1.0
3319792,,,,,,,,8.390625,3.9296875,2.828125,0.3671875,0.109375,0.5390625,4.96875,-0.765625,-0.15625,1.0
3319793,,,,,,,,8.23828125,4.7265625,2.99609375,0.115234375,-0.126953125,0.712890625,4.8125,0.3046875,0.11328125,1.0
3319794,,,,,,,,7.95703125,5.921875,3.50390625,-0.32421875,-0.265625,0.748046875,4.51171875,1.0703125,0.49609375,1.0
3319795,,,,,,,,7.796875,6.96484375,3.609375,-0.73828125,-0.30078125,0.666015625,4.32421875,2.10546875,0.609375,1.0
3319796,,,,,,,,7.55078125,7.37109375,3.12890625,-0.955078125,-0.265625,0.478515625,3.70703125,2.56640625,-0.234375,1.0
3319797,,,,,,,,6.1875,6.93359375,1.84765625,-1.13671875,-0.2109375,0.294921875,2.671875,2.10546875,-1.19140625,1.0
3319798,,,,,,,,5.34375,6.19140625,1.6484375,-1.455078125,-0.1484375,0.25390625,1.21484375,1.109375,-1.42578125,1.0
3319799,,,,,,,,3.8828125,5.4375,1.97265625,-1.841796875,-0.06640625,0.359375,0.375,0.6484375,-1.15234375,1.0
3319800,36.013067166666666,129.3189865,34.8425154698916,74.02837320747925,2.7,99.0,0.0,3.046875,5.0234375,3.4609375,-2.14453125,0.029296875,0.447265625,-0.47265625,0.265625,0.265625,1.0
3319801,,,,,,,,3.16015625,4.35546875,4.55078125,-2.1640625,0.12109375,0.380859375,-0.35546875,-0.34765625,1.2578125,1.0
3319802,,,,,,,,3.61328125,4.41015625,5.5625,-1.9765625,0.21484375,0.193359375,0.10546875,-0.23046875,2.18359375,1.0
3319803,,,,,,,,4.2578125,4.80078125,6.7578125,-1.9375,0.248046875,0.12109375,0.7578125,0.19140625,3.328125,1.0
3319804,,,,,,,,4.80078125,5.53515625,7.49609375,-1.951171875,0.2734375,0.052734375,1.33203125,0.99609375,3.94140625,1.0
3319805,,,,,,,,4.8515625,5.80078125,6.77734375,-2.064453125,0.23046875,-0.021484375,1.40625,1.30078125,3.13671875,1.0
3319806,,,,,,,,5.55078125,5.5546875,5.8828125,-2.150390625,0.173828125,-0.06640625,2.13671875,1.109375,2.140625,1.0
3319807,,,,,,,,6.515625,4.78125,5.88671875,-2.228515625,0.0234375,0.005859375,3.1328125,0.421875,2.02734375,1.0
3319808,,,,,,,,7.234375,4.25,6.23828125,-2.33203125,-0.041015625,0.078125,3.859375,-0.078125,2.33203125,1.0
3319809,,,,,,,,8.22265625,1.51953125,7.40625,-2.7578125,-0.205078125,0.32421875,4.85546875,-2.72265625,3.40625,1.0
3319810,36.013067,129.31898983333335,35.14301158333914,74.009881197938,2.8000000000000003,98.0,,7.51171875,-6.41015625,5.75390625,-2.14453125,0.029296875,0.447265625,4.12890625,-10.53515625,1.64453125,1.0
3319811,,,,,,,,-1.7734375,-41.83984375,13.00390625,-3.634765625,-0.205078125,0.998046875,-5.1796875,-45.8125,8.76953125,1.0
3319812,,,,,,,,-31.0,-78.1484375,26.20703125,-2.939453125,0.091796875,1.6640625,-31.0,-78.15234375,36.00390625,1.0
3319813,,,,,,,,-25.7890625,-48.421875,-9.3828125,-0.72265625,-0.341796875,1.134765625,-25.7890625,-48.42578125,0.41796875,1.0
3319814,,,,,,,,-10.890625,-22.91015625,-10.609375,1.845703125,-0.017578125,-1.48828125,-10.890625,-22.90625,-0.80859375,1.0
3319815,,,,,,,,2.51953125,-18.80859375,-16.125,-4.765625,0.2421875,-3.833984375,2.51953125,-18.80859375,-6.32421875,1.0
3319816,,,,,,,,2.7109375,-17.66015625,-12.71484375,-4.201171875,0.560546875,-4.046875,2.7109375,-17.65625,-2.9140625,1.0
3319817,,,,,,,,4.89453125,-13.9453125,0.08203125,-1.87109375,-0.728515625,-1.50390625,4.89453125,-13.9453125,9.87890625,1.0
3319818,,,,,,,,4.625,-18.46484375,-1.98828125,-2.15625,-0.921875,-0.33203125,4.625,-18.46484375,7.8125,1.0
3319819,,,,,,,,1.59765625,-19.30859375,-7.390625,-4.021484375,-1.29296875,-0.5390625,1.59765625,-19.3046875,2.41015625,1.0
3319820,36.01306666666667,129.3189925,35.38340856209789,73.97289574806936,2.6,98.0,,-2.0390625,-18.1953125,-8.84375,-2.14453125,0.029296875,0.447265625,4.12890625,-10.53515625,1.64453125,1.0
3319821,,,,,,,,-4.60546875,-18.00390625,-6.66015625,-3.1953125,-1.89453125,-0.1015625,-4.60546875,-18.0,3.13671875,1.0
3319822,,,,,,,,-5.44921875,-16.359375,-5.015625,-2.439453125,-1.939453125,0.4140625,-5.44921875,-16.359375,4.78515625,1.0
3319823,,,,,,,,-5.10546875,-12.796875,-7.0078125,-2.185546875,-1.814453125,0.53515625,-5.10546875,-12.796875,2.79296875,1.0
3319824,,,,,,,,-5.2578125,-10.34375,-8.65234375,-2.435546875,-1.515625,-0.005859375,-5.2578125,-10.34765625,1.14453125,1.0
3319825,,,,,,,,-5.9453125,-6.51171875,-11.2578125,-3.037109375,-1.2578125,-0.34765625,-5.9453125,-6.5078125,-1.45703125,1.0
3319826,,,,,,,,-5.91015625,-4.17578125,-11.52734375,-3.244140625,-1.212890625,-0.306640625,-5.90625,-4.17578125,-1.7265625,1.0
3319827,,,,,,,,-5.44921875,-1.41796875,-10.5703125,-3.46875,-1.109375,0.205078125,-5.44921875,-1.41796875,-0.76953125,1.0
3319828,,,,,,,,-5.296875,1.0703125,-9.34375,-2.9453125,-0.90625,1.2734375,-5.296875,1.0703125,0.45703125,1.0
3319829,,,,,,,,-4.953125,2.56640625,-9.03515625,-2.19140625,-0.80078125,1.623046875,-4.95703125,2.56640625,0.76171875,1.0
3319830,36.013064666666665,129.318994,35.518632676186364,73.75097780815071,2.2,106.0,,-5.14453125,3.33203125,-9.3828125,-1.451171875,-0.701171875,1.603515625,-5.14453125,3.33203125,0.41796875,1.0
3319831,,,,,,,,-4.9140625,4.09765625,-9.95703125,-0.94140625,-0.630859375,1.3125,-4.9140625,4.09765625,-0.15625,1.0
3319832,,,,,,,,-4.4140625,3.984375,-10.4921875,-0.822265625,-0.619140625,1.025390625,-4.4140625,3.984375,-0.69140625,1.0
3319833,,,,,,,,-3.95703125,2.640625,-10.5703125,-0.716796875,-0.689453125,0.80078125,-3.41796875,1.8359375,-0.69140625,1.0
3319834,,,,,,,,-2.76953125,1.30078125,-10.453125,-0.466796875,-0.728515625,0.833984375,-2.0,0.53515625,-0.5,1.0
3319835,,,,,,,,0.14453125,-1.07421875,-10.03125,0.01953125,-0.791015625,0.91796875,0.14453125,-1.07421875,-0.234375,1.0
3319836,,,,,,,,1.5234375,-1.80078125,-9.765625,0.236328125,-0.8828125,0.849609375,2.05859375,-2.03125,0.265625,1.0
3319837,,,,,,,,2.94140625,-1.9921875,-7.88671875,0.25,-0.908203125,0.724609375,2.9375,-1.9921875,1.9140625,1.0
3319838,,,,,,,,2.6328125,-1.34375,-6.43359375,-0.017578125,-0.888671875,0.50390625,2.6328125,-1.34375,3.3671875,1.0
3319839,,,,,,,,2.25,-0.421875,-5.58984375,-0.359375,-0.83203125,0.095703125,2.13671875,0.23046875,4.17578125,1.0
3319840,36.013063333333335,129.318996,35.69893090342462,73.60303288200502,2.2,115.0,,-5.14453125,3.33203125,-9.3828125,-0.587890625,-0.736328125,-0.474609375,1.8671875,1.8359375,2.9453125,1.0
3319841,,,,,,,,1.71484375,2.3359375,-7.19921875,-0.71875,-0.6640625,-0.83984375,1.63671875,2.44921875,2.37109375,1.0
3319842,,,,,,,,0.91015625,1.64453125,-7.46484375,-0.94921875,-0.6328125,-0.669921875,0.91015625,1.64453125,2.328125,1.0
3319843,,,,,,,,0.14453125,-0.73046875,-7.3515625,-1.107421875,-0.66015625,-0.005859375,0.14453125,-0.73046875,2.44921875,1.0
3319844,,,,,,,,-0.8125,-7.28125,-6.5078125,-1.072265625,-0.73828125,0.734375,-0.8125,-7.28515625,3.29296875,1.0
3319845,,,,,,,,-1.65625,-14.25,-5.28125,-1.12890625,-0.763671875,1.271484375,-2.0390625,-18.8828125,5.0546875,1.0
3319846,,,,,,,,-1.734375,-35.703125,-3.8671875,-1.11328125,-0.697265625,1.625,-1.734375,-35.70703125,5.93359375,1.0
3319847,,,,,,,,1.67578125,-45.3203125,-0.1875,-0.923828125,-0.60546875,1.796875,1.67578125,-45.32421875,9.61328125,1.0
3319848,,,,,,,,4.93359375,-36.46875,10.26953125,-0.525390625,-0.38671875,1.564453125,4.93359375,-36.46875,20.0703125,1.0
3319849,,,,,,,,-1.96484375,-23.40625,-3.828125,-0.83984375,-0.40234375,0.376953125,-1.96484375,-23.40625,5.97265625,1.0
3319850,36.01306216666667,129.31899766666666,35.84917945631268,73.47358104436853,2.1,121.0,,-8.09375,-18.04296875,-10.1484375,-1.33203125,-0.00390625,-2.55078125,1.8671875,1.8359375,2.9453125,1.0
3319851,,,,,,,,-6.17578125,-20.03515625,-6.5078125,-0.87890625,-0.015625,-2.74609375,-6.17578125,-20.03515625,3.29296875,1.0
3319852,,,,,,,,-4.56640625,-19.65234375,-5.4375,0.291015625,-0.279296875,-0.982421875,-4.56640625,-19.6484375,4.36328125,1.0
3319853,,,,,,,,-3.265625,-17.27734375,-5.359375,0.78515625,-0.0546875,0.0859375,-3.265625,-17.27734375,4.44140625,1.0
3319854,,,,,,,,-2.8046875,-16.47265625,-6.39453125,0.650390625,-0.025390625,0.087890625,-2.8046875,-16.47265625,3.40625,1.0
3319855,,,,,,,,-1.2734375,-15.1328125,-8.15625,0.3125,0.0078125,-0.37890625,-1.2734375,-15.1328125,1.64453125,1.0
3319856,,,,,,,,1.75390625,-14.48046875,-7.7734375,0.341796875,0.3828125,-0.26171875,1.75390625,-14.48046875,2.02734375,1.0
3319857,,,,,,,,2.3671875,-14.44140625,-7.16015625,0.5078125,0.529296875,0.078125,2.3671875,-14.44140625,2.640625,1.0
3319858,,,,,,,,2.82421875,-14.671875,-5.93359375,0.55859375,0.66796875,0.748046875,2.82421875,-14.67578125,3.8671875,1.0
3319859,,,,,,,,2.05859375,-13.9453125,-6.546875,0.384765625,0.69140625,0.904296875,2.05859375,-13.94921875,3.25390625,1.0
3319860,36.0130605,129.318999,35.96937863574955,73.28864946389184,2.1,132.0,,1.140625,-12.2578125,-8.38671875,-1.33203125,-0.00390625,-2.55078125,1.8671875,1.8359375,2.9453125,1.0
3319861,,,,,,,,0.12109375,1.8046875,-1.19140625,-0.1484375,0.40234375,0.82421875,1.21484375,-10.6875,0.37890625,1.0
3319862,,,,,,,,0.69921875,4.69921875,-1.6640625,0.017578125,0.203125,0.978515625,1.67578125,-7.7734375,-0.1171875,1.0
3319863,,,,,,,,1.1640625,7.07421875,-1.16015625,0.166015625,-0.001953125,1.24609375,1.9453125,-5.32421875,0.37890625,1.0
3319864,,,,,,,,1.33984375,8.6640625,-0.796875,0.08984375,-0.072265625,1.212890625,1.98046875,-3.64453125,0.7265625,1.0
3319865,,,,,,,,1.53515625,11.43359375,-0.8671875,-0.08203125,-0.1484375,0.841796875,2.015625,-0.65234375,0.609375,1.0
3319866,,,,,,,,1.8125,12.33984375,-0.98046875,-0.123046875,-0.12890625,0.533203125,2.25,0.45703125,0.45703125,1.0
3319867,,,,,,,,2.88671875,11.984375,-0.7734375,-0.232421875,-0.1328125,0.2734375,3.32421875,0.34375,0.609375,1.0
3319868,,,,,,,,4.34765625,11.82421875,-1.015625,-0.35546875,-0.14453125,0.0703125,4.8125,0.45703125,0.3046875,1.0
3319869,,,,,,,,4.46875,11.3359375,-1.25390625,-0.412109375,-0.171875,-0.0546875,5.01171875,0.265625,-0.00390625,1.0
3319870,36.01305833333333,129.31899966666666,36.02947883549492,73.04823801745476,2.2,148.0,,3.07421875,10.328125,-1.55078125,-0.5859375,-0.173828125,-0.078125,3.70703125,-0.421875,-0.38671875,1.0
3319871,,,,,,,,1.6484375,9.8828125,-1.2734375,-0.990234375,-0.1328125,-0.029296875,2.3671875,-0.5390625,-0.234375,1.0
3319872,,,,,,,,-0.40234375,10.3515625,-0.50390625,-1.39453125,0.015625,-0.017578125,0.41015625,0.265625,0.37890625,1.0
3319873,,,,,,,,-1.12890625,10.609375,-0.15625,-1.552734375,0.1015625,-0.0234375,-0.27734375,0.6875,0.6484375,1.0
3319874,,,,,,,,-2.06640625,10.83984375,0.328125,-1.767578125,0.208984375,-0.099609375,-1.16015625,1.26171875,0.953125,1.0
3319875,,,,,,,,-2.48046875,10.71484375,2.41796875,-1.736328125,0.27734375,-0.283203125,-1.50390625,1.68359375,2.7890625,1.0
3319876,,,,,,,,0.98828125,10.875,3.04296875,-1.384765625,0.18359375,-0.375,2.01953125,2.4140625,3.25390625,1.0
3319877,,,,,,,,1.5546875,10.3671875,3.37109375,-1.4609375,0.029296875,-0.369140625,2.6328125,2.296875,3.51953125,1.0
3319878,,,,,,,,1.65625,9.67578125,3.3359375,-1.740234375,-0.0703125,-0.25390625,2.75,1.80078125,3.4453125,1.0
3319879,,,,,,,,1.40234375,5.35546875,2.72265625,-2.322265625,-0.2421875,0.19140625,2.51953125,-2.14453125,2.75390625,1.0
3319880,36.013057,129.319001,36.14967787235106,72.90029285480634,2.1,147.0,,1.37109375,-0.84375,2.41796875,-2.625,-0.36328125,0.76953125,3.70703125,-0.421875,-0.38671875,1.0
3319881,,,,,,,,-4.13671875,-25.48046875,10.11328125,-2.615234375,-0.349609375,1.185546875,-3.07421875,-32.4453125,9.95703125,1.0
3319882,,,,,,,,-15.640625,-51.51953125,24.90625,-2.248046875,-0.044921875,1.603515625,-14.71875,-58.53515625,24.78125,1.0
3319883,,,,,,,,-17.7421875,-41.23828125,2.03515625,-0.5859375,-0.255859375,1.205078125,-17.0546875,-48.57421875,2.02734375,1.0
3319884,,,,,,,,-3.765625,-9.87109375,0.31640625,-0.380859375,-0.03515625,-0.625,-3.3046875,-17.6171875,0.53515625,1.0
3319885,,,,,,,,4.80859375,-11.83203125,-2.0234375,-3.88671875,0.22265625,-2.431640625,5.19921875,-19.99609375,-1.8046875,1.0
3319886,,,,,,,,9.6484375,-11.73828125,4.72265625,-2.919921875,0.267578125,-2.984375,10.1015625,-20.109375,4.86328125,1.0
3319887,,,,,,,,6.03125,-13.23046875,14.765625,-1.748046875,-0.173828125,-1.869140625,6.6171875,-22.02734375,14.8984375,1.0
3319888,,,,,,,,0.9296875,-13.8515625,3.19921875,-3.572265625,-0.921875,0.21484375,1.5625,-23.1015625,3.29296875,1.0
3319889,,,,,,,,-1.17578125,-10.234375,1.5625,-3.919921875,-1.052734375,-0.025390625,-0.62109375,-20.19140625,1.3359375,1.0
3319890,36.013055333333334,129.31900216666665,36.25485226135697,72.7153612161015,2.1,147.0,,-3.15234375,-8.640625,3.68359375,-3.353515625,-1.22265625,-0.1484375,-2.61328125,-19.0390625,3.21484375,1.0
3319891,,,,,,,,-3.87109375,-7.59765625,4.25390625,-3.37109375,-1.3828125,0.134765625,-3.37890625,-18.421875,3.55859375,1.0
3319892,,,,,,,,-3.640625,-6.69921875,3.4609375,-3.525390625,-1.47265625,0.20703125,-3.1875,-17.73828125,2.640625,1.0
3319893,,,,,,,,-4.57421875,-2.21484375,1.62109375,-3.552734375,-1.5703125,0.05859375,-4.26171875,-13.79296875,0.33984375,1.0
3319894,,,,,,,,-5.5546875,0.2734375,1.21875,-3.54296875,-1.564453125,0.044921875,-5.296875,-11.453125,-0.234375,1.0
3319895,,,,,,,,-6.30078125,3.05859375,1.41015625,-3.515625,-1.4765625,0.203125,-6.17578125,-8.92578125,-0.38671875,1.0
3319896,,,,,,,,-5.9296875,6.01171875,1.62109375,-3.2734375,-1.201171875,0.4921875,-6.1015625,-6.20703125,-0.69140625,1.0
3319897,,,,,,,,-5.3125,7.69921875,1.1796875,-3.201171875,-1.09375,0.509765625,-5.6015625,-4.55859375,-1.3046875,1.0
3319898,,,,,,,,-4.51171875,11.22265625,1.5703125,-3.0,-0.869140625,0.53515625,-5.140625,-1.03515625,-1.3828125,1.0
3319899,,,,,,,,-3.92578125,13.58984375,1.765625,-2.95703125,-0.814453125,0.595703125,-4.6796875,1.37890625,-1.34375,1.0
3319900,36.013053,129.31900216666665,36.25485333011554,72.45645631653986,2.3000000000000003,166.0,0.0,-3.16796875,15.81640625,2.390625,-3.353515625,-1.22265625,-0.1484375,-2.61328125,-19.0390625,3.21484375,1.0
3319901,,,,,,,,-2.390625,15.7734375,3.078125,-2.361328125,-0.6953125,1.021484375,-3.6875,3.94921875,-0.5390625,1.0
3319902,,,,,,,,-1.95703125,14.87109375,3.47265625,-1.91796875,-0.6171875,1.1640625,-3.53125,3.33203125,-0.30859375,1.0
3319903,,,,,,,,-1.42578125,11.7890625,4.00390625,-1.275390625,-0.458984375,1.234375,-3.4140625,0.765625,0.11328125,1.0
3319904,,,,,,,,-0.11328125,9.28515625,4.5859375,-1.095703125,-0.33203125,1.107421875,-2.34375,-1.37890625,0.6875,1.0
3319905,,,,,,,,1.01171875,8.3359375,4.5234375,-1.0859375,-0.263671875,0.8515625,-1.42578125,-1.953125,0.6484375,1.0
3319906,,,,,,,,1.5859375,8.26953125,4.5078125,-1.0390625,-0.244140625,0.677734375,-0.9296875,-1.8359375,0.6484375,1.0
3319907,,,,,,,,2.65234375,8.29296875,5.03515625,-0.869140625,-0.26953125,0.330078125,0.02734375,-1.453125,1.22265625,1.0
3319908,,,,,,,,3.66796875,10.01953125,5.8671875,-0.76953125,-0.33984375,0.03515625,0.98828125,0.61328125,2.14453125,1.0
3319909,,,,,,,,3.859375,10.74609375,5.765625,-0.76171875,-0.41015625,-0.21484375,1.1796875,1.68359375,2.14453125,1.0
3319910,36.013050666666665,129.31900166666668,36.209779986732876,72.19755123153749,2.4000000000000004,178.0,,3.22265625,10.80859375,6.22265625,-3.353515625,-1.22265625,-0.1484375,0.56640625,2.10546875,2.7109375,1.0
3319911,,,,,,,,2.1796875,10.05859375,5.953125,-1.080078125,-0.484375,-0.2578125,-0.4296875,1.72265625,2.56640625,1.0
3319912,,,,,,,,1.03515625,8.94921875,5.03125,-1.376953125,-0.52734375,-0.017578125,-1.54296875,0.99609375,1.7578125,1.0
3319913,,,,,,,,0.5546875,8.05078125,4.6640625,-1.41015625,-0.55859375,0.1015625,-2.00390625,0.49609375,1.4921875,1.0
3319914,,,,,,,,0.078125,6.86328125,4.390625,-1.287109375,-0.609375,0.12109375,-2.46484375,-0.30859375,1.3359375,1.0
3319915,,,,,,,,-0.6953125,4.359375,4.0234375,-1.091796875,-0.65625,0.1328125,-3.2265625,-2.453125,1.109375,1.0
3319916,,,,,,,,-1.1875,1.6953125,3.7578125,-0.88671875,-0.724609375,0.228515625,-3.7265625,-4.79296875,0.9921875,1.0
3319917,,,,,,,,-1.26171875,-7.23046875,3.09375,-0.599609375,-0.80859375,0.517578125,-3.83984375,-13.33203125,0.5703125,1.0
3319918,,,,,,,,-1.28515625,-13.90625,4.69140625,-0.4609375,-0.8359375,0.751953125,-3.91796875,-19.84375,2.33203125,1.0
3319919,,,,,,,,1.0390625,-23.20703125,9.46875,-0.326171875,-0.84765625,0.986328125,-1.65625,-29.109375,7.3125,1.0
3319920,36.0130485,129.31900133333332,36.17973136305676,71.95713941460518,2.3000000000000003,181.0,,4.38671875,-27.12109375,11.15234375,0.08984375,-0.767578125,0.890625,0.56640625,2.10546875,2.7109375,1.0
3319921,,,,,,,,3.98046875,-23.73828125,9.109375,0.041015625,-0.51171875,0.51171875,1.21484375,-29.99609375,7.46875,1.0
3319922,,,,,,,,-2.890625,-17.921875,5.73046875,-0.859375,-0.1875,-0.443359375,-5.6015625,-24.7109375,4.44140625,1.0
3319923,,,,,,,,-4.69921875,-17.87109375,4.9375,-0.853515625,-0.0546875,-0.861328125,-7.36328125,-24.86328125,3.75,1.0
3319924,,,,,,,,-4.65625,-17.59375,4.0625,-0.556640625,0.025390625,-1.1796875,-7.25,-25.0546875,3.0625,1.0
3319925,,,,,,,,-3.26953125,-16.59375,3.50390625,0.10546875,0.01171875,-0.923828125,-5.79296875,-24.55859375,2.71484375,1.0
3319926,,,,,,,,-1.09375,-14.6171875,3.4921875,0.64453125,0.05078125,-0.791015625,-3.5703125,-23.10546875,2.9453125,1.0
3319927,,,,,,,,-0.375,-11.71875,3.671875,1.025390625,0.236328125,-0.77734375,-2.8046875,-20.7265625,3.40625,1.0
3319928,,,,,,,,-0.29296875,-10.6953125,3.29296875,1.08984375,0.349609375,-0.72265625,-2.69140625,-19.9609375,3.17578125,1.0
3319929,,,,,,,,0.6953125,-7.3203125,2.19921875,1.076171875,0.583984375,-0.53515625,-1.65625,-17.08984375,2.37109375,1.0
3319930,36.013046333333335,129.31900066666668,36.119633133898546,71.71672747570668,2.3000000000000003,187.0,,2.49609375,-3.3828125,0.69921875,1.072265625,0.8046875,-0.27734375,0.18359375,-13.6015625,1.14453125,1.0
3319931,,,,,,,,3.359375,-0.50390625,-0.6640625,1.06640625,0.880859375,0.19140625,1.0625,-11.30078125,0.1484375,1.0
3319932,,,,,,,,3.90234375,1.375,-1.77734375,1.056640625,0.87109375,0.345703125,1.59765625,-9.58203125,-0.84765625,1.0
3319933,,,,,,,,4.30859375,2.90625,-2.21484375,1.03125,0.828125,0.654296875,1.98046875,-8.3125,-1.07421875,1.0
3319934,,,,,,,,4.7578125,4.51171875,-1.890625,0.7421875,0.765625,1.06640625,2.3671875,-6.97265625,-0.5,1.0
3319935,,,,,,,,6.28125,7.02734375,-1.39453125,0.552734375,0.6328125,1.220703125,3.8203125,-4.55859375,0.11328125,1.0
3319936,,,,,,,,6.62109375,7.83984375,-1.48046875,0.541015625,0.494140625,1.232421875,4.125,-3.79296875,0.11328125,1.0
3319937,,,,,,,,7.05859375,9.5859375,-1.57421875,0.697265625,0.333984375,1.1484375,4.55078125,-2.03125,0.11328125,1.0
3319938,,,,,,,,6.92578125,10.34375,-1.515625,0.751953125,0.21875,0.99609375,4.43359375,-1.1875,0.265625,1.0
3319939,,,,,,,,6.90234375,10.59375,-1.29296875,0.6875,0.154296875,0.90234375,4.4296875,-0.8828125,0.53515625,1.0
3319940,36.013044666666666,129.31899866666666,35.93933621766931,71.53179466568963,2.7,204.0,,6.65625,10.875,-1.203125,0.376953125,0.06640625,0.62109375,0.18359375,-13.6015625,1.14453125,1.0
3319941,,,,,,,,6.828125,10.2421875,-1.21875,0.017578125,0.025390625,0.263671875,4.5859375,-0.921875,0.6875,1.0
3319942,,,,,,,,6.51953125,9.55859375,-0.5390625,-0.3515625,0.029296875,-0.099609375,4.46875,-1.41796875,1.3359375,1.0
3319943,,,,,,,,5.34375,10.22265625,0.22265625,-0.556640625,0.037109375,-0.2578125,3.40234375,-0.65234375,2.06640625,1.0
3319944,,,,,,,,3.86328125,10.9765625,0.7734375,-0.953125,0.083984375,-0.541015625,2.17578125,0.3046875,2.52734375,1.0
3319945,,,,,,,,2.0625,11.9296875,0.36328125,-1.25,0.17578125,-0.791015625,0.640625,1.4921875,1.98828125,1.0
3319946,,,,,,,,1.03125,12.14453125,0.08203125,-1.30859375,0.328125,-1.0546875,-0.0078125,2.10546875,1.52734375,1.0
3319947,,,,,,,,0.671875,13.02734375,-0.05859375,-1.173828125,0.349609375,-0.98828125,-0.125,3.29296875,1.26171875,1.0
3319948,,,,,,,,0.86328125,13.515625,0.2109375,-1.134765625,0.31640625,-0.857421875,0.18359375,3.94921875,1.4921875,1.0
3319949,,,,,,,,1.0703125,13.08203125,0.625,-1.314453125,0.126953125,-0.400390625,0.640625,4.0546875,1.7578125,1.0
3319950,36.01304233333334,129.31899733333333,35.81913882423727,71.27288927596238,2.8000000000000003,205.0,,0.9453125,11.58203125,0.8125,-1.591796875,-0.0078125,-0.14453125,0.18359375,-13.6015625,1.14453125,1.0
3319951,,,,,,,,-1.015625,3.24609375,0.8828125,-1.890625,-0.109375,0.1796875,-1.234375,-5.01953125,1.796875,1.0
3319952,,,,,,,,-2.89453125,-8.046875,4.80078125,-2.017578125,-0.115234375,0.556640625,-3.07421875,-15.9765625,5.58984375,1.0
3319953,,,,,,,,-9.11328125,-36.58203125,13.703125,-1.68359375,0.041015625,0.869140625,-9.31640625,-44.3203125,14.4375,1.0
3319954,,,,,,,,-10.19921875,-38.28125,5.96484375,-0.939453125,0.181640625,0.98828125,-10.50390625,-46.05078125,6.73828125,1.0
3319955,,,,,,,,-9.1328125,-13.21484375,5.984375,0.22265625,-0.123046875,0.541015625,-9.5859375,-21.18359375,6.890625,1.0
3319956,,,,,,,,-3.82421875,-7.0859375,1.80859375,-0.51171875,-0.1875,-0.0703125,-4.33984375,-15.17578125,2.79296875,1.0
3319957,,,,,,,,2.25390625,-8.35546875,-0.6328125,-2.33984375,0.08984375,-2.330078125,1.71484375,-16.8515625,0.3046875,1.0
3319958,,,,,,,,8.34765625,-13.7421875,5.48046875,-1.0859375,-0.111328125,-1.78515625,7.95703125,-22.56640625,6.39453125,1.0
3319959,,,,,,,,4.1796875,-15.125,8.55078125,-1.859375,-0.48828125,0.109375,3.859375,-24.2890625,9.49609375,1.0
3319960,36.013040000000004,129.31899616666666,35.71396623124399,71.01398394877909,2.7,204.0,,-0.6328125,-11.29296875,3.58203125,-2.884765625,-0.68359375,0.359375,-0.96875,-20.8359375,4.44140625,1.0
3319961,,,,,,,,-0.80078125,-9.29296875,1.38671875,-2.72265625,-0.66015625,-0.439453125,-1.12109375,-19.2265625,2.10546875,1.0
3319962,,,,,,,,-1.18359375,-8.59765625,2.0546875,-2.423828125,-0.748046875,-0.3046875,-1.46484375,-18.92578125,2.640625,1.0
3319963,,,,,,,,-2.109375,-6.95703125,2.9765625,-2.68359375,-0.9375,0.052734375,-2.3828125,-17.66015625,3.40625,1.0
3319964,,,,,,,,-2.0859375,-4.60546875,2.3046875,-2.765625,-1.060546875,0.099609375,-2.3828125,-15.6640625,2.5234375,1.0
3319965,,,,,,,,-3.59765625,-0.31640625,0.734375,-2.5234375,-1.126953125,0.017578125,-3.95703125,-11.83984375,0.6484375,1.0
3319966,,,,,,,,-4.8359375,2.703125,1.11328125,-2.412109375,-1.04296875,0.095703125,-5.2578125,-9.08203125,0.80078125,1.0
3319967,,,,,,,,-4.93359375,4.84375,1.2265625,-2.392578125,-0.890625,0.201171875,-5.44921875,-7.12890625,0.6875,1.0
3319968,,,,,,,,-4.546875,6.8515625,1.0234375,-2.302734375,-0.7421875,0.201171875,-5.1796875,-5.25390625,0.265625,1.0
3319969,,,,,,,,-4.09375,9.6796875,0.8671875,-2.09375,-0.517578125,0.064453125,-4.91796875,-2.4921875,-0.1953125,1.0
