time,latitude,longitude,enu_x,enu_y,speed,course,ecg,accX,accY,accZ,gyrX,gyrY,gyrZ,eulR,eulP,eulY
4053500,36.01251583333333,129.31924783333335,58.4018114567054,12.852971790957842,1.1,319.0,0.0,-0.00390625,-1.0078125,-1.203125,-0.111328125,-0.08203125,0.037109375,0.27734375,-10.3828125,0.9375
4053501,,,,,,,,-0.12109375,-0.85546875,-0.95703125,-0.2265625,-0.0703125,0.04296875,0.16015625,-10.2265625,1.16796875
4053502,,,,,,,,-0.49609375,-0.234375,-0.53515625,-0.298828125,-0.037109375,0.046875,-0.22265625,-9.6171875,1.55078125
4053503,,,,,,,,-0.91796875,0.15625,-0.4296875,-0.333984375,0.01953125,0.046875,-0.64453125,-9.23828125,1.625
4053504,,,,,,,,-1.484375,-0.71875,-0.93359375,-0.376953125,0.109375,0.029296875,-1.21875,-10.1171875,1.08984375
4053505,,,,,,,,-1.32421875,-2.12890625,0.0234375,-0.4453125,0.177734375,0.01953125,-1.06640625,-11.53515625,2.0078125
4053506,,,,,,,,-0.81640625,-2.1953125,1.60546875,-0.513671875,0.220703125,0.015625,-0.56640625,-11.61328125,3.54296875
4053507,,,,,,,,-0.3125,-1.5,2.30859375,-0.5234375,0.22265625,0.021484375,-0.0703125,-10.92578125,4.19140625
4053508,,,,,,,,0.05078125,-1.4453125,1.36328125,-0.6171875,0.1953125,0.0546875,0.27734375,-10.8828125,3.19921875
4053509,,,,,,,,0.36328125,-2.88671875,1.8515625,-0.88671875,0.138671875,0.08203125,0.58203125,-12.33984375,3.6171875
4053510,36.01251683333333,129.319247,58.32668618496363,12.963930523308445,1.2000000000000002,321.0,,1.0703125,-3.51171875,2.99609375,-0.994140625,0.0078125,0.12109375,1.2734375,-12.98828125,4.61328125
4053511,,,,,,,,0.625,-3.0390625,3.3828125,-0.625,-0.025390625,0.11328125,0.8125,-12.53125,4.921875
4053512,,,,,,,,-0.02734375,-3.06640625,2.984375,-0.47265625,-0.015625,0.095703125,0.16015625,-12.56640625,4.5
4053513,,,,,,,,-0.546875,-2.953125,2.80078125,-0.515625,-0.05078125,0.076171875,-0.375,-12.45703125,4.26953125
4053514,,,,,,,,-0.546875,-2.9453125,2.7421875,-0.603515625,-0.185546875,0.078125,-0.375,-12.45703125,4.15625
4053515,,,,,,,,-0.39453125,-2.8515625,2.6796875,-0.412109375,-0.322265625,0.05859375,-0.22265625,-12.375,4.0390625
4053516,,,,,,,,-0.30859375,-2.73046875,2.765625,-0.2421875,-0.341796875,0.04296875,-0.14453125,-12.26171875,4.1171875
4053517,,,,,,,,-0.03515625,-2.1953125,2.3203125,0.052734375,-0.32421875,0.087890625,0.12109375,-11.7265625,3.65625
4053518,,,,,,,,0.08984375,-1.49609375,1.9296875,0.048828125,-0.44140625,0.140625,0.23828125,-11.03515625,3.2734375
4053519,,,,,,,,0.12890625,-1.3046875,1.82421875,0.05859375,-0.515625,0.16015625,0.27734375,-10.84765625,3.16015625
4053520,36.01251783333333,129.31924633333335,58.26658582502164,13.074889357240384,1.1,324.0,,0.09765625,-0.76953125,1.4609375,-0.994140625,0.0078125,0.12109375,1.2734375,-12.98828125,4.61328125
4053521,,,,,,,,0.12890625,-0.30078125,1.09375,0.248046875,-0.6484375,0.271484375,0.23828125,-9.84765625,2.46875
4053522,,,,,,,,0.14453125,0.1875,0.83984375,0.31640625,-0.642578125,0.287109375,0.23828125,-9.3515625,2.23828125
4053523,,,,,,,,0.19921875,0.609375,0.609375,0.333984375,-0.654296875,0.318359375,0.27734375,-8.9296875,2.046875
4053524,,,,,,,,0.3046875,1.33203125,0.3046875,0.314453125,-0.650390625,0.35546875,0.3515625,-8.1953125,1.78125
4053525,,,,,,,,0.421875,1.9140625,-0.00390625,0.23828125,-0.595703125,0.404296875,0.4296875,-7.62890625,1.51171875
4053526,,,,,,,,0.58984375,2.25,-0.1640625,0.208984375,-0.576171875,0.4140625,0.58203125,-7.28515625,1.359375
4053527,,,,,,,,0.546875,2.5546875,-0.21875,0.166015625,-0.53125,0.4453125,0.5078125,-6.98046875,1.3203125
4053528,,,,,,,,0.65234375,2.81640625,-0.38671875,0.142578125,-0.505859375,0.474609375,0.58203125,-6.703125,1.16796875
4053529,,,,,,,,0.96875,2.9296875,-0.48046875,0.1171875,-0.48046875,0.490234375,0.8515625,-6.59765625,1.08984375
4053530,36.01251883333334,129.31924566666666,58.206485464228784,13.185848193043206,1.2000000000000002,328.0,,1.23828125,3.015625,-0.5703125,0.09765625,-0.466796875,0.501953125,1.08203125,-6.51953125,1.015625
4053531,,,,,,,,1.3515625,3.20703125,-0.6953125,0.078125,-0.41015625,0.501953125,1.15625,-6.32421875,0.8984375
4053532,,,,,,,,1.55078125,3.19921875,-0.85546875,0.06640625,-0.3515625,0.49609375,1.30859375,-6.3203125,0.74609375
4053533,,,,,,,,1.7578125,2.89453125,-0.93359375,0.05859375,-0.33203125,0.5,1.5,-6.62890625,0.66796875
4053534,,,,,,,,1.69140625,2.703125,-0.94140625,0.064453125,-0.28515625,0.478515625,1.38671875,-6.82421875,0.66796875
4053535,,,,,,,,1.37109375,2.37890625,-0.83984375,0.0625,-0.19921875,0.4375,1.00390625,-7.125,0.78515625
4053536,,,,,,,,1.25,2.2265625,-0.7734375,0.083984375,-0.134765625,0.390625,0.8515625,-7.28515625,0.859375
4053537,,,,,,,,1.43359375,2.07421875,-0.78125,0.1015625,-0.1640625,0.34765625,1.00390625,-7.4296875,0.859375
4053538,,,,,,,,1.48828125,2.02734375,-0.828125,0.091796875,-0.171875,0.328125,1.04296875,-7.46875,0.8203125
4053539,,,,,,,,1.3359375,1.8359375,-1.02734375,0.044921875,-0.099609375,0.26171875,0.8515625,-7.6640625,0.62890625
4053540,36.01251966666667,129.31924466666666,58.11633541703024,13.278313623303447,1.2000000000000002,324.0,,1.16015625,1.3359375,-0.84375,0.05859375,-0.037109375,0.220703125,0.66015625,-8.16796875,0.8203125
4053541,,,,,,,,1.06640625,1.13671875,-0.7734375,0.109375,-0.044921875,0.189453125,0.54296875,-8.3515625,0.8984375
4053542,,,,,,,,0.9609375,0.5546875,-0.7421875,0.140625,-0.044921875,0.166015625,0.4296875,-8.93359375,0.9375
4053543,,,,,,,,0.984375,-0.21875,-0.54296875,0.181640625,0.0390625,0.109375,0.4296875,-9.6953125,1.16796875
4053544,,,,,,,,0.83984375,-0.33984375,-0.453125,0.171875,0.111328125,0.083984375,0.27734375,-9.8046875,1.28125
4053545,,,,,,,,0.69921875,-0.1875,-0.390625,0.17578125,0.123046875,0.0546875,0.12109375,-9.66015625,1.359375
4053546,,,,,,,,0.6328125,-0.01171875,-0.4453125,0.17578125,0.1171875,0.046875,0.046875,-9.46484375,1.3203125
4053547,,,,,,,,0.59375,0.2578125,-0.4609375,0.16015625,0.11328125,0.02734375,0.0078125,-9.19921875,1.3203125
4053548,,,,,,,,0.59375,0.21875,-0.5,0.171875,0.12109375,0.021484375,0.0078125,-9.23828125,1.28125
4053549,,,,,,,,0.515625,0.1328125,-0.515625,0.19921875,0.142578125,0.01171875,-0.0703125,-9.31640625,1.28125
4053550,36.012520333333335,129.31924366666667,58.026185493621014,13.352285848574027,1.1,319.0,,0.515625,-0.05859375,-0.60546875,0.203125,0.150390625,0.00390625,-0.0703125,-9.50390625,1.20703125
4053551,,,,,,,,0.5625,-0.40234375,-0.66015625,0.2265625,0.154296875,-0.005859375,-0.03125,-9.84375,1.16796875
4053552,,,,,,,,0.6796875,-0.87109375,-0.76171875,0.216796875,0.12109375,-0.01171875,0.0859375,-10.30859375,1.08984375
4053553,,,,,,,,0.6796875,-0.9453125,-0.80859375,0.20703125,0.111328125,-0.005859375,0.0859375,-10.38671875,1.05078125
4053554,,,,,,,,0.5625,-1.0,-0.8515625,0.142578125,0.11328125,0.00390625,-0.03125,-10.421875,1.015625
4053555,,,,,,,,0.2578125,-0.80859375,-0.984375,0.0703125,0.1171875,0.01171875,-0.3359375,-10.23046875,0.8984375
4053556,,,,,,,,-0.1640625,-0.6171875,-0.71484375,-0.05859375,0.1015625,0.01171875,-0.7578125,-10.0390625,1.16796875
4053557,,,,,,,,-0.234375,-0.578125,-0.125,-0.1328125,0.078125,0.005859375,-0.8359375,-10.00390625,1.7421875
4053558,,,,,,,,-0.08203125,-0.53515625,0.04296875,-0.1953125,0.072265625,0.0078125,-0.68359375,-9.96484375,1.89453125
4053559,,,,,,,,0.6796875,-1.3359375,0.02734375,-0.251953125,0.056640625,0.0,0.0859375,-10.76953125,1.85546875
4053560,36.01252133333333,129.31924266666667,57.93603532984495,13.463244486253519,1.3,317.0,,1.03125,-2.25,-0.1015625,-0.314453125,0.044921875,0.001953125,0.4296875,-11.6875,1.703125
4053561,,,,,,,,0.76171875,-3.3515625,0.359375,-0.373046875,0.048828125,0.013671875,0.16015625,-12.80078125,2.125
4053562,,,,,,,,-0.1171875,-2.65625,1.203125,-0.4140625,0.033203125,0.01171875,-0.71875,-12.11328125,2.9296875
4053563,,,,,,,,-0.921875,-1.7734375,1.77734375,-0.44140625,0.03515625,0.01171875,-1.5234375,-11.2265625,3.46484375
4053564,,,,,,,,-1.46875,-1.3046875,2.19921875,-0.568359375,0.0546875,0.01171875,-2.0625,-10.765625,3.84765625
4053565,,,,,,,,-1.08203125,-1.55859375,2.26171875,-0.73046875,0.048828125,0.00390625,-1.67578125,-11.03515625,3.84765625
4053566,,,,,,,,-0.31640625,-2.0859375,2.140625,-0.78515625,0.1171875,-0.041015625,-0.91015625,-11.5703125,3.65625
4053567,,,,,,,,-0.08984375,-2.76953125,2.6328125,-0.640625,0.26171875,-0.076171875,-0.68359375,-12.26171875,4.078125
4053568,,,,,,,,-0.125,-2.80078125,2.77734375,-0.5234375,0.310546875,-0.091796875,-0.71875,-12.30078125,4.19140625
4053569,,,,,,,,-0.25,-2.82421875,2.75,-0.365234375,0.30078125,-0.09375,-0.8359375,-12.33984375,4.1171875
4053570,36.012522,129.31924166666667,57.84588540991122,13.537216714827832,1.2000000000000002,315.0,,-0.33203125,-2.546875,2.62890625,-0.314453125,0.044921875,0.001953125,-0.91015625,-12.07421875,3.96484375
4053571,,,,,,,,-0.33984375,-2.1953125,2.484375,-0.421875,0.099609375,-0.099609375,-0.91015625,-11.7265625,3.7734375
4053572,,,,,,,,-0.6640625,-1.54296875,1.9765625,-0.3046875,0.228515625,-0.11328125,-1.21875,-11.0703125,3.234375
4053573,,,,,,,,-0.9765625,-0.9609375,1.92578125,-0.13671875,0.3359375,-0.15234375,-1.5234375,-10.5,3.16015625
4053574,,,,,,,,-1.109375,-0.76171875,1.89453125,0.009765625,0.3671875,-0.220703125,-1.640625,-10.30859375,3.12109375
4053575,,,,,,,,-1.015625,-0.609375,1.703125,0.068359375,0.384765625,-0.263671875,-1.5234375,-10.16015625,2.9296875
4053576,,,,,,,,-0.83203125,-0.30078125,1.6171875,0.09375,0.392578125,-0.28125,-1.33203125,-9.84765625,2.8515625
4053577,,,,,,,,-0.59765625,0.2421875,1.3046875,0.099609375,0.380859375,-0.306640625,-1.06640625,-9.3125,2.546875
4053578,,,,,,,,-0.19921875,0.93359375,0.8359375,0.078125,0.353515625,-0.34765625,-0.64453125,-8.62109375,2.0859375
4053579,,,,,,,,0.046875,1.390625,0.63671875,0.064453125,0.298828125,-0.38671875,-0.375,-8.1640625,1.89453125
4053580,36.012523,129.31924066666667,57.75573524816966,13.64817535349163,1.3,317.0,,0.0546875,1.96484375,0.20703125,-0.314453125,0.044921875,0.001953125,-0.3359375,-7.5859375,1.47265625
4053581,,,,,,,,-0.1015625,2.359375,0.0859375,0.04296875,0.201171875,-0.408203125,-0.453125,-7.20703125,1.359375
4053582,,,,,,,,-0.125,3.09375,-0.08203125,0.13671875,0.181640625,-0.408203125,-0.4140625,-6.48046875,1.20703125
4053583,,,,,,,,-0.1015625,3.28515625,-0.12109375,0.154296875,0.193359375,-0.41015625,-0.375,-6.28125,1.16796875
4053584,,,,,,,,0.05078125,3.70703125,-0.7890625,0.166015625,0.236328125,-0.41015625,-0.18359375,-5.86328125,0.515625
4053585,,,,,,,,-0.02734375,3.8125,-1.08203125,0.146484375,0.287109375,-0.4140625,-0.22265625,-5.75,0.24609375
4053586,,,,,,,,-0.36328125,3.62109375,-1.01953125,0.142578125,0.3046875,-0.423828125,-0.52734375,-5.9375,0.32421875
4053587,,,,,,,,-0.91796875,3.19921875,-0.8515625,0.138671875,0.23046875,-0.466796875,-1.02734375,-6.36328125,0.515625
4053588,,,,,,,,-1.0546875,2.89453125,-0.7734375,0.140625,0.205078125,-0.46875,-1.140625,-6.66796875,0.59375
4053589,,,,,,,,-1.1328125,2.55078125,-0.75390625,0.1328125,0.17578125,-0.484375,-1.1796875,-7.01171875,0.62890625
4053590,36.0125235,129.31923999999998,57.69563526248098,13.703654576088041,1.1,319.0,,-1.1328125,2.04296875,-0.76953125,0.083984375,0.193359375,-0.46875,-0.3359375,-7.5859375,1.47265625
4053591,,,,,,,,-1.140625,1.7734375,-0.62109375,0.01953125,0.205078125,-0.462890625,-1.1015625,-7.78125,0.78515625
4053592,,,,,,,,-1.265625,1.73046875,-0.5859375,-0.046875,0.177734375,-0.43359375,-1.1796875,-7.81640625,0.8203125
4053593,,,,,,,,-1.41015625,1.69140625,-0.61328125,-0.09765625,0.115234375,-0.392578125,-1.29296875,-7.8515625,0.78515625
4053594,,,,,,,,-1.3359375,1.546875,-0.796875,-0.10546875,0.060546875,-0.341796875,-1.1796875,-8.0078125,0.59375
4053595,,,,,,,,-1.20703125,1.078125,-0.8671875,-0.095703125,0.056640625,-0.294921875,-1.02734375,-8.46875,0.515625
4053596,,,,,,,,-1.22265625,1.078125,-0.859375,-0.072265625,0.060546875,-0.259765625,-0.94921875,-8.69921875,0.515625
4053597,,,,,,,,-0.9296875,0.42578125,-0.78125,-0.015625,0.06640625,-0.208984375,-0.71875,-9.1171875,0.59375
4053598,,,,,,,,-0.72265625,-0.109375,-0.74609375,0.048828125,0.0625,-0.16015625,-0.48828125,-9.65625,0.62890625
4053599,,,,,,,,-0.609375,-0.30859375,-0.76171875,0.091796875,0.044921875,-0.119140625,-0.375,-9.84375,0.62890625
4053600,36.012524500000005,129.31923883333332,57.59046019969208,13.814613119271879,1.2000000000000002,317.0,0.0,-0.51171875,-0.234375,-0.84375,0.080078125,-0.009765625,-0.07421875,-0.3359375,-7.5859375,1.47265625
4053601,,,,,,,,-0.48046875,0.02734375,-0.96875,0.06640625,-0.044921875,-0.048828125,-0.22265625,-9.50390625,0.4375
4053602,,,,,,,,-0.671875,0.05859375,-0.8984375,0.056640625,-0.068359375,-0.03515625,-0.4140625,-9.46484375,0.515625
4053603,,,,,,,,-0.91015625,-0.1328125,-0.79296875,0.083984375,-0.08203125,-0.033203125,-0.64453125,-9.65625,0.62890625
4053604,,,,,,,,-1.1015625,-0.59375,-0.71484375,0.134765625,-0.0859375,-0.03125,-0.8359375,-10.1171875,0.70703125
4053605,,,,,,,,-1.22265625,-0.74609375,-0.66015625,0.173828125,-0.060546875,-0.041015625,-0.94921875,-10.265625,0.78515625
4053606,,,,,,,,-1.22265625,-0.8671875,-0.6328125,0.18359375,-0.052734375,-0.052734375,-0.94921875,-10.38671875,0.8203125
4053607,,,,,,,,-1.19140625,-1.18359375,-0.609375,0.162109375,-0.021484375,-0.06640625,-0.91015625,-10.69140625,0.859375
4053608,,,,,,,,-0.95703125,-1.4140625,-0.76953125,0.107421875,-0.03125,-0.068359375,-0.68359375,-10.92578125,0.70703125
4053609,,,,,,,,-0.76953125,-1.375,-0.69921875,0.068359375,-0.07421875,-0.06640625,-0.48828125,-10.8828125,0.78515625
4053610,36.0125255,129.319238,57.51533495073496,13.9255718596368,1.3,319.0,,-0.28125,-0.953125,-0.77734375,0.080078125,-0.009765625,-0.07421875,0.0078125,-10.4609375,0.70703125
4053611,,,,,,,,-0.09765625,-0.609375,-0.8984375,0.04296875,-0.13671875,-0.015625,0.19921875,-10.12109375,0.59375
4053612,,,,,,,,-0.17578125,0.1875,-0.87109375,0.017578125,-0.115234375,0.005859375,0.12109375,-9.31640625,0.62890625
4053613,,,,,,,,-0.328125,0.37890625,-0.75390625,-0.001953125,-0.095703125,0.0234375,-0.03125,-9.1171875,0.74609375
4053614,,,,,,,,-0.98046875,0.87109375,-0.640625,-0.037109375,-0.05859375,0.04296875,-0.68359375,-8.62109375,0.859375
4053615,,,,,,,,-1.3828125,0.91796875,-0.5078125,-0.07421875,-0.0234375,0.05859375,-1.1015625,-8.578125,0.9765625
4053616,,,,,,,,-1.98828125,-0.34765625,-0.6171875,-0.14453125,0.037109375,0.078125,-1.71484375,-9.84765625,0.859375
4053617,,,,,,,,-2.09765625,-1.14453125,-0.1796875,-0.23046875,0.111328125,0.087890625,-1.83203125,-10.6484375,1.28125
4053618,,,,,,,,-1.93359375,-1.10546875,0.6484375,-0.296875,0.16796875,0.0859375,-1.67578125,-10.61328125,2.0859375
4053619,,,,,,,,-1.15234375,-0.29296875,1.37109375,-0.376953125,0.158203125,0.095703125,-0.91015625,-9.8046875,2.77734375
4053620,36.0125265,129.31923733333332,57.45523460594041,14.036530699335565,1.2000000000000002,323.0,,-0.01953125,-2.2109375,0.828125,-0.6171875,0.03125,0.1171875,0.19921875,-11.7265625,2.1640625
4053621,,,,,,,,0.9140625,-4.4609375,1.3203125,-0.8828125,-0.08984375,0.13671875,1.1171875,-13.984375,2.5859375
4053622,,,,,,,,2.6484375,-7.359375,3.01953125,-0.935546875,-0.208984375,0.17578125,2.84375,-16.90234375,4.19140625
4053623,,,,,,,,3.67578125,-6.57421875,4.08984375,-0.568359375,-0.3359375,0.240234375,3.83984375,-16.125,5.15234375
4053624,,,,,,,,2.703125,-3.765625,3.18359375,-0.662109375,-0.40234375,0.240234375,2.84375,-13.33984375,4.19140625
4053625,,,,,,,,1.34765625,-1.9921875,2.421875,-0.958984375,-0.6328125,0.234375,1.46484375,-11.57421875,3.3125
4053626,,,,,,,,0.40625,-1.375,2.546875,-0.65625,-0.619140625,0.201171875,0.5078125,-10.96484375,3.3515625
4053627,,,,,,,,0.265625,-1.6015625,2.578125,-0.060546875,-0.4140625,0.1640625,0.3515625,-11.19140625,3.3515625
4053628,,,,,,,,0.28125,-1.5859375,1.6328125,0.4296875,-0.232421875,0.09765625,0.3515625,-11.1875,2.4296875
4053629,,,,,,,,0.2421875,-1.13671875,1.1640625,0.552734375,-0.216796875,0.0078125,0.3125,-10.73046875,2.0078125
4053630,36.012527666666664,129.3192365,57.38010923722869,14.165982646035765,1.4000000000000001,327.0,,0.16015625,-0.828125,1.03515625,0.435546875,-0.326171875,-0.015625,0.19921875,-11.7265625,2.1640625
4053631,,,,,,,,0.0078125,-0.37109375,0.92578125,0.330078125,-0.443359375,-0.005859375,0.0859375,-9.9609375,1.85546875
4053632,,,,,,,,0.04296875,0.12890625,0.734375,0.326171875,-0.455078125,0.052734375,0.12109375,-9.46484375,1.703125
4053633,,,,,,,,0.3203125,0.92578125,0.55859375,0.287109375,-0.3828125,0.12890625,0.390625,-8.65625,1.55078125
4053634,,,,,,,,0.4453125,1.421875,0.375,0.240234375,-0.283203125,0.212890625,0.5078125,-8.1640625,1.3984375
4053635,,,,,,,,0.46875,1.890625,0.16015625,0.19921875,-0.216796875,0.279296875,0.5078125,-7.703125,1.20703125
4053636,,,,,,,,0.40625,1.96875,0.06640625,0.173828125,-0.19140625,0.30859375,0.4296875,-7.62890625,1.12890625
4053637,,,,,,,,0.3203125,2.390625,-0.1015625,0.158203125,-0.16015625,0.3359375,0.3125,-7.203125,0.9765625
4053638,,,,,,,,0.3515625,2.609375,-0.30859375,0.17578125,-0.138671875,0.345703125,0.3125,-6.98046875,0.78515625
4053639,,,,,,,,0.4609375,2.91796875,-0.36328125,0.212890625,-0.123046875,0.3359375,0.390625,-6.66796875,0.74609375
4053640,36.0125285,129.31923566666669,57.304984114421345,14.258448183482212,1.3,328.0,,0.79296875,2.95703125,-0.47265625,0.435546875,-0.326171875,-0.015625,0.69921875,-6.62890625,0.66796875
4053641,,,,,,,,1.265625,2.94921875,-0.54296875,0.21484375,-0.09375,0.3359375,1.1171875,-6.62890625,0.62890625
4053642,,,,,,,,1.64453125,2.6796875,-0.640625,0.212890625,-0.06640625,0.35546875,1.46484375,-6.90234375,0.5546875
4053643,,,,,,,,1.90625,2.40234375,-0.78125,0.212890625,-0.013671875,0.3515625,1.6953125,-7.1640625,0.4375
4053644,,,,,,,,1.98046875,2.25,-0.87109375,0.20703125,0.04296875,0.345703125,1.73046875,-7.32421875,0.36328125
4053645,,,,,,,,1.8125,1.8671875,-0.90234375,0.201171875,0.09375,0.32421875,1.5390625,-7.70703125,0.36328125
4053646,,,,,,,,1.65234375,1.8203125,-0.84375,0.193359375,0.138671875,0.302734375,1.34765625,-7.7421875,0.4375
4053647,,,,,,,,1.0703125,1.8984375,-0.66796875,0.189453125,0.181640625,0.263671875,0.734375,-7.66796875,0.62890625
4053648,,,,,,,,0.75,1.8125,-0.52734375,0.1796875,0.1953125,0.208984375,0.390625,-7.74609375,0.78515625
4053649,,,,,,,,0.54296875,1.62109375,-0.46875,0.18359375,0.2109375,0.150390625,0.16015625,-7.9296875,0.859375
4053650,36.0125295,129.31923483333333,57.22985887057968,14.369406926555655,1.3,326.0,,0.59765625,1.390625,-0.4921875,0.19140625,0.26953125,0.08984375,0.69921875,-6.62890625,0.66796875
4053651,,,,,,,,0.7109375,1.18359375,-0.66015625,0.212890625,0.361328125,0.025390625,0.3125,-8.35546875,0.70703125
4053652,,,,,,,,0.67578125,1.109375,-0.74609375,0.232421875,0.392578125,0.00390625,0.27734375,-8.4296875,0.62890625
4053653,,,,,,,,0.56640625,0.94921875,-0.69140625,0.2578125,0.421875,-0.025390625,0.16015625,-8.578125,0.70703125
4053654,,,,,,,,0.30078125,0.984375,-0.5234375,0.2734375,0.408203125,-0.03125,-0.10546875,-8.546875,0.8984375
4053655,,,,,,,,0.23046875,0.87109375,-0.46875,0.26953125,0.353515625,-0.03515625,-0.18359375,-8.65625,0.9765625
4053656,,,,,,,,0.23046875,0.671875,-0.4921875,0.271484375,0.328125,-0.029296875,-0.18359375,-8.85546875,0.9765625
4053657,,,,,,,,0.3828125,0.28125,-0.44921875,0.287109375,0.353515625,-0.0234375,-0.03125,-9.23828125,1.05078125
4053658,,,,,,,,0.5078125,0.38671875,-0.5703125,0.3125,0.404296875,-0.009765625,0.0859375,-9.1171875,0.9765625
4053659,,,,,,,,0.4296875,0.46484375,-0.65625,0.30859375,0.41015625,-0.00390625,0.0078125,-9.04296875,0.8984375
4053660,36.01253033333333,129.31923383333333,57.139708845774635,14.461872366388654,1.2000000000000002,324.0,,0.390625,0.49609375,-0.6875,0.19140625,0.26953125,0.08984375,-0.03125,-9.00390625,0.8984375
4053661,,,,,,,,0.4375,0.1796875,-0.75,0.24609375,0.318359375,0.02734375,0.0078125,-9.3125,0.859375
4053662,,,,,,,,0.55859375,-0.37109375,-0.6953125,0.2265625,0.265625,0.041015625,0.12109375,-9.84375,0.9375
4053663,,,,,,,,0.64453125,-0.5234375,-0.59765625,0.220703125,0.248046875,0.05078125,0.19921875,-10.0,1.05078125
4053664,,,,,,,,0.65234375,-0.9453125,-0.765625,0.189453125,0.248046875,0.052734375,0.19921875,-10.42578125,0.8984375
4053665,,,,,,,,0.46875,-0.984375,-0.7421875,0.11328125,0.23046875,0.0546875,0.0078125,-10.4609375,0.9375
4053666,,,,,,,,0.171875,-0.53125,-0.4453125,0.0,0.18359375,0.052734375,-0.296875,-10.0,1.2421875
4053667,,,,,,,,0.171875,0.04296875,-0.390625,-0.08984375,0.12890625,0.044921875,-0.296875,-9.42578125,1.28125
4053668,,,,,,,,0.29296875,0.1484375,-0.4296875,-0.125,0.103515625,0.0390625,-0.18359375,-9.3125,1.2421875
4053669,,,,,,,,1.01953125,-0.03515625,-0.60546875,-0.18359375,0.04296875,0.025390625,0.54296875,-9.50390625,1.05078125
4053670,36.01253116666667,129.31923266666666,57.03453391933215,14.554337711448063,1.3,319.0,,1.59375,-0.9921875,-0.609375,0.19140625,0.26953125,0.08984375,-0.03125,-9.00390625,0.8984375
4053671,,,,,,,,1.18359375,-2.28515625,-0.59375,-0.220703125,0.029296875,0.009765625,0.69921875,-11.76171875,1.015625
4053672,,,,,,,,0.40625,-1.7109375,0.421875,-0.224609375,0.025390625,0.0390625,-0.0703125,-11.1875,2.0078125
4053673,,,,,,,,-0.42578125,-1.25390625,1.09765625,-0.30078125,0.017578125,0.078125,-0.91015625,-10.73046875,2.66015625
4053674,,,,,,,,-0.80078125,-2.5859375,1.51171875,-0.4140625,0.060546875,0.099609375,-1.29296875,-12.07421875,3.04296875
4053675,,,,,,,,-0.9765625,-4.4453125,1.859375,-0.673828125,0.078125,0.08984375,-1.484375,-13.94921875,3.3125
4053676,,,,,,,,-2.34765625,-4.5546875,3.61328125,-0.712890625,0.205078125,0.00390625,-2.86328125,-14.0625,4.99609375
4053677,,,,,,,,-2.85546875,-3.7421875,3.8671875,-0.533203125,0.4296875,-0.072265625,-3.36328125,-13.2578125,5.1875
4053678,,,,,,,,-2.625,-3.3203125,3.5859375,-0.49609375,0.45703125,-0.068359375,-3.1328125,-12.8359375,4.8828125
4053679,,,,,,,,-1.1328125,-2.46875,2.65234375,-0.662109375,0.27734375,-0.025390625,-1.640625,-11.99609375,3.88671875
4053680,36.01253216666667,129.31923166666667,56.94438377827891,14.665296359911782,1.3,318.0,,-0.25,-2.37890625,2.32421875,0.19140625,0.26953125,0.08984375,-0.7578125,-11.9140625,3.50390625
4053681,,,,,,,,0.40234375,-2.40625,2.85546875,-0.501953125,0.171875,-0.0546875,-0.10546875,-11.95703125,3.96484375
4053682,,,,,,,,0.28515625,-2.32421875,2.83984375,-0.08203125,0.064453125,-0.0390625,-0.22265625,-11.875,3.92578125
4053683,,,,,,,,0.1640625,-2.09375,2.6015625,0.18359375,-0.060546875,0.01953125,-0.3359375,-11.6484375,3.6953125
4053684,,,,,,,,0.203125,-1.51953125,1.87890625,0.30078125,-0.021484375,0.033203125,-0.296875,-11.0703125,3.00390625
4053685,,,,,,,,0.24609375,-1.2890625,1.55078125,0.27734375,0.08984375,0.052734375,-0.26171875,-10.84765625,2.69921875
4053686,,,,,,,,0.1328125,-0.9453125,1.49609375,0.25,0.14453125,0.052734375,-0.375,-10.50390625,2.66015625
4053687,,,,,,,,-0.16796875,-0.41796875,1.3828125,0.3125,0.216796875,-0.001953125,-0.68359375,-9.96484375,2.5859375
4053688,,,,,,,,-0.13671875,0.1953125,0.9296875,0.314453125,0.140625,-0.072265625,-0.64453125,-9.3515625,2.1640625
4053689,,,,,,,,-0.01953125,0.92578125,0.28515625,0.26171875,0.111328125,-0.140625,-0.52734375,-8.62109375,1.55078125
4053690,36.012533,129.31923083333334,56.86925866468356,14.757761899395803,1.3,318.0,,0.15625,1.61328125,0.03125,0.19140625,0.26953125,0.08984375,-0.3359375,-7.93359375,1.3203125
4053691,,,,,,,,0.171875,2.00390625,-0.09765625,0.125,0.193359375,-0.240234375,-0.296875,-7.546875,1.20703125
4053692,,,,,,,,0.30078125,2.50390625,-0.26953125,0.138671875,0.22265625,-0.234375,-0.14453125,-7.046875,1.05078125
4053693,,,,,,,,0.29296875,2.80859375,-0.3515625,0.138671875,0.236328125,-0.23046875,-0.14453125,-6.7421875,0.9765625
4053694,,,,,,,,0.1171875,3.23046875,-0.59765625,0.115234375,0.302734375,-0.212890625,-0.296875,-6.3203125,0.74609375
4053695,,,,,,,,-0.015625,3.53125,-0.7578125,0.05078125,0.37109375,-0.212890625,-0.52734375,-5.94140625,0.59375
4053696,,,,,,,,-0.30078125,3.64453125,-0.8046875,0.025390625,0.361328125,-0.21484375,-0.68359375,-5.90234375,0.5546875
4053697,,,,,,,,-0.4765625,3.765625,-0.9296875,0.013671875,0.326171875,-0.2265625,-0.91015625,-5.79296875,0.4765625
4053698,,,,,,,,-0.67578125,3.765625,-0.8515625,0.01171875,0.302734375,-0.23046875,-1.02734375,-5.7890625,0.515625
4053699,,,,,,,,-0.9296875,3.5,-0.9296875,0.0,0.2578125,-0.244140625,-1.2578125,-6.0546875,0.4375
4053700,36.012533999999995,129.31922983333334,56.77910852756555,14.868720549344118,1.3,320.0,0.0,-1.171875,3.23046875,-0.96484375,-0.009765625,0.228515625,-0.25390625,-1.484375,-6.3203125,0.40234375
4053701,,,,,,,,-1.3125,3.15234375,-1.08203125,-0.044921875,0.16015625,-0.240234375,-1.67578125,-6.4765625,0.1328125
4053702,,,,,,,,-1.48828125,2.92578125,-1.08203125,-0.044921875,0.14453125,-0.220703125,-1.79296875,-6.78515625,0.32421875
4053703,,,,,,,,-1.62109375,2.53515625,-1.07421875,-0.03125,0.134765625,-0.197265625,-1.79296875,-7.203125,0.24609375
4053704,,,,,,,,-1.55859375,2.1875,-1.1484375,-0.01171875,0.115234375,-0.17578125,-1.79296875,-7.43359375,0.24609375
4053705,,,,,,,,-1.49609375,2.00390625,-1.11328125,-0.015625,0.087890625,-0.13671875,-1.67578125,-7.66796875,0.24609375
4053706,,,,,,,,-1.46484375,1.890625,-1.11328125,-0.03125,0.076171875,-0.11328125,-1.5234375,-8.05078125,0.28515625
4053707,,,,,,,,-1.24609375,1.34765625,-1.11328125,-0.056640625,0.099609375,-0.060546875,-1.21875,-8.69921875,0.2109375
4053708,,,,,,,,-0.9453125,0.65625,-1.10546875,-0.033203125,0.06640625,-0.021484375,-1.06640625,-9.12109375,0.24609375
4053709,,,,,,,,-0.79296875,-0.1875,-0.94140625,-0.0234375,0.00390625,0.005859375,-0.98828125,-9.734375,0.40234375
4053710,36.01253483333333,129.319229,56.70398341498912,14.961186092960947,1.2000000000000002,320.0,,-1.171875,3.23046875,-0.96484375,-0.00390625,-0.078125,0.02734375,-1.484375,-6.3203125,0.40234375
4053711,,,,,,,,-0.9453125,-1.3828125,-0.4453125,0.00390625,-0.173828125,0.029296875,-1.140625,-10.92578125,0.8984375
4053712,,,,,,,,-0.74609375,-1.19140625,-0.29296875,-0.015625,-0.263671875,0.01953125,-0.94921875,-10.7265625,1.05078125
4053713,,,,,,,,-0.48046875,-0.69921875,-0.484375,-0.02734375,-0.318359375,0.017578125,-0.68359375,-10.23046875,0.859375
4053714,,,,,,,,-0.36328125,-0.5078125,-0.63671875,-0.00390625,-0.33984375,0.01171875,-0.56640625,-10.04296875,0.70703125
4053715,,,,,,,,-0.37109375,-0.5859375,-0.55859375,0.044921875,-0.369140625,0.0,-0.56640625,-10.12109375,0.78515625
4053716,,,,,,,,-0.41015625,-0.73828125,-0.56640625,0.080078125,-0.384765625,-0.0078125,-0.60546875,-10.265625,0.78515625
4053717,,,,,,,,-0.76171875,-0.8984375,-0.3515625,0.185546875,-0.41015625,-0.013671875,-0.94921875,-10.42578125,1.015625
4053718,,,,,,,,-0.84765625,-0.90625,-0.7890625,0.298828125,-0.4140625,-0.029296875,-1.02734375,-10.42578125,0.59375
4053719,,,,,,,,-0.51171875,-0.83203125,-1.34375,0.294921875,-0.33203125,-0.0625,-0.68359375,-10.34375,0.09375
4053720,36.012535666666665,129.31922833333334,56.64388320831133,15.053651731286141,1.2000000000000002,322.0,,-0.36328125,-0.72265625,-1.3671875,0.189453125,-0.263671875,-0.08203125,-0.52734375,-10.2265625,0.09375
4053721,,,,,,,,-0.6015625,-0.41796875,-1.09765625,0.07421875,-0.205078125,-0.09765625,-0.7578125,-9.92578125,0.36328125
4053722,,,,,,,,-0.92578125,0.12109375,-0.80078125,0.01171875,-0.171875,-0.1171875,-1.06640625,-9.38671875,0.66796875
4053723,,,,,,,,-1.015625,0.265625,-0.76171875,-0.07421875,-0.15234375,-0.142578125,-1.140625,-9.23828125,0.70703125
4053724,,,,,,,,-1.22265625,-0.33984375,-0.8984375,-0.169921875,-0.1328125,-0.158203125,-1.33203125,-9.84765625,0.5546875
4053725,,,,,,,,-0.94140625,-2.21875,-0.8671875,-0.306640625,-0.09765625,-0.1796875,-1.02734375,-11.73046875,0.5546875
4053726,,,,,,,,-0.11328125,-3.05078125,0.734375,-0.4140625,-0.099609375,-0.1953125,-0.18359375,-12.5625,2.125
4053727,,,,,,,,1.2890625,-2.203125,2.23828125,-0.498046875,-0.1171875,-0.197265625,1.234375,-11.7265625,3.58203125
4053728,,,,,,,,1.625,-2.1640625,2.26953125,-0.55078125,-0.123046875,-0.193359375,1.578125,-11.6875,3.58203125
4053729,,,,,,,,2.3671875,-2.921875,1.671875,-0.708984375,-0.150390625,-0.171875,2.34375,-12.453125,2.9296875
4053730,36.012536833333336,129.31922766666668,56.583782763335485,15.183103784004214,1.3,326.0,,2.3515625,-3.40234375,2.01953125,-0.892578125,-0.201171875,-0.12890625,-0.52734375,-10.2265625,0.09375
4053731,,,,,,,,2.23046875,-3.51171875,2.83203125,-0.8984375,-0.349609375,-0.095703125,2.23046875,-13.06640625,3.92578125
4053732,,,,,,,,1.41015625,-3.54296875,3.17578125,-0.662109375,-0.490234375,-0.111328125,1.42578125,-13.10546875,4.19140625
4053733,,,,,,,,0.66796875,-3.45703125,3.22265625,-0.443359375,-0.400390625,-0.13671875,0.69921875,-13.0234375,4.19140625
4053734,,,,,,,,0.19140625,-3.44921875,2.8046875,-0.4375,-0.236328125,-0.146484375,0.23828125,-13.0234375,3.734375
4053735,,,,,,,,0.2890625,-3.36328125,2.57421875,-0.337890625,-0.224609375,-0.171875,0.3515625,-12.9453125,3.46484375
4053736,,,,,,,,0.55078125,-3.13671875,2.46875,-0.23046875,-0.25390625,-0.1796875,0.62109375,-12.71875,3.3515625
4053737,,,,,,,,0.7578125,-2.4453125,2.359375,-0.009765625,-0.298828125,-0.1875,0.8515625,-12.03515625,3.234375
4053738,,,,,,,,0.6953125,-2.015625,1.96875,0.171875,-0.302734375,-0.162109375,0.8125,-11.609375,2.8515625
4053739,,,,,,,,0.6015625,-1.328125,1.45703125,0.32421875,-0.359375,-0.115234375,0.734375,-10.921875,2.35546875
4053740,36.01253783333333,129.31922683333332,56.50865753621602,15.294062533387923,1.3,327.0,,0.48046875,-0.98828125,1.2265625,-0.892578125,-0.201171875,-0.12890625,-0.52734375,-10.2265625,0.09375
4053741,,,,,,,,0.3203125,-0.60546875,0.98828125,0.47265625,-0.455078125,-0.001953125,0.46875,-10.1875,1.97265625
4053742,,,,,,,,0.2421875,0.3125,0.640625,0.572265625,-0.37109375,0.09375,0.390625,-9.2734375,1.703125
4053743,,,,,,,,0.328125,0.6875,0.5078125,0.5390625,-0.318359375,0.158203125,0.46875,-8.89453125,1.625
4053744,,,,,,,,0.07421875,1.33984375,0.1875,0.455078125,-0.271484375,0.201171875,0.19921875,-8.234375,1.359375
4053745,,,,,,,,-0.0625,1.64453125,-0.08984375,0.3828125,-0.23046875,0.236328125,0.046875,-7.9296875,1.12890625
4053746,,,,,,,,-0.23828125,2.17578125,-0.19140625,0.296875,-0.220703125,0.259765625,-0.14453125,-7.390625,1.05078125
4053747,,,,,,,,-0.1328125,2.55859375,-0.2578125,0.248046875,-0.224609375,0.275390625,-0.0703125,-7.0078125,1.015625
4053748,,,,,,,,0.046875,3.0625,-0.3203125,0.2265625,-0.21484375,0.291015625,0.0859375,-6.515625,0.9765625
4053749,,,,,,,,0.51953125,3.32421875,-0.421875,0.212890625,-0.19140625,0.314453125,0.54296875,-6.24609375,0.8984375
4053750,36.01253883333333,129.31922600000001,56.433532313553336,15.40502128268053,1.3,329.0,,0.8671875,3.4375,-0.55859375,0.17578125,-0.15625,0.345703125,0.8515625,-6.13671875,0.78515625
4053751,,,,,,,,1.01171875,3.62890625,-0.57421875,0.140625,-0.12109375,0.37890625,0.96484375,-5.94140625,0.78515625
4053752,,,,,,,,1.05078125,3.8515625,-0.9375,0.12890625,-0.078125,0.404296875,0.96484375,-5.71484375,0.4375
4053753,,,,,,,,1.3125,3.8515625,-0.76171875,0.130859375,-0.021484375,0.41796875,1.1953125,-5.71484375,0.62890625
4053754,,,,,,,,1.50390625,3.62109375,-0.8125,0.126953125,0.021484375,0.416015625,1.34765625,-5.94140625,0.59375
4053755,,,,,,,,1.58203125,3.15234375,-0.8984375,0.1328125,0.060546875,0.396484375,1.38671875,-6.40234375,0.515625
4053756,,,,,,,,1.69921875,2.76171875,-0.953125,0.15234375,0.107421875,0.3828125,1.46484375,-6.78125,0.4765625
4053757,,,,,,,,1.62109375,2.609375,-1.08203125,0.103515625,0.12890625,0.3515625,1.34765625,-6.94140625,0.36328125
4053758,,,,,,,,1.5390625,2.41796875,-1.0234375,0.109375,0.125,0.314453125,1.234375,-7.12890625,0.4375
4053759,,,,,,,,1.37890625,2.3359375,-0.9921875,0.125,0.158203125,0.259765625,1.04296875,-7.203125,0.4765625
4053760,36.012539833333335,129.31922516666666,56.358407087813056,15.515980034140213,1.3,328.0,,1.33203125,1.7890625,-1.046875,0.17578125,-0.15625,0.345703125,0.8515625,-6.13671875,0.78515625
4053761,,,,,,,,1.28125,1.015625,-1.09765625,0.185546875,0.25,0.18359375,0.890625,-8.5078125,0.40234375
4053762,,,,,,,,1.12109375,0.35546875,-1.0546875,0.2421875,0.33203125,0.12890625,0.69921875,-9.16015625,0.4765625
4053763,,,,,,,,1.08203125,0.203125,-0.953125,0.263671875,0.36328125,0.111328125,0.66015625,-9.31640625,0.59375
4053764,,,,,,,,0.98046875,-0.15625,-0.75,0.287109375,0.400390625,0.08984375,0.54296875,-9.65625,0.8203125
4053765,,,,,,,,0.4921875,-0.5,-0.7734375,0.28125,0.40625,0.076171875,0.046875,-10.00390625,0.8203125
4053766,,,,,,,,-0.18359375,-0.546875,-0.796875,0.23046875,0.41796875,0.06640625,-0.64453125,-10.0390625,0.8203125
4053767,,,,,,,,-0.59765625,-0.43359375,-0.50390625,0.224609375,0.431640625,0.052734375,-1.06640625,-9.921875,1.12890625
4053768,,,,,,,,-0.625,-0.41015625,-0.40625,0.244140625,0.42578125,0.048828125,-1.1015625,-9.88671875,1.2421875
4053769,,,,,,,,-0.265625,-0.640625,-0.421875,0.271484375,0.41796875,0.029296875,-0.7578125,-10.12109375,1.2421875
4053770,36.01254066666667,129.319224,56.25323218235396,15.6084453888347,1.3,321.0,,0.125,-0.953125,-0.60546875,0.17578125,-0.15625,0.345703125,0.8515625,-6.13671875,0.78515625
4053771,,,,,,,,0.62890625,-1.3828125,-0.8984375,0.24609375,0.345703125,0.046875,0.12109375,-10.84375,0.8203125
4053772,,,,,,,,0.484375,-1.8046875,-0.96484375,0.2109375,0.267578125,0.052734375,-0.03125,-11.26953125,0.78515625
4053773,,,,,,,,0.1484375,-1.890625,-0.8671875,0.1796875,0.15625,0.07421875,-0.375,-11.34765625,0.8984375
4053774,,,,,,,,-0.265625,-1.66796875,-0.56640625,0.123046875,0.021484375,0.099609375,-0.796875,-11.109375,1.20703125
4053775,,,,,,,,-0.296875,-1.25390625,-0.4296875,0.041015625,-0.076171875,0.146484375,-0.8359375,-10.69140625,1.359375
4053776,,,,,,,,-0.08984375,-0.75390625,-0.5390625,-0.05078125,-0.1328125,0.177734375,-0.64453125,-10.19140625,1.2421875
4053777,,,,,,,,0.65625,-0.3359375,-0.68359375,-0.138671875,-0.166015625,0.18359375,0.0859375,-9.7734375,1.08984375
4053778,,,,,,,,1.015625,-0.5546875,-0.71484375,-0.216796875,-0.220703125,0.189453125,0.4296875,-10.0,1.05078125
4053779,,,,,,,,0.9375,-1.58984375,-0.8359375,-0.2421875,-0.26171875,0.197265625,0.3515625,-11.03125,0.8984375
4053780,36.0125415,129.319223,56.163082183054286,15.70091083820303,1.3,318.0,,0.38671875,-2.1953125,-0.6875,-0.255859375,-0.34765625,0.216796875,-0.22265625,-11.65234375,1.015625
4053781,,,,,,,,-0.28515625,-0.96875,0.828125,-0.30859375,-0.37109375,0.232421875,-0.91015625,-10.421875,2.5078125
4053782,,,,,,,,-0.69140625,0.1484375,1.3203125,-0.4296875,-0.314453125,0.25,-1.33203125,-9.3125,2.96875
4053783,,,,,,,,-0.41796875,0.265625,1.45703125,-0.515625,-0.275390625,0.251953125,-1.06640625,-9.19921875,3.08203125
4053784,,,,,,,,0.01953125,-0.72265625,1.05859375,-0.705078125,-0.232421875,0.259765625,-0.64453125,-10.19140625,2.62109375
4053785,,,,,,,,0.45703125,-2.09375,1.0859375,-0.828125,-0.208984375,0.23046875,-0.22265625,-11.5703125,2.5859375
4053786,,,,,,,,0.25,-3.91796875,1.9609375,-0.591796875,0.005859375,0.109375,-0.453125,-13.41015625,3.3515625
4053787,,,,,,,,-0.8828125,-4.79296875,3.04296875,-0.34765625,0.052734375,0.083984375,-1.6015625,-14.29296875,4.38671875
4053788,,,,,,,,-1.265625,-4.78515625,3.32421875,-0.306640625,0.033203125,0.078125,-1.984375,-14.29296875,4.65234375
4053789,,,,,,,,-1.71875,-3.6328125,3.31640625,-0.4609375,-0.052734375,0.046875,-2.4453125,-13.140625,4.61328125
4053790,36.0125425,129.319222,56.07293206426416,15.811869495880092,1.3,318.0,,-1.21875,-2.1640625,2.33984375,-0.74609375,-0.078125,0.02734375,-1.9453125,-11.69140625,3.58203125
4053791,,,,,,,,-0.94921875,-1.734375,1.98828125,-0.73046875,0.05859375,-0.01953125,-1.67578125,-11.26953125,3.16015625
4053792,,,,,,,,-0.7578125,-1.50390625,2.05859375,-0.607421875,0.15625,-0.04296875,-1.484375,-11.03125,3.19921875
4053793,,,,,,,,-0.73046875,-1.56640625,2.140625,-0.20703125,0.283203125,-0.107421875,-1.44921875,-11.109375,3.234375
4053794,,,,,,,,-0.69921875,-1.60546875,2.02734375,0.15234375,0.23828125,-0.1640625,-1.41015625,-11.1484375,3.12109375
4053795,,,,,,,,-0.35546875,-0.41796875,1.08984375,0.31640625,0.15234375,-0.212890625,-1.02734375,-9.96484375,2.23828125
4053796,,,,,,,,-0.33203125,-0.109375,0.921875,0.296875,0.1796875,-0.224609375,-0.98828125,-9.66015625,2.0859375
4053797,,,,,,,,-0.25,0.46484375,0.69140625,0.2578125,0.2109375,-0.27734375,-0.875,-9.08203125,1.89453125
4053798,,,,,,,,-0.140625,0.96484375,0.37890625,0.255859375,0.197265625,-0.306640625,-0.7578125,-8.578125,1.58984375
4053799,,,,,,,,0.08984375,1.69921875,-0.07421875,0.236328125,0.142578125,-0.349609375,-0.48828125,-7.8515625,1.16796875
4053800,36.012543,129.31922133333333,56.01283210414942,15.867348729257827,1.1,318.0,0.0,0.265625,2.04296875,-0.20703125,-0.74609375,-0.078125,0.02734375,-1.9453125,-11.69140625,3.58203125
4053801,,,,,,,,0.42578125,2.42578125,-0.4609375,0.3125,0.052734375,-0.404296875,-0.03125,-6.8984375,0.70703125
4053802,,,,,,,,0.5703125,3.0703125,-0.8125,0.314453125,0.0859375,-0.3984375,0.16015625,-6.09765625,0.24609375
4053803,,,,,,,,0.62109375,3.453125,-1.10546875,0.3046875,0.1015625,-0.396484375,0.16015625,-5.90234375,0.171875
4053804,,,,,,,,0.5078125,3.7578125,-1.25,0.28125,0.14453125,-0.37890625,-0.14453125,-5.6328125,0.0546875
4053805,,,,,,,,0.0390625,3.828125,-1.39453125,0.26171875,0.162109375,-0.384765625,-0.48828125,-5.82421875,0.09375
4053806,,,,,,,,-0.30859375,3.5234375,-1.3515625,0.236328125,0.173828125,-0.40234375,-0.875,-6.32421875,0.1328125
4053807,,,,,,,,-0.76171875,3.1015625,-1.25,0.212890625,0.181640625,-0.41796875,-1.21875,-6.515625,0.24609375
4053808,,,,,,,,-0.9375,3.0234375,-1.23046875,0.189453125,0.193359375,-0.419921875,-1.37109375,-6.6640625,0.36328125
4053809,,,,,,,,-1.3984375,2.671875,-0.9765625,0.13671875,0.181640625,-0.421875,-1.71484375,-6.98046875,0.62890625
4053810,36.012544000000005,129.31922016666667,55.90765709142426,15.978307293270156,1.3,318.0,,0.265625,2.04296875,-0.20703125,0.103515625,0.16796875,-0.416015625,-1.9453125,-11.69140625,3.58203125
4053811,,,,,,,,-1.09375,2.44140625,-1.16015625,0.06640625,0.150390625,-0.40234375,-1.2578125,-7.0859375,0.36328125
4053812,,,,,,,,-0.93359375,2.328125,-1.23828125,0.046875,0.14453125,-0.37109375,-1.06640625,-7.20703125,0.28515625
4053813,,,,,,,,-0.88671875,1.97265625,-1.015625,0.068359375,0.1328125,-0.326171875,-0.98828125,-7.546875,0.515625
4053814,,,,,,,,-0.99609375,1.78125,-0.79296875,0.111328125,0.095703125,-0.265625,-1.06640625,-7.74609375,0.74609375
4053815,,,,,,,,-1.0625,1.62890625,-0.734375,0.162109375,0.068359375,-0.21875,-1.1015625,-7.89453125,0.8203125
4053816,,,,,,,,-1.0703125,1.32421875,-0.81640625,0.185546875,0.06640625,-0.193359375,-1.1015625,-8.19921875,0.74609375
4053817,,,,,,,,-1.203125,0.6171875,-1.0703125,0.2265625,0.091796875,-0.158203125,-1.21875,-8.89453125,0.515625
4053818,,,,,,,,-1.21875,-0.0703125,-1.015625,0.22265625,0.091796875,-0.119140625,-1.21875,-9.578125,0.59375
4053819,,,,,,,,-1.1875,-0.5390625,-0.89453125,0.2265625,0.013671875,-0.08203125,-1.1796875,-10.04296875,0.74609375
4053820,36.01254483333333,129.31921916666667,55.81750709632397,16.070772746096527,1.3,317.0,,-0.734375,-0.78515625,-0.55859375,0.2109375,-0.046875,-0.087890625,-0.71875,-10.26953125,1.08984375
4053821,,,,,,,,-0.55078125,-0.5546875,-0.50390625,0.189453125,-0.0859375,-0.083984375,-0.52734375,-10.0390625,1.16796875
4053822,,,,,,,,-0.55859375,-0.40234375,-0.51953125,0.15625,-0.1171875,-0.076171875,-0.52734375,-9.8828125,1.16796875
4053823,,,,,,,,-0.796875,-0.296875,-0.65234375,0.12890625,-0.16015625,-0.06640625,-0.7578125,-9.77734375,1.05078125
4053824,,,,,,,,-0.99609375,-0.3046875,-0.6953125,0.142578125,-0.208984375,-0.060546875,-0.94921875,-9.7734375,1.015625
4053825,,,,,,,,-1.05078125,-0.3046875,-0.8671875,0.18359375,-0.21484375,-0.0546875,-0.98828125,-9.77734375,0.859375
4053826,,,,,,,,-0.9453125,-0.234375,-1.04296875,0.22265625,-0.171875,-0.056640625,-0.875,-9.69921875,0.70703125
4053827,,,,,,,,-0.796875,-0.234375,-1.1796875,0.234375,-0.107421875,-0.076171875,-0.71875,-9.69921875,0.59375
4053828,,,,,,,,-0.76171875,-0.203125,-1.15234375,0.2265625,-0.099609375,-0.087890625,-0.68359375,-9.65625,0.62890625
4053829,,,,,,,,-0.3828125,-0.40234375,-1.25,0.138671875,-0.154296875,-0.119140625,-0.296875,-9.84375,0.5546875
4053830,36.012546,129.31921833333334,55.74238176951384,16.200224708685475,1.3,320.0,,-0.09375,-0.328125,-1.18359375,0.0625,-0.1875,-0.126953125,-0.71875,-10.26953125,1.08984375
4053831,,,,,,,,0.08203125,0.25,-0.8359375,-0.017578125,-0.197265625,-0.1171875,0.19921875,-9.1953125,0.9765625
4053832,,,,,,,,-0.31640625,0.9375,-0.68359375,-0.109375,-0.19140625,-0.1015625,-0.18359375,-8.51171875,1.12890625
4053833,,,,,,,,-0.66796875,1.12109375,-0.5,-0.2421875,-0.14453125,-0.080078125,-0.52734375,-8.3125,1.28125
4053834,,,,,,,,-0.984375,-0.01953125,-0.7421875,-0.34375,-0.08203125,-0.046875,-0.8359375,-9.46484375,1.015625
4053835,,,,,,,,-1.0234375,-0.89453125,0.51953125,-0.376953125,-0.0078125,-0.01953125,-0.875,-10.34765625,2.23828125
4053836,,,,,,,,-0.83203125,-0.9296875,0.99609375,-0.365234375,0.029296875,-0.005859375,-0.68359375,-10.3828125,2.69921875
4053837,,,,,,,,-0.25390625,-1.0,1.296875,-0.365234375,0.09375,0.001953125,0.19921875,-10.61328125,2.8515625
4053838,,,,,,,,0.671875,-1.98828125,1.265625,-0.443359375,0.08984375,0.00390625,0.8125,-11.45703125,2.890625
4053839,,,,,,,,1.20703125,-3.7890625,1.62109375,-0.65234375,-0.009765625,0.017578125,1.65625,-14.33203125,3.390625
4053840,36.012547166666664,129.3192175,55.6672564470953,16.329676671191947,1.4000000000000001,323.0,,2.2421875,-6.953125,2.5390625,0.0625,-0.1875,-0.126953125,-0.71875,-10.26953125,1.08984375
4053841,,,,,,,,3.4296875,-8.69921875,3.890625,-0.7421875,-0.330078125,0.0859375,3.5703125,-18.19921875,5.265625
4053842,,,,,,,,3.59765625,-7.42578125,4.03515625,-0.6484375,-0.353515625,0.099609375,3.72265625,-16.93359375,5.37890625
4053843,,,,,,,,2.49609375,-4.30859375,3.2109375,-0.767578125,-0.439453125,0.130859375,2.61328125,-13.83203125,4.4609375
4053844,,,,,,,,0.28125,-2.484375,3.13671875,-0.759765625,-0.537109375,0.140625,0.390625,-12.03125,4.26953125
4053845,,,,,,,,-0.32421875,-2.515625,2.6171875,-0.30078125,-0.44140625,0.0859375,-0.22265625,-12.0703125,3.6953125
4053846,,,,,,,,-0.32421875,-2.62890625,2.43359375,0.037109375,-0.365234375,0.0625,-0.22265625,-12.1796875,3.50390625
4053847,,,,,,,,-0.140625,-2.5546875,1.89453125,0.638671875,-0.203125,0.013671875,-0.03125,-12.109375,3.00390625
4053848,,,,,,,,0.01171875,-1.91015625,1.48046875,0.806640625,-0.16015625,-0.03125,0.12109375,-11.453125,2.66015625
4053849,,,,,,,,-0.0234375,-1.2578125,1.05859375,0.779296875,-0.21875,-0.037109375,0.0859375,-10.8046875,2.27734375
4053850,36.01254816666667,129.31921683333334,55.607156141581115,16.44063552436612,1.3,326.0,,-0.37890625,-0.69140625,0.7578125,0.0625,-0.1875,-0.126953125,-0.26171875,-10.23046875,2.046875
4053851,,,,,,,,-0.1171875,-0.2421875,0.55078125,0.51171875,-0.50390625,0.015625,0.0078125,-9.77734375,1.89453125
4053852,,,,,,,,0.11328125,0.06640625,0.59375,0.400390625,-0.4140625,0.166015625,0.23828125,-9.46484375,2.0078125
4053853,,,,,,,,0.2421875,0.87109375,0.14453125,0.38671875,-0.3125,0.28125,0.3515625,-8.65625,1.58984375
4053854,,,,,,,,0.20703125,1.8671875,-0.09375,0.33984375,-0.23046875,0.388671875,0.27734375,-7.66796875,1.3984375
4053855,,,,,,,,0.16796875,2.39453125,-0.34765625,0.232421875,-0.197265625,0.45703125,0.19921875,-7.12890625,1.16796875
4053856,,,,,,,,0.14453125,2.625,-0.47265625,0.1953125,-0.197265625,0.47265625,0.16015625,-6.90234375,1.05078125
4053857,,,,,,,,0.22265625,3.4296875,-0.984375,0.185546875,-0.216796875,0.48046875,0.19921875,-6.09765625,0.5546875
4053858,,,,,,,,0.4921875,3.58203125,-1.0546875,0.21484375,-0.212890625,0.478515625,0.4296875,-5.94140625,0.515625
4053859,,,,,,,,0.78515625,3.65234375,-1.125,0.248046875,-0.1953125,0.46875,0.66015625,-5.859375,0.4765625
4053860,36.012549,129.31921599999998,55.53203105303813,16.533101076207153,1.2000000000000002,325.0,,1.0546875,3.65234375,-1.0703125,0.232421875,-0.205078125,0.46875,0.890625,-5.859375,0.5546875
4053861,,,,,,,,1.51171875,3.5,-1.01953125,0.208984375,-0.1796875,0.48046875,1.30859375,-6.01953125,0.62890625
4053862,,,,,,,,1.65234375,3.52734375,-1.0625,0.203125,-0.15234375,0.494140625,1.42578125,-5.9765625,0.59375
4053863,,,,,,,,1.9375,3.4453125,-1.2421875,0.171875,-0.09375,0.490234375,1.65625,-6.05859375,0.4375
4053864,,,,,,,,2.10546875,3.3671875,-1.35546875,0.169921875,-0.06640625,0.48046875,1.80859375,-6.13671875,0.32421875
4053865,,,,,,,,1.83984375,3.015625,-1.40234375,0.220703125,0.01171875,0.4296875,1.46484375,-6.4765625,0.32421875
4053866,,,,,,,,1.5859375,2.9296875,-1.28125,0.283203125,0.009765625,0.357421875,1.15625,-6.55859375,0.4765625
4053867,,,,,,,,1.2734375,2.609375,-1.12109375,0.302734375,0.01171875,0.30078125,0.8125,-6.859375,0.66796875
4053868,,,,,,,,1.09765625,2.45703125,-0.984375,0.306640625,0.009765625,0.267578125,0.62109375,-7.0078125,0.8203125
4053869,,,,,,,,1.04296875,2.02734375,-0.96875,0.291015625,0.064453125,0.20703125,0.54296875,-7.4296875,0.859375
4053870,36.012550000000005,129.31921499999999,55.441880953066516,16.64405974066888,1.3,324.0,,1.0234375,1.828125,-1.0,0.26953125,0.158203125,0.1484375,0.5078125,-7.62890625,0.859375
4053871,,,,,,,,0.875,1.08984375,-1.015625,0.267578125,0.23828125,0.087890625,0.3515625,-8.3515625,0.859375
4053872,,,,,,,,0.65234375,0.00390625,-0.77734375,0.26953125,0.279296875,0.044921875,0.12109375,-9.42578125,1.12890625
4053873,,,,,,,,0.5078125,-0.41796875,-0.5703125,0.27734375,0.28125,0.005859375,-0.03125,-9.84765625,1.359375
4053874,,,,,,,,0.2109375,-0.578125,-0.2890625,0.271484375,0.263671875,-0.01171875,-0.3359375,-10.00390625,1.6640625
4053875,,,,,,,,-0.09765625,-0.359375,-0.2734375,0.24609375,0.255859375,-0.009765625,-0.64453125,-9.77734375,1.703125
4053876,,,,,,,,-0.09765625,-0.2890625,-0.3203125,0.232421875,0.25390625,-0.013671875,-0.64453125,-9.6953125,1.6640625
4053877,,,,,,,,0.02734375,-0.21875,-0.3828125,0.201171875,0.263671875,-0.01171875,-0.52734375,-9.62109375,1.625
4053878,,,,,,,,0.5625,-0.56640625,-0.47265625,0.1875,0.267578125,-0.009765625,0.0078125,-9.96484375,1.55078125
4053879,,,,,,,,0.875,-0.95703125,-0.60546875,0.1875,0.240234375,-0.009765625,0.3125,-10.34765625,1.43359375
4053880,36.012551,129.31921383333335,55.336705956864606,16.755018309762736,1.4000000000000001,319.0,,0.984375,-1.18359375,-0.61328125,0.224609375,0.2109375,-0.013671875,0.4296875,-10.5703125,1.43359375
4053881,,,,,,,,0.875,-1.35546875,-0.75,0.26171875,0.150390625,0.0234375,0.3125,-10.7265625,1.3203125
4053882,,,,,,,,0.69140625,-1.35546875,-0.8515625,0.236328125,0.0859375,0.0625,0.12109375,-10.73046875,1.2421875
4053883,,,,,,,,0.578125,-1.20703125,-0.7890625,0.208984375,0.068359375,0.083984375,0.0078125,-10.5703125,1.3203125
4053884,,,,,,,,0.171875,-0.75,-0.5,0.087890625,0.087890625,0.119140625,-0.4140625,-10.12109375,1.625
4053885,,,,,,,,0.1875,-0.296875,-0.4609375,0.017578125,0.107421875,0.130859375,-0.4140625,-9.66015625,1.6640625
4053886,,,,,,,,0.5390625,0.5078125,-0.7265625,-0.056640625,0.091796875,0.12109375,-0.0703125,-8.85546875,1.3984375
4053887,,,,,,,,0.9296875,0.96875,-0.94921875,-0.130859375,0.068359375,0.095703125,0.3125,-8.390625,1.16796875
4053888,,,,,,,,1.5078125,0.890625,-1.05859375,-0.1640625,0.052734375,0.08203125,0.890625,-8.47265625,1.05078125
4053889,,,,,,,,2.35546875,-0.7890625,-1.44921875,-0.236328125,0.001953125,0.05078125,1.73046875,-10.15625,0.62890625
4053890,36.01255166666667,129.3192126666667,55.23153119270271,16.82899047069559,1.3,315.0,,2.01953125,-1.8515625,-0.62109375,-0.2734375,-0.037109375,0.056640625,0.4296875,-10.5703125,1.43359375
4053891,,,,,,,,0.1796875,-0.7421875,0.67578125,-0.330078125,-0.00390625,0.0703125,-0.453125,-10.1171875,2.69921875
4053892,,,,,,,,-0.546875,-0.65625,1.3984375,-0.443359375,0.072265625,0.0859375,-1.1796875,-10.04296875,3.390625
4053893,,,,,,,,-0.33984375,-3.140625,1.8046875,-0.72265625,0.09765625,0.107421875,-0.98828125,-12.53515625,3.734375
4053894,,,,,,,,-0.64453125,-6.33984375,2.15625,-1.091796875,0.07421875,0.09765625,-1.29296875,-15.74609375,4.0
4053895,,,,,,,,-3.92578125,-5.8125,4.14453125,-0.93359375,0.416015625,-0.09375,-4.58984375,-15.25390625,5.83984375
4053896,,,,,,,,-4.58203125,-3.3046875,4.1171875,-0.72265625,0.5703125,-0.119140625,-5.23828125,-12.76171875,5.7265625
4053897,,,,,,,,-3.203125,-2.171875,3.3515625,-1.052734375,0.30078125,-0.05078125,-3.859375,-11.65234375,4.84375
4053898,,,,,,,,-0.33203125,-1.8125,2.96484375,-1.078125,0.3046875,-0.01953125,-0.98828125,-11.3046875,4.34765625
4053899,,,,,,,,0.203125,-1.6796875,2.46875,-0.61328125,0.453125,-0.04296875,-0.453125,-11.1875,3.7734375
4053900,36.0125525,129.31921150000002,55.1263563146531,16.92145583781032,1.4000000000000001,313.0,0.0,-0.02734375,-1.828125,2.1171875,0.001953125,0.427734375,0.005859375,0.4296875,-10.5703125,1.43359375
4053901,,,,,,,,-0.2109375,-1.87109375,1.82421875,0.3828125,0.1640625,0.087890625,-0.875,-11.375,3.12109375
4053902,,,,,,,,-0.26171875,-1.7578125,1.6171875,0.46484375,0.171875,0.1171875,-0.94921875,-11.26953125,2.96875
4053903,,,,,,,,-0.4140625,-1.453125,1.5078125,0.453125,0.271484375,0.08984375,-1.1015625,-10.9609375,2.890625
4053904,,,,,,,,-0.62890625,-1.15234375,1.35546875,0.345703125,0.37109375,0.080078125,-1.33203125,-10.6484375,2.77734375
4053905,,,,,,,,-0.546875,-0.6171875,0.91015625,0.1953125,0.29296875,-0.00390625,-1.2578125,-10.1171875,2.35546875
4053906,,,,,,,,-0.35546875,0.00390625,0.5546875,0.09375,0.13671875,-0.08984375,-1.06640625,-9.5,2.0078125
4053907,,,,,,,,-0.20703125,0.609375,0.234375,0.0625,0.087890625,-0.15234375,-0.91015625,-8.89453125,1.703125
4053908,,,,,,,,-0.109375,0.9921875,0.11328125,0.064453125,0.095703125,-0.19140625,-0.796875,-8.5078125,1.58984375
4053909,,,,,,,,0.2578125,1.8046875,-0.15625,0.06640625,0.064453125,-0.240234375,-0.4140625,-7.703125,1.3203125
4053910,36.012553499999996,129.3192105,55.03620622012628,17.032414505062032,1.3,314.0,,0.54296875,2.45703125,-0.27734375,0.001953125,0.427734375,0.005859375,0.4296875,-10.5703125,1.43359375
4053911,,,,,,,,0.59375,2.83984375,-0.41015625,0.125,-0.033203125,-0.2578125,-0.03125,-6.6640625,1.08984375
4053912,,,,,,,,0.5625,3.30078125,-0.73046875,0.1640625,-0.01953125,-0.24609375,-0.03125,-6.203125,0.78515625
4053913,,,,,,,,0.44140625,3.4921875,-0.77734375,0.177734375,0.00390625,-0.2421875,-0.14453125,-6.015625,0.74609375
4053914,,,,,,,,0.1484375,3.61328125,-0.79296875,0.189453125,0.044921875,-0.228515625,-0.4140625,-5.8984375,0.74609375
4053915,,,,,,,,-0.11328125,3.7265625,-0.86328125,0.162109375,0.07421875,-0.236328125,-0.64453125,-5.79296875,0.70703125
4053916,,,,,,,,-0.49609375,3.65234375,-1.0,0.11328125,0.048828125,-0.232421875,-0.98828125,-5.859375,0.59375
4053917,,,,,,,,-0.6640625,3.453125,-1.125,0.09375,0.021484375,-0.23828125,-1.140625,-6.05859375,0.4765625
4053918,,,,,,,,-0.98828125,3.375,-1.1328125,0.0859375,0.009765625,-0.251953125,-1.44921875,-6.1328125,0.4765625
4053919,,,,,,,,-1.23828125,3.18359375,-1.0546875,0.08203125,-0.015625,-0.232421875,-1.67578125,-6.32421875,0.5546875
4053920,36.01255416666667,129.31920966666667,54.96108126218986,17.106386857660187,1.3,316.0,,-1.41796875,2.984375,-1.03125,0.001953125,0.427734375,0.005859375,0.4296875,-10.5703125,1.43359375
4053921,,,,,,,,-1.5078125,2.6796875,-1.1171875,0.107421875,-0.01953125,-0.201171875,-1.90625,-6.82421875,0.515625
4053922,,,,,,,,-1.5625,2.6015625,-1.2109375,0.12109375,-0.00390625,-0.177734375,-1.9453125,-6.8984375,0.4375
4053923,,,,,,,,-1.46484375,2.2890625,-1.2265625,0.123046875,0.01171875,-0.115234375,-1.83203125,-7.203125,0.4375
4053924,,,,,,,,-1.28125,2.171875,-1.203125,0.1328125,-0.013671875,-0.068359375,-1.640625,-7.3203125,0.4765625
4053925,,,,,,,,-1.05859375,1.8671875,-1.1328125,0.142578125,-0.048828125,-0.01953125,-1.41015625,-7.62890625,0.5546875
4053926,,,,,,,,-0.8671875,1.4375,-1.06640625,0.1484375,-0.060546875,0.005859375,-1.21875,-8.046875,0.62890625
4053927,,,,,,,,-0.71484375,1.12109375,-1.1171875,0.15625,-0.0859375,0.044921875,-1.06640625,-8.3515625,0.59375
4053928,,,,,,,,-0.4375,0.73046875,-1.10546875,0.150390625,-0.15625,0.08984375,-0.796875,-8.73828125,0.62890625
4053929,,,,,,,,-0.390625,0.34765625,-1.04296875,0.134765625,-0.234375,0.115234375,-0.7578125,-9.1171875,0.70703125
4053930,36.012555,129.31920883333333,54.88595618774446,17.198852415156885,1.2000000000000002,314.0,,-0.4609375,0.109375,-0.98046875,0.130859375,-0.29296875,0.125,-0.8359375,-9.35546875,0.78515625
4053931,,,,,,,,-0.4140625,-0.203125,-0.98828125,0.14453125,-0.33203125,0.125,-0.796875,-9.66015625,0.78515625
4053932,,,,,,,,-0.375,-0.3203125,-1.03515625,0.13671875,-0.345703125,0.1171875,-0.7578125,-9.7734375,0.74609375
4053933,,,,,,,,-0.3671875,-0.59375,-1.16796875,0.115234375,-0.357421875,0.1015625,-0.7578125,-10.0390625,0.62890625
4053934,,,,,,,,-0.3671875,-1.12890625,-1.18359375,0.05859375,-0.318359375,0.0703125,-0.7578125,-10.5703125,0.62890625
4053935,,,,,,,,-0.4453125,-1.484375,-1.15234375,0.01171875,-0.28515625,0.041015625,-0.8359375,-10.92578125,0.66796875
4053936,,,,,,,,-0.51953125,-1.71484375,-1.2578125,-0.00390625,-0.265625,0.029296875,-0.91015625,-11.1484375,0.5546875
4053937,,,,,,,,-0.4453125,-1.90625,-1.25,-0.08984375,-0.2109375,-0.013671875,-0.8359375,-11.34765625,0.5546875
4053938,,,,,,,,-0.4140625,-1.75,-0.9375,-0.162109375,-0.181640625,-0.03515625,-0.796875,-11.1875,0.859375
4053939,,,,,,,,-0.4140625,-1.484375,-0.66015625,-0.197265625,-0.16796875,-0.04296875,-0.796875,-10.921875,1.12890625
4053940,36.012556000000004,129.31920766666664,54.78078120036675,17.309810993621387,1.3,315.0,,-0.53515625,-1.12890625,-0.484375,-0.26171875,-0.126953125,-0.060546875,-0.91015625,-10.57421875,1.28125
4053941,,,,,,,,-1.01171875,-0.77734375,-0.3984375,-0.34375,-0.056640625,-0.0859375,-1.37109375,-10.2265625,1.3203125
4053942,,,,,,,,-1.203125,-1.359375,-0.51171875,-0.388671875,-0.01171875,-0.095703125,-1.5625,-10.80859375,1.16796875
4053943,,,,,,,,-1.171875,-2.30859375,-0.57421875,-0.41015625,-0.001953125,-0.103515625,-1.5234375,-11.7578125,1.08984375
4053944,,,,,,,,-0.8828125,-3.14453125,0.078125,-0.4140625,0.0234375,-0.134765625,-1.21875,-12.6015625,1.703125
4053945,,,,,,,,0.3359375,-2.83203125,1.765625,-0.423828125,0.044921875,-0.1640625,0.0078125,-12.30078125,3.3515625
4053946,,,,,,,,0.671875,-2.9375,1.61328125,-0.509765625,0.03515625,-0.193359375,0.92578125,-13.1796875,3.3125
4053947,,,,,,,,1.71484375,-4.078125,2.5390625,-0.646484375,-0.02734375,-0.203125,1.42578125,-13.5625,4.0
4053948,,,,,,,,2.05078125,-3.99609375,3.21484375,-0.705078125,-0.080078125,-0.185546875,1.76953125,-13.48828125,4.65234375
4053949,,,,,,,,1.8046875,-3.6328125,3.4765625,-0.728515625,-0.2421875,-0.1484375,1.5390625,-13.14453125,4.84375
4053950,36.012557,129.31920683333334,54.70565601904646,17.420769758500832,1.3,320.0,,0.3359375,-3.12109375,3.35546875,-0.26171875,-0.126953125,-0.060546875,-0.91015625,-10.57421875,1.28125
4053951,,,,,,,,-0.80859375,-3.03515625,2.74609375,-0.56640625,-0.294921875,-0.15234375,-1.02734375,-12.5625,3.96484375
4053952,,,,,,,,-0.70703125,-3.3359375,2.1796875,-0.4296875,-0.28125,-0.16015625,-0.91015625,-12.875,3.3515625
4053953,,,,,,,,-0.5703125,-3.375,2.1171875,-0.294921875,-0.310546875,-0.19140625,-0.7578125,-12.91796875,3.2734375
4053954,,,,,,,,0.2578125,-2.70703125,1.90234375,0.001953125,-0.322265625,-0.21875,0.0859375,-12.2578125,3.04296875
4053955,,,,,,,,0.38671875,-2.32421875,1.62109375,0.1640625,-0.326171875,-0.197265625,0.23828125,-11.875,2.77734375
4053956,,,,,,,,0.4765625,-1.48046875,1.13671875,0.201171875,-0.4453125,-0.15234375,0.3515625,-11.03515625,2.31640625
4053957,,,,,,,,0.5,-1.09765625,0.890625,0.189453125,-0.572265625,-0.099609375,0.390625,-10.65234375,2.0859375
4053958,,,,,,,,0.5703125,-0.9453125,0.76171875,0.185546875,-0.62109375,-0.05859375,0.46875,-10.5,1.97265625
4053959,,,,,,,,0.79296875,-0.484375,0.4609375,0.271484375,-0.62109375,0.04296875,0.69921875,-10.0390625,1.703125
4053960,36.012558166666665,129.319206,54.630530719875665,17.550221729210445,1.4000000000000001,323.0,,0.79296875,0.08984375,0.27734375,-0.26171875,-0.126953125,-0.060546875,0.69921875,-9.4609375,1.55078125
4053961,,,,,,,,0.5703125,0.6953125,-0.03125,0.291015625,-0.455078125,0.16015625,0.46875,-8.8515625,1.28125
4053962,,,,,,,,0.30859375,1.390625,-0.21484375,0.263671875,-0.435546875,0.1796875,0.19921875,-8.1640625,1.12890625
4053963,,,,,,,,0.1328125,2.234375,-0.4765625,0.2109375,-0.3984375,0.185546875,0.0078125,-7.3203125,0.8984375
4053964,,,,,,,,0.140625,2.6875,-0.65234375,0.208984375,-0.3359375,0.193359375,0.0078125,-6.859375,0.74609375
4053965,,,,,,,,0.234375,3.109375,-0.78515625,0.22265625,-0.283203125,0.197265625,0.0859375,-6.44140625,0.62890625
4053966,,,,,,,,0.43359375,3.25390625,-0.875,0.224609375,-0.25390625,0.205078125,0.27734375,-6.28515625,0.5546875
4053967,,,,,,,,0.73046875,3.56640625,-0.8671875,0.208984375,-0.181640625,0.220703125,0.54296875,-5.98046875,0.59375
4053968,,,,,,,,0.90234375,3.828125,-0.8828125,0.203125,-0.134765625,0.23828125,0.69921875,-5.7109375,0.59375
4053969,,,,,,,,1.23046875,4.05859375,-1.0625,0.189453125,-0.08203125,0.259765625,1.00390625,-5.48046875,0.4375
4053970,36.012559,129.31920483333334,54.525355857203344,17.6426871053258,1.4000000000000001,321.0,,1.63671875,4.08984375,-1.3828125,0.171875,-0.02734375,0.275390625,1.38671875,-5.44140625,0.1328125
4053971,,,,,,,,1.73828125,3.7421875,-1.328125,0.15625,0.0390625,0.2734375,1.46484375,-5.79296875,0.2109375
4053972,,,,,,,,1.453125,3.0546875,-1.1171875,0.197265625,0.099609375,0.267578125,1.15625,-6.4765625,0.4375
4053973,,,,,,,,1.35546875,2.85546875,-1.0078125,0.212890625,0.1171875,0.26953125,1.04296875,-6.66796875,0.5546875
4053974,,,,,,,,1.0703125,2.46484375,-0.765625,0.248046875,0.140625,0.24609375,0.734375,-7.046875,0.8203125
4053975,,,,,,,,1.02734375,2.265625,-0.7890625,0.220703125,0.17578125,0.20703125,0.66015625,-7.2421875,0.8203125
4053976,,,,,,,,1.00390625,2.1796875,-0.91796875,0.16015625,0.197265625,0.169921875,0.62109375,-7.32421875,0.70703125
4053977,,,,,,,,1.02734375,1.98828125,-1.125,0.138671875,0.275390625,0.1484375,0.62109375,-7.51171875,0.515625
4053978,,,,,,,,1.03515625,1.796875,-1.23828125,0.115234375,0.30078125,0.12890625,0.62109375,-7.703125,0.40234375
4053979,,,,,,,,1.2421875,0.984375,-1.21875,0.14453125,0.314453125,0.07421875,0.8125,-8.51171875,0.4375
4053980,36.01255983333333,129.31920383333332,54.43520589177688,17.73515257253051,1.4000000000000001,320.0,,1.2109375,-0.1328125,-0.92578125,0.197265625,0.310546875,0.0546875,0.7734375,-9.62109375,0.74609375
4053981,,,,,,,,1.11328125,-0.59375,-0.75,0.244140625,0.318359375,0.0390625,0.66015625,-10.078125,0.9375
4053982,,,,,,,,1.03515625,-0.70703125,-0.65234375,0.2578125,0.333984375,0.02734375,0.58203125,-10.19140625,1.05078125
4053983,,,,,,,,0.62890625,-0.90625,-0.4921875,0.2265625,0.361328125,0.0234375,0.16015625,-10.38671875,1.2421875
4053984,,,,,,,,0.0859375,-0.73046875,-0.46875,0.177734375,0.396484375,0.001953125,-0.375,-10.19140625,1.28125
4053985,,,,,,,,-0.20703125,-0.46484375,-0.375,0.1796875,0.439453125,-0.015625,-0.68359375,-9.921875,1.3984375
4053986,,,,,,,,-0.2421875,-0.39453125,-0.30859375,0.1953125,0.443359375,-0.01953125,-0.71875,-9.84375,1.47265625
4053987,,,,,,,,-0.08203125,-0.3203125,-0.4453125,0.244140625,0.435546875,-0.0234375,-0.56640625,-9.7734375,1.359375
4053988,,,,,,,,0.30078125,-0.51953125,-0.9375,0.310546875,0.3828125,-0.029296875,-0.18359375,-9.96484375,0.8984375
4053989,,,,,,,,0.4140625,-0.6796875,-1.25,0.322265625,0.3515625,-0.021484375,-0.0703125,-10.12109375,0.59375
4053990,36.01256083333333,129.31920266666665,54.33003091856195,17.846111155888707,1.4000000000000001,315.0,,0.34765625,-0.92578125,-1.2890625,0.197265625,0.310546875,0.0546875,0.7734375,-9.62109375,0.74609375
4053991,,,,,,,,0.23046875,-1.15234375,-1.0078125,0.30078125,0.22265625,0.0,-0.26171875,-10.5703125,0.8984375
4053992,,,,,,,,-0.06640625,-0.96875,-0.76171875,0.232421875,0.140625,0.0234375,-0.56640625,-10.38671875,1.16796875
4053993,,,,,,,,0.31640625,-0.703125,-1.125,0.125,0.087890625,0.04296875,-0.18359375,-10.1171875,0.8203125
4053994,,,,,,,,1.28125,-0.43359375,-0.89453125,-0.025390625,0.072265625,0.064453125,0.7734375,-9.84375,1.05078125
4053995,,,,,,,,1.75,-0.90234375,-0.84765625,-0.15625,0.0390625,0.080078125,1.234375,-10.3046875,1.08984375
4053996,,,,,,,,1.82421875,-1.390625,-0.9921875,-0.212890625,0.015625,0.087890625,1.30859375,-10.8046875,0.9375
4053997,,,,,,,,1.296875,-2.953125,-1.0234375,-0.322265625,-0.04296875,0.103515625,0.7734375,-12.37890625,0.859375
4053998,,,,,,,,0.42578125,-3.9140625,0.3046875,-0.369140625,-0.107421875,0.115234375,-0.10546875,-13.33984375,2.1640625
4053999,,,,,,,,-0.5625,-3.59765625,1.68359375,-0.4296875,-0.111328125,0.12109375,-1.1015625,-13.02734375,3.50390625
4054000,36.01256166666667,129.3192015,54.22485606231571,17.938576533659234,1.4000000000000001,313.0,0.0,-2.1640625,-2.2109375,2.87890625,-0.5078125,-0.021484375,0.123046875,-2.7109375,-11.6484375,4.65234375
4054001,,,,,,,,-2.00390625,-1.93359375,2.40625,-0.6875,0.041015625,0.119140625,-2.55859375,-11.375,4.1171875
4054002,,,,,,,,-1.26171875,-1.98046875,2.0546875,-0.869140625,0.13671875,0.09375,-1.83203125,-11.45703125,3.65625
4054003,,,,,,,,-1.28515625,-2.125,2.8984375,-0.736328125,0.326171875,0.0703125,-1.87109375,-11.609375,4.421875
4054004,,,,,,,,-1.23828125,-2.26953125,3.15234375,-0.451171875,0.349609375,0.068359375,-1.83203125,-11.76171875,4.61328125
4054005,,,,,,,,-0.8828125,-2.109375,2.87890625,-0.265625,0.150390625,0.087890625,-1.484375,-11.609375,4.30859375
4054006,,,,,,,,-0.484375,-1.75,2.41015625,-0.19921875,0.103515625,0.11328125,-1.1015625,-11.26953125,3.80859375
4054007,,,,,,,,-0.46875,-1.328125,2.2734375,-0.07421875,0.234375,0.103515625,-1.1015625,-10.84375,3.65625
4054008,,,,,,,,-0.68359375,-0.9453125,1.8984375,0.046875,0.263671875,0.0859375,-1.33203125,-10.4609375,3.2734375
4054009,,,,,,,,-1.01953125,-0.83984375,1.61328125,0.119140625,0.2734375,0.04296875,-1.67578125,-10.34375,3.00390625
4054010,36.012562333333335,129.31920033333333,54.11968132421839,18.01254870819603,1.3,312.0,,-1.09765625,-0.9453125,1.59765625,0.177734375,0.31640625,0.00390625,-1.75390625,-10.46484375,3.00390625
4054011,,,,,,,,-0.9765625,-0.90625,1.4375,0.185546875,0.328125,-0.046875,-1.640625,-10.42578125,2.8515625
4054012,,,,,,,,-0.8984375,-0.79296875,1.35546875,0.1796875,0.310546875,-0.072265625,-1.5625,-10.3046875,2.77734375
4054013,,,,,,,,-0.66796875,-0.53125,1.0625,0.142578125,0.27734375,-0.130859375,-1.33203125,-10.04296875,2.5078125
4054014,,,,,,,,-0.41015625,-0.109375,0.79296875,0.119140625,0.265625,-0.158203125,-1.06640625,-9.6171875,2.23828125
4054015,,,,,,,,-0.234375,0.28125,0.6640625,0.048828125,0.24609375,-0.201171875,-0.875,-9.23828125,2.125
4054016,,,,,,,,-0.171875,0.7109375,0.47265625,-0.001953125,0.208984375,-0.228515625,-0.796875,-8.81640625,1.93359375
4054017,,,,,,,,-0.1015625,1.1328125,0.28125,0.0,0.1796875,-0.248046875,-0.71875,-8.39453125,1.7421875
4054018,,,,,,,,0.01171875,1.8203125,0.12890625,0.05078125,0.109375,-0.2734375,-0.56640625,-7.70703125,1.58984375
4054019,,,,,,,,0.07421875,2.01953125,0.08203125,0.08203125,0.099609375,-0.27734375,-0.48828125,-7.51171875,1.55078125
4054020,36.01256333333333,129.31919933333333,54.02953125559148,18.123507386562608,1.3,314.0,,0.05859375,2.78515625,-0.1953125,0.177734375,0.31640625,0.00390625,-0.48828125,-6.74609375,1.28125
4054021,,,,,,,,-0.14453125,3.20703125,-0.4921875,0.1875,0.103515625,-0.302734375,-0.64453125,-6.3203125,1.015625
4054022,,,,,,,,-0.3203125,3.359375,-0.625,0.19921875,0.087890625,-0.32421875,-0.796875,-6.171875,0.8984375
4054023,,,,,,,,-0.75,3.390625,-0.92578125,0.234375,0.04296875,-0.35546875,-1.1796875,-6.1328125,0.62890625
4054024,,,,,,,,-1.01171875,3.19921875,-1.0234375,0.232421875,0.005859375,-0.37109375,-1.41015625,-6.3203125,0.5546875
4054025,,,,,,,,-1.35546875,3.046875,-0.97265625,0.23046875,-0.044921875,-0.380859375,-1.71484375,-6.48046875,0.62890625
4054026,,,,,,,,-1.43359375,3.0,-0.91796875,0.2109375,-0.087890625,-0.37890625,-1.75390625,-6.515625,0.70703125
4054027,,,,,,,,-1.42578125,2.9609375,-1.0546875,0.169921875,-0.111328125,-0.376953125,-1.71484375,-6.5546875,0.59375
4054028,,,,,,,,-1.390625,2.88671875,-1.1484375,0.125,-0.103515625,-0.345703125,-1.640625,-6.625,0.515625
4054029,,,,,,,,-1.23046875,2.80078125,-1.27734375,0.08203125,-0.080078125,-0.306640625,-1.44921875,-6.70703125,0.40234375
4054030,36.01256383333334,129.3191985,53.95440642701955,18.178986541840533,1.2000000000000002,315.0,,-1.0625,2.6875,-1.40234375,0.177734375,0.31640625,0.00390625,-0.48828125,-6.74609375,1.28125
4054031,,,,,,,,-0.9296875,2.49609375,-1.32421875,0.0625,-0.078125,-0.205078125,-1.1015625,-7.0078125,0.36328125
4054032,,,,,,,,-0.87890625,2.33984375,-1.29296875,0.0859375,-0.08203125,-0.15625,-1.02734375,-7.1640625,0.40234375
4054033,,,,,,,,-0.84765625,2.21875,-1.30078125,0.09375,-0.0859375,-0.140625,-0.98828125,-7.28125,0.40234375
4054034,,,,,,,,-0.78515625,1.51953125,-1.35546875,0.1015625,-0.1328125,-0.107421875,-0.91015625,-7.96875,0.36328125
4054035,,,,,,,,-0.79296875,1.0234375,-1.35546875,0.083984375,-0.162109375,-0.091796875,-0.91015625,-8.47265625,0.36328125
4054036,,,,,,,,-0.6875,-0.25,-1.1328125,0.06640625,-0.212890625,-0.087890625,-0.796875,-9.73828125,0.59375
4054037,,,,,,,,-0.58984375,-1.0546875,-0.765625,0.060546875,-0.2578125,-0.09765625,-0.68359375,-10.5390625,0.9765625
4054038,,,,,,,,-0.59765625,-1.16796875,-0.7265625,0.056640625,-0.2578125,-0.095703125,-0.68359375,-10.6484375,1.015625
4054039,,,,,,,,-0.53515625,-1.09765625,-0.62109375,0.04296875,-0.259765625,-0.09765625,-0.60546875,-10.57421875,1.12890625
4054040,36.01256466666667,129.3191975,53.8642564754608,18.271452015987137,1.2000000000000002,316.0,,-0.47265625,-0.9453125,-0.62109375,-0.005859375,-0.2578125,-0.08984375,-0.48828125,-10.265625,1.015625
4054041,,,,,,,,-0.21484375,-0.5625,-0.890625,-0.005859375,-0.2578125,-0.080078125,-0.22265625,-10.00390625,0.66796875
4054042,,,,,,,,-0.34375,-0.640625,-1.00390625,0.02734375,-0.2421875,-0.078125,-0.375,-10.1171875,0.74609375
4054043,,,,,,,,-0.8125,-1.03125,-0.66015625,0.103515625,-0.1875,-0.08984375,-0.8359375,-10.5,1.08984375
4054044,,,,,,,,-1.171875,-1.26171875,-0.63671875,0.150390625,-0.138671875,-0.119140625,-1.1796875,-10.73046875,1.12890625
4054045,,,,,,,,-1.265625,-1.4609375,-0.9609375,0.173828125,-0.09765625,-0.140625,-1.2578125,-10.92578125,0.8203125
4054046,,,,,,,,-1.2265625,-1.5,-1.04296875,0.1640625,-0.0625,-0.146484375,-1.21875,-10.9609375,0.74609375
4054047,,,,,,,,-0.97265625,-1.26953125,-1.09765625,0.078125,0.0078125,-0.162109375,-0.94921875,-10.73046875,0.70703125
4054048,,,,,,,,-0.63671875,-0.703125,-0.9765625,-0.0234375,0.0078125,-0.169921875,-0.60546875,-10.16015625,0.8203125
4054049,,,,,,,,-0.65234375,-0.08984375,-0.7734375,-0.1015625,-0.0390625,-0.177734375,-0.60546875,-9.5390625,1.015625
4054050,36.01256583333333,129.31919666666667,53.78913119841936,18.40090399542607,1.3,319.0,,-1.13671875,0.9453125,-0.5390625,-0.005859375,-0.2578125,-0.08984375,-1.06640625,-8.51171875,1.2421875
4054051,,,,,,,,-1.49609375,1.10546875,-0.65234375,-0.296875,-0.0390625,-0.138671875,-1.41015625,-8.35546875,1.08984375
4054052,,,,,,,,-1.77734375,0.6171875,-1.04296875,-0.34765625,-0.029296875,-0.11328125,-1.67578125,-8.8515625,0.66796875
4054053,,,,,,,,-1.78515625,0.46484375,-0.98046875,-0.373046875,-0.02734375,-0.103515625,-1.67578125,-9.00390625,0.70703125
4054054,,,,,,,,-1.55859375,0.80859375,-0.48828125,-0.412109375,-0.02734375,-0.08984375,-1.44921875,-8.66015625,1.16796875
4054055,,,,,,,,-1.3671875,1.27734375,-0.13671875,-0.462890625,-0.029296875,-0.06640625,-1.2578125,-8.19921875,1.47265625
4054056,,,,,,,,-0.53125,-0.05859375,-0.43359375,-0.572265625,-0.08203125,-0.046875,-0.4140625,-9.5390625,1.12890625
4054057,,,,,,,,-0.15625,-2.078125,-0.2109375,-0.80078125,-0.12109375,-0.029296875,-0.03125,-11.57421875,1.28125
4054058,,,,,,,,1.03125,-5.28125,0.51953125,-0.962890625,-0.169921875,0.0078125,1.15625,-14.7890625,1.93359375
4054059,,,,,,,,3.90625,-10.1328125,3.140625,-0.921875,-0.232421875,0.06640625,4.03125,-19.65625,4.4609375
4054060,36.01256683333334,129.31919566666664,53.69898113589255,18.511862678127645,1.3,321.0,,5.4140625,-9.5859375,5.09765625,-0.826171875,-0.4375,0.119140625,5.5234375,-16.20703125,5.265625
4054061,,,,,,,,4.88671875,-5.01171875,3.03515625,-1.08984375,-0.650390625,0.052734375,3.875,-12.375,2.8515625
4054062,,,,,,,,3.7734375,-2.828125,1.7421875,-1.26953125,-0.802734375,0.041015625,3.265625,-11.87890625,2.546875
4054063,,,,,,,,2.46484375,-2.125,1.4375,-1.38671875,-1.123046875,0.07421875,1.9609375,-11.6875,2.5859375
4054064,,,,,,,,1.19921875,-2.30078125,2.03125,-1.048828125,-1.00390625,0.01171875,0.4296875,-12.640625,3.50390625
4054065,,,,,,,,0.1953125,-3.28125,2.6484375,-0.052734375,-0.611328125,-0.021484375,0.3125,-12.87890625,3.390625
4054066,,,,,,,,0.2265625,-2.8203125,1.94140625,0.5,-0.42578125,-0.021484375,0.3515625,-12.41796875,2.69921875
4054067,,,,,,,,0.01953125,-1.52734375,1.328125,0.896484375,-0.134765625,-0.095703125,0.16015625,-11.109375,2.203125
4054068,,,,,,,,0.01953125,-0.875,0.7109375,0.56640625,-0.126953125,-0.16015625,0.16015625,-10.46484375,1.6640625
4054069,,,,,,,,-0.03515625,-0.5,0.3828125,0.427734375,-0.17578125,-0.166015625,0.12109375,-10.08203125,1.359375
4054070,36.012567833333335,129.319195,53.63888087440719,18.622821544019992,1.3,324.0,,-0.125,-0.1875,0.25,0.4765625,-0.27734375,-0.06640625,5.5234375,-16.20703125,5.265625
4054071,,,,,,,,0.01171875,0.11328125,0.53125,0.619140625,-0.15234375,0.037109375,0.19921875,-9.4609375,1.625
4054072,,,,,,,,0.05859375,0.7578125,0.4765625,0.626953125,-0.04296875,0.16015625,0.23828125,-8.8125,1.625
4054073,,,,,,,,-0.140625,1.63671875,0.0703125,0.49609375,0.009765625,0.275390625,0.0078125,-7.9296875,1.28125
4054074,,,,,,,,-0.30078125,2.12890625,-0.3046875,0.3203125,0.037109375,0.34375,-0.18359375,-7.43359375,0.9375
4054075,,,,,,,,-0.5390625,2.85546875,-0.6796875,0.236328125,0.06640625,0.396484375,-0.453125,-6.703125,0.59375
4054076,,,,,,,,-0.4765625,2.96875,-0.6875,0.251953125,0.07421875,0.40234375,-0.4140625,-6.59765625,0.59375
4054077,,,,,,,,-0.16796875,3.34765625,-0.56640625,0.34375,0.103515625,0.412109375,-0.14453125,-6.203125,0.74609375
4054078,,,,,,,,0.328125,3.546875,-0.4453125,0.412109375,0.10546875,0.419921875,0.3125,-6.01953125,0.8984375
4054079,,,,,,,,0.72265625,3.5,-0.4140625,0.408203125,0.099609375,0.427734375,0.66015625,-6.0546875,0.9765625
4054080,36.01256866666667,129.319194,53.54873093133993,18.71528702168115,1.3,323.0,,1.18359375,3.26171875,-0.68359375,0.4765625,-0.27734375,-0.06640625,5.5234375,-16.20703125,5.265625
4054081,,,,,,,,1.3828125,3.109375,-0.82421875,0.2734375,0.107421875,0.462890625,1.234375,-6.4375,0.62890625
4054082,,,,,,,,1.58203125,3.0234375,-0.9609375,0.2265625,0.15234375,0.453125,1.38671875,-6.51953125,0.515625
4054083,,,,,,,,1.734375,2.91015625,-1.0703125,0.234375,0.1953125,0.443359375,1.5,-6.62890625,0.4375
4054084,,,,,,,,1.890625,2.74609375,-1.09375,0.287109375,0.220703125,0.419921875,1.6171875,-6.78515625,0.4375
4054085,,,,,,,,1.66796875,2.703125,-1.23046875,0.302734375,0.216796875,0.390625,1.34765625,-6.8203125,0.32421875
4054086,,,,,,,,1.40234375,2.6171875,-1.26171875,0.279296875,0.2109375,0.34375,1.04296875,-6.90234375,0.32421875
4054087,,,,,,,,1.35546875,2.5703125,-1.1328125,0.26953125,0.220703125,0.287109375,0.96484375,-6.94140625,0.4765625
4054088,,,,,,,,1.1953125,2.296875,-1.0390625,0.259765625,0.23046875,0.20703125,0.7734375,-7.20703125,0.59375
4054089,,,,,,,,0.98828125,1.75,-1.078125,0.28125,0.30859375,0.1015625,0.54296875,-7.7421875,0.59375
4054090,36.012569500000005,129.31919299999998,53.4585809872914,18.80775250198379,1.2000000000000002,321.0,,0.69921875,1.29296875,-1.1796875,0.4765625,-0.27734375,-0.06640625,0.23828125,-8.1953125,0.515625
4054091,,,,,,,,0.28515625,0.89453125,-1.01171875,0.28515625,0.45703125,0.005859375,-0.18359375,-8.578125,0.70703125
4054092,,,,,,,,0.015625,0.5390625,-0.65234375,0.294921875,0.478515625,-0.02734375,-0.453125,-8.9296875,1.08984375
4054093,,,,,,,,-0.16796875,0.34765625,-0.5234375,0.306640625,0.466796875,-0.03515625,-0.64453125,-9.12109375,1.2421875
4054094,,,,,,,,-0.3515625,0.1484375,-0.4375,0.33203125,0.4921875,-0.041015625,-0.8359375,-9.3125,1.359375
4054095,,,,,,,,-0.3046875,-0.171875,-0.4296875,0.3203125,0.525390625,-0.033203125,-0.796875,-9.6171875,1.3984375
4054096,,,,,,,,-0.19140625,-0.59375,-0.32421875,0.3125,0.548828125,-0.033203125,-0.68359375,-10.0390625,1.51171875
4054097,,,,,,,,-0.11328125,-1.0234375,-0.39453125,0.275390625,0.56640625,-0.021484375,-0.60546875,-10.46484375,1.47265625
4054098,,,,,,,,-0.18359375,-1.14453125,-0.45703125,0.267578125,0.51953125,-0.00390625,-0.68359375,-10.57421875,1.43359375
4054099,,,,,,,,-0.08984375,-1.30859375,-0.59375,0.25,0.43359375,0.021484375,-0.60546875,-10.73046875,1.3203125
4054100,36.01257033333333,129.31919183333332,53.3534061516683,18.900217888809525,1.2000000000000002,317.0,0.0,0.00390625,-1.58203125,-0.703125,0.189453125,0.279296875,0.052734375,-0.52734375,-10.9921875,1.2421875
4054101,,,,,,,,-0.21875,-1.859375,-0.6796875,0.162109375,0.205078125,0.06640625,-0.7578125,-11.265625,1.28125
4054102,,,,,,,,-0.36328125,-1.66796875,-0.49609375,0.115234375,0.126953125,0.080078125,-0.91015625,-11.0703125,1.47265625
4054103,,,,,,,,-0.2890625,-1.515625,-0.5703125,0.083984375,0.0859375,0.09375,-0.8359375,-10.921875,1.3984375
4054104,,,,,,,,0.21875,-1.21484375,-0.84765625,0.01171875,0.009765625,0.103515625,-0.3359375,-10.61328125,1.12890625
4054105,,,,,,,,0.80859375,-1.8671875,-0.9609375,-0.078125,-0.056640625,0.111328125,0.23828125,-11.265625,1.015625
4054106,,,,,,,,1.015625,-3.24609375,-0.74609375,-0.19140625,-0.1171875,0.11328125,0.4296875,-12.64453125,1.20703125
4054107,,,,,,,,0.74609375,-3.9296875,-0.2734375,-0.220703125,-0.15234375,0.12109375,0.16015625,-13.3359375,1.6640625
4054108,,,,,,,,0.37109375,-3.66015625,0.01171875,-0.234375,-0.181640625,0.1328125,-0.22265625,-13.06640625,1.93359375
4054109,,,,,,,,-0.38671875,-2.50390625,0.84765625,-0.294921875,-0.197265625,0.166015625,-0.98828125,-11.9140625,2.73828125
4054110,36.01257116666667,129.31919083333332,53.26325621394637,18.992683371659652,1.3,315.0,,-0.83203125,-1.27734375,1.375,-0.4296875,-0.1171875,0.19921875,-1.44921875,-10.69140625,3.234375
4054111,,,,,,,,-0.5859375,-1.5,1.76953125,-0.58984375,-0.0625,0.23828125,-1.21875,-10.921875,3.58203125
4054112,,,,,,,,-0.67578125,-1.75,2.05859375,-0.67578125,-0.03515625,0.234375,-1.33203125,-11.1875,3.80859375
4054113,,,,,,,,-0.8984375,-1.71484375,2.08984375,-0.650390625,0.0234375,0.197265625,-1.5625,-11.15234375,3.80859375
4054114,,,,,,,,-1.2265625,-1.92578125,2.3359375,-0.490234375,0.1640625,0.1171875,-1.90625,-11.375,4.0
4054115,,,,,,,,-0.8984375,-1.95703125,2.27734375,-0.296875,0.19140625,0.0859375,-1.6015625,-11.4140625,3.88671875
4054116,,,,,,,,-0.23828125,-1.52734375,1.96484375,-0.314453125,0.1328125,0.080078125,-0.94921875,-10.99609375,3.54296875
4054117,,,,,,,,-0.15625,-1.51953125,2.5625,-0.2734375,0.115234375,0.048828125,-0.875,-10.99609375,4.1171875
4054118,,,,,,,,-0.1171875,-1.55859375,2.609375,-0.212890625,0.115234375,0.037109375,-0.8359375,-11.03515625,4.15625
4054119,,,,,,,,-0.03125,-1.55078125,2.01171875,-0.109375,0.140625,0.0390625,-0.7578125,-11.03125,3.54296875
4054120,36.012572,129.31918966666666,53.15808138501013,19.085148761612736,1.3,315.0,,-0.33984375,-1.3203125,1.67578125,-0.021484375,0.16796875,-0.021484375,-1.06640625,-10.8046875,3.19921875
4054121,,,,,,,,-0.60546875,-1.24609375,1.56640625,0.013671875,0.23046875,-0.046875,-1.33203125,-10.73046875,3.08203125
4054122,,,,,,,,-0.765625,-1.0078125,1.55859375,0.091796875,0.197265625,-0.1171875,-1.484375,-10.5,3.08203125
4054123,,,,,,,,-0.65234375,-0.625,1.40625,0.111328125,0.15625,-0.15234375,-1.37109375,-10.1171875,2.9296875
4054124,,,,,,,,-0.515625,-0.203125,1.015625,0.083984375,0.078125,-0.244140625,-1.21875,-9.69921875,2.546875
4054125,,,,,,,,-0.046875,0.37109375,0.578125,0.04296875,0.04296875,-0.30859375,-0.71875,-9.12109375,2.125
4054126,,,,,,,,0.49609375,0.92578125,0.1953125,-0.009765625,0.005859375,-0.359375,-0.14453125,-8.58203125,1.7421875
4054127,,,,,,,,0.6953125,1.3828125,0.00390625,0.001953125,-0.03125,-0.37109375,0.0859375,-8.125,1.55078125
4054128,,,,,,,,0.71484375,1.61328125,-0.12109375,0.04296875,-0.052734375,-0.36328125,0.12109375,-7.890625,1.43359375
4054129,,,,,,,,0.75390625,2.03515625,-0.43359375,0.126953125,-0.068359375,-0.341796875,0.19921875,-7.47265625,1.12890625
4054130,36.01257283333334,129.31918883333336,53.08295634866149,19.17761433575633,1.3,317.0,,0.8828125,2.45703125,-0.51953125,-0.021484375,0.16796875,-0.021484375,-1.06640625,-10.8046875,3.19921875
4054131,,,,,,,,0.77734375,2.88671875,-0.92578125,0.1484375,0.015625,-0.279296875,0.27734375,-6.625,0.66796875
4054132,,,,,,,,0.36328125,3.15234375,-0.98046875,0.142578125,0.08984375,-0.279296875,-0.10546875,-6.36328125,0.62890625
4054133,,,,,,,,-0.04296875,3.34375,-0.95703125,0.140625,0.134765625,-0.279296875,-0.48828125,-6.171875,0.66796875
4054134,,,,,,,,-0.3515625,3.34375,-0.97265625,0.12109375,0.125,-0.30859375,-0.7578125,-6.171875,0.66796875
4054135,,,,,,,,-0.56640625,3.0703125,-1.1328125,0.115234375,0.099609375,-0.326171875,-0.94921875,-6.44140625,0.515625
4054136,,,,,,,,-0.8125,2.83984375,-1.140625,0.11328125,0.1015625,-0.32421875,-1.1796875,-6.6640625,0.515625
4054137,,,,,,,,-1.15625,2.609375,-1.03515625,0.099609375,0.123046875,-0.328125,-1.484375,-6.90234375,0.62890625
4054138,,,,,,,,-1.37109375,2.37890625,-0.88671875,0.083984375,0.12109375,-0.326171875,-1.67578125,-7.12890625,0.78515625
4054139,,,,,,,,-1.51171875,2.140625,-0.97265625,0.06640625,0.099609375,-0.306640625,-1.79296875,-7.359375,0.70703125
4054140,36.0125735,129.31918783333333,52.992806525811936,19.25158661442773,1.2000000000000002,317.0,,-1.54296875,1.91015625,-1.05859375,-0.021484375,0.16796875,-0.021484375,-1.79296875,-7.5859375,0.62890625
4054141,,,,,,,,-1.45703125,1.875,-1.1015625,0.060546875,0.1015625,-0.2109375,-1.67578125,-7.62890625,0.59375
4054142,,,,,,,,-1.359375,2.02734375,-1.07421875,0.046875,0.0859375,-0.158203125,-1.5625,-7.46875,0.62890625
4054143,,,,,,,,-1.25390625,2.06640625,-1.1484375,0.056640625,0.068359375,-0.1328125,-1.44921875,-7.43359375,0.5546875
4054144,,,,,,,,-1.0703125,1.90234375,-1.234375,0.07421875,0.015625,-0.087890625,-1.2578125,-7.5859375,0.4765625
4054145,,,,,,,,-0.6875,1.29296875,-1.31640625,0.09765625,-0.03125,-0.037109375,-0.875,-8.19921875,0.40234375
4054146,,,,,,,,-0.38671875,0.70703125,-1.21875,0.1484375,-0.05078125,0.017578125,-0.56640625,-8.7734375,0.515625
4054147,,,,,,,,-0.1953125,0.203125,-1.1953125,0.1796875,-0.064453125,0.046875,-0.375,-9.27734375,0.5546875
4054148,,,,,,,,-0.109375,0.1640625,-1.08984375,0.185546875,-0.080078125,0.0546875,-0.296875,-9.3125,0.66796875
4054149,,,,,,,,-0.1875,0.00390625,-1.06640625,0.171875,-0.126953125,0.072265625,-0.375,-9.4609375,0.70703125
4054150,36.0125745,129.31918683333333,52.90265648357894,19.3625453042197,1.2000000000000002,316.0,,-0.21875,0.00390625,-1.12109375,-0.021484375,0.16796875,-0.021484375,-0.4140625,-9.4609375,0.66796875
4054151,,,,,,,,-0.171875,-0.08203125,-1.1953125,0.068359375,-0.166015625,0.0703125,-0.375,-9.5390625,0.59375
4054152,,,,,,,,-0.2109375,-0.38671875,-1.16796875,0.017578125,-0.1328125,0.05859375,-0.4140625,-9.84375,0.62890625
4054153,,,,,,,,-0.2421875,-0.5390625,-1.16796875,0.029296875,-0.115234375,0.048828125,-0.453125,-10.0,0.62890625
4054154,,,,,,,,-0.47265625,-1.16015625,-1.09765625,0.03125,-0.078125,0.025390625,-0.68359375,-10.61328125,0.70703125
4054155,,,,,,,,-0.5859375,-1.46875,-0.9453125,0.0234375,-0.060546875,0.013671875,-0.796875,-10.92578125,0.859375
4054156,,,,,,,,-0.81640625,-1.4765625,-0.7890625,-0.001953125,-0.0390625,-0.005859375,-1.02734375,-10.921875,1.015625
4054157,,,,,,,,-0.9296875,-1.3984375,-0.8203125,-0.060546875,-0.015625,-0.029296875,-1.140625,-10.84765625,0.9765625
4054158,,,,,,,,-0.9296875,-1.27734375,-0.890625,-0.0859375,0.005859375,-0.03515625,-1.140625,-10.7265625,0.8984375
4054159,,,,,,,,-1.08984375,-0.77734375,-1.10546875,-0.1796875,0.025390625,-0.046875,-1.29296875,-10.2265625,0.66796875
4054160,36.012575500000004,129.319186,52.8275313414738,19.47350408672653,1.3,318.0,,-1.20703125,-0.1640625,-1.08984375,-0.021484375,0.16796875,-0.021484375,-1.41015625,-9.6171875,0.66796875
4054161,,,,,,,,-1.3984375,0.21875,-1.01953125,-0.234375,0.041015625,-0.044921875,-1.6015625,-9.234375,0.70703125
4054162,,,,,,,,-2.01953125,-0.08203125,-0.6875,-0.24609375,0.0625,-0.03515625,-2.21484375,-9.54296875,1.015625
4054163,,,,,,,,-2.125,-0.578125,-0.7578125,-0.25,0.072265625,-0.029296875,-2.328125,-10.04296875,0.9375
4054164,,,,,,,,-1.8671875,-2.30078125,-0.46484375,-0.259765625,0.076171875,-0.025390625,-2.0625,-11.76171875,1.20703125
4054165,,,,,,,,-0.74609375,-2.40234375,0.65234375,-0.32421875,0.02734375,-0.04296875,-0.94921875,-11.87890625,2.27734375
4054166,,,,,,,,0.25,-1.63671875,1.3359375,-0.408203125,-0.0390625,-0.044921875,0.046875,-11.109375,2.9296875
4054167,,,,,,,,1.66015625,-3.16015625,1.19140625,-0.53125,-0.126953125,-0.0546875,1.46484375,-12.64453125,2.73828125
4054168,,,,,,,,1.84375,-3.8046875,1.4140625,-0.626953125,-0.17578125,-0.048828125,1.65625,-13.30078125,2.9296875
4054169,,,,,,,,2.5703125,-4.32421875,2.90234375,-0.814453125,-0.388671875,0.00390625,2.3828125,-13.83203125,4.30859375
4054170,36.01257666666667,129.31918516666667,52.7524060878757,19.60295607434271,1.3,322.0,,2.71484375,-3.92578125,3.171875,-0.6953125,-0.541015625,0.04296875,-1.41015625,-9.6171875,0.66796875
4054171,,,,,,,,2.25,-3.3125,2.60546875,-0.509765625,-0.61328125,0.03515625,2.078125,-12.83984375,3.88671875
4054172,,,,,,,,1.21484375,-3.03515625,2.390625,-0.572265625,-0.470703125,0.005859375,1.04296875,-12.56640625,3.6171875
4054173,,,,,,,,0.2109375,-3.2578125,2.21875,-0.65234375,-0.37109375,-0.009765625,0.046875,-12.80078125,3.390625
4054174,,,,,,,,0.1640625,-3.28125,2.00390625,-0.162109375,-0.4140625,-0.115234375,0.0078125,-12.8359375,3.12109375
4054175,,,,,,,,0.32421875,-2.62890625,1.46875,0.140625,-0.38671875,-0.171875,0.19921875,-12.1796875,2.5859375
4054176,,,,,,,,0.23046875,-2.27734375,1.375,0.177734375,-0.408203125,-0.150390625,0.12109375,-11.8359375,2.5078125
4054177,,,,,,,,0.1796875,-1.6640625,1.12890625,0.177734375,-0.462890625,-0.103515625,0.0859375,-11.23046875,2.27734375
4054178,,,,,,,,0.0078125,-1.05859375,0.80078125,0.224609375,-0.474609375,-0.046875,-0.0703125,-10.609375,1.97265625
4054179,,,,,,,,0.078125,-0.2109375,0.35546875,0.326171875,-0.41015625,0.01953125,0.0078125,-9.77734375,1.55078125
4054180,36.012577666666665,129.31918433333334,52.67728094996657,19.71391485641628,1.3,323.0,,0.27734375,0.2890625,0.19921875,-0.6953125,-0.541015625,0.04296875,-1.41015625,-9.6171875,0.66796875
4054181,,,,,,,,0.32421875,0.97265625,0.015625,0.328125,-0.248046875,0.181640625,0.23828125,-8.58203125,1.28125
4054182,,,,,,,,0.25390625,1.125,-0.11328125,0.322265625,-0.216796875,0.20703125,0.16015625,-8.4296875,1.16796875
4054183,,,,,,,,-0.2578125,2.08203125,-0.453125,0.33984375,-0.169921875,0.248046875,-0.375,-7.47265625,0.859375
4054184,,,,,,,,-0.3046875,2.6171875,-0.546875,0.28515625,-0.173828125,0.279296875,-0.453125,-6.94140625,0.8203125
4054185,,,,,,,,-0.01171875,3.18359375,-0.5703125,0.248046875,-0.189453125,0.27734375,-0.18359375,-6.359375,0.8203125
4054186,,,,,,,,0.109375,3.30859375,-0.5390625,0.240234375,-0.1796875,0.28125,-0.0703125,-6.2421875,0.859375
4054187,,,,,,,,0.44140625,3.60546875,-0.71484375,0.2109375,-0.13671875,0.302734375,0.3515625,-5.82421875,0.59375
4054188,,,,,,,,0.81640625,3.72265625,-1.2734375,0.1640625,-0.1328125,0.322265625,0.66015625,-5.44140625,0.24609375
4054189,,,,,,,,0.90234375,4.10546875,-1.20703125,0.150390625,-0.134765625,0.322265625,0.8515625,-5.40625,0.32421875
4054190,36.012578500000004,129.31918349999998,52.60215591909702,19.806380435856205,1.3,323.0,,0.27734375,0.2890625,0.19921875,-0.6953125,-0.541015625,0.04296875,1.1953125,-5.41015625,0.28515625
4054191,,,,,,,,1.546875,3.94140625,-1.2734375,0.10546875,-0.041015625,0.33984375,1.1953125,-5.75390625,0.1328125
4054192,,,,,,,,1.5,3.59765625,-1.3203125,0.1171875,-0.013671875,0.34375,1.1171875,-6.24609375,0.2109375
4054193,,,,,,,,1.484375,3.28515625,-1.2890625,0.1015625,0.03515625,0.33203125,1.04296875,-6.59375,0.32421875
4054194,,,,,,,,1.41015625,2.85546875,-1.18359375,0.05078125,0.0625,0.298828125,0.96484375,-6.859375,0.24609375
4054195,,,,,,,,1.36328125,2.34765625,-1.23046875,0.044921875,0.0859375,0.26171875,0.890625,-7.28515625,0.28515625
4054196,,,,,,,,1.375,1.7734375,-1.11328125,0.01953125,0.146484375,0.2265625,0.8515625,-8.390625,0.24609375
4054197,,,,,,,,1.359375,0.89453125,-1.3125,0.029296875,0.185546875,0.185546875,0.890625,-8.89453125,0.2109375
4054198,,,,,,,,1.40625,0.625,-1.3125,0.048828125,0.21484375,0.169921875,0.8125,-9.078125,0.24609375
4054199,,,,,,,,1.19921875,0.08203125,-1.16015625,0.08203125,0.2734375,0.142578125,0.58203125,-9.5390625,0.40234375
4054200,36.01257933333333,129.31918233333332,52.496981104031875,19.89884583325246,1.3,321.0,0.0,1.0625,-0.1953125,-1.0546875,0.103515625,0.318359375,0.107421875,0.3515625,-9.80859375,0.59375
4054201,,,,,,,,0.6171875,-0.38671875,-0.79296875,0.126953125,0.349609375,0.087890625,0.046875,-9.88671875,0.74609375
4054202,,,,,,,,0.05859375,-0.39453125,-0.6953125,0.14453125,0.3828125,0.06640625,-0.52734375,-9.88671875,0.859375
4054203,,,,,,,,-0.203125,-0.47265625,-0.6640625,0.15625,0.404296875,0.052734375,-0.796875,-9.9609375,0.8984375
4054204,,,,,,,,-0.34765625,-0.5625,-0.6015625,0.23046875,0.48828125,0.015625,-0.94921875,-10.04296875,0.9765625
4054205,,,,,,,,-0.37890625,-0.6015625,-0.5859375,0.2890625,0.5234375,-0.001953125,-0.98828125,-10.08203125,1.015625
4054206,,,,,,,,-0.2578125,-0.640625,-0.6484375,0.345703125,0.5234375,-0.013671875,-0.875,-10.1171875,0.9765625
4054207,,,,,,,,0.01953125,-0.9921875,-0.87109375,0.349609375,0.466796875,-0.01953125,-0.60546875,-10.46484375,0.78515625
4054208,,,,,,,,0.09765625,-1.34375,-1.00390625,0.353515625,0.421875,-0.025390625,-0.52734375,-10.80859375,0.66796875
4054209,,,,,,,,0.13671875,-1.54296875,-0.94921875,0.330078125,0.322265625,-0.025390625,-0.48828125,-10.99609375,0.74609375
4054210,36.012580166666666,129.31918133333332,52.406831186178295,19.9913113245051,1.2000000000000002,317.0,,0.09765625,-1.54296875,-0.7109375,0.103515625,0.318359375,0.107421875,-0.52734375,-10.9921875,1.015625
4054211,,,,,,,,0.06640625,-1.5234375,-0.859375,0.3203125,0.162109375,0.005859375,-0.56640625,-10.9609375,0.8984375
4054212,,,,,,,,-0.00390625,-1.60546875,-1.00390625,0.203125,0.0546875,0.029296875,-0.64453125,-11.03515625,0.78515625
4054213,,,,,,,,0.10546875,-1.68359375,-0.74609375,0.09375,0.0078125,0.0390625,-0.52734375,-11.109375,1.05078125
4054214,,,,,,,,0.45703125,-2.41796875,-0.4453125,-0.001953125,-0.033203125,0.03125,-0.18359375,-11.8359375,1.359375
4054215,,,,,,,,0.265625,-4.59375,-0.5546875,-0.07421875,-0.087890625,0.03125,-0.375,-14.02734375,1.2421875
4054216,,,,,,,,0.11328125,-5.09375,-0.32421875,-0.109375,-0.125,0.0390625,-0.52734375,-14.5234375,1.47265625
4054217,,,,,,,,-0.69140625,-5.046875,0.87890625,-0.216796875,-0.208984375,0.03515625,-1.33203125,-14.48828125,2.66015625
4054218,,,,,,,,-1.88671875,-2.90234375,2.671875,-0.3203125,-0.23046875,0.03125,-2.51953125,-12.33984375,4.421875
4054219,,,,,,,,-1.62109375,-1.7421875,2.359375,-0.40625,-0.212890625,0.04296875,-2.25390625,-11.1875,4.078125
4054220,36.01258116666667,129.31918033333335,52.3166811636799,20.102270021085562,1.3,317.0,,-0.546875,-0.35546875,1.59375,0.103515625,0.318359375,0.107421875,-1.1796875,-9.8046875,3.2734375
4054221,,,,,,,,0.03515625,0.41796875,1.9921875,-0.634765625,-0.205078125,0.091796875,-0.60546875,-9.04296875,3.6171875
4054222,,,,,,,,0.6484375,0.43359375,1.93359375,-0.56640625,-0.087890625,0.076171875,0.0078125,-9.04296875,3.50390625
4054223,,,,,,,,1.26953125,-0.515625,1.96484375,-0.4296875,-0.048828125,0.0703125,0.62109375,-10.00390625,3.50390625
4054224,,,,,,,,1.58203125,-1.3984375,2.140625,-0.005859375,-0.23046875,0.07421875,0.92578125,-10.88671875,3.65625
4054225,,,,,,,,1.19921875,-2.1640625,1.796875,0.015625,-0.271484375,0.076171875,0.54296875,-11.6484375,3.3125
4054226,,,,,,,,0.40234375,-2.30859375,1.94140625,0.05078125,-0.0625,0.029296875,-0.26171875,-11.796875,3.46484375
4054227,,,,,,,,-0.2109375,-1.92578125,2.01953125,-0.046875,0.021484375,-0.03515625,-0.875,-11.4140625,3.54296875
4054228,,,,,,,,-0.4453125,-1.6953125,1.90234375,-0.103515625,0.060546875,-0.076171875,-1.1015625,-11.1875,3.42578125
4054229,,,,,,,,-0.8359375,-1.0390625,1.7265625,-0.1484375,0.173828125,-0.150390625,-1.484375,-10.54296875,3.234375
4054230,36.012581999999995,129.3191791666667,52.211506355696145,20.19473542243534,1.4000000000000001,316.0,,-0.82421875,-0.875,1.40625,-0.1484375,0.318359375,-0.236328125,-1.44921875,-10.38671875,2.890625
4054231,,,,,,,,-0.73046875,-0.71484375,1.375,-0.09375,0.330078125,-0.263671875,-1.33203125,-10.23046875,2.8515625
4054232,,,,,,,,-0.59375,-0.2578125,1.23046875,-0.013671875,0.345703125,-0.279296875,-1.1796875,-9.77734375,2.69921875
4054233,,,,,,,,-0.42578125,0.328125,0.84765625,0.060546875,0.33984375,-0.302734375,-0.98828125,-9.19921875,2.31640625
4054234,,,,,,,,-0.265625,0.671875,0.41796875,0.087890625,0.314453125,-0.326171875,-0.796875,-8.85546875,1.89453125
4054235,,,,,,,,0.0546875,1.4375,0.10546875,0.05859375,0.294921875,-0.33984375,-0.453125,-8.08984375,1.58984375
4054236,,,,,,,,0.078125,1.55078125,0.06640625,0.05859375,0.29296875,-0.349609375,-0.4140625,-7.97265625,1.55078125
4054237,,,,,,,,0.0859375,1.8359375,-0.01953125,0.1015625,0.26953125,-0.3515625,-0.375,-7.703125,1.47265625
4054238,,,,,,,,0.0546875,2.21875,-0.07421875,0.177734375,0.263671875,-0.33984375,-0.375,-7.3203125,1.43359375
4054239,,,,,,,,0.0703125,2.51953125,-0.2421875,0.2265625,0.267578125,-0.337890625,-0.3359375,-7.01171875,1.28125
4054240,36.01258283333333,129.31917833333333,52.13638133436791,20.287201005877648,1.2000000000000002,316.0,,-0.24609375,3.09375,-0.46484375,0.228515625,0.27734375,-0.3359375,-0.60546875,-6.4375,1.08984375
4054241,,,,,,,,-0.3984375,3.24609375,-0.6484375,0.23828125,0.2890625,-0.361328125,-0.71875,-6.28125,0.9375
4054242,,,,,,,,-0.62109375,3.31640625,-0.83203125,0.248046875,0.251953125,-0.3828125,-0.91015625,-6.203125,0.78515625
4054243,,,,,,,,-0.71484375,3.31640625,-0.87890625,0.25,0.21875,-0.39453125,-0.98828125,-6.203125,0.74609375
4054244,,,,,,,,-1.09765625,3.26953125,-0.8359375,0.2734375,0.181640625,-0.40234375,-1.33203125,-6.2421875,0.8203125
4054245,,,,,,,,-1.328125,3.15234375,-1.01171875,0.275390625,0.162109375,-0.416015625,-1.5234375,-6.36328125,0.66796875
4054246,,,,,,,,-1.4453125,2.9921875,-1.07421875,0.259765625,0.158203125,-0.4140625,-1.6015625,-6.515625,0.62890625
4054247,,,,,,,,-1.3984375,2.76171875,-1.171875,0.228515625,0.1640625,-0.390625,-1.5234375,-6.7421875,0.5546875
4054248,,,,,,,,-1.3828125,2.6875,-1.265625,0.220703125,0.18359375,-0.3671875,-1.484375,-6.8203125,0.4765625
4054249,,,,,,,,-1.40625,2.5234375,-1.1640625,0.197265625,0.20703125,-0.330078125,-1.484375,-6.9765625,0.59375
4054250,36.0125835,129.31917733333333,52.046231533287454,20.36117329345184,1.2000000000000002,318.0,,-1.4296875,2.40234375,-1.11328125,0.228515625,0.27734375,-0.3359375,-1.484375,-7.08984375,0.66796875
4054251,,,,,,,,-1.42578125,2.31640625,-1.17578125,0.169921875,0.201171875,-0.185546875,-1.44921875,-7.16796875,0.62890625
4054252,,,,,,,,-1.34765625,2.05078125,-1.3359375,0.16796875,0.193359375,-0.15234375,-1.37109375,-7.43359375,0.4765625
4054253,,,,,,,,-1.28515625,1.359375,-1.3515625,0.16796875,0.181640625,-0.107421875,-1.29296875,-8.12890625,0.4765625
4054254,,,,,,,,-1.203125,0.5,-1.17578125,0.158203125,0.14453125,-0.05859375,-1.21875,-8.97265625,0.66796875
4054255,,,,,,,,-1.01953125,-0.41796875,-0.73828125,0.173828125,0.08203125,-0.041015625,-1.02734375,-9.8828125,1.12890625
4054256,,,,,,,,-0.98046875,-0.6171875,-0.6328125,0.16796875,0.05859375,-0.03125,-0.98828125,-10.08203125,1.2421875
4054257,,,,,,,,-0.7890625,-0.89453125,-0.4921875,0.125,0.013671875,-0.029296875,-0.796875,-10.34375,1.3984375
4054258,,,,,,,,-0.7890625,-0.81640625,-0.5390625,0.06640625,-0.033203125,-0.017578125,-0.796875,-10.26953125,1.359375
4054259,,,,,,,,-0.828125,-0.703125,-0.5078125,0.037109375,-0.0546875,-0.01953125,-0.8359375,-10.16015625,1.3984375
4054260,36.0125845,129.3191765,51.97110641010031,20.472132083357703,1.2000000000000002,318.0,,-0.90234375,-0.5546875,-0.69921875,0.228515625,0.27734375,-0.3359375,-0.91015625,-10.0,1.20703125
4054261,,,,,,,,-1.140625,-0.51953125,-0.73828125,0.060546875,-0.130859375,-0.017578125,-1.140625,-9.96484375,1.16796875
4054262,,,,,,,,-1.29296875,-0.71875,-0.73828125,0.107421875,-0.138671875,-0.025390625,-1.29296875,-10.15625,1.16796875
4054263,,,,,,,,-1.33203125,-0.87109375,-0.78515625,0.142578125,-0.12890625,-0.029296875,-1.33203125,-10.30859375,1.12890625
4054264,,,,,,,,-1.1875,-1.14453125,-0.921875,0.19921875,-0.111328125,-0.052734375,-1.1796875,-10.5703125,1.015625
4054265,,,,,,,,-0.66015625,-1.3828125,-1.0625,0.19140625,-0.115234375,-0.068359375,-0.64453125,-10.8046875,0.8984375
4054266,,,,,,,,-0.359375,-1.19140625,-1.03125,0.12890625,-0.125,-0.078125,-0.3359375,-10.61328125,0.9375
4054267,,,,,,,,-0.25390625,-0.50390625,-0.88671875,0.029296875,-0.162109375,-0.08203125,-0.22265625,-9.921875,1.08984375
4054268,,,,,,,,-0.30078125,-0.234375,-0.88671875,-0.080078125,-0.21484375,-0.0703125,-0.26171875,-9.66015625,1.08984375
4054269,,,,,,,,-0.765625,0.30078125,-0.984375,-0.1796875,-0.228515625,-0.0546875,-0.71875,-9.1171875,0.9765625
4054270,36.01258533333333,129.31917566666667,51.89598139594958,20.56459766596993,1.2000000000000002,320.0,,-1.2734375,-0.234375,-0.84765625,0.228515625,0.27734375,-0.3359375,-1.21875,-9.65625,1.08984375
4054271,,,,,,,,-1.546875,-1.14453125,-1.046875,-0.326171875,-0.14453125,-0.017578125,-1.484375,-10.5703125,0.859375
4054272,,,,,,,,-1.6640625,-1.60546875,-0.28515625,-0.3515625,-0.083984375,-0.005859375,-1.6015625,-11.03515625,1.58984375
4054273,,,,,,,,-1.1953125,-0.01953125,0.6640625,-0.388671875,-0.044921875,0.0,-1.140625,-9.4609375,2.5078125
4054274,,,,,,,,-0.69921875,0.90625,0.2890625,-0.490234375,-0.033203125,0.005859375,-0.64453125,-8.55078125,2.0859375
4054275,,,,,,,,0.06640625,0.109375,-0.53515625,-0.685546875,-0.091796875,0.013671875,0.12109375,-9.35546875,1.20703125
4054276,,,,,,,,0.18359375,-0.80078125,-0.57421875,-0.826171875,-0.140625,0.025390625,0.23828125,-10.26953125,1.12890625
4054277,,,,,,,,0.796875,-3.8515625,1.2734375,-0.974609375,-0.25390625,0.056640625,0.8515625,-13.33984375,2.890625
4054278,,,,,,,,2.4140625,-7.01171875,2.74609375,-0.8046875,-0.3359375,0.1015625,2.4609375,-16.5078125,4.26953125
4054279,,,,,,,,2.84375,-7.65625,3.0,-0.5078125,-0.5078125,0.142578125,3.2265625,-17.46875,4.5390625
4054280,36.0125865,129.319175,51.83588105848104,20.69404975145152,1.3,326.0,,-1.2734375,-0.234375,-0.84765625,-0.673828125,-0.515625,0.1328125,-1.21875,-9.65625,1.08984375
4054281,,,,,,,,2.703125,-4.1171875,2.6875,-0.96484375,-0.53125,0.1484375,2.7265625,-13.64453125,4.0390625
4054282,,,,,,,,2.13671875,-2.64453125,2.19921875,-0.9453125,-0.68359375,0.169921875,1.65625,-11.7265625,3.46484375
4054283,,,,,,,,0.8828125,-2.0859375,2.5546875,-0.40234375,-0.708984375,0.123046875,0.3125,-11.87890625,3.80859375
4054284,,,,,,,,0.27734375,-2.390625,2.48046875,0.1875,-0.517578125,0.0859375,0.16015625,-11.95703125,3.19921875
4054285,,,,,,,,0.16015625,-2.19921875,1.8515625,0.697265625,-0.3359375,0.0625,0.16015625,-11.4921875,2.73828125
4054286,,,,,,,,0.16796875,-1.93359375,1.58984375,0.77734375,-0.314453125,0.05078125,0.12109375,-11.11328125,2.546875
4054287,,,,,,,,0.0546875,-1.16796875,1.08984375,0.701171875,-0.3984375,0.048828125,-0.03125,-10.19140625,2.125
4054288,,,,,,,,-0.0625,-0.33984375,0.7578125,0.568359375,-0.494140625,0.08203125,-0.03125,-9.65625,1.97265625
4054289,,,,,,,,0.0546875,0.42578125,0.3984375,0.49609375,-0.5,0.123046875,0.16015625,-8.89453125,1.6640625
4054290,36.0125875,129.319174,51.74573104827897,20.805008453801715,1.4000000000000001,326.0,,-1.2734375,-0.234375,-0.84765625,0.4765625,-0.435546875,0.2109375,-1.21875,-9.65625,1.08984375
4054291,,,,,,,,0.421875,1.64453125,-0.26953125,0.474609375,-0.337890625,0.302734375,0.390625,-7.66796875,1.08984375
4054292,,,,,,,,0.3671875,2.25,-0.546875,0.41015625,-0.28125,0.37890625,0.3125,-7.28125,0.9375
4054293,,,,,,,,0.26953125,2.59375,-0.76171875,0.357421875,-0.259765625,0.396484375,0.19921875,-6.9375,0.74609375
4054294,,,,,,,,0.26171875,3.0546875,-0.87890625,0.279296875,-0.2578125,0.416015625,0.16015625,-6.48046875,0.66796875
4054295,,,,,,,,0.37890625,3.390625,-1.0234375,0.25390625,-0.2578125,0.4375,0.23828125,-6.1328125,0.5546875
4054296,,,,,,,,0.5234375,3.734375,-1.1640625,0.25,-0.265625,0.447265625,0.3515625,-5.79296875,0.4375
4054297,,,,,,,,0.91015625,3.95703125,-1.1875,0.23828125,-0.2421875,0.451171875,0.69921875,-5.55859375,0.4375
4054298,,,,,,,,1.15234375,3.99609375,-1.23046875,0.2265625,-0.234375,0.455078125,0.92578125,-5.51953125,0.40234375
4054299,,,,,,,,1.73828125,3.52734375,-1.31640625,0.173828125,-0.185546875,0.466796875,1.42578125,-5.9765625,0.36328125
4054300,36.0125885,129.31917333333334,51.685630822797414,20.915967334484478,1.3,328.0,0.0,1.9921875,2.71484375,-1.37109375,0.130859375,-0.09375,0.470703125,1.6171875,-6.78125,0.32421875
4054301,,,,,,,,2.09375,2.05859375,-1.38671875,0.11328125,-0.013671875,0.4296875,1.65625,-7.43359375,0.32421875
4054302,,,,,,,,1.86328125,2.01953125,-1.25,0.107421875,0.0234375,0.3984375,1.38671875,-7.46875,0.4765625
4054303,,,,,,,,1.57421875,2.1171875,-1.11328125,0.09375,0.078125,0.34765625,1.04296875,-7.359375,0.62890625
4054304,,,,,,,,1.23046875,2.109375,-1.08203125,0.095703125,0.1328125,0.28515625,0.66015625,-7.359375,0.66796875
4054305,,,,,,,,1.015625,1.91796875,-1.12890625,0.1328125,0.19140625,0.205078125,0.4296875,-7.546875,0.62890625
4054306,,,,,,,,0.90625,1.53515625,-1.05859375,0.166015625,0.2421875,0.171875,0.3125,-7.93359375,0.70703125
4054307,,,,,,,,0.6171875,0.953125,-0.99609375,0.236328125,0.3359375,0.08984375,0.0078125,-8.51171875,0.78515625
4054308,,,,,,,,0.36328125,0.484375,-0.90625,0.306640625,0.421875,0.0390625,-0.26171875,-8.97265625,0.8984375
4054309,,,,,,,,0.10546875,0.01171875,-0.59375,0.3203125,0.423828125,-0.03125,-0.52734375,-9.421875,1.2421875
4054310,36.01258933333334,129.31917216666668,51.58045603107612,21.008432745093646,1.3,323.0,,0.02734375,-0.1875,-0.39453125,0.287109375,0.3828125,-0.052734375,1.6171875,-6.78125,0.32421875
4054311,,,,,,,,0.1875,-0.11328125,-0.609375,0.259765625,0.384765625,-0.068359375,-0.453125,-9.54296875,1.28125
4054312,,,,,,,,0.49609375,-0.12109375,-0.82421875,0.24609375,0.40625,-0.06640625,-0.14453125,-9.5390625,1.08984375
4054313,,,,,,,,0.6796875,-0.3203125,-0.83203125,0.234375,0.384765625,-0.068359375,0.046875,-9.73828125,1.08984375
4054314,,,,,,,,0.75390625,-0.59375,-0.81640625,0.23828125,0.3359375,-0.064453125,0.12109375,-10.0,1.12890625
4054315,,,,,,,,0.6015625,-0.90234375,-0.87890625,0.265625,0.251953125,-0.04296875,-0.03125,-10.30859375,1.08984375
4054316,,,,,,,,0.640625,-1.0234375,-0.88671875,0.279296875,0.21484375,-0.033203125,0.0078125,-10.42578125,1.08984375
4054317,,,,,,,,0.609375,-1.25390625,-0.640625,0.263671875,0.154296875,-0.009765625,-0.03125,-10.6484375,1.359375
4054318,,,,,,,,0.41015625,-1.30078125,-0.78125,0.21484375,0.15234375,0.0234375,-0.22265625,-10.6875,1.2421875
4054319,,,,,,,,0.07421875,-1.35546875,-0.7578125,0.154296875,0.1796875,0.05078125,-0.56640625,-10.7265625,1.28125
4054320,36.01259016666667,129.319171,51.47528124397628,21.10089815546413,1.3,317.0,,0.05078125,-1.31640625,-0.3828125,0.017578125,0.197265625,0.072265625,-0.60546875,-10.6875,1.6640625
4054321,,,,,,,,0.51171875,-1.046875,-0.52734375,-0.068359375,0.17578125,0.064453125,-0.14453125,-10.42578125,1.51171875
4054322,,,,,,,,0.7578125,-1.27734375,-0.7109375,-0.12890625,0.134765625,0.064453125,0.0859375,-10.65234375,1.3203125
4054323,,,,,,,,0.91015625,-1.5859375,-0.78125,-0.1640625,0.103515625,0.052734375,0.23828125,-10.96484375,1.2421875
4054324,,,,,,,,1.0625,-3.26171875,-0.43359375,-0.287109375,0.01171875,0.037109375,0.390625,-12.640625,1.55078125
4054325,,,,,,,,-0.23046875,-3.33203125,0.76171875,-0.337890625,-0.064453125,0.041015625,-0.91015625,-12.72265625,2.69921875
4054326,,,,,,,,-0.9609375,-2.6328125,1.51171875,-0.365234375,-0.05078125,0.048828125,-1.640625,-12.03125,3.42578125
4054327,,,,,,,,-1.02734375,-1.8984375,2.09765625,-0.525390625,0.01171875,0.07421875,-1.71484375,-11.3046875,3.96484375
4054328,,,,,,,,-0.796875,-1.7734375,2.05078125,-0.6328125,0.05078125,0.076171875,-1.484375,-11.1875,3.88671875
4054329,,,,,,,,-0.4453125,-1.26171875,1.84375,-0.740234375,0.126953125,0.064453125,-1.140625,-10.69140625,3.6171875
4054330,36.012591,129.31916983333335,51.3701064570754,21.193363569323342,1.3,317.0,,-0.484375,-1.015625,1.87890625,-0.708984375,0.216796875,0.0,-1.1796875,-10.4609375,3.58203125
4054331,,,,,,,,-0.37109375,-1.46875,2.1015625,-0.583984375,0.24609375,-0.04296875,-1.06640625,-10.921875,3.734375
4054332,,,,,,,,0.08984375,-2.37890625,2.4921875,-0.43359375,0.123046875,-0.0625,-0.60546875,-11.8359375,4.078125
4054333,,,,,,,,0.12890625,-2.6796875,2.62109375,-0.375,0.044921875,-0.076171875,-0.56640625,-12.15234375,4.19140625
4054334,,,,,,,,-0.03125,-2.79296875,3.0,-0.283203125,-0.037109375,-0.080078125,-0.71875,-12.26171875,4.5390625
4054335,,,,,,,,-0.078125,-2.203125,2.41015625,-0.150390625,0.029296875,-0.087890625,-0.7578125,-11.6875,3.92578125
4054336,,,,,,,,-0.171875,-1.55078125,2.00390625,-0.09765625,0.1484375,-0.08984375,-0.8359375,-11.03125,3.50390625
4054337,,,,,,,,-0.5234375,-1.12890625,1.75,-0.115234375,0.251953125,-0.091796875,-1.1796875,-10.609375,3.234375
4054338,,,,,,,,-0.6015625,-1.16796875,1.66796875,-0.095703125,0.306640625,-0.111328125,-1.2578125,-10.6484375,3.16015625
4054339,,,,,,,,-0.65234375,-1.3046875,1.7890625,0.025390625,0.3828125,-0.16015625,-1.29296875,-10.80859375,3.2734375
4054340,36.012592000000005,129.31916866666668,51.264931563992576,21.30432219022122,1.4000000000000001,316.0,,-0.44140625,-1.3515625,1.8515625,-0.708984375,0.216796875,0.0,-1.06640625,-10.84375,3.3515625
4054341,,,,,,,,-0.37109375,-0.625,1.296875,0.234375,0.3125,-0.220703125,-0.98828125,-10.12109375,2.8125
4054342,,,,,,,,-0.2734375,0.11328125,0.69921875,0.185546875,0.310546875,-0.26953125,-0.875,-9.38671875,2.23828125
4054343,,,,,,,,-0.25,0.33984375,0.5703125,0.13671875,0.3125,-0.28515625,-0.8359375,-9.16015625,2.125
4054344,,,,,,,,-0.12109375,0.72265625,0.33203125,0.064453125,0.2890625,-0.3203125,-0.68359375,-8.77734375,1.89453125
4054345,,,,,,,,0.00390625,1.23046875,0.171875,0.083984375,0.255859375,-0.337890625,-0.52734375,-8.27734375,1.7421875
4054346,,,,,,,,0.1953125,1.8828125,-0.2265625,0.1953125,0.2578125,-0.3359375,-0.296875,-7.625,1.359375
4054347,,,,,,,,0.23828125,2.265625,-0.44140625,0.203125,0.283203125,-0.328125,-0.22265625,-7.24609375,1.16796875
4054348,,,,,,,,0.30859375,2.6484375,-0.6796875,0.18359375,0.296875,-0.3203125,-0.14453125,-6.859375,0.9375
4054349,,,,,,,,0.16015625,3.21484375,-0.84765625,0.1484375,0.318359375,-0.298828125,-0.26171875,-6.28515625,0.78515625
4054350,36.01259266666667,129.31916783333332,51.18980666959982,21.37829457377948,1.2000000000000002,316.0,,-0.08203125,3.453125,-0.98046875,-0.708984375,0.216796875,0.0,-1.06640625,-10.84375,3.3515625
4054351,,,,,,,,-0.30078125,3.453125,-1.0625,0.140625,0.3203125,-0.294921875,-0.68359375,-6.0546875,0.59375
4054352,,,,,,,,-0.63671875,3.375,-1.1171875,0.119140625,0.27734375,-0.306640625,-0.98828125,-6.1328125,0.5546875
4054353,,,,,,,,-0.890625,3.30078125,-1.1328125,0.080078125,0.24609375,-0.318359375,-1.21875,-6.20703125,0.5546875
4054354,,,,,,,,-1.10546875,3.22265625,-1.25,0.07421875,0.23046875,-0.32421875,-1.41015625,-6.28125,0.4375
4054355,,,,,,,,-1.328125,3.10546875,-1.2578125,0.056640625,0.19140625,-0.341796875,-1.6015625,-6.3984375,0.4375
4054356,,,,,,,,-1.41796875,2.90625,-1.29296875,0.056640625,0.173828125,-0.337890625,-1.67578125,-6.59375,0.40234375
4054357,,,,,,,,-1.49609375,2.71484375,-1.41796875,0.03515625,0.12890625,-0.3203125,-1.71484375,-6.78125,0.28515625
4054358,,,,,,,,-1.56640625,2.2578125,-1.42578125,0.037109375,0.11328125,-0.3046875,-1.75390625,-7.2421875,0.28515625
4054359,,,,,,,,-1.55078125,1.91015625,-1.15625,0.056640625,0.095703125,-0.265625,-1.71484375,-7.58984375,0.5546875
4054360,36.0125935,129.31916683333333,51.099656780270756,21.47076007755492,1.2000000000000002,317.0,,-1.421875,1.875,-1.05078125,-0.708984375,0.216796875,0.0,-1.06640625,-10.84375,3.3515625
4054361,,,,,,,,-1.24609375,1.828125,-1.05859375,0.06640625,0.07421875,-0.1796875,-1.37109375,-7.6640625,0.66796875
4054362,,,,,,,,-1.03125,1.7109375,-1.2890625,0.046875,0.048828125,-0.13671875,-1.140625,-7.78515625,0.4375
4054363,,,,,,,,-0.88671875,1.3671875,-1.37109375,0.029296875,0.01953125,-0.09375,-0.98828125,-8.12890625,0.36328125
4054364,,,,,,,,-0.81640625,0.73828125,-1.33984375,0.072265625,-0.0390625,-0.044921875,-0.91015625,-8.734375,0.40234375
4054365,,,,,,,,-0.671875,-0.06640625,-1.04296875,0.142578125,-0.1015625,-0.029296875,-0.7578125,-9.5390625,0.70703125
4054366,,,,,,,,-0.6328125,-0.2578125,-0.890625,0.17578125,-0.119140625,-0.025390625,-0.71875,-9.73828125,0.859375
4054367,,,,,,,,-0.7109375,-0.6796875,-0.4921875,0.2109375,-0.13671875,-0.0234375,-0.796875,-10.15625,1.28125
4054368,,,,,,,,-0.71875,-0.76953125,-0.5078125,0.185546875,-0.134765625,-0.03515625,-0.64453125,-10.15625,1.3203125
4054369,,,,,,,,-0.45703125,-0.6953125,-0.484375,0.15234375,-0.17578125,-0.041015625,-0.48828125,-10.15625,1.3203125
4054370,36.0125945,129.31916566666666,50.99448189403946,21.5817186995492,1.3,317.0,,-0.3125,-0.73828125,-0.8125,-0.708984375,0.216796875,0.0,-1.06640625,-10.84375,3.3515625
4054371,,,,,,,,-0.6640625,-0.82421875,-0.74609375,0.1328125,-0.1953125,-0.060546875,-0.71875,-10.26953125,1.08984375
4054372,,,,,,,,-0.86328125,-0.78515625,-0.80078125,0.1875,-0.1953125,-0.08203125,-0.91015625,-10.23046875,1.05078125
4054373,,,,,,,,-0.87109375,-0.83203125,-1.046875,0.22265625,-0.21875,-0.087890625,-0.91015625,-10.26953125,0.8203125
4054374,,,,,,,,-0.62109375,-1.0234375,-1.13671875,0.2265625,-0.2109375,-0.111328125,-0.64453125,-10.4609375,0.74609375
4054375,,,,,,,,0.0078125,-1.375,-1.3203125,0.154296875,-0.1484375,-0.119140625,0.0078125,-10.80859375,0.59375
4054376,,,,,,,,0.11328125,-1.4609375,-1.25390625,0.1328125,-0.140625,-0.123046875,0.12109375,-10.8828125,0.66796875
4054377,,,,,,,,0.22265625,-1.19140625,-0.984375,0.05078125,-0.146484375,-0.1171875,0.23828125,-10.61328125,0.9375
4054378,,,,,,,,0.0546875,-1.30859375,-0.9453125,-0.048828125,-0.14453125,-0.126953125,0.0859375,-10.7265625,0.9765625
4054379,,,,,,,,-0.22265625,-2.265625,-0.86328125,-0.1875,-0.140625,-0.11328125,-0.18359375,-11.69140625,1.05078125
4054380,36.012595499999996,129.319165,50.93438168557179,21.69267758512276,1.2000000000000002,320.0,,-0.30859375,-3.17578125,-0.5703125,-0.708984375,0.216796875,0.0,-0.26171875,-12.6015625,1.3203125
4054381,,,,,,,,0.09765625,-3.4765625,0.78515625,-0.4296875,-0.021484375,-0.087890625,0.16015625,-12.9140625,2.62109375
4054382,,,,,,,,0.3984375,-2.546875,1.140625,-0.490234375,0.01953125,-0.083984375,0.46875,-11.37890625,2.890625
4054383,,,,,,,,0.390625,-1.4296875,1.0859375,-0.53515625,0.02734375,-0.078125,0.46875,-10.88671875,2.8515625
4054384,,,,,,,,0.50390625,-0.76953125,0.796875,-0.66796875,0.01953125,-0.048828125,0.58203125,-10.23046875,2.5078125
4054385,,,,,,,,0.734375,-0.9375,1.25,-0.81640625,-0.017578125,0.001953125,0.8125,-10.421875,2.8515625
4054386,,,,,,,,0.734375,-2.00390625,2.1328125,-0.662109375,-0.0078125,0.033203125,0.8125,-11.49609375,3.65625
4054387,,,,,,,,0.2421875,-3.4140625,2.1875,-0.412109375,0.07421875,0.04296875,0.3125,-12.91796875,3.65625
4054388,,,,,,,,-0.21484375,-4.4765625,2.546875,-0.3359375,0.109375,0.046875,-0.14453125,-13.984375,4.0
4054389,,,,,,,,-0.359375,-4.890625,2.88671875,-0.3125,0.08984375,0.0546875,-0.296875,-14.41015625,4.30859375
4054390,36.0125965,129.31916416666667,50.859256586287714,21.803636384400086,1.3,323.0,,-0.046875,-4.27734375,2.6484375,-0.341796875,-0.00390625,0.072265625,0.0078125,-13.7890625,4.0390625
4054391,,,,,,,,0.34375,-2.66015625,1.83984375,-0.310546875,-0.12109375,0.08984375,0.390625,-12.18359375,3.19921875
4054392,,,,,,,,0.3125,-1.7265625,1.515625,-0.296875,-0.224609375,0.130859375,0.3515625,-11.265625,2.8515625
4054393,,,,,,,,0.2890625,-1.57421875,1.5,-0.193359375,-0.32421875,0.169921875,0.3125,-11.109375,2.8125
4054394,,,,,,,,0.3359375,-1.61328125,1.25,0.00390625,-0.4296875,0.1796875,0.3515625,-11.15234375,2.546875
4054395,,,,,,,,0.3515625,-0.9140625,0.96484375,0.232421875,-0.4765625,0.197265625,0.3515625,-10.46484375,2.27734375
4054396,,,,,,,,0.12890625,-0.38671875,0.6640625,0.41796875,-0.45703125,0.220703125,0.12109375,-9.921875,2.0078125
4054397,,,,,,,,-0.0390625,0.5703125,0.08203125,0.453125,-0.423828125,0.25,-0.0703125,-8.96875,1.47265625
4054398,,,,,,,,-0.06640625,0.79296875,-0.0078125,0.408203125,-0.439453125,0.263671875,-0.10546875,-8.734375,1.3984375
4054399,,,,,,,,-0.08203125,1.22265625,-0.203125,0.3203125,-0.48046875,0.29296875,-0.14453125,-8.3125,1.2421875
4054400,36.01259766666667,129.3191633333333,50.78413138118196,21.9330883905426,1.4000000000000001,325.0,0.0,0.0234375,2.13671875,-0.40234375,0.310546875,-0.478515625,0.30078125,-0.0703125,-7.390625,1.08984375
4054401,,,,,,,,0.1640625,2.671875,-0.6015625,0.31640625,-0.4453125,0.30859375,0.046875,-6.86328125,0.9375
4054402,,,,,,,,0.29296875,2.82421875,-0.6953125,0.3046875,-0.439453125,0.30859375,0.16015625,-6.70703125,0.859375
4054403,,,,,,,,0.546875,3.23828125,-0.765625,0.25390625,-0.44140625,0.32421875,0.390625,-6.28515625,0.8203125
4054404,,,,,,,,0.72265625,3.31640625,-0.7109375,0.189453125,-0.423828125,0.3359375,0.54296875,-6.20703125,0.8984375
4054405,,,,,,,,0.78515625,3.3828125,-0.83203125,0.15625,-0.388671875,0.3671875,0.58203125,-6.13671875,0.78515625
4054406,,,,,,,,1.0078125,3.64453125,-1.00390625,0.126953125,-0.341796875,0.373046875,0.7734375,-5.86328125,0.62890625
4054407,,,,,,,,1.390625,3.8828125,-1.09375,0.11328125,-0.271484375,0.38671875,1.1171875,-5.63671875,0.5546875
4054408,,,,,,,,1.578125,3.68359375,-1.2265625,0.09765625,-0.216796875,0.384765625,1.2734375,-5.8203125,0.4375
4054409,,,,,,,,1.62890625,3.56640625,-1.26953125,0.103515625,-0.17578125,0.375,1.30859375,-5.9375,0.40234375
4054410,36.012598499999996,129.3191625,50.709006394276024,22.025553984216007,1.3,325.0,,1.79296875,3.0234375,-1.27734375,0.11328125,-0.095703125,0.35546875,1.42578125,-6.4765625,0.40234375
4054411,,,,,,,,1.8984375,2.87109375,-1.25,0.091796875,-0.08984375,0.33203125,1.5,-6.62890625,0.4375
4054412,,,,,,,,1.921875,2.32421875,-1.33984375,0.1171875,-0.06640625,0.30859375,1.5,-7.16796875,0.36328125
4054413,,,,,,,,1.76171875,2.125,-1.42578125,0.111328125,-0.04296875,0.267578125,1.30859375,-7.36328125,0.28515625
4054414,,,,,,,,1.48046875,1.66796875,-1.28125,0.08984375,-0.02734375,0.2265625,1.00390625,-7.8125,0.4375
4054415,,,,,,,,1.3046875,1.23828125,-1.1328125,0.080078125,0.005859375,0.185546875,0.8125,-8.234375,0.59375
4054416,,,,,,,,1.3515625,0.96875,-1.06640625,0.08984375,0.01953125,0.166015625,0.8515625,-8.51171875,0.66796875
4054417,,,,,,,,1.28125,0.28125,-0.95703125,0.1171875,0.068359375,0.12109375,0.7734375,-9.1953125,0.78515625
4054418,,,,,,,,0.9140625,-0.1171875,-1.00390625,0.125,0.15234375,0.087890625,0.390625,-9.58203125,0.74609375
4054419,,,,,,,,0.69140625,-0.234375,-0.859375,0.140625,0.2265625,0.0625,0.16015625,-9.6953125,0.8984375
4054420,36.0125995,129.31916133333334,50.603831519486796,22.136512611466298,1.3,321.0,,0.66015625,-0.51171875,-0.61328125,0.1953125,0.279296875,0.033203125,0.12109375,-9.9609375,1.16796875
4054421,,,,,,,,0.74609375,-0.6640625,-0.515625,0.228515625,0.29296875,0.0234375,0.19921875,-10.1171875,1.28125
4054422,,,,,,,,0.71484375,-0.6328125,-0.59765625,0.236328125,0.294921875,0.021484375,0.16015625,-10.078125,1.20703125
4054423,,,,,,,,0.609375,-0.52734375,-0.8125,0.263671875,0.3046875,0.013671875,0.046875,-9.9609375,1.015625
4054424,,,,,,,,0.45703125,-0.34375,-0.921875,0.2578125,0.25390625,-0.0078125,-0.10546875,-9.77734375,0.9375
4054425,,,,,,,,0.42578125,-0.3515625,-0.80859375,0.263671875,0.162109375,-0.025390625,-0.14453125,-9.7734375,1.08984375
4054426,,,,,,,,0.38671875,-0.43359375,-0.890625,0.265625,0.12890625,-0.021484375,-0.18359375,-9.84765625,1.015625
4054427,,,,,,,,0.42578125,-0.43359375,-0.9921875,0.244140625,0.0859375,-0.01171875,-0.14453125,-9.84375,0.9375
4054428,,,,,,,,0.265625,-0.75,-1.19921875,0.201171875,0.076171875,0.0,-0.296875,-10.16015625,0.74609375
4054429,,,,,,,,0.265625,-0.83203125,-1.24609375,0.150390625,0.068359375,0.009765625,-0.296875,-10.23046875,0.70703125
4054430,36.012600166666665,129.31916,50.48363196952496,22.210484743179318,1.4000000000000001,315.0,,0.109375,-0.71875,-0.9453125,0.1953125,0.279296875,0.033203125,0.12109375,-9.9609375,1.16796875
4054431,,,,,,,,0.265625,-0.44921875,-0.6796875,-0.048828125,0.03125,0.060546875,-0.296875,-9.84375,1.28125
4054432,,,,,,,,0.73828125,-0.14453125,-0.546875,-0.166015625,-0.005859375,0.08984375,0.16015625,-9.54296875,1.3984375
4054433,,,,,,,,1.7421875,-0.3359375,-0.48828125,-0.27734375,-0.05078125,0.10546875,1.15625,-9.734375,1.43359375
4054434,,,,,,,,2.01953125,-2.39453125,-0.83984375,-0.3828125,-0.078125,0.115234375,1.42578125,-11.796875,1.05078125
4054435,,,,,,,,1.59765625,-3.34375,-0.72265625,-0.453125,-0.09375,0.109375,1.00390625,-12.76171875,1.12890625
4054436,,,,,,,,0.72265625,-3.26171875,0.1796875,-0.4609375,-0.099609375,0.107421875,0.12109375,-12.68359375,2.0078125
4054437,,,,,,,,-0.609375,-2.41015625,1.609375,-0.466796875,-0.09375,0.10546875,-1.21875,-11.83984375,3.390625
4054438,,,,,,,,-1.60546875,-2.32421875,2.3828125,-0.51953125,-0.033203125,0.095703125,-2.21484375,-11.76171875,4.1171875
4054439,,,,,,,,-1.8203125,-3.26953125,1.85546875,-0.796875,0.07421875,0.099609375,-2.4453125,-12.71875,3.50390625
4054440,36.01260116666666,129.319159,50.39348199011175,22.321443460010396,1.4000000000000001,314.0,,-1.734375,-3.71875,2.28515625,0.1953125,0.279296875,0.033203125,-2.3671875,-13.1796875,3.84765625
4054441,,,,,,,,-2.5703125,-3.92578125,3.375,-0.78515625,0.4921875,-0.015625,-3.2109375,-13.40625,4.8046875
4054442,,,,,,,,-2.33203125,-3.06640625,3.63671875,-0.560546875,0.455078125,0.037109375,-2.98046875,-12.56640625,4.99609375
4054443,,,,,,,,-0.8671875,-2.1796875,2.69140625,-0.640625,0.140625,0.078125,-1.5234375,-11.6875,3.96484375
4054444,,,,,,,,0.01953125,-1.7109375,2.0859375,-0.51953125,0.18359375,0.123046875,-0.64453125,-11.23046875,3.3125
4054445,,,,,,,,-0.1171875,-1.3515625,2.0859375,-0.197265625,0.306640625,0.125,-0.796875,-10.88671875,3.2734375
4054446,,,,,,,,-0.484375,-1.20703125,1.82421875,0.142578125,0.28125,0.11328125,-1.1796875,-10.7265625,3.00390625
4054447,,,,,,,,-0.66015625,-1.20703125,1.59375,0.400390625,0.201171875,0.06640625,-1.37109375,-10.73046875,2.8125
4054448,,,,,,,,-0.8046875,-0.8984375,1.44140625,0.3828125,0.236328125,0.017578125,-1.5234375,-10.421875,2.69921875
4054449,,,,,,,,-0.8046875,-0.37109375,1.02734375,0.333984375,0.259765625,-0.041015625,-1.5234375,-9.88671875,2.31640625
4054450,36.012602,129.31915766666668,50.273282339179545,22.413908799700348,1.4000000000000001,313.0,,-0.69140625,0.01171875,0.796875,0.271484375,0.232421875,-0.103515625,-2.3671875,-13.1796875,3.84765625
4054451,,,,,,,,-0.46875,0.59375,0.46484375,0.18359375,0.18359375,-0.17578125,-1.1796875,-8.93359375,1.81640625
4054452,,,,,,,,-0.33203125,1.015625,0.3828125,0.13671875,0.140625,-0.22265625,-1.02734375,-8.5078125,1.7421875
4054453,,,,,,,,-0.125,1.66796875,0.09765625,0.15234375,0.095703125,-0.25,-0.796875,-7.85546875,1.47265625
4054454,,,,,,,,0.12109375,2.43359375,-0.33984375,0.1796875,0.0625,-0.25390625,-0.52734375,-7.08984375,1.05078125
4054455,,,,,,,,0.171875,2.78515625,-0.5078125,0.17578125,0.0390625,-0.251953125,-0.453125,-6.74609375,0.8984375
4054456,,,,,,,,0.15625,2.86328125,-0.63671875,0.16796875,0.033203125,-0.244140625,-0.453125,-6.6640625,0.78515625
4054457,,,,,,,,0.171875,3.0859375,-0.69140625,0.197265625,0.041015625,-0.23828125,-0.4140625,-6.44140625,0.74609375
4054458,,,,,,,,0.03515625,3.19921875,-0.66796875,0.234375,0.052734375,-0.24609375,-0.52734375,-6.32421875,0.78515625
4054459,,,,,,,,-0.14453125,3.12109375,-0.85546875,0.2578125,0.044921875,-0.263671875,-0.68359375,-6.3984375,0.62890625
4054460,36.01260283333333,129.31915683333332,50.198157359128516,22.506374399114783,1.3,316.0,,-0.43359375,3.0078125,-0.984375,0.271484375,0.232421875,-0.103515625,-0.94921875,-6.515625,0.515625
4054461,,,,,,,,-0.95703125,2.76953125,-0.85546875,0.20703125,-0.005859375,-0.29296875,-1.44921875,-6.74609375,0.66796875
4054462,,,,,,,,-1.140625,2.6171875,-0.76171875,0.1875,-0.044921875,-0.306640625,-1.6015625,-6.8984375,0.78515625
4054463,,,,,,,,-1.15625,2.578125,-0.76953125,0.18359375,-0.064453125,-0.3125,-1.6015625,-6.94140625,0.78515625
4054464,,,,,,,,-1.140625,2.42578125,-1.09375,0.181640625,-0.080078125,-0.318359375,-1.5625,-7.0859375,0.4765625
4054465,,,,,,,,-1.2109375,2.38671875,-1.078125,0.16015625,-0.064453125,-0.30078125,-1.6015625,-7.12890625,0.515625
4054466,,,,,,,,-1.28125,2.38671875,-1.0078125,0.126953125,-0.05078125,-0.279296875,-1.640625,-7.12890625,0.59375
4054467,,,,,,,,-1.3125,2.2578125,-0.87890625,0.126953125,-0.083984375,-0.2421875,-1.640625,-7.24609375,0.74609375
4054468,,,,,,,,-1.2109375,2.296875,-0.87890625,0.1328125,-0.095703125,-0.2265625,-1.5234375,-7.20703125,0.74609375
4054469,,,,,,,,-0.9765625,2.1796875,-1.01953125,0.1640625,-0.08984375,-0.154296875,-1.2578125,-7.32421875,0.62890625
4054470,36.01260366666667,129.31915583333333,50.10800749225814,22.598839913207687,1.3,316.0,,-0.8359375,1.60546875,-1.2265625,0.17578125,-0.060546875,-0.099609375,-1.1015625,-7.89453125,0.4375
4054471,,,,,,,,-1.0,1.1015625,-1.171875,0.16015625,-0.0546875,-0.060546875,-1.2578125,-8.39453125,0.515625
4054472,,,,,,,,-1.07421875,0.40234375,-1.140625,0.162109375,-0.072265625,-0.04296875,-1.33203125,-9.08203125,0.5546875
4054473,,,,,,,,-1.12109375,0.2109375,-1.1484375,0.162109375,-0.09765625,-0.037109375,-1.37109375,-9.27734375,0.5546875
4054474,,,,,,,,-1.0078125,-0.02734375,-1.08984375,0.16015625,-0.14453125,-0.0234375,-1.2578125,-9.5,0.62890625
4054475,,,,,,,,-0.8984375,0.00390625,-1.02734375,0.12890625,-0.169921875,-0.013671875,-1.140625,-9.46484375,0.70703125
4054476,,,,,,,,-0.70703125,0.2734375,-0.95703125,0.08203125,-0.177734375,0.001953125,-0.94921875,-9.1953125,0.78515625
4054477,,,,,,,,-0.75390625,0.1953125,-0.97265625,0.0546875,-0.1796875,0.01171875,-0.98828125,-9.2734375,0.78515625
4054478,,,,,,,,-0.74609375,0.08203125,-0.97265625,0.033203125,-0.19140625,0.015625,-0.98828125,-9.3828125,0.78515625
4054479,,,,,,,,-0.9453125,-0.42578125,-1.08203125,0.015625,-0.19921875,0.017578125,-1.1796875,-9.88671875,0.66796875
4054480,36.012604499999995,129.31915483333333,50.017857626502796,22.691305427026467,1.3,316.0,,-1.05078125,-1.0390625,-1.08984375,0.17578125,-0.060546875,-0.099609375,-1.29296875,-10.5,0.66796875
4054481,,,,,,,,-0.8671875,-1.11328125,-0.8671875,0.025390625,-0.162109375,-0.025390625,-1.1015625,-10.57421875,0.8984375
4054482,,,,,,,,-0.25390625,-1.0078125,-1.09765625,-0.005859375,-0.146484375,-0.04296875,-0.48828125,-10.4609375,0.66796875
4054483,,,,,,,,0.3125,-0.73828125,-1.234375,-0.109375,-0.15234375,-0.05859375,0.0859375,-10.19140625,0.515625
4054484,,,,,,,,0.45703125,-0.2421875,-0.95703125,-0.16796875,-0.169921875,-0.06640625,0.23828125,-9.69921875,0.78515625
4054485,,,,,,,,-0.1640625,0.33984375,-0.62890625,-0.205078125,-0.193359375,-0.06640625,-0.375,-9.1171875,1.08984375
4054486,,,,,,,,-0.48046875,0.45703125,-0.54296875,-0.212890625,-0.2109375,-0.0703125,-0.68359375,-9.0,1.16796875
4054487,,,,,,,,-1.13671875,0.4921875,-0.13671875,-0.212890625,-0.203125,-0.068359375,-1.33203125,-8.96875,1.55078125
4054488,,,,,,,,-1.56640625,-0.50390625,-0.53515625,-0.244140625,-0.130859375,-0.080078125,-1.75390625,-9.9609375,1.12890625
