time,latitude,longitude,enu_x,enu_y,speed,course,ecg,accX,accY,accZ,gyrX,gyrY,gyrZ,eulR,eulP,eulY
4108300,36.01251233333333,129.31926033333332,59.528682070196965,12.464622040170198,1.0,327.0,0.0,0.69921875,0.7578125,-0.69140625,0.349609375,0.1796875,0.0703125,0.55078125,-8.71484375,1.14453125
4108301,,,,,,,,0.71484375,0.5234375,-0.67578125,0.390625,0.228515625,0.060546875,0.55078125,-8.94140625,1.18359375
4108302,,,,,,,,0.68359375,0.28515625,-0.75390625,0.41796875,0.298828125,0.048828125,0.51171875,-9.16796875,1.14453125
4108303,,,,,,,,0.578125,-0.22265625,-0.87109375,0.427734375,0.3515625,0.033203125,0.3984375,-9.66796875,1.06640625
4108304,,,,,,,,0.43359375,-0.50390625,-0.6015625,0.44921875,0.36328125,0.037109375,0.24609375,-9.9296875,1.375
4108305,,,,,,,,0.44921875,-0.359375,-0.3671875,0.46875,0.33984375,0.03515625,0.24609375,-9.78125,1.640625
4108306,,,,,,,,0.33203125,-0.21484375,-0.3515625,0.470703125,0.326171875,0.05078125,0.12890625,-9.625,1.6796875
4108307,,,,,,,,0.37890625,0.0078125,-0.55078125,0.482421875,0.314453125,0.060546875,0.16796875,-9.40234375,1.52734375
4108308,,,,,,,,0.47265625,0.078125,-0.70703125,0.4609375,0.322265625,0.072265625,0.24609375,-9.3203125,1.41015625
4108309,,,,,,,,0.5625,-0.359375,-0.8359375,0.44140625,0.357421875,0.0703125,0.3203125,-9.74609375,1.3359375
4108310,36.012513166666665,129.31925950000002,59.45355691027413,12.55708755832826,1.1,322.0,,0.578125,-0.67578125,-0.80078125,0.349609375,0.1796875,0.0703125,0.55078125,-8.71484375,1.14453125
4108311,,,,,,,,0.51171875,-0.921875,-0.73046875,0.46484375,0.322265625,0.083984375,0.24609375,-10.28515625,1.52734375
4108312,,,,,,,,0.5625,-1.00390625,-0.76171875,0.3828125,0.24609375,0.09375,0.28125,-10.3515625,1.52734375
4108313,,,,,,,,0.734375,-1.08984375,-1.1015625,0.251953125,0.1796875,0.099609375,0.4375,-10.4296875,1.21875
4108314,,,,,,,,0.81640625,-1.36328125,-1.15234375,0.107421875,0.150390625,0.1015625,0.51171875,-10.69921875,1.18359375
4108315,,,,,,,,0.82421875,-1.7109375,-1.0703125,0.017578125,0.13671875,0.107421875,0.51171875,-11.046875,1.2578125
4108316,,,,,,,,0.79296875,-2.015625,-0.91796875,-0.009765625,0.140625,0.099609375,0.47265625,-11.35546875,1.41015625
4108317,,,,,,,,0.6953125,-3.6640625,-0.5703125,-0.05078125,0.095703125,0.09375,0.359375,-13.00390625,1.7578125
4108318,,,,,,,,-0.0234375,-6.03125,-0.40234375,-0.12890625,0.015625,0.087890625,-0.3671875,-15.37890625,1.91015625
4108319,,,,,,,,-1.05859375,-6.796875,0.1171875,-0.25390625,-0.044921875,0.08203125,-1.40234375,-16.14453125,2.40625
4108320,36.01251383333333,129.31925850000002,59.363406970304005,12.631059769859679,1.1,319.0,,-2.46875,-4.75,2.6328125,0.349609375,0.1796875,0.0703125,0.55078125,-8.71484375,1.14453125
4108321,,,,,,,,-2.421875,-1.91015625,3.484375,-0.455078125,-0.056640625,0.0625,-2.78125,-11.27734375,5.703125
4108322,,,,,,,,-1.12109375,0.55859375,2.6484375,-0.5546875,-0.13671875,0.07421875,-1.48046875,-8.8203125,4.8203125
4108323,,,,,,,,0.18359375,1.578125,2.53515625,-0.5546875,-0.166015625,0.060546875,-0.17578125,-7.828125,4.62890625
4108324,,,,,,,,2.2578125,1.81640625,1.47265625,-0.28515625,0.115234375,0.0234375,1.890625,-7.59375,3.51953125
4108325,,,,,,,,3.109375,0.20703125,1.15625,0.373046875,-0.099609375,0.052734375,2.734375,-9.203125,3.2109375
4108326,,,,,,,,3.1015625,-0.3359375,0.94921875,0.505859375,-0.244140625,0.07421875,2.734375,-9.7421875,3.01953125
4108327,,,,,,,,2.48828125,-1.2578125,0.12890625,0.578125,-0.30078125,0.08984375,2.12109375,-10.6640625,2.25390625
4108328,,,,,,,,1.03125,-1.73046875,0.7734375,0.470703125,-0.150390625,0.029296875,0.6640625,-11.12109375,2.9453125
4108329,,,,,,,,-0.26953125,-2.0078125,1.73046875,0.20703125,-0.048828125,-0.05859375,-0.63671875,-11.39453125,3.94140625
4108330,36.01251483333333,129.3192575,59.27325677784213,12.742018393405228,1.2000000000000002,319.0,,-1.3203125,-1.921875,2.265625,-0.166015625,-0.048828125,-0.146484375,-1.671875,-11.31640625,4.4765625
4108331,,,,,,,,-2.0625,-1.1484375,2.2578125,-0.380859375,0.001953125,-0.232421875,-2.3984375,-10.546875,4.4375
4108332,,,,,,,,-1.82421875,-0.64453125,1.9140625,-0.439453125,0.197265625,-0.279296875,-2.12890625,-10.046875,4.0546875
4108333,,,,,,,,-0.69921875,-0.703125,1.46484375,-0.41796875,0.484375,-0.306640625,-0.98046875,-10.12890625,3.55859375
4108334,,,,,,,,-0.5234375,-0.49609375,1.12109375,-0.31640625,0.75390625,-0.306640625,-0.7890625,-9.93359375,3.17578125
4108335,,,,,,,,-0.4921875,-0.11328125,1.06640625,-0.140625,0.8125,-0.2734375,-0.75,-9.546875,3.09765625
4108336,,,,,,,,-0.5,0.15234375,0.9140625,-0.048828125,0.775390625,-0.255859375,-0.75,-9.28515625,2.9453125
4108337,,,,,,,,-0.125,1.01171875,0.5,0.064453125,0.626953125,-0.24609375,-0.3671875,-8.44140625,2.5234375
4108338,,,,,,,,0.125,1.51171875,0.29296875,0.080078125,0.541015625,-0.22265625,-0.1015625,-7.9375,2.33203125
4108339,,,,,,,,0.1171875,2.30859375,-0.16796875,0.0625,0.5625,-0.236328125,-0.1015625,-7.1328125,1.87109375
4108340,36.0125155,129.3192565,59.18310683938157,12.815990608502055,1.2000000000000002,317.0,,-0.28125,2.96484375,-0.375,0.103515625,0.501953125,-0.2734375,-0.484375,-6.484375,1.6796875
4108341,,,,,,,,-0.41796875,3.34765625,-0.34375,0.166015625,0.361328125,-0.30078125,-0.59765625,-6.10546875,1.71875
4108342,,,,,,,,-0.2890625,3.5703125,-0.51953125,0.20703125,0.251953125,-0.3359375,-0.4453125,-5.875,1.56640625
4108343,,,,,,,,-0.12109375,3.49609375,-0.69140625,0.228515625,0.224609375,-0.357421875,-0.25390625,-5.94921875,1.41015625
4108344,,,,,,,,-0.0546875,3.33203125,-0.8359375,0.181640625,0.26953125,-0.369140625,-0.140625,-6.10546875,1.296875
4108345,,,,,,,,-0.16015625,3.1796875,-0.8125,0.13671875,0.248046875,-0.376953125,-0.21484375,-6.26171875,1.3359375
4108346,,,,,,,,-0.29296875,3.09375,-0.8515625,0.125,0.236328125,-0.384765625,-0.33203125,-6.3359375,1.296875
4108347,,,,,,,,-0.62890625,2.7109375,-0.8671875,0.1328125,0.21484375,-0.392578125,-0.63671875,-6.71875,1.296875
4108348,,,,,,,,-1.01171875,2.58984375,-0.875,0.126953125,0.25,-0.408203125,-0.98046875,-6.83203125,1.296875
4108349,,,,,,,,-1.3515625,2.24609375,-1.00390625,0.109375,0.302734375,-0.40234375,-1.2890625,-7.171875,1.18359375
4108350,36.01251633333333,129.3192555,59.09295677818155,12.908456028323034,1.2000000000000002,317.0,,-1.703125,1.9765625,-1.01171875,0.103515625,0.501953125,-0.2734375,-1.59375,-7.4453125,1.18359375
4108351,,,,,,,,-1.8046875,1.77734375,-1.09765625,0.0625,0.36328125,-0.34375,-1.671875,-7.63671875,1.10546875
4108352,,,,,,,,-1.703125,1.578125,-1.17578125,0.0390625,0.36328125,-0.31640625,-1.5546875,-7.828125,1.02734375
4108353,,,,,,,,-1.68359375,1.46484375,-1.21875,0.033203125,0.357421875,-0.294921875,-1.51953125,-7.94140625,0.9921875
4108354,,,,,,,,-1.20703125,0.734375,-1.11328125,0.03515625,0.337890625,-0.205078125,-1.01953125,-8.671875,1.10546875
4108355,,,,,,,,-1.0625,0.3046875,-0.9609375,0.03515625,0.3359375,-0.154296875,-0.8671875,-9.09375,1.2578125
4108356,,,,,,,,-0.9921875,-0.34375,-0.84375,0.0390625,0.330078125,-0.109375,-0.7890625,-9.74609375,1.375
4108357,,,,,,,,-0.9921875,-0.7265625,-0.73828125,0.01953125,0.30078125,-0.083984375,-0.7890625,-10.12890625,1.48828125
4108358,,,,,,,,-0.9921875,-1.03515625,-0.625,0.009765625,0.28125,-0.068359375,-0.7890625,-10.4296875,1.6015625
4108359,,,,,,,,-0.953125,-1.1953125,-0.46875,-0.025390625,0.23828125,-0.046875,-0.75,-10.58984375,1.7578125
4108360,36.01251716666666,129.31925483333333,59.03285653229198,13.000921651405466,1.2000000000000002,319.0,,-1.0703125,-0.12109375,-0.5,-0.0546875,0.146484375,-0.01953125,-0.8671875,-9.51171875,1.71875
4108361,,,,,,,,-1.1015625,0.03125,-0.4921875,-0.0390625,0.072265625,0.0,-0.90625,-9.36328125,1.71875
4108362,,,,,,,,-1.0234375,0.0390625,-0.609375,-0.017578125,0.048828125,0.00390625,-0.828125,-9.36328125,1.6015625
4108363,,,,,,,,-1.0546875,-0.12109375,-0.5625,0.052734375,0.041015625,0.025390625,-0.8671875,-9.5078125,1.640625
4108364,,,,,,,,-1.16015625,-0.19921875,-0.64453125,0.13671875,0.068359375,0.041015625,-0.98046875,-9.58984375,1.56640625
4108365,,,,,,,,-1.19140625,-0.20703125,-1.05078125,0.150390625,0.083984375,0.060546875,-1.01953125,-9.58984375,1.18359375
4108366,,,,,,,,-1.0703125,-0.0546875,-1.25,0.109375,0.068359375,0.060546875,-0.90625,-9.4375,0.9921875
4108367,,,,,,,,-0.984375,0.16796875,-1.3671875,0.001953125,0.05078125,0.072265625,-0.828125,-9.20703125,0.875
4108368,,,,,,,,-1.015625,0.47265625,-1.3984375,-0.12890625,0.0390625,0.08203125,-0.8671875,-8.90234375,0.8359375
4108369,,,,,,,,-1.12109375,0.58984375,-1.3125,-0.205078125,0.03125,0.08203125,-0.98046875,-8.78125,0.9140625
4108370,36.01251816666667,129.319254,58.957731255338636,13.111880381311128,1.3,322.0,,-1.57421875,0.98046875,-0.8984375,-0.322265625,0.0078125,0.078125,-1.44140625,-8.40234375,1.296875
4108371,,,,,,,,-2.25390625,0.71875,-0.4609375,-0.48046875,-0.017578125,0.068359375,-2.12890625,-8.671875,1.6796875
4108372,,,,,,,,-2.625,-0.4921875,-0.13671875,-0.578125,-0.03125,0.076171875,-2.515625,-9.90234375,1.94921875
4108373,,,,,,,,-2.5078125,-0.875,-0.0390625,-0.623046875,-0.0390625,0.08203125,-2.3984375,-10.28515625,2.0234375
4108374,,,,,,,,-1.6484375,-1.47265625,0.4453125,-0.7109375,-0.060546875,0.103515625,-1.5546875,-10.89453125,2.4453125
4108375,,,,,,,,0.00390625,-1.80859375,1.40625,-0.76171875,-0.095703125,0.125,0.08984375,-11.23828125,3.328125
4108376,,,,,,,,1.484375,-4.12890625,2.44140625,-0.8125,-0.1875,0.15234375,1.546875,-13.57421875,4.28515625
4108377,,,,,,,,2.375,-6.75,2.60546875,-0.97265625,-0.353515625,0.171875,2.4296875,-16.21875,4.36328125
4108378,,,,,,,,3.484375,-8.50390625,3.1015625,-1.0546875,-0.46484375,0.181640625,3.5390625,-17.98046875,4.8203125
4108379,,,,,,,,4.21875,-7.64453125,4.20703125,-1.11328125,-0.673828125,0.185546875,4.265625,-17.1328125,5.81640625
4108380,36.01251916666667,129.3192533333333,58.897630886743876,13.222839210870713,1.3,326.0,,3.9609375,-4.14453125,3.3515625,-0.322265625,0.0078125,0.078125,4.0,-13.65234375,4.859375
4108381,,,,,,,,3.20703125,-2.2890625,2.40234375,-0.85546875,-0.77734375,0.203125,3.23046875,-11.8125,3.82421875
4108382,,,,,,,,1.8359375,-1.8984375,2.52734375,-0.845703125,-0.77734375,0.19921875,1.8515625,-11.4296875,3.90234375
4108383,,,,,,,,0.28125,-1.94921875,3.296875,-0.86328125,-0.78515625,0.2265625,0.28125,-11.50390625,4.5546875
4108384,,,,,,,,-0.7421875,-2.2890625,3.359375,-0.423828125,-0.60546875,0.130859375,-0.75,-11.85546875,4.5546875
4108385,,,,,,,,-0.8203125,-1.94140625,2.20703125,0.38671875,-0.375,0.013671875,-0.828125,-11.50390625,3.40234375
4108386,,,,,,,,-0.63671875,-1.75,1.73046875,0.77734375,-0.150390625,-0.06640625,-0.63671875,-11.3125,2.98046875
4108387,,,,,,,,-0.453125,-0.953125,1.1640625,0.63671875,-0.04296875,-0.046875,-0.4453125,-10.51171875,2.484375
4108388,,,,,,,,-0.0703125,-0.42578125,0.97265625,0.3984375,-0.3125,-0.00390625,-0.0625,-9.96875,2.37109375
4108389,,,,,,,,0.15234375,-0.2265625,0.765625,0.380859375,-0.4140625,0.001953125,0.16796875,-9.78125,2.1796875
4108390,36.012520333333335,129.31925266666667,58.8375303979005,13.352291244948368,1.3,329.0,,0.3828125,0.1015625,0.546875,0.373046875,-0.4765625,0.125,0.3984375,-9.4375,2.0234375
4108391,,,,,,,,0.65625,0.67578125,0.44140625,0.28515625,-0.390625,0.22265625,0.6640625,-8.86328125,1.94921875
4108392,,,,,,,,0.765625,1.25,0.078125,0.162109375,-0.318359375,0.330078125,0.7421875,-8.29296875,1.6015625
4108393,,,,,,,,0.734375,1.52734375,0.03515625,0.11328125,-0.31640625,0.375,0.703125,-8.01953125,1.56640625
4108394,,,,,,,,0.69140625,2.171875,-0.171875,0.03125,-0.3515625,0.423828125,0.62890625,-7.37109375,1.375
4108395,,,,,,,,0.78125,2.515625,-0.37109375,0.048828125,-0.353515625,0.427734375,0.6640625,-7.0234375,1.18359375
4108396,,,,,,,,0.96875,2.9453125,-0.53515625,0.1171875,-0.38671875,0.39453125,0.8203125,-6.6015625,1.02734375
4108397,,,,,,,,1.2265625,3.203125,-0.7421875,0.1640625,-0.40625,0.369140625,1.046875,-6.3359375,0.8359375
4108398,,,,,,,,1.28125,3.203125,-0.82421875,0.173828125,-0.39453125,0.3515625,1.0859375,-6.3359375,0.76171875
4108399,,,,,,,,1.62109375,3.08984375,-0.80078125,0.185546875,-0.36328125,0.33984375,1.39453125,-6.44921875,0.80078125
4108400,36.01252116666667,129.31925199999998,58.77743015539032,13.444756871974779,1.2000000000000002,330.0,0.0,1.68359375,3.1953125,-0.82421875,0.373046875,-0.4765625,0.125,0.3984375,-9.4375,2.0234375
4108401,,,,,,,,2.125,3.00390625,-1.04296875,0.16796875,-0.326171875,0.318359375,1.8515625,-6.52734375,0.60546875
4108402,,,,,,,,2.21875,2.9609375,-1.1171875,0.1640625,-0.3046875,0.31640625,1.9296875,-6.5625,0.53125
4108403,,,,,,,,2.35546875,3.03515625,-1.21875,0.15625,-0.25,0.310546875,2.04296875,-6.484375,0.453125
4108404,,,,,,,,2.2890625,3.02734375,-1.6328125,0.154296875,-0.134765625,0.240234375,1.9296875,-6.484375,0.0703125
4108405,,,,,,,,1.77734375,2.8671875,-1.80859375,0.20703125,-0.080078125,0.166015625,1.39453125,-6.640625,-0.08203125
4108406,,,,,,,,1.625,2.828125,-1.77734375,0.224609375,-0.060546875,0.130859375,1.2421875,-6.6796875,-0.04296875
4108407,,,,,,,,1.1328125,2.46875,-1.578125,0.251953125,-0.0078125,0.06640625,0.7421875,-7.02734375,0.1875
4108408,,,,,,,,0.796875,1.92578125,-1.2578125,0.283203125,0.060546875,0.005859375,0.3984375,-7.55859375,0.53125
4108409,,,,,,,,0.71875,1.6953125,-1.16015625,0.283203125,0.095703125,-0.017578125,0.3203125,-7.79296875,0.64453125
4108410,36.012522,129.31925116666667,58.702305011860346,13.537222395608286,1.2000000000000002,328.0,,0.59765625,1.11328125,-0.84375,0.248046875,0.28125,-0.068359375,0.20703125,-8.36328125,0.9921875
4108411,,,,,,,,0.44140625,0.56640625,-0.71484375,0.216796875,0.404296875,-0.08984375,0.05078125,-8.8984375,1.14453125
4108412,,,,,,,,0.21484375,-0.015625,-0.5390625,0.1875,0.494140625,-0.087890625,-0.17578125,-9.4765625,1.3359375
4108413,,,,,,,,0.17578125,-0.12890625,-0.43359375,0.173828125,0.513671875,-0.087890625,-0.21484375,-9.58984375,1.44921875
4108414,,,,,,,,-0.0234375,-0.51953125,0.125,0.177734375,0.541015625,-0.064453125,-0.40625,-9.96875,2.0234375
4108415,,,,,,,,0.05859375,-0.48046875,0.2578125,0.197265625,0.52734375,-0.04296875,-0.33203125,-9.9296875,2.1796875
4108416,,,,,,,,0.14453125,-0.34375,0.05859375,0.216796875,0.50390625,-0.029296875,-0.25390625,-9.78125,1.98828125
4108417,,,,,,,,0.52734375,-0.66015625,-0.3125,0.228515625,0.517578125,-0.00390625,0.12890625,-10.0859375,1.640625
4108418,,,,,,,,0.57421875,-0.7734375,-0.47265625,0.234375,0.517578125,0.00390625,0.16796875,-10.20703125,1.48828125
4108419,,,,,,,,0.7421875,-1.1640625,-0.83984375,0.251953125,0.48828125,0.048828125,0.3203125,-10.58984375,1.14453125
4108420,36.012522833333335,129.31924983333334,58.5821051534479,13.629687621182796,1.3,320.0,,0.7578125,-1.546875,-0.82421875,0.30078125,0.408203125,0.09375,0.3203125,-10.97265625,1.18359375
4108421,,,,,,,,0.57421875,-1.6328125,-0.734375,0.31640625,0.310546875,0.123046875,0.12890625,-11.05078125,1.296875
4108422,,,,,,,,0.0703125,-1.53125,-0.8125,0.201171875,0.11328125,0.17578125,-0.40625,-10.9296875,1.2578125
4108423,,,,,,,,-0.15234375,-1.46484375,-0.66796875,0.150390625,0.07421875,0.181640625,-0.63671875,-10.8515625,1.41015625
4108424,,,,,,,,-0.0234375,-1.234375,-0.29296875,0.046875,0.037109375,0.19140625,-0.5234375,-10.62890625,1.79296875
4108425,,,,,,,,0.453125,-1.1171875,0.21484375,-0.041015625,0.02734375,0.18359375,-0.0625,-10.5078125,2.29296875
4108426,,,,,,,,1.2421875,-2.49609375,-0.08203125,-0.1328125,0.060546875,0.169921875,0.703125,-11.88671875,1.98828125
4108427,,,,,,,,1.02734375,-3.9921875,-0.26171875,-0.216796875,0.0859375,0.166015625,0.47265625,-13.3828125,1.79296875
4108428,,,,,,,,0.69140625,-4.18359375,-0.3203125,-0.26171875,0.06640625,0.16015625,0.12890625,-13.5703125,1.71875
4108429,,,,,,,,-0.83203125,-3.37109375,0.62109375,-0.330078125,-0.0078125,0.1484375,-1.40234375,-12.76953125,2.63671875
4108430,36.01252366666667,129.31924883333335,58.49195510657534,13.722153046503202,1.3,319.0,,-1.4296875,-2.51953125,1.7265625,0.30078125,0.408203125,0.09375,-2.015625,-11.92578125,3.7109375
4108431,,,,,,,,-1.73046875,-2.015625,2.76953125,-0.5859375,-0.236328125,0.1640625,-2.32421875,-11.4296875,4.70703125
4108432,,,,,,,,-1.9140625,-0.7734375,3.13671875,-0.798828125,-0.30078125,0.140625,-2.515625,-10.20703125,5.01171875
4108433,,,,,,,,-1.484375,-0.71875,2.95703125,-0.810546875,-0.115234375,0.080078125,-2.09375,-10.1640625,4.74609375
4108434,,,,,,,,-0.51953125,-1.43359375,2.86328125,-0.640625,0.193359375,0.01171875,-1.13671875,-10.890625,4.58984375
4108435,,,,,,,,0.05859375,-1.9609375,2.91015625,-0.421875,0.291015625,0.0234375,-0.55859375,-11.43359375,4.58984375
4108436,,,,,,,,0.37109375,-2.25,2.94921875,-0.328125,0.16015625,0.05859375,-0.25390625,-11.734375,4.58984375
4108437,,,,,,,,0.37890625,-2.05859375,2.70703125,-0.224609375,-0.025390625,0.076171875,-0.25390625,-11.54296875,4.32421875
4108438,,,,,,,,0.1953125,-1.29296875,1.87890625,-0.1328125,-0.15625,0.109375,-0.4453125,-10.77734375,3.48046875
4108439,,,,,,,,0.05078125,-0.7890625,1.42578125,-0.09765625,-0.1640625,0.12890625,-0.59765625,-10.28515625,3.01953125
4108440,36.012524500000005,129.31924783333335,58.40180506340813,13.814618475724455,1.3,318.0,,-0.21875,-0.671875,1.38671875,0.30078125,0.408203125,0.09375,-0.8671875,-10.16796875,2.98046875
4108441,,,,,,,,-0.5546875,-0.7109375,1.6171875,0.04296875,0.0078125,0.0390625,-1.2109375,-10.203125,3.2109375
4108442,,,,,,,,-0.82421875,-0.86328125,1.6875,0.15234375,0.00390625,-0.01953125,-1.48046875,-10.35546875,3.2890625
4108443,,,,,,,,-0.83203125,-0.7109375,1.48046875,0.1953125,-0.0078125,-0.08984375,-1.48046875,-10.203125,3.09765625
4108444,,,,,,,,-0.6484375,-0.40625,1.02734375,0.16015625,0.013671875,-0.15625,-1.2890625,-9.8984375,2.67578125
4108445,,,,,,,,-0.38671875,-0.05859375,0.71484375,0.07421875,0.083984375,-0.21484375,-1.01953125,-9.546875,2.37109375
4108446,,,,,,,,-0.2578125,0.140625,0.58984375,0.044921875,0.140625,-0.255859375,-0.8671875,-9.36328125,2.25390625
4108447,,,,,,,,-0.01171875,0.75390625,0.32421875,0.05859375,0.111328125,-0.279296875,-0.59765625,-8.7421875,1.98828125
4108448,,,,,,,,0.1484375,1.13671875,0.15234375,0.083984375,0.037109375,-0.287109375,-0.40625,-8.36328125,1.83203125
4108449,,,,,,,,0.3828125,2.0234375,-0.0859375,0.125,-0.013671875,-0.294921875,-0.140625,-7.48828125,1.6015625
4108450,36.0125255,129.319247,58.32667980012693,13.925577208831204,1.3,319.0,,0.3984375,2.37109375,-0.29296875,0.30078125,0.408203125,0.09375,-0.1015625,-7.1328125,1.41015625
4108451,,,,,,,,0.3671875,2.71484375,-0.4609375,0.15234375,-0.037109375,-0.3046875,-0.1015625,-6.7890625,1.2578125
4108452,,,,,,,,0.16796875,3.05078125,-0.68359375,0.166015625,-0.060546875,-0.330078125,-0.25390625,-6.4453125,1.06640625
4108453,,,,,,,,-0.015625,3.12890625,-0.69921875,0.166015625,-0.076171875,-0.3359375,-0.40625,-6.3671875,1.06640625
4108454,,,,,,,,-0.32421875,3.2421875,-0.7890625,0.173828125,-0.078125,-0.357421875,-0.67578125,-6.2578125,0.9921875
4108455,,,,,,,,-0.81640625,3.3203125,-0.84375,0.162109375,-0.10546875,-0.3671875,-1.13671875,-6.1796875,0.953125
4108456,,,,,,,,-0.83984375,3.3125,-0.8984375,0.1484375,-0.111328125,-0.373046875,-1.13671875,-6.1796875,0.9140625
4108457,,,,,,,,-0.90625,3.00390625,-0.9140625,0.125,-0.10546875,-0.380859375,-1.171875,-6.484375,0.9140625
4108458,,,,,,,,-1.03125,2.73828125,-1.03515625,0.1171875,-0.078125,-0.3671875,-1.25,-6.75390625,0.80078125
4108459,,,,,,,,-0.87109375,2.390625,-0.9296875,0.1171875,-0.06640625,-0.34375,-1.05859375,-7.1015625,0.9140625
4108460,36.01252616666667,129.31924616666666,58.25155478586198,13.999549531893454,1.2000000000000002,320.0,,-0.7578125,2.26953125,-0.90625,0.1171875,-0.052734375,-0.314453125,-0.90625,-7.21484375,0.953125
4108461,,,,,,,,-0.7421875,2.30859375,-0.9921875,0.1171875,-0.052734375,-0.271484375,-0.8671875,-7.171875,0.875
4108462,,,,,,,,-0.7421875,2.26171875,-1.24609375,0.103515625,-0.048828125,-0.21875,-0.828125,-7.21484375,0.64453125
4108463,,,,,,,,-0.7109375,2.21484375,-1.328125,0.095703125,-0.052734375,-0.201171875,-0.7890625,-7.25,0.5703125
4108464,,,,,,,,-0.6953125,1.79296875,-1.30078125,0.103515625,-0.04296875,-0.17578125,-0.75,-7.67578125,0.60546875
4108465,,,,,,,,-0.7890625,0.64453125,-0.89453125,0.140625,-0.033203125,-0.14453125,-0.828125,-8.8203125,1.02734375
4108466,,,,,,,,-0.796875,0.33203125,-0.82421875,0.18359375,-0.048828125,-0.107421875,-0.8671875,-9.28515625,1.14453125
4108467,,,,,,,,-0.734375,-0.17578125,-0.609375,0.166015625,-0.072265625,-0.103515625,-0.75,-9.62890625,1.3359375
4108468,,,,,,,,-0.69921875,-0.25390625,-0.578125,0.14453125,-0.076171875,-0.091796875,-0.71484375,-9.703125,1.375
4108469,,,,,,,,-0.55859375,-0.25390625,-0.48046875,0.08984375,-0.060546875,-0.083984375,-0.55859375,-9.62890625,1.52734375
4108470,36.012527,129.31924533333333,58.1764296521032,14.09201506050313,1.2000000000000002,322.0,,-0.7578125,2.26953125,-0.90625,0.1171875,-0.052734375,-0.314453125,-0.63671875,-9.625,1.41015625
4108471,,,,,,,,-0.7578125,-0.11328125,-0.6015625,0.013671875,-0.029296875,-0.0546875,-0.94140625,-9.359375,1.375
4108472,,,,,,,,-0.95703125,0.0859375,-0.53515625,0.046875,-0.037109375,-0.0546875,-0.98046875,-9.32421875,1.41015625
4108473,,,,,,,,-0.8984375,-0.0390625,-0.625,0.115234375,-0.05078125,-0.05078125,-0.90625,-9.58984375,1.375
4108474,,,,,,,,-0.8203125,-0.390625,-0.6328125,0.12109375,-0.025390625,-0.044921875,-0.7890625,-9.8203125,1.375
4108475,,,,,,,,-0.74609375,-0.58203125,-0.71875,0.076171875,-0.0234375,-0.046875,-0.71484375,-10.01171875,1.296875
4108476,,,,,,,,-0.66796875,-0.89453125,-0.83984375,0.021484375,-0.05078125,-0.05859375,-0.63671875,-10.3125,1.18359375
4108477,,,,,,,,-0.5234375,-0.97265625,-1.00390625,-0.056640625,-0.076171875,-0.076171875,-0.484375,-10.390625,1.02734375
4108478,,,,,,,,-0.1484375,-0.3984375,-1.015625,-0.201171875,-0.099609375,-0.080078125,-0.1015625,-9.82421875,0.9921875
4108479,,,,,,,,-0.39453125,0.0703125,-0.734375,-0.263671875,-0.0859375,-0.078125,-0.33203125,-9.359375,1.2578125
4108480,36.01252816666667,129.31924433333333,58.08627936972186,14.221466903736761,1.2000000000000002,324.0,,-0.66796875,-0.11328125,-0.46484375,-0.337890625,-0.0390625,-0.078125,-0.63671875,-9.625,1.41015625
4108481,,,,,,,,-0.90625,-2.18359375,-0.15625,-0.412109375,0.005859375,-0.078125,-0.828125,-11.6171875,1.7578125
4108482,,,,,,,,-0.4453125,-3.83203125,0.70703125,-0.439453125,0.01953125,-0.080078125,-0.3671875,-13.26953125,2.59765625
4108483,,,,,,,,0.88671875,-4.97265625,2.89453125,-0.4765625,0.052734375,-0.080078125,0.97265625,-14.4140625,4.74609375
4108484,,,,,,,,1.453125,-4.92578125,3.21484375,-0.5390625,0.083984375,-0.080078125,2.19921875,-14.15234375,4.8984375
4108485,,,,,,,,2.86328125,-3.8828125,2.765625,-0.681640625,0.052734375,-0.0625,3.26953125,-12.8828125,4.5546875
4108486,,,,,,,,3.17578125,-3.4140625,2.828125,-0.7890625,0.037109375,-0.064453125,3.38671875,-12.3828125,4.58984375
4108487,,,,,,,,3.0546875,-2.05859375,2.94140625,-0.98828125,-0.037109375,-0.044921875,3.15625,-11.54296875,4.58984375
4108488,,,,,,,,1.90625,-1.5859375,2.30859375,-0.91796875,-0.107421875,-0.060546875,2.0078125,-11.08984375,3.86328125
4108489,,,,,,,,1.24609375,-1.69140625,2.35546875,-0.767578125,-0.103515625,-0.07421875,1.35546875,-11.1953125,3.86328125
4108490,36.012529,129.31924366666667,58.02617914160432,14.313932533240624,1.3,326.0,,-0.640625,-2.6328125,3.26953125,-0.427734375,0.013671875,-0.130859375,-0.63671875,-9.625,1.41015625
4108491,,,,,,,,-1.08203125,-3.54296875,3.15625,-0.181640625,0.125,-0.16796875,-0.94140625,-13.07421875,4.5546875
4108492,,,,,,,,-0.87109375,-2.96875,2.625,-0.00390625,0.13671875,-0.19140625,-0.71484375,-12.50390625,4.015625
4108493,,,,,,,,-0.5390625,-2.15625,2.43359375,0.005859375,0.05078125,-0.18359375,-0.3671875,-11.69921875,3.82421875
4108494,,,,,,,,-0.09765625,-1.390625,1.984375,-0.037109375,-0.041015625,-0.13671875,0.08984375,-10.93359375,3.3671875
4108495,,,,,,,,0.34765625,-1.0,1.58203125,0.0625,-0.287109375,-0.0234375,0.55078125,-10.55078125,2.98046875
4108496,,,,,,,,0.4609375,-0.96875,1.1171875,0.130859375,-0.369140625,0.0546875,0.6640625,-10.51171875,2.5234375
4108497,,,,,,,,0.34765625,-0.84765625,0.79296875,0.1953125,-0.34765625,0.15234375,0.55078125,-10.39453125,2.21484375
4108498,,,,,,,,0.21875,-0.5859375,0.55078125,0.212890625,-0.328125,0.232421875,0.3984375,-10.125,1.98828125
4108499,,,,,,,,-0.00390625,0.0625,0.296875,0.1171875,-0.365234375,0.306640625,0.16796875,-9.4765625,1.7578125
4108500,36.01253,129.31924266666667,57.93602898786022,14.424891170588399,1.3,325.0,0.0,0.02734375,0.72265625,0.2109375,-0.427734375,0.013671875,-0.130859375,-0.63671875,-9.625,1.41015625
4108501,,,,,,,,0.13671875,1.375,0.09765625,0.00390625,-0.3984375,0.369140625,0.24609375,-8.171875,1.56640625
4108502,,,,,,,,0.2421875,1.71875,-0.01953125,-0.01953125,-0.4140625,0.3828125,0.3203125,-7.828125,1.44921875
4108503,,,,,,,,0.3515625,2.37109375,-0.140625,-0.01171875,-0.4296875,0.39453125,0.3984375,-7.17578125,1.3359375
4108504,,,,,,,,0.53515625,2.609375,-0.1796875,0.033203125,-0.431640625,0.38671875,0.55078125,-6.9453125,1.296875
4108505,,,,,,,,0.8359375,2.875,-0.30078125,0.0859375,-0.4140625,0.388671875,0.8203125,-6.68359375,1.18359375
4108506,,,,,,,,1.37109375,3.02734375,-0.74609375,0.13671875,-0.380859375,0.392578125,1.31640625,-6.5234375,0.76171875
4108507,,,,,,,,1.78515625,3.05859375,-0.91796875,0.1484375,-0.369140625,0.38671875,1.69921875,-6.484375,0.60546875
4108508,,,,,,,,2.09375,3.09765625,-1.0078125,0.171875,-0.3671875,0.38671875,1.96875,-6.44921875,0.53125
4108509,,,,,,,,2.125,2.9453125,-1.25390625,0.19921875,-0.369140625,0.390625,1.96875,-6.60546875,0.30078125
4108510,36.012530999999996,129.319242,57.87592864028314,14.535850007769369,1.3,327.0,,2.1875,2.8984375,-1.24609375,0.2109375,-0.337890625,0.376953125,2.0078125,-6.64453125,0.33984375
4108511,,,,,,,,2.29296875,2.8203125,-1.1484375,0.189453125,-0.3125,0.3515625,2.08203125,-6.72265625,0.453125
4108512,,,,,,,,2.1640625,2.62109375,-1.1640625,0.17578125,-0.244140625,0.314453125,1.9296875,-6.91015625,0.453125
4108513,,,,,,,,2.09375,2.5390625,-1.2109375,0.154296875,-0.19921875,0.294921875,1.8515625,-6.984375,0.4140625
4108514,,,,,,,,1.7734375,2.4609375,-1.37890625,0.12890625,-0.109375,0.25390625,1.5078125,-7.0625,0.26171875
4108515,,,,,,,,1.3359375,2.5390625,-1.38671875,0.08984375,-0.02734375,0.205078125,1.046875,-6.984375,0.26171875
4108516,,,,,,,,1.09375,2.37890625,-1.1796875,0.083984375,0.05078125,0.125,0.78125,-7.1328125,0.4921875
4108517,,,,,,,,1.0234375,2.140625,-1.1875,0.14453125,0.1484375,0.087890625,0.703125,-7.3671875,0.4921875
4108518,,,,,,,,1.0625,1.79296875,-1.08203125,0.15625,0.189453125,0.07421875,0.7421875,-7.71484375,0.60546875
4108519,,,,,,,,0.96484375,1.25,-1.171875,0.166015625,0.263671875,0.046875,0.62890625,-8.25,0.53125
4108520,36.012531833333334,129.31924116666667,57.80080351570544,14.628315541684913,1.2000000000000002,323.0,,0.80859375,0.78125,-1.03515625,0.134765625,0.37109375,0.03125,0.47265625,-8.7109375,0.68359375
4108521,,,,,,,,0.55859375,0.171875,-0.8125,0.119140625,0.396484375,0.03515625,0.20703125,-9.3203125,0.9140625
4108522,,,,,,,,0.3359375,-0.2578125,-0.59765625,0.115234375,0.408203125,0.046875,-0.0234375,-9.74609375,1.14453125
4108523,,,,,,,,-0.0390625,-0.6484375,-0.30078125,0.119140625,0.42578125,0.0625,-0.40625,-10.125,1.44921875
4108524,,,,,,,,-0.30078125,-0.53515625,-0.046875,0.130859375,0.435546875,0.06640625,-0.67578125,-10.01171875,1.71875
4108525,,,,,,,,-0.32421875,-0.45703125,-0.09375,0.13671875,0.453125,0.07421875,-0.71484375,-9.9296875,1.6796875
4108526,,,,,,,,-0.125,-0.4296875,-0.1796875,0.138671875,0.45703125,0.078125,-0.5234375,-9.90234375,1.6015625
4108527,,,,,,,,0.15234375,-0.50390625,-0.37890625,0.166015625,0.48046875,0.087890625,-0.25390625,-9.96875,1.41015625
4108528,,,,,,,,0.63671875,-0.828125,-0.73828125,0.19140625,0.4609375,0.10546875,0.20703125,-10.28125,1.06640625
4108529,,,,,,,,0.68359375,-1.1328125,-0.9375,0.208984375,0.455078125,0.10546875,0.24609375,-10.58984375,0.875
4108530,36.012532666666665,129.31924016666665,57.710653485359494,14.720780975978151,1.2000000000000002,318.0,,0.4765625,-1.6015625,-0.96875,0.134765625,0.37109375,0.03125,0.015625,-11.05078125,0.875
4108531,,,,,,,,0.14453125,-1.79296875,-0.6015625,0.17578125,0.21484375,0.14453125,-0.33203125,-11.23828125,1.2578125
4108532,,,,,,,,-0.03125,-1.53125,0.04296875,0.08203125,0.091796875,0.14453125,-0.5234375,-10.97265625,1.91015625
4108533,,,,,,,,0.0625,-1.9921875,0.33984375,-0.03125,0.0,0.134765625,-0.4453125,-11.43359375,2.21484375
4108534,,,,,,,,0.18359375,-3.71484375,0.546875,-0.177734375,-0.025390625,0.109375,-0.33203125,-13.15234375,2.40625
4108535,,,,,,,,-0.3046875,-4.82421875,0.6484375,-0.2421875,-0.00390625,0.087890625,-0.828125,-14.2578125,2.484375
4108536,,,,,,,,-0.6796875,-4.28125,0.80859375,-0.2578125,0.005859375,0.080078125,-1.2109375,-13.7265625,2.63671875
4108537,,,,,,,,-1.70703125,-2.17578125,1.67578125,-0.240234375,0.052734375,0.0703125,-2.24609375,-11.6171875,3.48046875
4108538,,,,,,,,-1.77734375,-1.40234375,2.3203125,-0.310546875,0.001953125,0.111328125,-2.32421875,-10.85546875,4.09375
4108539,,,,,,,,-1.5078125,-0.13671875,3.1171875,-0.4921875,-0.1484375,0.1484375,-2.0546875,-9.5859375,4.859375
4108540,36.01253333333333,129.31923916666668,57.620503582470555,14.794753205421625,1.2000000000000002,316.0,,-1.1484375,0.29296875,3.1328125,-0.609375,-0.255859375,0.162109375,-1.7109375,-9.1640625,4.8203125
4108541,,,,,,,,-0.44921875,0.23046875,2.95703125,-0.52734375,-0.158203125,0.111328125,-1.01953125,-9.2421875,4.58984375
4108542,,,,,,,,1.05078125,-1.21484375,2.99609375,-0.11328125,0.18359375,0.07421875,0.47265625,-10.6953125,4.58984375
4108543,,,,,,,,1.51953125,-2.2421875,2.73046875,-0.017578125,0.181640625,0.1015625,0.93359375,-11.73828125,4.32421875
4108544,,,,,,,,1.22265625,-2.59765625,2.078125,0.09375,0.078125,0.1015625,0.62890625,-12.078125,3.671875
4108545,,,,,,,,0.66015625,-1.90625,1.6796875,0.19140625,0.029296875,0.111328125,0.05078125,-11.390625,3.2890625
4108546,,,,,,,,-0.01953125,-1.1015625,1.42578125,0.068359375,-0.0390625,0.09765625,-0.63671875,-10.58984375,3.05859375
4108547,,,,,,,,-0.546875,-1.0234375,1.76171875,-0.037109375,0.001953125,0.0546875,-1.171875,-10.51171875,3.40234375
4108548,,,,,,,,-1.078125,-1.33203125,2.23046875,-0.041015625,0.052734375,0.03515625,-1.7109375,-10.8125,3.86328125
4108549,,,,,,,,-1.421875,-1.70703125,2.421875,0.0078125,0.16796875,-0.017578125,-2.0546875,-11.1953125,4.0546875
4108550,36.01253416666667,129.31923816666668,57.530353557730706,14.887218643362651,1.3,316.0,,-1.26953125,-1.66796875,1.91796875,0.0625,0.19921875,-0.107421875,-1.90234375,-11.16015625,3.55859375
4108551,,,,,,,,-0.59375,-1.171875,1.48828125,0.013671875,0.220703125,-0.2109375,-1.2109375,-10.66796875,3.13671875
4108552,,,,,,,,-0.42578125,-0.28125,0.5390625,-0.12109375,0.265625,-0.28125,-1.01953125,-9.78125,2.1796875
4108553,,,,,,,,-0.39453125,-0.01171875,0.4296875,-0.1640625,0.26953125,-0.302734375,-0.98046875,-9.5078125,2.0625
4108554,,,,,,,,-0.1953125,0.4140625,0.4375,-0.169921875,0.181640625,-0.3203125,-0.75,-9.09375,2.0625
4108555,,,,,,,,0.30859375,1.02734375,0.33984375,-0.09765625,0.060546875,-0.33203125,-0.21484375,-8.4765625,1.94921875
4108556,,,,,,,,0.58203125,1.390625,-0.08203125,0.0078125,0.001953125,-0.306640625,0.08984375,-8.1328125,1.52734375
4108557,,,,,,,,0.8515625,1.92578125,-0.671875,0.154296875,0.083984375,-0.263671875,0.3984375,-7.59375,0.953125
4108558,,,,,,,,0.84375,2.0703125,-0.7578125,0.162109375,0.115234375,-0.255859375,0.3984375,-7.44921875,0.875
4108559,,,,,,,,0.62890625,2.4921875,-0.58203125,0.1328125,0.12109375,-0.232421875,0.20703125,-7.0234375,1.06640625
4108560,36.01253466666667,129.31923749999999,57.47025358161427,14.942697865939799,1.0,318.0,,0.22265625,2.921875,-0.51953125,0.0625,0.19921875,-0.107421875,-0.17578125,-6.6015625,1.14453125
4108561,,,,,,,,-0.03125,3.1875,-0.61328125,0.140625,0.03515625,-0.255859375,-0.40625,-6.33984375,1.06640625
4108562,,,,,,,,-0.40625,3.34375,-0.7734375,0.099609375,0.001953125,-0.287109375,-0.75,-6.18359375,0.9140625
4108563,,,,,,,,-0.515625,3.296875,-0.8203125,0.046875,0.025390625,-0.3125,-0.828125,-6.21875,0.875
4108564,,,,,,,,-0.90625,3.3046875,-0.90234375,0.033203125,0.017578125,-0.359375,-1.171875,-6.22265625,0.80078125
4108565,,,,,,,,-1.09375,3.296875,-1.03515625,0.076171875,-0.015625,-0.3671875,-1.328125,-6.21875,0.68359375
4108566,,,,,,,,-1.1171875,3.2578125,-1.11328125,0.09375,-0.041015625,-0.361328125,-1.328125,-6.26171875,0.60546875
4108567,,,,,,,,-1.109375,3.02734375,-1.38671875,0.1015625,-0.056640625,-0.337890625,-1.2890625,-6.484375,0.33984375
4108568,,,,,,,,-1.1796875,2.828125,-1.39453125,0.091796875,-0.0625,-0.30078125,-1.328125,-6.6796875,0.33984375
4108569,,,,,,,,-1.1328125,2.67578125,-1.2578125,0.09375,-0.060546875,-0.244140625,-1.25,-6.83203125,0.4921875
4108570,36.01253533333333,129.31923666666668,57.39512858580758,15.016670196713537,1.1,318.0,,-1.125,2.515625,-1.359375,0.130859375,-0.052734375,-0.15234375,-1.2109375,-6.98828125,0.4140625
4108571,,,,,,,,-1.01953125,2.3984375,-1.40234375,0.1484375,-0.060546875,-0.09375,-1.09765625,-7.1015625,0.37890625
4108572,,,,,,,,-0.8359375,2.0078125,-1.41796875,0.12890625,-0.056640625,-0.04296875,-0.90625,-7.484375,0.37890625
4108573,,,,,,,,-0.60546875,1.43359375,-1.3515625,0.123046875,-0.0546875,0.009765625,-0.67578125,-8.05859375,0.453125
4108574,,,,,,,,-0.375,0.62109375,-1.3671875,0.130859375,-0.083984375,0.025390625,-0.4453125,-8.859375,0.453125
4108575,,,,,,,,-0.10546875,-0.15234375,-0.9609375,0.15234375,-0.123046875,0.044921875,-0.17578125,-9.62890625,0.875
4108576,,,,,,,,-0.0703125,-0.34375,-0.69921875,0.1484375,-0.125,0.0390625,-0.140625,-9.8203125,1.14453125
4108577,,,,,,,,-0.0234375,-0.92578125,-0.2578125,0.11328125,-0.15234375,0.0390625,-0.1015625,-10.39453125,1.6015625
4108578,,,,,,,,-0.09765625,-1.125,-0.265625,0.0703125,-0.162109375,0.0390625,-0.17578125,-10.58984375,1.6015625
4108579,,,,,,,,-0.25390625,-1.0859375,-0.5703125,0.0234375,-0.16796875,0.03125,-0.33203125,-10.546875,1.296875
4108580,36.01253616666667,129.31923583333335,57.32000346995123,15.109135734740743,1.1,317.0,,-0.328125,-0.93359375,-0.6484375,-0.01171875,-0.154296875,0.033203125,-0.40625,-10.390625,1.21875
4108581,,,,,,,,-0.359375,-0.828125,-0.76953125,0.046875,-0.078125,0.01171875,-0.4453125,-10.28515625,1.10546875
4108582,,,,,,,,-0.2890625,-0.828125,-0.80859375,0.091796875,-0.052734375,-0.01171875,-0.3671875,-10.28125,1.06640625
4108583,,,,,,,,-0.09765625,-1.37109375,-0.9765625,0.1484375,-0.015625,-0.048828125,-0.17578125,-10.81640625,0.9140625
4108584,,,,,,,,-0.10546875,-1.5234375,-1.0234375,0.1328125,0.03515625,-0.099609375,0.05078125,-11.23828125,1.02734375
4108585,,,,,,,,0.19140625,-1.79296875,-0.84765625,0.080078125,0.037109375,-0.123046875,0.16796875,-11.19921875,1.14453125
4108586,,,,,,,,0.22265625,-1.75390625,-0.77734375,0.037109375,0.041015625,-0.140625,0.20703125,-11.05078125,1.10546875
4108587,,,,,,,,0.0234375,-1.109375,-0.96875,-0.05078125,0.056640625,-0.162109375,-0.17578125,-10.31640625,0.9921875
4108588,,,,,,,,-0.4140625,-0.765625,-0.9609375,-0.173828125,0.107421875,-0.166015625,-0.94140625,-10.28515625,1.06640625
4108589,,,,,,,,-0.91796875,-0.84375,-0.83984375,-0.244140625,0.140625,-0.171875,-1.36328125,-11.01171875,1.375
4108590,36.01253716666667,129.319235,57.24487823076868,15.220094477569745,1.2000000000000002,319.0,,-0.328125,-0.93359375,-0.6484375,-0.01171875,-0.154296875,0.033203125,-1.51953125,-12.078125,1.52734375
4108591,,,,,,,,-1.44140625,-3.31640625,0.11328125,-0.359375,0.27734375,-0.166015625,-1.328125,-12.80859375,2.21484375
4108592,,,,,,,,-1.07421875,-3.26953125,0.7578125,-0.384765625,0.310546875,-0.19140625,-0.55859375,-12.12109375,3.328125
4108593,,,,,,,,-0.4296875,-2.50390625,1.67578125,-0.501953125,0.2421875,-0.21484375,-0.17578125,-11.921875,3.25
4108594,,,,,,,,0.45703125,-2.3359375,1.80078125,-0.693359375,0.029296875,-0.236328125,0.51171875,-11.81640625,3.48046875
4108595,,,,,,,,1.0859375,-2.3203125,2.4453125,-0.8125,-0.19921875,-0.236328125,1.1640625,-11.8125,4.0546875
4108596,,,,,,,,1.4609375,-2.3125,2.71484375,-0.798828125,-0.30078125,-0.22265625,1.546875,-11.8125,4.28515625
4108597,,,,,,,,0.9375,-2.765625,3.24609375,-0.619140625,-0.353515625,-0.158203125,1.046875,-12.27734375,4.74609375
4108598,,,,,,,,0.2734375,-3.0625,3.13671875,-0.37109375,-0.255859375,-0.076171875,0.3984375,-12.578125,4.58984375
4108599,,,,,,,,-0.1171875,-2.55859375,2.85546875,-0.341796875,-0.240234375,-0.01953125,0.015625,-12.078125,4.28515625
4108600,36.012538166666666,129.31923416666666,57.1697529960429,15.33105322143767,1.3,320.0,0.0,-0.1171875,-2.203125,2.37890625,-0.01171875,-0.154296875,0.033203125,-1.51953125,-12.078125,1.52734375
4108601,,,,,,,,0.10546875,-1.73828125,2.3203125,-0.037109375,-0.26171875,0.048828125,0.24609375,-11.27734375,3.7109375
4108602,,,,,,,,0.1484375,-1.19921875,1.859375,0.0625,-0.283203125,0.07421875,0.28125,-10.734375,3.25
4108603,,,,,,,,0.1875,-1.125,1.3828125,0.173828125,-0.46484375,0.107421875,0.3203125,-10.6640625,2.7890625
4108604,,,,,,,,0.28125,-1.23828125,1.32421875,0.298828125,-0.5625,0.11328125,0.3984375,-10.77734375,2.75390625
4108605,,,,,,,,0.3203125,-1.5546875,1.4453125,0.345703125,-0.611328125,0.1640625,0.4375,-11.0859375,2.90625
4108606,,,,,,,,0.328125,-1.5546875,1.26953125,0.373046875,-0.603515625,0.205078125,0.4375,-11.08984375,2.75390625
4108607,,,,,,,,0.2578125,-0.51171875,0.80859375,0.35546875,-0.57421875,0.2890625,0.359375,-10.05078125,2.33203125
4108608,,,,,,,,0.21875,0.171875,0.34765625,0.1796875,-0.486328125,0.435546875,0.28125,-9.359375,1.91015625
4108609,,,,,,,,0.06640625,1.2734375,-0.08203125,0.07421875,-0.41796875,0.515625,0.08984375,-8.25,1.48828125
4108610,36.01253883333333,129.31923333333333,57.094628005121805,15.405025554322819,1.2000000000000002,322.0,,-0.078125,2.31640625,-0.48046875,0.060546875,-0.365234375,0.546875,-0.1015625,-7.21484375,1.10546875
4108611,,,,,,,,-0.0703125,2.4296875,-0.52734375,0.10546875,-0.349609375,0.537109375,-0.140625,-7.02734375,0.953125
4108612,,,,,,,,0.015625,2.62109375,-0.6484375,0.130859375,-0.373046875,0.509765625,-0.1015625,-6.8671875,0.953125
4108613,,,,,,,,0.1015625,2.8125,-0.6640625,0.09375,-0.40625,0.50390625,-0.1015625,-6.60546875,0.9140625
4108614,,,,,,,,0.21875,2.9609375,-0.90234375,0.021484375,-0.42578125,0.50390625,0.05078125,-6.33984375,0.64453125
4108615,,,,,,,,0.77734375,3.58203125,-0.95703125,-0.0703125,-0.404296875,0.544921875,0.51171875,-5.9453125,0.68359375
4108616,,,,,,,,1.19921875,3.42578125,-1.1796875,-0.0703125,-0.359375,0.576171875,0.89453125,-6.10546875,0.453125
4108617,,,,,,,,1.6015625,3.2734375,-1.4765625,-0.013671875,-0.337890625,0.591796875,1.2421875,-6.26171875,0.1484375
4108618,,,,,,,,1.72265625,3.1875,-1.62890625,0.041015625,-0.33203125,0.58984375,1.31640625,-6.3359375,-0.00390625
4108619,,,,,,,,1.77734375,2.9140625,-1.70703125,0.056640625,-0.3828125,0.568359375,1.31640625,-6.6015625,-0.08203125
4108620,36.01253966666666,129.31923233333333,57.00447799247933,15.497490996051514,1.2000000000000002,321.0,,1.7734375,2.5625,-1.578125,0.130859375,-0.42578125,0.53515625,1.2421875,-6.9453125,0.0703125
4108621,,,,,,,,1.7578125,2.484375,-1.5859375,0.1484375,-0.43359375,0.51171875,1.203125,-7.02734375,0.0703125
4108622,,,,,,,,1.6328125,2.20703125,-1.33203125,0.138671875,-0.41796875,0.435546875,1.046875,-7.2890625,0.33984375
4108623,,,,,,,,1.57421875,2.20703125,-1.265625,0.126953125,-0.39453125,0.392578125,0.97265625,-7.29296875,0.4140625
4108624,,,,,,,,1.4140625,1.93359375,-1.1328125,0.087890625,-0.291015625,0.2734375,0.78125,-7.5546875,0.5703125
4108625,,,,,,,,1.3828125,1.55078125,-1.09765625,0.080078125,-0.244140625,0.234375,0.7421875,-7.94140625,0.60546875
4108626,,,,,,,,1.390625,1.3046875,-1.06640625,0.07421875,-0.205078125,0.1953125,0.7421875,-8.171875,0.64453125
4108627,,,,,,,,1.3671875,0.23046875,-0.99609375,0.087890625,-0.125,0.1328125,0.703125,-9.24609375,0.72265625
4108628,,,,,,,,1.375,-0.03515625,-0.92578125,0.103515625,-0.04296875,0.08984375,0.703125,-9.5078125,0.80078125
4108629,,,,,,,,1.18359375,-0.96484375,-0.4765625,0.13671875,0.01953125,0.05078125,0.51171875,-10.4296875,1.2578125
4108630,36.0125405,129.31923133333333,56.914327981411624,15.589956440583641,1.2000000000000002,317.0,,1.1171875,-1.00390625,-0.375,0.130859375,-0.42578125,0.53515625,0.4375,-10.47265625,1.375
4108631,,,,,,,,1.0,-0.97265625,-0.125,0.158203125,0.099609375,0.001953125,0.3203125,-10.43359375,1.640625
4108632,,,,,,,,0.80859375,-0.4375,-0.28515625,0.173828125,0.154296875,-0.009765625,0.12890625,-9.90234375,1.48828125
4108633,,,,,,,,0.72265625,-0.21484375,-0.4921875,0.197265625,0.228515625,-0.0234375,0.05078125,-9.66796875,1.296875
4108634,,,,,,,,0.6953125,-0.0234375,-0.66796875,0.25,0.302734375,-0.048828125,0.015625,-9.48046875,1.14453125
4108635,,,,,,,,0.45703125,-0.0390625,-0.9140625,0.4140625,0.34765625,-0.076171875,-0.21484375,-9.48046875,0.953125
4108636,,,,,,,,0.265625,-0.08203125,-0.953125,0.484375,0.31640625,-0.083984375,-0.40625,-9.51171875,0.953125
4108637,,,,,,,,0.33984375,-0.40625,-0.87890625,0.46875,0.275390625,-0.08984375,-0.33203125,-9.8203125,1.06640625
4108638,,,,,,,,0.41015625,-0.64453125,-0.95703125,0.3984375,0.26953125,-0.087890625,-0.25390625,-10.05078125,1.02734375
4108639,,,,,,,,0.2890625,-0.15234375,-0.87109375,0.259765625,0.275390625,-0.068359375,-0.3671875,-9.546875,1.14453125
4108640,36.012541166666665,129.31923049999997,56.8392029912796,15.663928775874485,1.1,314.0,,0.48046875,0.14453125,-0.8125,0.130859375,-0.42578125,0.53515625,-0.17578125,-9.24609375,1.21875
4108641,,,,,,,,1.24609375,0.453125,-0.58203125,-0.04296875,0.25390625,-0.041015625,0.58984375,-8.94140625,1.44921875
4108642,,,,,,,,1.8515625,-0.3515625,-0.6796875,-0.181640625,0.193359375,-0.03125,1.203125,-9.7421875,1.3359375
4108643,,,,,,,,1.96484375,-1.109375,-0.84765625,-0.29296875,0.142578125,-0.037109375,1.31640625,-10.51171875,1.14453125
4108644,,,,,,,,1.50390625,-3.171875,-1.0859375,-0.376953125,0.115234375,-0.05078125,0.85546875,-12.578125,0.875
4108645,,,,,,,,-0.30859375,-2.89453125,0.01171875,-0.509765625,0.015625,-0.06640625,-0.94140625,-12.3046875,1.91015625
4108646,,,,,,,,-1.15234375,-2.0,1.90625,-0.59375,0.0078125,-0.091796875,-1.78515625,-11.43359375,3.75
4108647,,,,,,,,-1.16015625,-3.33203125,2.50390625,-0.71484375,0.02734375,-0.10546875,-1.78515625,-12.765625,4.28515625
4108648,,,,,,,,-1.24609375,-3.78515625,2.49609375,-0.830078125,0.0234375,-0.095703125,-1.86328125,-13.23046875,4.24609375
4108649,,,,,,,,-1.68359375,-4.11328125,2.62890625,-1.029296875,0.05859375,-0.1171875,-2.28515625,-13.57421875,4.28515625
4108650,36.01254183333333,129.3192293333333,56.734028202000125,15.737900918055576,1.1,310.0,,-2.04296875,-4.13671875,2.8828125,-0.990234375,0.337890625,-0.169921875,-0.17578125,-9.24609375,1.21875
4108651,,,,,,,,-1.859375,-3.34765625,3.8046875,-0.6484375,0.5859375,-0.142578125,-2.4375,-12.84375,5.2421875
4108652,,,,,,,,-1.1015625,-2.984375,3.98046875,-0.619140625,0.423828125,-0.08984375,-1.671875,-12.5,5.35546875
4108653,,,,,,,,-0.640625,-2.78515625,3.8203125,-0.64453125,0.322265625,-0.08203125,-1.2109375,-12.30859375,5.1640625
4108654,,,,,,,,0.23046875,-2.28125,2.61328125,-0.49609375,0.294921875,-0.060546875,-0.33203125,-11.81640625,3.90234375
4108655,,,,,,,,0.46875,-1.70703125,2.0390625,-0.193359375,0.33203125,-0.025390625,-0.1015625,-11.234375,3.2890625
4108656,,,,,,,,0.421875,-1.390625,1.76953125,0.072265625,0.34765625,-0.013671875,-0.140625,-10.93359375,3.01953125
4108657,,,,,,,,0.046875,-1.35546875,1.44921875,0.28125,0.30078125,-0.033203125,-0.5234375,-10.890625,2.71484375
4108658,,,,,,,,-0.06640625,-1.23828125,1.47265625,0.37109375,0.28515625,-0.048828125,-0.63671875,-10.77734375,2.75390625
4108659,,,,,,,,-0.49609375,-0.77734375,1.38671875,0.458984375,0.271484375,-0.076171875,-1.05859375,-10.31640625,2.71484375
4108660,36.01254266666667,129.31922816666665,56.62885329676753,15.83036626757253,1.2000000000000002,310.0,,-0.7265625,-0.48046875,1.0390625,-0.990234375,0.337890625,-0.169921875,-0.17578125,-9.24609375,1.21875
4108661,,,,,,,,-1.078125,0.2109375,0.58203125,0.412109375,0.396484375,-0.158203125,-1.6328125,-9.3203125,1.98828125
4108662,,,,,,,,-1.125,0.41015625,0.56640625,0.380859375,0.443359375,-0.185546875,-1.671875,-9.125,1.98828125
4108663,,,,,,,,-1.140625,0.859375,0.37109375,0.287109375,0.5234375,-0.234375,-1.671875,-8.671875,1.83203125
4108664,,,,,,,,-1.109375,1.08984375,0.31640625,0.232421875,0.537109375,-0.25390625,-1.6328125,-8.4375,1.79296875
4108665,,,,,,,,-0.55859375,1.96484375,-0.08203125,0.16015625,0.521484375,-0.2734375,-1.05859375,-7.5546875,1.41015625
4108666,,,,,,,,-0.08203125,2.5078125,-0.59375,0.11328125,0.5078125,-0.275390625,-0.55859375,-7.02734375,0.9140625
4108667,,,,,,,,0.0234375,2.69921875,-0.70703125,0.07421875,0.4921875,-0.279296875,-0.4453125,-6.828125,0.80078125
4108668,,,,,,,,0.03125,3.00390625,-0.91015625,0.001953125,0.419921875,-0.27734375,-0.40625,-6.5234375,0.60546875
4108669,,,,,,,,-0.1015625,3.04296875,-0.91015625,-0.005859375,0.384765625,-0.267578125,-0.5234375,-6.484375,0.60546875
4108670,36.01254316666667,129.31922733333334,56.55372843468264,15.885845399567241,1.1,310.0,,-0.8671875,3.55078125,-0.87109375,-0.990234375,0.337890625,-0.169921875,-0.17578125,-9.24609375,1.21875
4108671,,,,,,,,-1.203125,3.51171875,-0.9296875,-0.083984375,0.212890625,-0.28125,-1.5546875,-6.02734375,0.5703125
4108672,,,,,,,,-1.45703125,3.2421875,-1.0078125,-0.1171875,0.19140625,-0.28515625,-1.78515625,-6.30078125,0.4921875
4108673,,,,,,,,-1.51171875,3.16796875,-1.0,-0.115234375,0.173828125,-0.28125,-1.82421875,-6.3671875,0.4921875
4108674,,,,,,,,-1.62890625,2.90625,-1.0625,-0.0859375,0.095703125,-0.26171875,-1.90234375,-6.64453125,0.4140625
4108675,,,,,,,,-1.53515625,2.63671875,-0.9765625,-0.05859375,0.033203125,-0.232421875,-1.78515625,-6.91015625,0.4921875
4108676,,,,,,,,-1.4765625,2.5234375,-0.9765625,-0.02734375,0.01171875,-0.197265625,-1.7109375,-7.02734375,0.4921875
4108677,,,,,,,,-1.453125,2.37109375,-1.12109375,-0.03125,-0.025390625,-0.162109375,-1.671875,-7.171875,0.33984375
4108678,,,,,,,,-1.421875,2.37109375,-1.12109375,-0.033203125,-0.03125,-0.142578125,-1.6328125,-7.17578125,0.33984375
4108679,,,,,,,,-1.3984375,2.32421875,-1.16015625,-0.021484375,-0.08203125,-0.0703125,-1.59375,-7.21484375,0.30078125
4108680,36.01254383333333,129.31922649999998,56.47860344960088,15.959817738705233,1.1,312.0,,-1.3671875,2.0625,-1.19140625,-0.01171875,-0.115234375,-0.017578125,-0.17578125,-9.24609375,1.21875
4108681,,,,,,,,-1.140625,1.3671875,-1.265625,0.0390625,-0.142578125,0.013671875,-1.328125,-8.171875,0.1875
4108682,,,,,,,,-0.9765625,0.79296875,-1.19921875,0.0625,-0.15625,0.03125,-1.171875,-8.74609375,0.26171875
4108683,,,,,,,,-0.94140625,-0.12890625,-0.90625,0.125,-0.1953125,0.052734375,-1.13671875,-9.66796875,0.5703125
4108684,,,,,,,,-1.015625,-0.3671875,-0.75390625,0.12890625,-0.205078125,0.056640625,-1.2109375,-9.8984375,0.72265625
4108685,,,,,,,,-0.93359375,-0.52734375,-0.5,0.142578125,-0.234375,0.0625,-1.13671875,-10.05078125,0.9921875
4108686,,,,,,,,-0.47265625,-0.10546875,-0.6796875,0.09765625,-0.2890625,0.060546875,-0.67578125,-9.62890625,0.8359375
4108687,,,,,,,,-0.39453125,-0.14453125,-0.87109375,0.08203125,-0.291015625,0.0625,-0.59765625,-9.6640625,0.64453125
4108688,,,,,,,,-0.578125,-0.42578125,-1.1171875,0.08203125,-0.265625,0.044921875,-0.7890625,-9.9296875,0.4140625
4108689,,,,,,,,-0.6953125,-0.58203125,-1.0390625,0.111328125,-0.2578125,0.0390625,-0.90625,-10.08984375,0.4921875
4108690,36.01254483333333,129.3192255,56.38845333231695,16.07077639228972,1.2000000000000002,315.0,,-0.84765625,-0.92578125,-0.78515625,-0.01171875,-0.115234375,-0.017578125,-0.17578125,-9.24609375,1.21875
4108691,,,,,,,,-0.578125,-1.0078125,-0.94140625,0.3203125,-0.19921875,-0.025390625,-0.7890625,-10.51171875,0.64453125
4108692,,,,,,,,-0.12890625,-1.24609375,-1.1640625,0.283203125,-0.15625,-0.041015625,-0.33203125,-10.73828125,0.453125
4108693,,,,,,,,0.29296875,-1.484375,-1.1875,0.171875,-0.125,-0.046875,0.08984375,-10.97265625,0.453125
4108694,,,,,,,,0.44140625,-1.30078125,-1.078125,0.0625,-0.09765625,-0.0703125,0.24609375,-10.77734375,0.5703125
4108695,,,,,,,,0.125,-0.87890625,-1.125,-0.00390625,-0.099609375,-0.08984375,-0.0625,-10.3515625,0.53125
4108696,,,,,,,,0.00390625,-0.8046875,-0.97265625,-0.041015625,-0.09765625,-0.099609375,-0.17578125,-10.28515625,0.68359375
4108697,,,,,,,,-0.578125,-1.1015625,-0.6796875,-0.134765625,-0.046875,-0.111328125,-0.75,-10.58984375,0.953125
4108698,,,,,,,,-1.1640625,-1.984375,-0.44140625,-0.23046875,0.009765625,-0.10546875,-1.328125,-11.47265625,1.18359375
4108699,,,,,,,,-1.36328125,-2.12890625,0.0078125,-0.306640625,0.068359375,-0.1171875,-1.51953125,-11.6171875,1.6015625
4108700,36.01254566666667,129.31922466666668,56.31332823662402,16.163241938931247,1.2000000000000002,317.0,0.0,-1.4453125,-1.4375,0.73046875,-0.01171875,-0.115234375,-0.017578125,-1.59375,-10.9296875,2.29296875
4108701,,,,,,,,-1.23046875,-1.20703125,0.76953125,-0.447265625,0.12890625,-0.166015625,-1.36328125,-10.69921875,2.29296875
4108702,,,,,,,,-0.71875,-2.45703125,0.703125,-0.625,0.01171875,-0.197265625,-0.828125,-11.96484375,2.140625
4108703,,,,,,,,0.15234375,-3.5234375,1.30078125,-0.751953125,-0.140625,-0.19140625,0.05078125,-13.0390625,2.67578125
4108704,,,,,,,,1.77734375,-4.50390625,2.75,-0.72265625,-0.244140625,-0.16015625,1.69921875,-14.03515625,4.0546875
4108705,,,,,,,,2.296875,-4.87890625,3.1953125,-0.548828125,-0.2265625,-0.087890625,2.234375,-14.4140625,4.4375
4108706,,,,,,,,1.87890625,-4.80078125,3.296875,-0.49609375,-0.216796875,-0.0546875,1.81640625,-14.33984375,4.515625
4108707,,,,,,,,0.875,-3.94140625,3.265625,-0.572265625,-0.2265625,0.0078125,0.8203125,-13.4921875,4.4375
4108708,,,,,,,,-0.15234375,-2.86328125,2.640625,-0.75,-0.33203125,0.02734375,-0.21484375,-12.42578125,3.75
4108709,,,,,,,,-0.3828125,-2.43359375,2.2890625,-0.662109375,-0.451171875,0.009765625,-0.4453125,-12.0,3.328125
4108710,36.01254666666667,129.3192236666667,56.22317812137458,16.274200595383384,1.3,320.0,,-0.046875,-1.734375,1.8359375,-0.30078125,-0.435546875,-0.021484375,-0.1015625,-11.31640625,2.828125
4108711,,,,,,,,0.0234375,-1.53515625,1.8046875,0.19921875,-0.314453125,-0.0703125,0.12890625,-10.890625,2.59765625
4108712,,,,,,,,0.28515625,-1.0390625,1.36328125,0.4140625,-0.3515625,-0.083984375,0.28125,-10.62890625,2.1796875
4108713,,,,,,,,0.3203125,-1.0390625,1.15625,0.466796875,-0.4296875,-0.08203125,0.359375,-10.625,2.1015625
4108714,,,,,,,,0.57421875,-0.89453125,0.91796875,0.51171875,-0.5625,-0.044921875,0.51171875,-10.31640625,1.91015625
4108715,,,,,,,,0.59765625,-0.5859375,0.70703125,0.505859375,-0.5625,0.03125,0.58984375,-9.97265625,1.7578125
4108716,,,,,,,,0.64453125,0.01953125,0.4453125,0.4609375,-0.408203125,0.177734375,0.58984375,-9.12890625,1.48828125
4108717,,,,,,,,0.66015625,0.859375,0.0546875,0.369140625,-0.291015625,0.271484375,0.58984375,-8.4765625,1.21875
4108718,,,,,,,,0.62890625,1.08984375,-0.0390625,0.3203125,-0.2421875,0.314453125,0.47265625,-8.17578125,1.2578125
4108719,,,,,,,,0.4609375,1.6640625,-0.0703125,0.228515625,-0.181640625,0.3515625,0.359375,-7.5546875,1.10546875
4108720,36.0125475,129.31922283333333,56.14805302594579,16.366666141738346,1.2000000000000002,322.0,,-0.046875,-1.734375,1.8359375,0.224609375,-0.123046875,0.359375,0.20703125,-7.171875,0.9921875
4108721,,,,,,,,0.27734375,2.4609375,-0.3515625,0.248046875,-0.099609375,0.32421875,0.16796875,-6.91015625,0.953125
4108722,,,,,,,,0.26171875,2.84375,-0.5,0.25390625,-0.0859375,0.283203125,0.20703125,-6.6015625,0.953125
4108723,,,,,,,,0.39453125,2.9609375,-0.4375,0.25390625,-0.08984375,0.263671875,0.24609375,-6.52734375,0.953125
4108724,,,,,,,,0.5390625,3.06640625,-0.40234375,0.2734375,-0.078125,0.240234375,0.4375,-6.48828125,0.953125
4108725,,,,,,,,1.13671875,2.9140625,-0.578125,0.275390625,-0.056640625,0.21875,0.89453125,-6.640625,0.875
4108726,,,,,,,,1.69921875,2.79296875,-0.87890625,0.27734375,-0.013671875,0.224609375,1.43359375,-6.75390625,0.60546875
4108727,,,,,,,,1.8828125,2.62890625,-1.26171875,0.28515625,0.046875,0.232421875,1.5859375,-6.91015625,0.26171875
4108728,,,,,,,,1.890625,2.62890625,-1.421875,0.296875,0.056640625,0.236328125,1.5859375,-6.90625,0.109375
4108729,,,,,,,,1.8828125,2.546875,-1.453125,0.322265625,0.04296875,0.2265625,1.546875,-6.98828125,0.109375
4108730,36.012548333333335,129.31922216666666,56.087952833073906,16.459131786762,1.1,323.0,,1.5703125,2.4609375,-1.421875,0.33984375,0.013671875,0.197265625,0.20703125,-7.171875,0.9921875
4108731,,,,,,,,1.23046875,2.26171875,-1.34765625,0.34375,0.046875,0.158203125,0.85546875,-7.25390625,0.30078125
4108732,,,,,,,,1.0625,2.1328125,-1.1484375,0.3359375,0.11328125,0.11328125,0.6640625,-7.3671875,0.53125
4108733,,,,,,,,0.8359375,2.09375,-1.125,0.33203125,0.146484375,0.078125,0.4375,-7.40625,0.5703125
4108734,,,,,,,,0.52734375,1.81640625,-1.00390625,0.31640625,0.1953125,0.01953125,0.12890625,-7.67578125,0.72265625
4108735,,,,,,,,0.421875,1.55078125,-0.99609375,0.30859375,0.267578125,-0.0390625,0.015625,-7.94140625,0.76171875
4108736,,,,,,,,0.45703125,0.9296875,-0.98046875,0.30859375,0.31640625,-0.068359375,0.05078125,-8.5546875,0.80078125
4108737,,,,,,,,0.49609375,0.1171875,-0.66796875,0.302734375,0.359375,-0.091796875,0.08984375,-9.36328125,1.14453125
4108738,,,,,,,,0.48828125,-0.03515625,-0.5234375,0.306640625,0.376953125,-0.09375,0.08984375,-9.5078125,1.296875
4108739,,,,,,,,0.3359375,-0.3984375,-0.265625,0.302734375,0.380859375,-0.091796875,-0.0625,-9.859375,1.6015625
4108740,36.012549166666666,129.31922083333333,55.9677530420718,16.551597046925238,1.3,318.0,,0.13671875,-0.55859375,-0.171875,0.33984375,0.013671875,0.197265625,-0.25390625,-10.0078125,1.71875
4108741,,,,,,,,0.05859375,-0.48828125,-0.04296875,0.25,0.306640625,-0.072265625,-0.33203125,-9.93359375,1.87109375
4108742,,,,,,,,0.13671875,-0.375,0.05078125,0.251953125,0.306640625,-0.0703125,-0.25390625,-9.82421875,1.98828125
4108743,,,,,,,,0.2890625,-0.23046875,-0.16796875,0.279296875,0.32421875,-0.048828125,-0.1015625,-9.6640625,1.79296875
4108744,,,,,,,,0.44921875,-0.16796875,-0.265625,0.326171875,0.326171875,-0.03125,0.05078125,-9.5859375,1.71875
4108745,,,,,,,,0.56640625,-0.13671875,-0.296875,0.357421875,0.32421875,-0.01171875,0.16796875,-9.546875,1.71875
4108746,,,,,,,,0.64453125,-0.18359375,-0.51953125,0.359375,0.28125,0.001953125,0.24609375,-9.58984375,1.52734375
4108747,,,,,,,,0.57421875,-0.15234375,-0.75,0.3671875,0.224609375,0.01953125,0.16796875,-9.546875,1.3359375
4108748,,,,,,,,0.390625,-0.23046875,-0.8984375,0.345703125,0.158203125,0.03125,-0.0234375,-9.62890625,1.21875
4108749,,,,,,,,0.19921875,-0.3515625,-0.921875,0.2578125,0.09375,0.041015625,-0.21484375,-9.7421875,1.21875
4108750,36.012550000000005,129.31921966666667,55.86257815290609,16.644062405727468,1.2000000000000002,315.0,,0.015625,-0.28515625,-0.4453125,0.1484375,0.064453125,0.048828125,-0.40625,-9.66796875,1.71875
4108751,,,,,,,,0.12890625,-0.59765625,-0.140625,0.009765625,0.017578125,0.05859375,-0.29296875,-9.97265625,2.0234375
4108752,,,,,,,,0.75,-2.17578125,-0.16796875,-0.138671875,-0.033203125,0.060546875,0.3203125,-11.5390625,1.98828125
4108753,,,,,,,,0.796875,-3.35546875,-0.0703125,-0.283203125,-0.060546875,0.06640625,0.359375,-12.73046875,2.0625
4108754,,,,,,,,0.22265625,-4.19140625,0.3828125,-0.400390625,-0.0546875,0.078125,-0.21484375,-13.5703125,2.484375
4108755,,,,,,,,-1.29296875,-4.25390625,1.7109375,-0.498046875,-0.033203125,0.09375,-1.74609375,-13.6484375,3.75
4108756,,,,,,,,-2.4375,-3.125,2.453125,-0.646484375,-0.1171875,0.130859375,-2.8984375,-12.5390625,4.4375
4108757,,,,,,,,-3.01171875,-1.38671875,2.640625,-0.8125,-0.1640625,0.1484375,-3.47265625,-10.81640625,4.5546875
4108758,,,,,,,,-2.46484375,0.046875,2.78515625,-0.822265625,-0.060546875,0.119140625,-2.93359375,-9.40234375,4.62890625
4108759,,,,,,,,-0.6875,-0.09765625,2.75,-0.685546875,0.2578125,0.087890625,-1.171875,-9.55078125,4.515625
4108760,36.01255066666667,129.31921866666667,55.77242828274104,16.71803465454179,1.2000000000000002,312.0,,0.76171875,-1.37890625,2.52734375,0.1484375,0.064453125,0.048828125,0.24609375,-10.8515625,4.20703125
4108761,,,,,,,,1.234375,-2.3359375,1.80078125,-0.123046875,0.259765625,0.099609375,0.703125,-11.8125,3.44140625
4108762,,,,,,,,1.12890625,-2.59765625,1.42578125,-0.00390625,0.1640625,0.119140625,0.58984375,-12.08203125,3.05859375
4108763,,,,,,,,0.5703125,-2.09765625,1.2265625,0.0703125,-0.02734375,0.169921875,0.015625,-11.578125,2.8671875
4108764,,,,,,,,-0.03515625,-1.5625,1.3046875,0.0546875,-0.068359375,0.171875,-0.59765625,-11.05078125,2.9453125
4108765,,,,,,,,-0.48046875,-1.1015625,1.53515625,0.0078125,-0.0078125,0.099609375,-1.05859375,-10.5859375,3.17578125
4108766,,,,,,,,-0.81640625,-1.015625,1.79296875,0.048828125,0.0859375,0.048828125,-1.40234375,-10.51171875,3.44140625
4108767,,,,,,,,-0.80859375,-1.015625,1.6015625,0.0703125,0.134765625,0.017578125,-1.40234375,-10.5078125,3.25
4108768,,,,,,,,-0.6171875,-0.94921875,1.01953125,0.12890625,0.2265625,-0.060546875,-1.2109375,-10.43359375,2.67578125
4108769,,,,,,,,-0.55078125,-0.94921875,0.92578125,0.1484375,0.28125,-0.1015625,-1.13671875,-10.43359375,2.59765625
4108770,36.0125515,129.3192175,55.667253400492044,16.810500015185134,1.3,313.0,,-0.51953125,-0.60546875,0.796875,0.150390625,0.388671875,-0.19140625,-1.09765625,-10.08984375,2.484375
4108771,,,,,,,,-0.6484375,-0.17578125,0.7109375,0.15625,0.40625,-0.255859375,-1.2109375,-9.6640625,2.40625
4108772,,,,,,,,-0.51953125,0.515625,0.62109375,0.150390625,0.3203125,-0.287109375,-1.05859375,-8.9765625,2.33203125
4108773,,,,,,,,-0.15234375,1.05078125,0.421875,0.150390625,0.263671875,-0.29296875,-0.67578125,-8.44140625,2.140625
4108774,,,,,,,,0.015625,1.51171875,0.015625,0.16796875,0.279296875,-0.279296875,-0.484375,-7.98046875,1.7578125
4108775,,,,,,,,-0.046875,1.85546875,-0.390625,0.1953125,0.3125,-0.28125,-0.5234375,-7.63671875,1.375
4108776,,,,,,,,-0.3359375,2.35546875,-0.40625,0.203125,0.283203125,-0.279296875,-0.7890625,-7.13671875,1.375
4108777,,,,,,,,-0.62890625,2.57421875,-0.39453125,0.212890625,0.1796875,-0.287109375,-1.05859375,-6.91015625,1.41015625
4108778,,,,,,,,-0.8046875,2.8046875,-0.453125,0.216796875,0.15234375,-0.28515625,-1.2109375,-6.68359375,1.375
4108779,,,,,,,,-1.02734375,2.94921875,-0.78515625,0.19921875,0.12890625,-0.28125,-1.40234375,-6.5234375,1.06640625
4108780,36.012552,129.3192165,55.57710365083639,16.86597906133022,1.2000000000000002,315.0,,-1.12890625,2.796875,-0.8828125,0.150390625,0.388671875,-0.19140625,-1.09765625,-10.08984375,2.484375
4108781,,,,,,,,-1.19921875,2.453125,-0.86328125,0.11328125,0.07421875,-0.275390625,-1.51953125,-7.02734375,1.02734375
4108782,,,,,,,,-1.21484375,2.375,-0.8984375,0.109375,0.044921875,-0.267578125,-1.51953125,-7.1015625,0.9921875
4108783,,,,,,,,-1.16015625,2.21484375,-0.76171875,0.109375,-0.017578125,-0.259765625,-1.44140625,-7.25,1.14453125
4108784,,,,,,,,-1.09765625,2.22265625,-0.80078125,0.115234375,-0.033203125,-0.248046875,-1.36328125,-7.25,1.10546875
4108785,,,,,,,,-1.12109375,2.1015625,-0.89453125,0.125,-0.03125,-0.212890625,-1.36328125,-7.37109375,1.02734375
4108786,,,,,,,,-1.26171875,2.1015625,-1.03125,0.115234375,-0.01953125,-0.162109375,-1.48046875,-7.3671875,0.9140625
4108787,,,,,,,,-1.30859375,2.140625,-1.0390625,0.11328125,-0.013671875,-0.138671875,-1.51953125,-7.33203125,0.9140625
4108788,,,,,,,,-1.359375,2.16796875,-1.19921875,0.130859375,-0.013671875,-0.111328125,-1.5546875,-7.29296875,0.76171875
4108789,,,,,,,,-1.32421875,2.16796875,-1.20703125,0.14453125,-0.015625,-0.087890625,-1.51953125,-7.2890625,0.76171875
4108790,36.01255266666667,129.31921533333335,55.47192888598491,16.939951219341737,1.2000000000000002,316.0,,-1.32421875,2.125,-1.33984375,0.150390625,0.388671875,-0.19140625,-1.09765625,-10.08984375,2.484375
4108791,,,,,,,,-0.984375,1.73828125,-1.39453125,0.19140625,-0.0546875,-0.03125,-1.171875,-7.71484375,0.60546875
4108792,,,,,,,,-0.71875,1.08203125,-1.1953125,0.197265625,-0.0859375,-0.00390625,-0.90625,-8.36328125,0.8359375
4108793,,,,,,,,-0.75390625,0.71875,-0.98046875,0.201171875,-0.1015625,0.005859375,-0.94140625,-8.7109375,1.06640625
4108794,,,,,,,,-0.83203125,0.4140625,-0.95703125,0.1875,-0.109375,0.0,-1.01953125,-9.015625,1.10546875
4108795,,,,,,,,-0.6484375,0.26171875,-1.01171875,0.14453125,-0.130859375,-0.009765625,-0.828125,-9.1640625,1.06640625
4108796,,,,,,,,-0.48828125,0.12890625,-0.98828125,0.12109375,-0.12109375,-0.0234375,-0.67578125,-9.28125,1.10546875
4108797,,,,,,,,-0.15234375,-0.13671875,-0.734375,0.072265625,-0.091796875,-0.029296875,-0.33203125,-9.55078125,1.375
4108798,,,,,,,,-0.12109375,-0.21484375,-0.70703125,0.05859375,-0.083984375,-0.04296875,-0.29296875,-9.625,1.41015625
4108799,,,,,,,,-0.2734375,-0.60546875,-0.859375,0.033203125,-0.080078125,-0.056640625,-0.4453125,-10.0078125,1.2578125
4108800,36.01255366666667,129.3192145,55.396803686178814,17.050909978395914,1.2000000000000002,319.0,0.0,-0.51171875,-1.1015625,-0.8203125,0.150390625,0.388671875,-0.19140625,-1.09765625,-10.08984375,2.484375
4108801,,,,,,,,-0.55859375,-1.5625,-0.7421875,-0.064453125,-0.0703125,-0.1015625,-0.67578125,-11.1171875,1.375
4108802,,,,,,,,-0.3828125,-1.76171875,-0.69921875,-0.09765625,-0.044921875,-0.12890625,-0.5234375,-11.15625,1.41015625
4108803,,,,,,,,-0.3046875,-1.33203125,-0.68359375,-0.14453125,-0.001953125,-0.150390625,-0.484375,-10.390625,1.3359375
4108804,,,,,,,,-0.58984375,-0.22265625,-0.859375,-0.21875,0.048828125,-0.169921875,-0.90625,-9.3203125,1.21875
4108805,,,,,,,,-0.98828125,0.28515625,-0.6875,-0.27734375,0.1015625,-0.169921875,-1.5546875,-9.32421875,1.41015625
4108806,,,,,,,,-1.65234375,-0.328125,-0.734375,-0.326171875,0.138671875,-0.162109375,-1.82421875,-10.39453125,1.2578125
4108807,,,,,,,,-1.69921875,-1.69921875,-0.85546875,-0.330078125,0.181640625,-0.15625,-1.51953125,-12.38671875,1.640625
4108808,,,,,,,,-1.171875,-3.38671875,0.28515625,-0.287109375,0.234375,-0.138671875,-1.01953125,-12.96484375,2.8671875
4108809,,,,,,,,-0.59765625,-3.4921875,1.53515625,-0.3359375,0.234375,-0.138671875,-0.33203125,-12.7265625,3.9765625
4108810,36.01255466666667,129.31921366666666,55.32167849250037,17.161868738015524,1.2000000000000002,321.0,,-0.51171875,-1.1015625,-0.8203125,-0.455078125,0.181640625,-0.13671875,0.47265625,-12.38671875,3.6328125
4108811,,,,,,,,1.06640625,-2.7890625,1.58203125,-0.701171875,0.099609375,-0.119140625,1.31640625,-12.08203125,3.55859375
4108812,,,,,,,,1.5546875,-2.46484375,1.9140625,-0.900390625,-0.01171875,-0.107421875,1.69921875,-11.9609375,4.0546875
4108813,,,,,,,,1.74609375,-2.640625,2.7734375,-0.861328125,-0.109375,-0.10546875,1.69921875,-12.12109375,4.4765625
4108814,,,,,,,,0.91796875,-2.80859375,3.02734375,-0.609375,-0.119140625,-0.103515625,0.89453125,-12.30859375,4.62890625
4108815,,,,,,,,-0.16015625,-2.6875,2.69921875,-0.453125,-0.0859375,-0.10546875,-0.17578125,-12.1953125,4.24609375
4108816,,,,,,,,-0.32421875,-2.57421875,2.33203125,-0.41796875,-0.087890625,-0.1015625,-0.33203125,-12.078125,3.86328125
4108817,,,,,,,,0.08203125,-2.25,1.7578125,-0.32421875,-0.138671875,-0.12109375,0.08984375,-11.77734375,3.25
4108818,,,,,,,,0.19140625,-2.01171875,1.859375,-0.197265625,-0.20703125,-0.14453125,0.20703125,-11.54296875,3.328125
4108819,,,,,,,,0.13671875,-1.4375,1.75,-0.087890625,-0.25,-0.1484375,0.16796875,-10.96875,3.2109375
4108820,36.01255566666667,129.31921300000002,55.26157819990354,17.272827593738086,1.2000000000000002,326.0,,0.04296875,-1.16796875,1.484375,-0.455078125,0.181640625,-0.13671875,0.08984375,-10.69921875,2.9453125
4108821,,,,,,,,0.10546875,-0.7421875,1.0,0.169921875,-0.494140625,-0.052734375,0.16796875,-10.28125,2.484375
4108822,,,,,,,,0.39453125,-0.40234375,0.41015625,0.1484375,-0.513671875,0.009765625,0.47265625,-9.9296875,1.91015625
4108823,,,,,,,,0.43359375,-0.2890625,0.32421875,0.1484375,-0.439453125,0.095703125,0.51171875,-9.8203125,1.83203125
4108824,,,,,,,,0.3671875,0.28515625,0.234375,0.138671875,-0.384765625,0.162109375,0.4375,-9.24609375,1.7578125
4108825,,,,,,,,0.296875,0.63671875,0.1484375,0.083984375,-0.375,0.21484375,0.359375,-8.90234375,1.6796875
4108826,,,,,,,,0.20703125,1.13671875,0.01953125,0.021484375,-0.373046875,0.263671875,0.24609375,-8.3984375,1.56640625
4108827,,,,,,,,0.03515625,1.7109375,-0.36328125,-0.0234375,-0.361328125,0.298828125,0.05078125,-7.828125,1.18359375
4108828,,,,,,,,-0.03125,1.90234375,-0.40234375,-0.05078125,-0.357421875,0.3125,-0.0234375,-7.63671875,1.14453125
4108829,,,,,,,,0.0078125,2.28515625,-0.51171875,-0.05078125,-0.310546875,0.3203125,-0.0234375,-7.25390625,1.02734375
4108830,36.012556333333336,129.31921216666666,55.18645323977132,17.346799943740795,1.1,325.0,,0.14453125,2.75390625,-0.39453125,-0.0234375,-0.302734375,0.3125,0.08984375,-6.79296875,1.14453125
4108831,,,,,,,,0.5234375,3.01953125,-0.51171875,0.021484375,-0.29296875,0.30859375,0.4375,-6.52734375,1.02734375
4108832,,,,,,,,0.859375,3.01953125,-0.78515625,0.044921875,-0.283203125,0.3125,0.7421875,-6.52734375,0.76171875
4108833,,,,,,,,1.3828125,3.01953125,-1.0546875,0.056640625,-0.255859375,0.3203125,1.2421875,-6.5234375,0.4921875
4108834,,,,,,,,1.75,2.984375,-1.30078125,0.05078125,-0.23046875,0.32421875,1.5859375,-6.5625,0.26171875
4108835,,,,,,,,1.97265625,2.90625,-1.33984375,0.0546875,-0.21484375,0.328125,1.77734375,-6.64453125,0.22265625
4108836,,,,,,,,2.1015625,2.66796875,-1.5,0.078125,-0.2265625,0.330078125,1.890625,-6.8671875,0.0703125
4108837,,,,,,,,2.1640625,2.40234375,-1.5078125,0.107421875,-0.228515625,0.3125,1.9296875,-7.1328125,0.0703125
4108838,,,,,,,,1.99609375,2.046875,-1.4375,0.1015625,-0.216796875,0.283203125,1.73828125,-7.484375,0.1484375
4108839,,,,,,,,1.94140625,1.84765625,-1.37890625,0.080078125,-0.1875,0.23828125,1.66015625,-7.671875,0.22265625
4108840,36.01255716666667,129.31921133333333,55.11132816480101,17.439265499298564,1.2000000000000002,325.0,,1.60546875,1.7734375,-1.33984375,0.068359375,-0.1328125,0.189453125,1.31640625,-7.75,0.26171875
4108841,,,,,,,,1.24609375,1.58203125,-1.23046875,0.0546875,-0.0703125,0.150390625,0.93359375,-7.94140625,0.37890625
4108842,,,,,,,,0.984375,1.3125,-1.203125,0.044921875,0.009765625,0.10546875,0.6640625,-8.21484375,0.4140625
4108843,,,,,,,,0.91796875,0.69140625,-0.97265625,0.041015625,0.08984375,0.060546875,0.58984375,-8.8203125,0.64453125
4108844,,,,,,,,0.84765625,0.4609375,-0.94140625,0.0625,0.185546875,0.0234375,0.51171875,-9.05859375,0.68359375
4108845,,,,,,,,0.6953125,0.109375,-0.91015625,0.107421875,0.318359375,-0.01953125,0.359375,-9.40234375,0.72265625
4108846,,,,,,,,0.65625,-0.04296875,-0.7578125,0.126953125,0.349609375,-0.029296875,0.3203125,-9.546875,0.875
4108847,,,,,,,,0.58984375,-0.12109375,-0.62109375,0.140625,0.380859375,-0.02734375,0.24609375,-9.62890625,1.02734375
4108848,,,,,,,,0.47265625,-0.359375,-0.328125,0.17578125,0.388671875,-0.021484375,0.12890625,-9.86328125,1.3359375
4108849,,,,,,,,0.3671875,-0.3984375,-0.3046875,0.212890625,0.404296875,-0.01171875,0.015625,-9.8984375,1.375
4108850,36.012558,129.31921033333336,55.021178195895665,17.531730962321607,1.1,323.0,,0.3203125,-0.3671875,-0.3203125,0.267578125,0.41796875,-0.00390625,1.31640625,-7.75,0.26171875
4108851,,,,,,,,0.3359375,-0.4140625,-0.46875,0.310546875,0.427734375,0.0,-0.0234375,-9.90234375,1.2578125
4108852,,,,,,,,0.41796875,-0.49609375,-0.60546875,0.349609375,0.416015625,0.0078125,0.05078125,-9.96875,1.14453125
4108853,,,,,,,,0.3515625,-0.54296875,-0.64453125,0.373046875,0.380859375,0.025390625,-0.0234375,-10.01171875,1.14453125
4108854,,,,,,,,0.2421875,-0.62890625,-0.5625,0.40234375,0.337890625,0.04296875,-0.140625,-10.08984375,1.2578125
4108855,,,,,,,,-0.0234375,-0.7109375,-0.70703125,0.392578125,0.275390625,0.056640625,-0.40625,-10.16796875,1.14453125
4108856,,,,,,,,-0.09375,-0.75,-0.76953125,0.384765625,0.23828125,0.06640625,-0.484375,-10.203125,1.10546875
4108857,,,,,,,,-0.23828125,-0.94921875,-0.76171875,0.31640625,0.1875,0.07421875,-0.63671875,-10.39453125,1.14453125
4108858,,,,,,,,-0.4140625,-1.1875,-0.59375,0.224609375,0.150390625,0.076171875,-0.828125,-10.62890625,1.3359375
4108859,,,,,,,,-0.55859375,-1.26953125,-0.1875,0.130859375,0.146484375,0.078125,-0.98046875,-10.6953125,1.7578125
4108860,36.01255883333333,129.31920933333333,54.93102822446856,17.624196425805692,1.2000000000000002,318.0,,-0.20703125,-1.1953125,-0.03515625,0.267578125,0.41796875,-0.00390625,1.31640625,-7.75,0.26171875
4108861,,,,,,,,0.64453125,-2.57421875,-0.2578125,-0.15625,-0.021484375,0.05859375,0.20703125,-12.00390625,1.6796875
4108862,,,,,,,,1.109375,-3.4453125,-0.34765625,-0.23828125,-0.080078125,0.060546875,0.6640625,-12.8828125,1.56640625
4108863,,,,,,,,0.96484375,-3.01953125,-0.1171875,-0.3359375,-0.11328125,0.072265625,0.51171875,-12.4609375,1.7578125
4108864,,,,,,,,0.16015625,-2.328125,0.48828125,-0.3671875,-0.150390625,0.103515625,-0.29296875,-11.77734375,2.33203125
4108865,,,,,,,,-0.48046875,-2.51171875,1.33203125,-0.4609375,-0.216796875,0.15234375,-0.94140625,-11.96484375,3.13671875
4108866,,,,,,,,-0.7109375,-2.19921875,1.66015625,-0.521484375,-0.244140625,0.169921875,-1.171875,-11.66015625,3.44140625
4108867,,,,,,,,-1.1171875,-1.30859375,1.78515625,-0.591796875,-0.296875,0.181640625,-1.59375,-10.77734375,3.51953125
4108868,,,,,,,,-1.1484375,-0.7265625,1.9140625,-0.556640625,-0.1640625,0.109375,-1.6328125,-10.203125,3.59375
4108869,,,,,,,,-0.91796875,-0.90234375,2.16015625,-0.48828125,0.130859375,0.048828125,-1.40234375,-10.39453125,3.78515625
4108870,36.01255966666667,129.31920833333334,54.840878259333785,17.716661891214272,1.2000000000000002,316.0,,-0.2890625,-1.77734375,2.70703125,-0.5390625,0.2421875,0.064453125,-0.7890625,-11.27734375,4.28515625
4108871,,,,,,,,0.33203125,-1.9609375,2.25390625,-0.435546875,0.298828125,0.048828125,-0.17578125,-11.46875,3.78515625
4108872,,,,,,,,0.64453125,-1.60546875,1.67578125,-0.1796875,0.361328125,0.037109375,0.12890625,-11.12109375,3.17578125
4108873,,,,,,,,0.76171875,-1.33984375,1.375,-0.08203125,0.376953125,0.046875,0.24609375,-10.8515625,2.8671875
4108874,,,,,,,,0.9296875,-0.71875,0.87890625,-0.005859375,0.392578125,0.072265625,0.3984375,-10.2421875,2.37109375
4108875,,,,,,,,0.5625,-0.10546875,0.46484375,0.009765625,0.361328125,0.0703125,0.015625,-9.62890625,1.94921875
4108876,,,,,,,,-0.12109375,-0.41015625,0.80078125,0.08203125,0.333984375,0.0390625,-0.67578125,-9.9296875,2.29296875
4108877,,,,,,,,-0.7734375,-0.984375,1.47265625,0.2421875,0.3046875,-0.03125,-1.328125,-10.51171875,2.98046875
4108878,,,,,,,,-1.0,-0.94921875,1.53515625,0.259765625,0.302734375,-0.064453125,-1.5546875,-10.47265625,3.05859375
4108879,,,,,,,,-1.3828125,-0.49609375,1.28125,0.248046875,0.361328125,-0.1484375,-1.9375,-10.0078125,2.828125
4108880,36.01256033333333,129.31920733333334,54.75072840890671,17.79063415033171,1.2000000000000002,315.0,,-1.19921875,0.0390625,0.8828125,-0.5390625,0.2421875,0.064453125,-0.7890625,-11.27734375,4.28515625
4108881,,,,,,,,-0.99609375,0.62109375,0.453125,0.080078125,0.513671875,-0.302734375,-1.51953125,-8.8984375,2.0234375
4108882,,,,,,,,-0.63671875,1.46484375,-0.13671875,0.0234375,0.5,-0.33984375,-1.13671875,-8.05859375,1.44921875
4108883,,,,,,,,-0.45703125,1.80859375,-0.25,0.03515625,0.474609375,-0.35546875,-0.94140625,-7.7109375,1.3359375
4108884,,,,,,,,-0.19140625,2.23046875,-0.375,0.15625,0.330078125,-0.349609375,-0.63671875,-7.2890625,1.21875
4108885,,,,,,,,-0.18359375,2.30859375,-0.42578125,0.232421875,0.23828125,-0.310546875,-0.59765625,-7.2109375,1.18359375
4108886,,,,,,,,-0.1015625,2.69140625,-0.65625,0.26953125,0.203125,-0.26171875,-0.484375,-6.83203125,0.9921875
4108887,,,,,,,,-0.125,2.8828125,-0.71875,0.23828125,0.203125,-0.23046875,-0.484375,-6.64453125,0.953125
4108888,,,,,,,,-0.28515625,2.921875,-0.84375,0.21484375,0.19140625,-0.22265625,-0.63671875,-6.60546875,0.8359375
4108889,,,,,,,,-0.53125,2.796875,-0.89453125,0.16796875,0.13671875,-0.21875,-0.8671875,-6.71875,0.80078125
4108890,36.012561166666664,129.31920649999998,54.675603340135986,17.88309971159218,1.2000000000000002,318.0,,-0.9375,2.64453125,-0.875,-0.5390625,0.2421875,0.064453125,-0.7890625,-11.27734375,4.28515625
4108891,,,,,,,,-1.296875,2.4921875,-0.7421875,0.162109375,0.037109375,-0.228515625,-1.59375,-7.02734375,0.9921875
4108892,,,,,,,,-1.62890625,2.21484375,-0.7578125,0.162109375,-0.001953125,-0.23046875,-1.90234375,-7.29296875,0.9921875
4108893,,,,,,,,-1.6796875,2.1328125,-0.8515625,0.169921875,-0.0078125,-0.22265625,-1.9375,-7.37109375,0.9140625
4108894,,,,,,,,-1.703125,2.015625,-0.98046875,0.154296875,-0.00390625,-0.205078125,-1.9375,-7.48828125,0.80078125
4108895,,,,,,,,-1.5,1.703125,-0.99609375,0.142578125,-0.013671875,-0.185546875,-1.7109375,-7.79296875,0.80078125
4108896,,,,,,,,-1.3515625,1.625,-0.9296875,0.154296875,-0.017578125,-0.16796875,-1.5546875,-7.8671875,0.875
4108897,,,,,,,,-1.0625,1.28125,-0.953125,0.18359375,-0.060546875,-0.0859375,-1.25,-8.2109375,0.875
4108898,,,,,,,,-0.83984375,0.8828125,-1.0078125,0.189453125,-0.09765625,-0.03125,-1.01953125,-8.59375,0.8359375
4108899,,,,,,,,-0.79296875,0.3828125,-0.875,0.212890625,-0.140625,0.015625,-0.98046875,-9.09765625,0.9921875
4108900,36.012562,129.31920566666668,54.60047828030973,17.975565272038832,1.2000000000000002,318.0,0.0,-0.79296875,0.1171875,-0.81640625,-0.5390625,0.2421875,0.064453125,-0.98046875,-9.36328125,1.06640625
4108901,,,,,,,,-0.6015625,-0.0078125,-0.5703125,0.248046875,-0.203125,0.06640625,-0.7890625,-9.4765625,1.3359375
4108902,,,,,,,,-0.5625,0.140625,-0.671875,0.267578125,-0.21484375,0.08203125,-0.75,-9.3203125,1.2578125
4108903,,,,,,,,-0.51953125,0.5078125,-0.6484375,0.279296875,-0.208984375,0.083984375,-0.71484375,-8.94140625,1.3359375
4108904,,,,,,,,-0.3203125,0.421875,-0.7578125,0.279296875,-0.203125,0.068359375,-0.5234375,-9.01953125,1.2578125
4108905,,,,,,,,-0.12890625,0.078125,-0.89453125,0.2890625,-0.205078125,0.04296875,-0.33203125,-9.359375,1.14453125
4108906,,,,,,,,-0.08984375,-0.24609375,-0.765625,0.3125,-0.1953125,0.02734375,-0.29296875,-9.66796875,1.296875
4108907,,,,,,,,-0.2421875,-0.59765625,-0.7109375,0.32421875,-0.16015625,0.0,-0.4453125,-10.0078125,1.375
4108908,,,,,,,,-0.5859375,-0.68359375,-0.72265625,0.23828125,-0.15625,-0.046875,-0.7890625,-10.08984375,1.41015625
4108909,,,,,,,,-0.78515625,-0.64453125,-0.8515625,0.12109375,-0.138671875,-0.08984375,-0.98046875,-10.046875,1.296875
4108910,36.01256283333333,129.31920466666668,54.51032831956991,18.068030738996228,1.1,320.0,,-0.7265625,-0.765625,-1.08984375,0.0234375,-0.109375,-0.115234375,-0.90625,-10.1640625,1.06640625
4108911,,,,,,,,-0.54296875,-0.8828125,-0.97265625,-0.033203125,-0.06640625,-0.134765625,-0.71484375,-10.28125,1.18359375
4108912,,,,,,,,-0.328125,-0.65234375,-0.8515625,-0.103515625,-0.037109375,-0.16015625,-0.484375,-10.05078125,1.296875
4108913,,,,,,,,-0.41796875,-0.5,-0.921875,-0.126953125,-0.025390625,-0.166015625,-0.55859375,-9.90234375,1.21875
4108914,,,,,,,,-0.81640625,0.16015625,-0.8984375,-0.24609375,-0.001953125,-0.1640625,-0.94140625,-9.2421875,1.21875
4108915,,,,,,,,-1.25390625,0.4296875,-0.62890625,-0.353515625,0.015625,-0.158203125,-1.36328125,-8.98046875,1.44921875
4108916,,,,,,,,-1.80078125,-0.13671875,-0.78125,-0.447265625,0.048828125,-0.146484375,-1.90234375,-9.546875,1.2578125
4108917,,,,,,,,-1.6171875,-0.8203125,-0.359375,-0.466796875,0.087890625,-0.138671875,-1.7109375,-10.2421875,1.640625
4108918,,,,,,,,-1.0859375,-0.6953125,0.35546875,-0.455078125,0.107421875,-0.13671875,-1.171875,-10.125,2.33203125
4108919,,,,,,,,-0.59765625,-0.53515625,0.859375,-0.484375,0.111328125,-0.13671875,-0.67578125,-9.96875,2.7890625
4108920,36.012564,129.31920399999998,54.4502279236799,18.19748280626883,1.2000000000000002,324.0,,0.0,-1.4765625,0.51171875,-0.578125,0.00390625,-0.1171875,-0.0625,-10.93359375,2.37109375
4108921,,,,,,,,1.02734375,-3.578125,0.88671875,-0.748046875,-0.10546875,-0.091796875,0.97265625,-13.04296875,2.67578125
4108922,,,,,,,,2.20703125,-4.3671875,2.11328125,-0.8984375,-0.291015625,-0.04296875,3.0390625,-13.87890625,4.32421875
4108923,,,,,,,,3.30859375,-4.3515625,2.62109375,-0.76171875,-0.32421875,-0.01171875,3.23046875,-13.609375,3.94140625
4108924,,,,,,,,2.99609375,-3.921875,2.34765625,-0.716796875,-0.29296875,0.017578125,2.62109375,-13.07421875,3.82421875
4108925,,,,,,,,2.3359375,-3.20703125,2.1875,-0.916015625,-0.287109375,0.04296875,1.8515625,-12.4609375,3.51953125
4108926,,,,,,,,1.8828125,-2.93359375,2.07421875,-0.978515625,-0.298828125,0.03515625,0.89453125,-12.234375,3.3671875
4108927,,,,,,,,0.26953125,-2.76171875,2.28125,-0.791015625,-0.302734375,-0.00390625,0.24609375,-12.3046875,3.59375
4108928,,,,,,,,0.0390625,-2.9453125,2.64453125,-0.390625,-0.2421875,-0.04296875,0.015625,-12.5,3.90234375
4108929,,,,,,,,0.03125,-2.78515625,2.20703125,-0.140625,-0.205078125,-0.09375,0.015625,-12.34765625,3.44140625
4108930,36.012564833333336,129.31920333333335,54.39012776611548,18.289948462912363,1.2000000000000002,326.0,,-0.0625,-2.43359375,1.6796875,0.04296875,-0.173828125,-0.12890625,-0.0625,-10.93359375,2.37109375
4108931,,,,,,,,-0.19140625,-1.66796875,1.203125,0.140625,-0.2109375,-0.138671875,-0.17578125,-11.234375,2.4453125
4108932,,,,,,,,-0.1015625,-0.90234375,1.09765625,0.2734375,-0.3203125,-0.087890625,-0.0625,-10.46875,2.37109375
4108933,,,,,,,,0.12890625,-0.44140625,1.01171875,0.337890625,-0.337890625,-0.046875,0.16796875,-10.01171875,2.29296875
4108934,,,,,,,,0.2734375,0.125,0.8515625,0.447265625,-0.328125,0.033203125,0.3203125,-9.44140625,2.1796875
4108935,,,,,,,,0.47265625,1.0078125,0.41796875,0.46484375,-0.240234375,0.123046875,0.51171875,-8.55859375,1.79296875
4108936,,,,,,,,0.6328125,1.46484375,-0.1640625,0.44140625,-0.158203125,0.1953125,0.6640625,-8.09765625,1.2578125
4108937,,,,,,,,0.7734375,2.37890625,-0.35546875,0.40625,-0.13671875,0.25390625,0.78125,-7.171875,1.10546875
4108938,,,,,,,,0.86328125,2.5703125,-0.44921875,0.3828125,-0.150390625,0.267578125,0.85546875,-6.98828125,1.02734375
4108939,,,,,,,,0.92578125,2.90625,-0.6796875,0.34375,-0.1875,0.283203125,0.89453125,-6.640625,0.8359375
4108940,36.01256566666667,129.3192025,54.315002704786394,18.38241402531619,1.2000000000000002,326.0,,0.828125,3.17578125,-0.90234375,0.314453125,-0.234375,0.296875,0.78125,-6.3671875,0.64453125
4108941,,,,,,,,0.8671875,3.28125,-0.90234375,0.255859375,-0.33984375,0.2890625,0.78125,-6.26171875,0.68359375
4108942,,,,,,,,0.94921875,3.28125,-0.91796875,0.2109375,-0.361328125,0.275390625,0.85546875,-6.2578125,0.68359375
4108943,,,,,,,,1.203125,3.2734375,-0.89453125,0.150390625,-0.396484375,0.27734375,1.0859375,-6.2578125,0.72265625
4108944,,,,,,,,1.6015625,3.16015625,-0.98828125,0.1328125,-0.36328125,0.283203125,1.46875,-6.3671875,0.64453125
4108945,,,,,,,,1.98046875,2.8125,-1.5078125,0.115234375,-0.236328125,0.296875,1.81640625,-6.71875,0.1484375
4108946,,,,,,,,1.99609375,2.69140625,-1.66796875,0.10546875,-0.193359375,0.30078125,1.81640625,-6.83203125,-0.00390625
4108947,,,,,,,,1.98828125,2.4609375,-1.71484375,0.1015625,-0.14453125,0.2890625,1.77734375,-7.06640625,-0.04296875
4108948,,,,,,,,2.00390625,2.03125,-1.41796875,0.109375,-0.125,0.26953125,1.77734375,-7.48828125,0.26171875
4108949,,,,,,,,2.01953125,1.96484375,-1.234375,0.109375,-0.109375,0.259765625,1.77734375,-7.55859375,0.453125
4108950,36.012566666666665,129.31920183333335,54.25490243549914,18.493372886848647,1.1,326.0,,0.828125,3.17578125,-0.90234375,0.314453125,-0.234375,0.296875,1.125,-7.828125,0.53125
4108951,,,,,,,,1.17578125,1.6015625,-1.171875,0.083984375,0.02734375,0.1953125,0.55078125,-8.1328125,0.60546875
4108952,,,,,,,,0.6953125,1.21875,-1.02734375,0.072265625,0.125,0.16015625,0.3203125,-8.4375,0.80078125
4108953,,,,,,,,0.59375,0.90625,-0.8046875,0.09765625,0.216796875,0.123046875,0.24609375,-8.90234375,0.9921875
4108954,,,,,,,,0.609375,0.484375,-0.66015625,0.16796875,0.298828125,0.087890625,0.28125,-9.203125,1.14453125
4108955,,,,,,,,0.734375,-0.05859375,-0.40625,0.228515625,0.34375,0.0703125,0.3984375,-9.55078125,1.3359375
4108956,,,,,,,,0.82421875,-0.25,-0.35546875,0.240234375,0.357421875,0.0625,0.47265625,-9.74609375,1.41015625
4108957,,,,,,,,1.0234375,-0.4140625,-0.4453125,0.259765625,0.365234375,0.064453125,0.6640625,-9.8984375,1.3359375
4108958,,,,,,,,1.078125,-0.375,-0.5078125,0.283203125,0.349609375,0.0625,0.703125,-9.86328125,1.296875
4108959,,,,,,,,1.046875,-0.23828125,-0.68359375,0.296875,0.3046875,0.0625,0.6640625,-9.703125,1.14453125
4108960,36.01256733333333,129.31920083333335,54.164752598088896,18.567345153272196,1.1,322.0,,0.87109375,-0.08984375,-0.6171875,0.34375,0.2578125,0.0703125,1.125,-7.828125,0.53125
4108961,,,,,,,,0.8125,-0.21484375,-0.6484375,0.400390625,0.1953125,0.072265625,0.3984375,-9.6640625,1.2578125
4108962,,,,,,,,0.7265625,-0.3359375,-0.6640625,0.423828125,0.16796875,0.064453125,0.3203125,-9.78515625,1.2578125
4108963,,,,,,,,0.58984375,-0.66015625,-0.80078125,0.451171875,0.1328125,0.068359375,0.16796875,-10.08984375,1.18359375
4108964,,,,,,,,0.55859375,-0.7421875,-0.86328125,0.439453125,0.125,0.072265625,0.12890625,-10.16796875,1.14453125
4108965,,,,,,,,0.56640625,-0.93359375,-0.94140625,0.390625,0.12890625,0.08984375,0.12890625,-10.3515625,1.10546875
4108966,,,,,,,,0.23046875,-1.21875,-1.0859375,0.302734375,0.1484375,0.10546875,-0.21484375,-10.625,0.9921875
4108967,,,,,,,,0.12109375,-1.2578125,-1.1484375,0.201171875,0.15234375,0.119140625,-0.33203125,-10.6640625,0.953125
4108968,,,,,,,,-0.3984375,-0.99609375,-0.8046875,0.087890625,0.1328125,0.126953125,-0.8671875,-10.39453125,1.296875
4108969,,,,,,,,-0.4296875,-0.8046875,-0.69140625,-0.025390625,0.09765625,0.134765625,-0.90625,-10.20703125,1.41015625
4108970,36.01256816666667,129.31919983333333,54.07460264633457,18.659810626691346,1.2000000000000002,315.0,,-0.22265625,-0.0390625,-0.4609375,0.34375,0.2578125,0.0703125,1.125,-7.828125,0.53125
4108971,,,,,,,,1.01953125,0.54296875,-0.3984375,-0.24609375,0.041015625,0.142578125,0.51171875,-8.859375,1.6796875
4108972,,,,,,,,1.6484375,-0.328125,-0.671875,-0.337890625,0.009765625,0.142578125,1.125,-9.7421875,1.375
4108973,,,,,,,,1.609375,-2.20703125,-1.21484375,-0.392578125,-0.0390625,0.130859375,1.0859375,-11.62109375,0.80078125
4108974,,,,,,,,0.9375,-2.23828125,-0.984375,-0.39453125,-0.099609375,0.11328125,0.3984375,-11.66015625,0.9921875
4108975,,,,,,,,0.0234375,-0.62109375,0.05078125,-0.400390625,-0.19921875,0.10546875,-0.5234375,-10.046875,1.98828125
4108976,,,,,,,,0.0234375,-0.19921875,0.45703125,-0.421875,-0.24609375,0.103515625,-0.5234375,-9.62890625,2.37109375
4108977,,,,,,,,0.1796875,-0.99609375,0.6953125,-0.509765625,-0.267578125,0.083984375,-0.3671875,-10.4296875,2.5625
4108978,,,,,,,,-0.08984375,-2.54296875,0.93359375,-0.8515625,-0.25390625,0.08203125,-0.63671875,-12.00390625,2.71484375
4108979,,,,,,,,-0.7734375,-4.6796875,1.40234375,-0.953125,-0.140625,0.029296875,-1.328125,-14.15234375,3.09765625
4108980,36.012569,129.31919866666667,53.969427802185706,18.752276007119537,1.3,314.0,,-1.859375,-4.5859375,2.3671875,0.34375,0.2578125,0.0703125,-2.3984375,-14.0703125,3.9765625
4108981,,,,,,,,-2.47265625,-2.96484375,2.82421875,-0.6875,0.12109375,-0.04296875,-3.01171875,-12.46484375,4.36328125
4108982,,,,,,,,-1.8984375,-1.68359375,3.12109375,-0.7734375,0.12109375,-0.00390625,-2.4375,-11.1953125,4.58984375
4108983,,,,,,,,-0.55859375,-1.19921875,3.24609375,-0.892578125,0.087890625,0.048828125,-1.09765625,-10.734375,4.58984375
4108984,,,,,,,,0.109375,-1.23046875,2.4453125,-0.625,0.25390625,0.078125,-0.4453125,-10.7734375,3.7109375
4108985,,,,,,,,0.9296875,-0.80078125,1.06640625,0.076171875,0.490234375,0.11328125,0.359375,-10.3515625,2.29296875
4108986,,,,,,,,0.9375,-0.6875,0.9453125,0.24609375,0.4921875,0.11328125,0.359375,-10.24609375,2.1796875
4108987,,,,,,,,0.53125,-0.38671875,0.68359375,0.416015625,0.365234375,0.091796875,-0.0625,-9.9296875,1.94921875
4108988,,,,,,,,0.04296875,-0.265625,0.8359375,0.439453125,0.150390625,0.0546875,-0.55859375,-9.82421875,2.140625
4108989,,,,,,,,-0.49609375,-0.08203125,1.21875,0.412109375,-0.015625,-0.00390625,-1.09765625,-9.625,2.5625
4108990,36.012569666666664,129.31919766666667,53.87927797234748,18.826248276552533,1.2000000000000002,312.0,,-0.76953125,0.140625,0.95703125,0.3359375,-0.09375,-0.099609375,-2.3984375,-14.0703125,3.9765625
4108991,,,,,,,,-0.75,1.0234375,0.50390625,0.28125,-0.03125,-0.18359375,-1.328125,-8.51953125,1.91015625
4108992,,,,,,,,-0.2734375,1.7109375,0.08984375,0.203125,0.07421875,-0.24609375,-0.828125,-7.83203125,1.52734375
4108993,,,,,,,,0.1796875,2.0546875,0.00390625,0.162109375,0.115234375,-0.2578125,-0.3671875,-7.484375,1.44921875
4108994,,,,,,,,0.3828125,2.28515625,-0.2421875,0.126953125,0.1171875,-0.2734375,-0.140625,-7.25390625,1.21875
4108995,,,,,,,,0.4765625,2.40234375,-0.44921875,0.16015625,0.087890625,-0.259765625,-0.0234375,-7.13671875,1.02734375
4108996,,,,,,,,0.24609375,2.59375,-0.65625,0.162109375,0.005859375,-0.234375,-0.21484375,-6.94921875,0.8359375
4108997,,,,,,,,-0.0390625,2.71484375,-0.70703125,0.162109375,-0.009765625,-0.2265625,-0.484375,-6.83203125,0.80078125
4108998,,,,,,,,-0.16796875,2.75390625,-0.71484375,0.154296875,-0.005859375,-0.22265625,-0.59765625,-6.7890625,0.80078125
4108999,,,,,,,,-0.60546875,2.71484375,-0.50390625,0.154296875,0.025390625,-0.212890625,-1.01953125,-6.83203125,1.02734375
4109000,36.0125705,129.31919666666667,53.78912802780494,18.918713752777954,1.2000000000000002,314.0,0.0,-0.9375,2.4765625,-0.6328125,0.3359375,-0.09375,-0.099609375,-1.328125,-7.0625,0.9140625
4109001,,,,,,,,-1.15234375,2.32421875,-0.75390625,0.0625,0.099609375,-0.208984375,-1.51953125,-7.21484375,0.80078125
4109002,,,,,,,,-1.3203125,2.171875,-0.80078125,0.017578125,0.1171875,-0.205078125,-1.671875,-7.37109375,0.76171875
4109003,,,,,,,,-1.49609375,1.7421875,-0.87109375,-0.03515625,0.080078125,-0.201171875,-1.82421875,-7.7890625,0.68359375
4109004,,,,,,,,-1.51171875,1.55078125,-0.71875,-0.02734375,0.037109375,-0.1875,-1.82421875,-7.9765625,0.8359375
4109005,,,,,,,,-1.34375,1.47265625,-0.75390625,-0.0234375,0.001953125,-0.166015625,-1.6328125,-8.05859375,0.80078125
4109006,,,,,,,,-1.2734375,1.51171875,-0.83203125,-0.009765625,-0.017578125,-0.146484375,-1.5546875,-8.01953125,0.72265625
4109007,,,,,,,,-0.9453125,1.43359375,-0.984375,0.01171875,-0.064453125,-0.08984375,-1.2109375,-8.09765625,0.5703125
4109008,,,,,,,,-0.80078125,1.2890625,-0.9921875,0.02734375,-0.0859375,-0.037109375,-1.05859375,-8.25390625,0.5703125
4109009,,,,,,,,-0.72265625,1.0078125,-0.87890625,0.05859375,-0.12109375,0.01953125,-0.98046875,-8.515625,0.68359375
4109010,36.012571,129.31919566666664,53.69897830998799,18.974192817281782,1.1,313.0,,-0.72265625,0.69921875,-0.92578125,0.10546875,-0.130859375,0.0625,-0.98046875,-8.82421875,0.64453125
4109011,,,,,,,,-0.75390625,0.46875,-0.90234375,0.140625,-0.15625,0.0859375,-1.01953125,-9.05859375,0.68359375
4109012,,,,,,,,-0.83203125,0.46875,-0.90234375,0.154296875,-0.16015625,0.09765625,-1.09765625,-9.0546875,0.68359375
4109013,,,,,,,,-0.81640625,0.46875,-0.83984375,0.158203125,-0.1875,0.1015625,-1.09765625,-9.05859375,0.76171875
4109014,,,,,,,,-0.69140625,0.453125,-0.81640625,0.150390625,-0.2109375,0.103515625,-0.98046875,-9.0546875,0.80078125
4109015,,,,,,,,-0.609375,0.4140625,-0.83203125,0.146484375,-0.193359375,0.10546875,-0.90625,-9.09375,0.80078125
4109016,,,,,,,,-0.64453125,0.26171875,-0.87890625,0.150390625,-0.181640625,0.10546875,-0.94140625,-9.24609375,0.76171875
4109017,,,,,,,,-0.5625,-0.05078125,-0.89453125,0.162109375,-0.16796875,0.095703125,-0.8671875,-9.55078125,0.76171875
4109018,,,,,,,,-0.5078125,-0.2578125,-0.95703125,0.193359375,-0.146484375,0.083984375,-0.828125,-9.7421875,0.72265625
4109019,,,,,,,,-0.35546875,-0.375,-0.93359375,0.203125,-0.140625,0.08203125,-0.67578125,-9.859375,0.76171875
4109020,36.01257183333333,129.31919466666668,53.60882837131233,19.066658294860467,1.1,316.0,,-0.31640625,-0.56640625,-0.94921875,0.10546875,-0.130859375,0.0625,-0.63671875,-10.046875,0.76171875
4109021,,,,,,,,-0.30859375,-0.99609375,-1.01171875,0.11328125,-0.076171875,0.02734375,-0.63671875,-10.47265625,0.72265625
4109022,,,,,,,,-0.1953125,-1.1953125,-1.05078125,0.0703125,-0.078125,0.017578125,-0.5234375,-10.66796875,0.68359375
4109023,,,,,,,,0.11328125,-1.5390625,-1.01171875,-0.029296875,-0.068359375,-0.01953125,-0.1015625,-10.8125,0.8359375
4109024,,,,,,,,0.2265625,-1.1171875,-0.7734375,-0.09375,-0.03125,-0.046875,-0.25390625,-10.2421875,1.02734375
4109025,,,,,,,,-0.46875,-0.23046875,-0.60546875,-0.201171875,0.064453125,-0.080078125,-1.36328125,-9.58984375,1.21875
4109026,,,,,,,,-1.05078125,-0.11328125,-0.484375,-0.23828125,0.09765625,-0.08203125,-1.6328125,-9.70703125,1.18359375
4109027,,,,,,,,-1.671875,-1.1015625,-0.56640625,-0.2890625,0.1484375,-0.0859375,-2.09375,-11.01171875,1.18359375
4109028,,,,,,,,-1.75,-2.3671875,-0.296875,-0.294921875,0.21484375,-0.10546875,-2.0546875,-11.8515625,1.3359375
4109029,,,,,,,,-1.7109375,-2.671875,-0.28125,-0.275390625,0.244140625,-0.126953125,-2.015625,-12.16015625,1.3359375
4109030,36.01257283333334,129.31919383333334,53.53370321740488,19.177617070778084,1.1,318.0,,-1.44921875,-2.55078125,0.27734375,0.10546875,-0.130859375,0.0625,-0.63671875,-10.046875,0.76171875
4109031,,,,,,,,-0.6015625,-1.8515625,0.74609375,-0.421875,0.1171875,-0.26953125,-0.8671875,-11.35546875,2.29296875
4109032,,,,,,,,0.21875,-2.3046875,0.9140625,-0.62890625,-0.048828125,-0.29296875,-0.0234375,-11.8125,2.40625
4109033,,,,,,,,1.421875,-3.09375,2.01953125,-0.68359375,-0.203125,-0.267578125,1.203125,-12.62109375,3.44140625
4109034,,,,,,,,1.84765625,-3.62109375,2.609375,-0.56640625,-0.27734375,-0.205078125,1.66015625,-13.15234375,3.9765625
4109035,,,,,,,,1.06640625,-3.57421875,3.02734375,-0.40625,-0.419921875,-0.099609375,0.89453125,-13.109375,4.32421875
4109036,,,,,,,,0.40234375,-2.52734375,2.56640625,-0.46875,-0.490234375,-0.072265625,0.24609375,-12.078125,3.82421875
4109037,,,,,,,,0.19140625,-1.7890625,2.0,-0.4453125,-0.529296875,-0.0625,0.05078125,-11.35546875,3.2109375
4109038,,,,,,,,-0.12109375,-1.29296875,1.6875,-0.259765625,-0.484375,-0.05859375,-0.25390625,-10.85546875,2.8671875
4109039,36.012573833333335,129.31919299999998,53.458578061270735,19.28857584736856,1.2000000000000002,322.0,,-0.0390625,-0.82421875,1.28125,0.3515625,-0.505859375,-0.10546875,-0.140625,-10.39453125,2.484375
4109040,,,,,,,,0.29296875,-0.74609375,1.12890625,0.51953125,-0.630859375,-0.10546875,0.20703125,-10.31640625,2.37109375
4109041,,,,,,,,0.4765625,-0.71875,1.06640625,0.533203125,-0.681640625,-0.09375,0.3984375,-10.28125,2.33203125
4109042,,,,,,,,0.7265625,-0.49609375,0.97265625,0.498046875,-0.70703125,-0.037109375,0.6640625,-10.05078125,2.29296875
4109043,,,,,,,,0.8359375,-0.37890625,0.91796875,0.4765625,-0.69140625,0.00390625,0.78125,-9.93359375,2.25390625
4109044,,,,,,,,1.1015625,0.38671875,0.3515625,0.40234375,-0.5625,0.15625,1.046875,-9.16796875,1.7578125
4109045,,,,,,,,1.06640625,0.8359375,0.05859375,0.365234375,-0.501953125,0.212890625,1.01171875,-8.7109375,1.48828125
4109046,,,,,,,,1.01171875,1.4140625,-0.203125,0.255859375,-0.3828125,0.306640625,0.93359375,-8.13671875,1.2578125
4109047,,,,,,,,1.02734375,1.4140625,-0.21875,0.185546875,-0.2890625,0.357421875,0.93359375,-7.90625,1.2578125
4109048,,,,,,,,0.98046875,1.98828125,-0.34765625,0.16796875,-0.220703125,0.37109375,0.78125,-7.41015625,1.10546875
4109049,36.012574666666666,129.319192,53.368428126104845,19.381041326613953,1.2000000000000002,322.0,,-0.0390625,-0.82421875,1.28125,0.1640625,-0.20703125,0.35546875,-0.140625,-10.39453125,2.484375
4109050,,,,,,,,0.9140625,2.29296875,-0.41015625,0.162109375,-0.16796875,0.310546875,0.703125,-7.10546875,0.9921875
4109051,,,,,,,,0.9375,2.5546875,-0.6953125,0.162109375,-0.130859375,0.255859375,0.8203125,-6.9453125,0.9140625
4109052,,,,,,,,1.12109375,2.62890625,-0.6015625,0.12890625,-0.078125,0.1953125,1.01171875,-6.98828125,0.9921875
4109053,,,,,,,,1.328125,2.5546875,-0.54296875,0.11328125,-0.025390625,0.1796875,1.203125,-7.06640625,0.9921875
4109054,,,,,,,,1.66015625,2.39453125,-0.703125,0.09765625,0.048828125,0.17578125,1.39453125,-7.1328125,0.875
4109055,,,,,,,,1.828125,2.35546875,-0.90234375,0.0859375,0.11328125,0.18359375,1.546875,-7.171875,0.68359375
4109056,,,,,,,,1.95703125,2.23828125,-1.1484375,0.0859375,0.169921875,0.171875,1.66015625,-7.2890625,0.453125
4109057,,,,,,,,1.72265625,2.0,-1.46875,0.134765625,0.23046875,0.1484375,1.39453125,-7.5234375,0.1484375
4109058,,,,,,,,1.19921875,1.95703125,-1.5234375,0.15625,0.236328125,0.103515625,0.85546875,-7.5546875,0.109375
4109059,36.01257533333333,129.31919116666668,53.29330320498546,19.455013693267382,1.1,322.0,,0.86328125,1.83984375,-1.42578125,0.177734375,0.236328125,0.048828125,0.51171875,-7.67578125,0.22265625
4109060,,,,,,,,0.3359375,1.41015625,-0.98828125,0.208984375,0.27734375,-0.033203125,-0.0234375,-8.09375,0.68359375
4109061,,,,,,,,0.21875,1.3359375,-0.87890625,0.197265625,0.291015625,-0.064453125,-0.140625,-8.17578125,0.80078125
4109062,,,,,,,,0.14453125,0.796875,-0.63671875,0.203125,0.37109375,-0.10546875,-0.21484375,-8.7109375,1.06640625
4109063,,,,,,,,0.13671875,0.70703125,-0.64453125,0.208984375,0.46484375,-0.140625,-0.21484375,-8.78515625,1.06640625
4109064,,,,,,,,0.203125,0.3984375,-0.8203125,0.208984375,0.513671875,-0.142578125,-0.140625,-9.09375,0.9140625
4109065,,,,,,,,0.3125,0.23828125,-0.84375,0.20703125,0.533203125,-0.10546875,-0.0234375,-9.24609375,0.9140625
4109066,,,,,,,,0.3515625,0.125,-0.7734375,0.220703125,0.521484375,-0.09375,0.015625,-9.359375,0.9921875
4109067,,,,,,,,0.38671875,-0.03515625,-0.68359375,0.251953125,0.482421875,-0.056640625,0.05078125,-9.51171875,1.10546875
4109068,,,,,,,,0.3125,-0.11328125,-0.5859375,0.263671875,0.453125,-0.0390625,-0.0234375,-9.58984375,1.21875
4109069,36.01257616666667,129.31919000000002,53.188128378673824,19.54747908500507,1.2000000000000002,317.0,,0.3515625,-0.3125,-0.26171875,0.177734375,0.236328125,0.048828125,0.51171875,-7.67578125,0.22265625
4109070,,,,,,,,0.44140625,-0.55078125,-0.2109375,0.341796875,0.3671875,0.01953125,0.08984375,-10.0078125,1.640625
4109071,,,,,,,,0.56640625,-0.75,-0.2421875,0.349609375,0.353515625,0.048828125,0.20703125,-10.203125,1.640625
4109072,,,,,,,,0.6484375,-0.98828125,-0.42578125,0.359375,0.361328125,0.0625,0.28125,-10.43359375,1.48828125
4109073,,,,,,,,0.43359375,-0.91796875,-0.5703125,0.3671875,0.365234375,0.08203125,0.05078125,-10.3515625,1.375
4109074,,,,,,,,0.328125,-0.8515625,-0.765625,0.375,0.3515625,0.09765625,-0.0625,-10.28125,1.21875
4109075,,,,,,,,0.16015625,-1.1640625,-0.7109375,0.3671875,0.283203125,0.103515625,-0.25390625,-10.58984375,1.296875
4109076,,,,,,,,0.13671875,-1.40234375,-0.51171875,0.33203125,0.19921875,0.109375,-0.29296875,-10.8125,1.52734375
4109077,,,,,,,,0.0234375,-1.6015625,-0.26953125,0.28125,0.130859375,0.107421875,-0.40625,-11.01171875,1.79296875
4109078,,,,,,,,-0.3046875,-1.6875,-0.22265625,0.20703125,0.123046875,0.095703125,-0.75,-11.08984375,1.87109375
4109079,36.012577,129.319189,53.09797844695254,19.639944567432476,1.2000000000000002,315.0,,0.12890625,-2.26171875,0.0390625,0.177734375,0.236328125,0.048828125,-0.33203125,-11.65625,2.140625
4109080,,,,,,,,0.4453125,-3.109375,-0.12109375,0.017578125,0.119140625,0.107421875,-0.0234375,-12.5,1.98828125
4109081,,,,,,,,0.18359375,-3.953125,-0.26171875,-0.181640625,0.064453125,0.107421875,-0.29296875,-13.34765625,1.83203125
4109082,,,,,,,,-0.796875,-3.5234375,0.63671875,-0.234375,0.04296875,0.115234375,-1.2890625,-12.92578125,2.71484375
4109083,,,,,,,,-1.36328125,-3.32421875,1.34765625,-0.30078125,-0.0546875,0.130859375,-1.86328125,-12.73046875,3.40234375
4109084,,,,,,,,-2.609375,-1.79296875,2.375,-0.41796875,-0.158203125,0.142578125,-3.125,-11.1953125,4.3984375
4109085,,,,,,,,-2.6015625,-1.078125,2.31640625,-0.55078125,-0.208984375,0.154296875,-3.125,-10.51171875,4.28515625
4109086,,,,,,,,-1.75390625,0.61328125,1.98828125,-0.556640625,-0.1171875,0.1171875,-2.28515625,-8.82421875,3.90234375
4109087,,,,,,,,-0.703125,1.15625,1.61328125,-0.4296875,0.072265625,0.10546875,-1.25,-8.2890625,3.48046875
4109088,,,,,,,,0.76171875,0.97265625,1.375,-0.376953125,0.07421875,0.130859375,0.20703125,-8.48046875,3.2109375
4109089,36.012577666666665,129.31918783333333,52.99280373721506,19.713916754262996,1.2000000000000002,313.0,,1.2265625,0.0625,1.33203125,-0.263671875,-0.05078125,0.125,0.6640625,-9.3984375,3.13671875
4109090,,,,,,,,1.16796875,-0.6953125,1.421875,-0.0859375,-0.244140625,0.15234375,0.58984375,-10.1640625,3.2109375
4109091,,,,,,,,0.8671875,-1.5,1.4609375,0.017578125,-0.33984375,0.16796875,0.28125,-10.97265625,3.25
4109092,,,,,,,,0.5703125,-1.69140625,1.453125,-0.03515625,-0.333984375,0.146484375,-0.0234375,-11.16015625,3.25
4109093,,,,,,,,-0.07421875,-1.38671875,1.5390625,-0.126953125,-0.228515625,0.0859375,-0.67578125,-10.8515625,3.328125
4109094,,,,,,,,-0.7265625,-0.8125,1.5859375,-0.166015625,-0.09375,0.0390625,-1.328125,-10.28125,3.3671875
4109095,,,,,,,,-0.7265625,-0.6875,1.5546875,-0.169921875,-0.025390625,0.017578125,-1.328125,-10.1640625,3.328125
4109096,,,,,,,,-0.265625,-0.6875,1.1875,-0.13671875,0.0859375,-0.033203125,-0.8671875,-10.16796875,2.9453125
4109097,,,,,,,,0.1171875,-0.56640625,0.703125,-0.1171875,0.140625,-0.087890625,-0.484375,-10.046875,2.4453125
4109098,,,,,,,,0.140625,-0.375,0.60546875,-0.060546875,0.263671875,-0.15234375,-0.4453125,-9.859375,2.33203125
4109099,,,,,,,,0.140625,-0.375,0.60546875,-0.060546875,0.263671875,-0.15234375,-0.4453125,-9.859375,2.33203125
4109100,36.012578500000004,129.31918683333333,52.90265381129544,19.80638224031231,1.3,315.0,0.0,-0.06640625,0.1796875,0.56640625,0.048828125,0.302734375,-0.1953125,-0.63671875,-9.32421875,2.29296875
4109101,,,,,,,,-0.12109375,0.9765625,0.328125,0.12890625,0.234375,-0.208984375,-0.67578125,-8.51953125,2.0625
4109102,,,,,,,,-0.12890625,0.9765625,0.3203125,0.13671875,0.189453125,-0.2265625,-0.63671875,-8.36328125,1.94921875
4109103,,,,,,,,-0.10546875,1.359375,-0.0390625,0.142578125,0.21875,-0.244140625,-0.67578125,-7.828125,1.640625
4109104,,,,,,,,-0.17578125,1.86328125,-0.1796875,0.17578125,0.29296875,-0.255859375,-0.63671875,-7.44921875,1.52734375
4109105,,,,,,,,-0.265625,2.23828125,-0.33984375,0.18359375,0.2890625,-0.267578125,-0.75,-7.1015625,1.375
4109106,,,,,,,,-0.2734375,2.390625,-0.421875,0.19140625,0.2734375,-0.26953125,-0.7890625,-7.0234375,1.296875
4109107,,,,,,,,-0.375,2.73828125,-0.63671875,0.171875,0.25,-0.279296875,-0.94140625,-6.71875,1.10546875
4109108,,,,,,,,-0.51171875,2.8515625,-0.80078125,0.125,0.244140625,-0.28515625,-1.01953125,-6.5625,0.9921875
4109109,,,,,,,,-0.59765625,2.9296875,-0.84375,0.10546875,0.244140625,-0.28515625,-1.05859375,-6.5625,0.953125
4109110,36.01257916666667,129.31918583333334,52.81250400070456,19.880354519862482,1.1,313.0,,-0.06640625,0.1796875,0.56640625,0.048828125,0.302734375,-0.1953125,-1.36328125,-6.640625,0.72265625
4109111,,,,,,,,-1.1796875,2.65234375,-1.05859375,0.08984375,0.2265625,-0.2890625,-1.671875,-6.984375,0.80078125
4109112,,,,,,,,-1.44140625,2.3828125,-1.07421875,0.083984375,0.20703125,-0.28515625,-1.74609375,-7.171875,0.8359375
4109113,,,,,,,,-1.54296875,2.15625,-1.08203125,0.0546875,0.1953125,-0.27734375,-1.82421875,-7.40625,0.80078125
4109114,,,,,,,,-1.44140625,2.0,-1.16015625,0.025390625,0.201171875,-0.255859375,-1.78515625,-7.48828125,0.68359375
4109115,,,,,,,,-1.50390625,1.92578125,-1.19921875,0.0,0.216796875,-0.21484375,-1.74609375,-7.55859375,0.60546875
4109116,,,,,,,,-1.47265625,1.91796875,-1.27734375,-0.015625,0.23046875,-0.19140625,-1.74609375,-7.52734375,0.64453125
4109117,,,,,,,,-1.453125,2.0,-1.3515625,-0.037109375,0.203125,-0.13671875,-1.7109375,-7.48828125,0.453125
4109118,,,,,,,,-1.46875,2.078125,-1.421875,-0.01171875,0.1875,-0.1015625,-1.671875,-7.484375,0.453125
4109119,,,,,,,,-1.390625,2.0,-1.53515625,0.0078125,0.146484375,-0.072265625,-1.59375,-7.59375,0.33984375
4109120,36.012579833333334,129.3191848333333,52.7223541876571,19.954326800618414,1.1,313.0,,-0.06640625,0.1796875,0.56640625,0.0234375,0.115234375,-0.033203125,-1.36328125,-6.640625,0.72265625
4109121,,,,,,,,-1.09375,1.1875,-1.49609375,0.07421875,0.087890625,-0.01953125,-1.13671875,-8.86328125,0.37890625
4109122,,,,,,,,-0.82421875,0.375,-1.390625,0.107421875,0.04296875,0.0,-0.8671875,-9.5859375,0.72265625
4109123,,,,,,,,-0.6640625,-0.24609375,-1.015625,0.107421875,-0.00390625,0.0078125,-0.8671875,-9.86328125,0.9921875
4109124,,,,,,,,-0.625,-0.47265625,-0.75390625,0.095703125,-0.03125,0.0078125,-0.828125,-9.97265625,1.21875
4109125,,,,,,,,-0.5859375,-0.51171875,-0.76953125,0.087890625,-0.041015625,0.00390625,-0.75,-9.90234375,1.18359375
4109126,,,,,,,,-0.42578125,-0.25390625,-0.80859375,0.05859375,-0.05078125,0.001953125,-0.67578125,-9.703125,1.10546875
4109127,,,,,,,,-0.6171875,-0.13671875,-0.96875,0.044921875,-0.05078125,-0.005859375,-0.8671875,-9.58984375,0.953125
4109128,,,,,,,,-1.078125,-0.2890625,-0.89453125,0.052734375,-0.037109375,-0.017578125,-1.328125,-9.74609375,1.02734375
4109129,,,,,,,,-1.50390625,-0.59765625,-0.90234375,0.11328125,-0.025390625,-0.03125,-1.74609375,-10.046875,1.02734375
4109130,36.01258083333333,129.319184,52.64722905243779,20.065285584091292,1.1,317.0,,-1.3515625,-0.99609375,-0.92578125,0.189453125,-0.0390625,-0.05859375,-1.59375,-10.4296875,1.02734375
4109131,,,,,,,,-0.78515625,-1.1484375,-1.09375,0.208984375,-0.0234375,-0.083984375,-1.01953125,-10.58984375,0.875
4109132,,,,,,,,-0.41015625,-1.30859375,-1.140625,0.14453125,0.001953125,-0.1015625,-0.63671875,-10.73828125,0.8359375
4109133,,,,,,,,-0.2265625,-1.38671875,-1.18359375,0.09375,-0.00390625,-0.109375,-0.4453125,-10.8125,0.80078125
4109134,,,,,,,,-0.11328125,-1.1640625,-1.078125,-0.015625,-0.02734375,-0.123046875,-0.33203125,-10.5859375,0.9140625
4109135,,,,,,,,-0.2421875,-0.66015625,-1.109375,-0.119140625,-0.05078125,-0.142578125,-0.4453125,-10.0859375,0.875
4109136,,,,,,,,-0.640625,0.109375,-1.0546875,-0.2109375,-0.04296875,-0.154296875,-0.828125,-9.3203125,0.9140625
4109137,,,,,,,,-1.078125,-0.0390625,-0.953125,-0.302734375,0.001953125,-0.16796875,-1.25,-9.4765625,0.9921875
4109138,,,,,,,,-1.1640625,-0.49609375,-1.046875,-0.330078125,0.029296875,-0.171875,-1.328125,-9.9296875,0.875
4109139,,,,,,,,-1.24609375,-1.875,-0.77734375,-0.392578125,0.064453125,-0.173828125,-1.40234375,-11.3125,1.10546875
4109140,36.012581833333336,129.319183,52.55707902590805,20.176244278697393,1.2000000000000002,320.0,,-0.91796875,-1.66796875,0.65625,0.189453125,-0.0390625,-0.05859375,-1.59375,-10.4296875,1.02734375
4109141,,,,,,,,-0.25,-0.8203125,0.90234375,-0.4921875,0.046875,-0.193359375,-0.3671875,-10.28125,2.67578125
4109142,,,,,,,,0.34765625,-1.15625,0.48828125,-0.572265625,0.00390625,-0.185546875,0.24609375,-10.62890625,2.21484375
4109143,,,,,,,,1.05859375,-1.984375,0.63671875,-0.7734375,-0.0546875,-0.162109375,0.97265625,-11.47265625,2.29296875
4109144,,,,,,,,2.16015625,-3.078125,1.6640625,-0.900390625,-0.130859375,-0.146484375,2.08203125,-12.578125,3.25
4109145,,,,,,,,2.4140625,-3.98046875,2.4765625,-0.751953125,-0.18359375,-0.130859375,2.3515625,-13.49609375,3.9765625
4109146,,,,,,,,2.328125,-4.2421875,2.5859375,-0.626953125,-0.19921875,-0.123046875,2.2734375,-13.76953125,4.0546875
4109147,,,,,,,,0.734375,-4.234375,3.0546875,-0.568359375,-0.236328125,-0.11328125,0.703125,-13.76953125,4.4375
4109148,,,,,,,,0.19140625,-3.8046875,2.91796875,-0.685546875,-0.240234375,-0.111328125,0.16796875,-13.34765625,4.24609375
4109149,,,,,,,,-0.015625,-2.91796875,2.4921875,-0.615234375,-0.25390625,-0.123046875,-0.0234375,-12.46484375,3.75
4109150,36.01258283333333,129.31918216666665,52.48195389016718,20.287203063369304,1.3,323.0,,-0.03125,-1.94140625,2.22265625,0.189453125,-0.0390625,-0.05859375,-0.0234375,-11.5,3.44140625
4109151,,,,,,,,-0.27734375,-1.3984375,1.94921875,-0.18359375,-0.251953125,-0.12890625,-0.25390625,-10.96875,3.13671875
4109152,,,,,,,,-0.36328125,-1.0234375,1.6484375,0.046875,-0.28125,-0.095703125,-0.33203125,-10.58984375,2.828125
4109153,,,,,,,,-0.140625,-0.6796875,1.2578125,0.15234375,-0.3203125,-0.08203125,-0.1015625,-10.2421875,2.4453125
4109154,,,,,,,,-0.0390625,-0.5546875,1.04296875,0.369140625,-0.41796875,0.001953125,0.24609375,-9.9296875,1.98828125
4109155,,,,,,,,0.3125,-0.25,0.62890625,0.43359375,-0.375,0.08203125,0.4375,-9.58984375,1.79296875
4109156,,,,,,,,0.390625,0.1640625,0.50390625,0.427734375,-0.314453125,0.173828125,0.20703125,-8.9375,1.52734375
4109157,,,,,,,,0.09765625,0.81640625,0.19921875,0.34375,-0.306640625,0.251953125,0.015625,-8.48046875,1.41015625
4109158,,,,,,,,0.0,1.08203125,0.05078125,0.26171875,-0.333984375,0.314453125,-0.0234375,-8.25,1.2578125
4109159,,,,,,,,-0.0546875,1.765625,-0.32421875,0.197265625,-0.341796875,0.357421875,-0.1015625,-7.44921875,0.8359375
4109160,36.012583666666664,129.31918133333332,52.40682886929531,20.379668642984534,1.2000000000000002,324.0,,-0.03125,-1.94140625,2.22265625,0.15234375,-0.318359375,0.3828125,0.015625,-7.0234375,0.64453125
4109161,,,,,,,,0.14453125,2.80078125,-0.8671875,0.15625,-0.28125,0.38671875,0.05078125,-6.75390625,0.5703125
4109162,,,,,,,,0.21484375,3.01953125,-0.921875,0.1640625,-0.28125,0.384765625,0.08984375,-6.52734375,0.53125
4109163,,,,,,,,0.4375,2.984375,-0.86328125,0.1796875,-0.314453125,0.37890625,0.28125,-6.5625,0.60546875
4109164,,,,,,,,0.69921875,3.01171875,-0.72265625,0.177734375,-0.33984375,0.37890625,0.51171875,-6.5234375,0.76171875
4109165,,,,,,,,1.15234375,2.8984375,-0.77734375,0.173828125,-0.345703125,0.392578125,0.93359375,-6.64453125,0.72265625
4109166,,,,,,,,1.28125,2.8203125,-0.82421875,0.16015625,-0.328125,0.404296875,1.046875,-6.71875,0.68359375
4109167,,,,,,,,1.875,2.46875,-1.078125,0.150390625,-0.255859375,0.42578125,1.5859375,-7.06640625,0.453125
4109168,,,,,,,,2.21875,2.046875,-1.4375,0.12109375,-0.22265625,0.419921875,1.890625,-7.48828125,0.109375
4109169,,,,,,,,2.09765625,1.97265625,-1.55859375,0.1171875,-0.22265625,0.3984375,1.73828125,-7.55859375,-0.00390625
4109170,36.0125845,129.31918050000002,52.33170385442071,20.47213422393577,1.2000000000000002,323.0,,1.953125,1.88671875,-1.390625,0.15625,-0.263671875,0.33984375,1.546875,-7.6328125,0.1875
4109171,,,,,,,,1.83203125,1.83984375,-1.1796875,0.15234375,-0.267578125,0.2890625,1.39453125,-7.67578125,0.4140625
4109172,,,,,,,,1.578125,1.6875,-1.1953125,0.166015625,-0.216796875,0.232421875,1.125,-7.828125,0.4140625
4109173,,,,,,,,1.48046875,1.57421875,-1.203125,0.173828125,-0.173828125,0.205078125,1.01171875,-7.94140625,0.4140625
4109174,,,,,,,,1.10546875,0.90625,-1.0625,0.197265625,-0.05078125,0.142578125,0.62890625,-8.59765625,0.5703125
4109175,,,,,,,,0.84375,0.4765625,-0.97265625,0.2109375,0.041015625,0.076171875,0.359375,-9.015625,0.68359375
4109176,,,,,,,,0.5078125,0.0546875,-0.796875,0.23828125,0.1328125,0.02734375,0.015625,-9.44140625,0.875
4109177,,,,,,,,0.3515625,0.125,-0.58984375,0.271484375,0.208984375,-0.009765625,-0.140625,-9.359375,1.10546875
4109178,,,,,,,,0.28515625,0.1640625,-0.52734375,0.279296875,0.236328125,-0.015625,-0.21484375,-9.32421875,1.18359375
4109179,,,,,,,,0.16796875,0.0,-0.55078125,0.2734375,0.318359375,-0.01953125,-0.33203125,-9.48046875,1.18359375
4109180,36.01258533333333,129.3191795,52.24155394138754,20.56459971429511,1.2000000000000002,321.0,,0.1328125,-0.15234375,-0.453125,0.15625,-0.263671875,0.33984375,1.546875,-7.6328125,0.1875
4109181,,,,,,,,0.09375,-0.19921875,-0.515625,0.2734375,0.3984375,-0.037109375,-0.40625,-9.66796875,1.2578125
4109182,,,,,,,,0.1015625,-0.28125,-0.421875,0.298828125,0.3984375,-0.046875,-0.40625,-9.74609375,1.375
4109183,,,,,,,,0.21484375,-0.3671875,-0.4375,0.31640625,0.38671875,-0.044921875,-0.29296875,-9.82421875,1.375
4109184,,,,,,,,0.40625,-0.7109375,-0.4609375,0.337890625,0.341796875,-0.025390625,-0.1015625,-10.1640625,1.375
4109185,,,,,,,,0.5234375,-0.94921875,-0.68359375,0.31640625,0.296875,-0.0078125,0.015625,-10.39453125,1.18359375
4109186,,,,,,,,0.53125,-1.00390625,-0.72265625,0.298828125,0.220703125,0.0234375,0.015625,-10.43359375,1.18359375
4109187,,,,,,,,0.61328125,-1.01171875,-0.65625,0.291015625,0.18359375,0.0546875,0.08984375,-10.43359375,1.296875
4109188,,,,,,,,0.62109375,-0.97265625,-0.6328125,0.2734375,0.1796875,0.060546875,0.08984375,-10.390625,1.3359375
4109189,,,,,,,,0.36328125,-1.02734375,-0.609375,0.1953125,0.150390625,0.083984375,-0.17578125,-10.4296875,1.375
4109190,36.012586166666665,129.31917833333333,52.13637913910936,20.657065118777034,1.2000000000000002,317.0,,0.25390625,-0.91796875,-0.43359375,0.130859375,0.140625,0.078125,1.546875,-7.6328125,0.1875
4109191,,,,,,,,0.38671875,-1.6484375,-0.17578125,0.068359375,0.103515625,0.0703125,-0.17578125,-11.046875,1.83203125
4109192,,,,,,,,0.46875,-2.71875,-0.05859375,-0.001953125,0.044921875,0.05859375,-0.1015625,-12.1171875,1.94921875
4109193,,,,,,,,0.35546875,-3.87109375,0.0546875,-0.0703125,0.029296875,0.046875,-0.21484375,-13.265625,2.0625
4109194,,,,,,,,-0.44921875,-3.140625,0.53125,-0.150390625,0.02734375,0.037109375,-1.01953125,-12.54296875,2.5234375
4109195,,,,,,,,-1.1015625,-2.12890625,1.3125,-0.220703125,0.015625,0.0390625,-1.671875,-11.5390625,3.2890625
4109196,,,,,,,,-1.29296875,-1.82421875,1.6640625,-0.271484375,0.013671875,0.0546875,-1.86328125,-11.23828125,3.6328125
4109197,,,,,,,,-0.89453125,-1.43359375,1.51171875,-0.41796875,0.013671875,0.09765625,-1.48046875,-10.8515625,3.44140625
4109198,,,,,,,,-0.92578125,-1.04296875,1.40625,-0.513671875,-0.001953125,0.12890625,-1.51953125,-10.46875,3.2890625
4109199,,,,,,,,-0.91796875,-0.6875,1.796875,-0.451171875,0.125,0.08984375,-1.51953125,-10.125,3.6328125
4109200,36.012587,129.31917716666666,52.03120433961709,20.749530524018027,1.3,315.0,0.0,-0.6328125,-0.98828125,2.02734375,0.130859375,0.140625,0.078125,-1.25,-10.4296875,3.82421875
4109201,,,,,,,,-0.08984375,-2.0078125,2.13671875,-0.23046875,0.181640625,0.041015625,-0.71484375,-11.47265625,3.90234375
4109202,,,,,,,,0.140625,-2.3515625,2.13671875,-0.236328125,0.083984375,-0.0078125,-0.484375,-11.8125,3.86328125
4109203,,,,,,,,0.21875,-2.11328125,2.0,-0.134765625,0.1328125,-0.025390625,-0.40625,-11.58203125,3.7109375
4109204,,,,,,,,0.1484375,-1.1953125,1.671875,-0.08203125,0.150390625,-0.03125,-0.484375,-10.6640625,3.3671875
4109205,,,,,,,,-0.05078125,-0.45703125,1.44140625,-0.068359375,0.19140625,-0.04296875,-0.67578125,-9.9296875,3.13671875
4109206,,,,,,,,-0.2109375,-0.49609375,1.48828125,-0.0234375,0.244140625,-0.076171875,-0.828125,-9.96875,3.17578125
4109207,,,,,,,,-0.32421875,-0.91796875,1.5625,0.072265625,0.28515625,-0.107421875,-0.94140625,-10.390625,3.25
4109208,,,,,,,,-0.6484375,-0.60546875,1.2421875,0.185546875,0.318359375,-0.16015625,-1.25,-10.08984375,2.9453125
4109209,,,,,,,,-0.6875,-0.22265625,0.8359375,0.259765625,0.3125,-0.228515625,-1.2890625,-9.70703125,2.5625
4109210,36.012587833333335,129.31917616666667,51.941054434746064,20.841996017433765,1.2000000000000002,315.0,,-0.44140625,0.73046875,0.24609375,0.130859375,0.140625,0.078125,-1.01953125,-8.74609375,1.98828125
4109211,,,,,,,,-0.1953125,1.15234375,0.375,0.16796875,0.265625,-0.33984375,-0.75,-8.32421875,2.140625
4109212,,,,,,,,-0.03515625,1.65625,-0.171875,0.1328125,0.234375,-0.376953125,-0.55859375,-7.83203125,1.6015625
4109213,,,,,,,,0.0078125,2.078125,-0.37890625,0.185546875,0.21875,-0.36328125,-0.484375,-7.41015625,1.41015625
4109214,,,,,,,,0.19140625,2.453125,-0.5234375,0.275390625,0.220703125,-0.322265625,-0.25390625,-7.02734375,1.296875
4109215,,,,,,,,0.3203125,2.68359375,-0.70703125,0.26953125,0.267578125,-0.287109375,-0.1015625,-6.7890625,1.14453125
4109216,,,,,,,,0.4296875,2.875,-0.9453125,0.26171875,0.28515625,-0.275390625,0.015625,-6.60546875,0.9140625
4109217,,,,,,,,0.17578125,3.02734375,-1.20703125,0.25390625,0.298828125,-0.255859375,-0.21484375,-6.44921875,0.68359375
4109218,,,,,,,,-0.1484375,3.1328125,-1.19140625,0.205078125,0.294921875,-0.240234375,-0.5234375,-6.33984375,0.72265625
4109219,,,,,,,,-0.8125,2.94921875,-1.16796875,0.150390625,0.255859375,-0.248046875,-1.171875,-6.52734375,0.76171875
4109220,36.01258866666667,129.31917516666667,51.85090453394065,20.934461515330195,1.2000000000000002,317.0,,-1.296875,2.59765625,-1.0234375,0.130859375,0.140625,0.078125,-1.6328125,-6.87109375,0.9140625
4109221,,,,,,,,-1.58984375,2.40625,-0.91796875,0.05859375,0.17578125,-0.26953125,-1.90234375,-7.0625,1.02734375
4109222,,,,,,,,-1.52734375,2.1328125,-1.0,0.01953125,0.193359375,-0.255859375,-1.82421875,-7.328125,0.953125
4109223,,,,,,,,-1.46484375,2.09375,-1.0703125,0.001953125,0.19140625,-0.24609375,-1.74609375,-7.37109375,0.875
4109224,,,,,,,,-1.2890625,1.90234375,-1.22265625,-0.009765625,0.181640625,-0.220703125,-1.5546875,-7.5546875,0.72265625
4109225,,,,,,,,-1.23828125,1.51953125,-1.30078125,-0.041015625,0.134765625,-0.15625,-1.48046875,-7.9375,0.64453125
4109226,,,,,,,,-1.20703125,1.37109375,-1.14453125,-0.029296875,0.068359375,-0.130859375,-1.44140625,-8.09765625,0.80078125
4109227,,,,,,,,-1.21484375,1.2109375,-0.984375,0.017578125,0.017578125,-0.083984375,-1.44140625,-8.25390625,0.953125
4109228,,,,,,,,-1.18359375,1.2421875,-1.0703125,0.06640625,-0.00390625,-0.041015625,-1.40234375,-8.2109375,0.875
4109229,,,,,,,,-0.9921875,1.13671875,-1.23046875,0.09375,-0.01171875,-0.001953125,-1.2109375,-8.32421875,0.72265625
4109230,36.0125895,129.31917416666664,51.76075463087426,21.026927010263144,1.2000000000000002,317.0,,-0.83984375,0.78125,-1.125,0.130859375,0.140625,0.078125,-1.05859375,-8.67578125,0.8359375
4109231,,,,,,,,-0.80078125,0.28515625,-0.94140625,0.0859375,-0.052734375,0.05078125,-1.01953125,-9.16796875,1.02734375
4109232,,,,,,,,-0.91015625,0.0859375,-0.87109375,0.14453125,-0.091796875,0.064453125,-1.13671875,-9.36328125,1.10546875
4109233,,,,,,,,-1.0546875,0.0,-0.6953125,0.1953125,-0.125,0.0703125,-1.2890625,-9.44140625,1.296875
4109234,,,,,,,,-1.015625,0.0390625,-0.71875,0.189453125,-0.134765625,0.064453125,-1.25,-9.3984375,1.296875
4109235,,,,,,,,-1.0078125,0.0234375,-0.8125,0.166015625,-0.134765625,0.0625,-1.25,-9.40234375,1.21875
4109236,,,,,,,,-0.9296875,-0.0546875,-0.8125,0.15625,-0.134765625,0.05078125,-1.171875,-9.48046875,1.21875
4109237,,,,,,,,-0.81640625,-0.20703125,-0.828125,0.166015625,-0.12890625,0.041015625,-1.05859375,-9.62890625,1.21875
4109238,,,,,,,,-0.53125,-0.59765625,-0.7734375,0.189453125,-0.140625,0.037109375,-0.7890625,-10.0078125,1.296875
4109239,,,,,,,,-0.33984375,-0.875,-0.7890625,0.203125,-0.138671875,0.01953125,-0.59765625,-10.28515625,1.296875
4109240,36.012590333333335,129.31917333333334,51.68562962616538,21.11939259777007,1.1,318.0,,-0.265625,-1.03515625,-0.765625,0.177734375,-0.14453125,0.00390625,-1.05859375,-8.67578125,0.8359375
4109241,,,,,,,,-0.234375,-1.1484375,-0.8984375,0.12890625,-0.16015625,-0.005859375,-0.484375,-10.546875,1.21875
4109242,,,,,,,,-0.234375,-1.1875,-0.8671875,0.0625,-0.158203125,-0.0234375,-0.484375,-10.58984375,1.2578125
4109243,,,,,,,,-0.31640625,-1.03515625,-0.875,0.03125,-0.15625,-0.0390625,-0.55859375,-10.4296875,1.2578125
4109244,,,,,,,,-0.44140625,-0.69921875,-0.94140625,-0.029296875,-0.140625,-0.05859375,-0.67578125,-10.08984375,1.18359375
4109245,,,,,,,,-0.640625,0.0703125,-0.93359375,-0.056640625,-0.107421875,-0.072265625,-0.8671875,-9.3203125,1.18359375
4109246,,,,,,,,-0.953125,0.15234375,-0.8125,-0.115234375,-0.013671875,-0.091796875,-1.171875,-9.24609375,1.296875
4109247,,,,,,,,-1.1171875,-1.5703125,-0.56640625,-0.171875,0.044921875,-0.08203125,-1.328125,-10.97265625,1.52734375
4109248,,,,,,,,-1.0,-2.18359375,-0.328125,-0.19140625,0.0625,-0.080078125,-1.2109375,-11.578125,1.7578125
4109249,,,,,,,,-0.234375,-3.171875,0.92578125,-0.240234375,0.083984375,-0.068359375,-0.4453125,-12.58203125,2.98046875
4109250,36.01259133333333,129.31917233333334,51.59547961976815,21.23035130086878,1.3,322.0,,0.37109375,-3.05078125,1.44921875,0.177734375,-0.14453125,0.00390625,-1.05859375,-8.67578125,0.8359375
4109251,,,,,,,,0.8671875,-3.203125,1.3359375,-0.4296875,0.095703125,-0.052734375,0.6640625,-12.6171875,3.328125
4109252,,,,,,,,1.3671875,-2.66015625,1.91796875,-0.626953125,0.0625,-0.025390625,1.1640625,-12.078125,3.86328125
4109253,,,,,,,,1.671875,-1.5625,2.44140625,-0.796875,-0.025390625,0.005859375,1.46875,-11.0078125,4.32421875
4109254,,,,,,,,1.51953125,-1.43359375,2.36328125,-0.724609375,-0.048828125,0.013671875,1.31640625,-10.89453125,4.16796875
4109255,,,,,,,,0.984375,-1.9609375,2.3046875,-0.521484375,0.037109375,0.009765625,0.78125,-11.43359375,4.0546875
4109256,,,,,,,,0.37890625,-2.7109375,2.51171875,-0.4453125,0.06640625,0.001953125,0.16796875,-12.1953125,4.20703125
4109257,,,,,,,,-0.43359375,-3.515625,2.890625,-0.330078125,0.037109375,-0.025390625,-0.63671875,-13.00390625,4.5546875
4109258,,,,,,,,-0.546875,-2.89453125,2.52734375,-0.115234375,0.041015625,-0.064453125,-0.75,-12.38671875,4.16796875
4109259,,,,,,,,-0.39453125,-2.16796875,2.0,-0.029296875,-0.01171875,-0.083984375,-0.59765625,-11.65625,3.6328125
4109260,36.01259233333334,129.31917149999998,51.520354507861775,21.341310094796178,1.3,324.0,,-0.1796875,-1.31640625,1.6875,-0.03125,-0.171875,-0.0546875,-0.3671875,-10.8125,3.328125
4109261,,,,,,,,0.00390625,-1.0859375,1.45703125,0.05078125,-0.2578125,-0.013671875,-0.17578125,-10.58984375,3.09765625
4109262,,,,,,,,0.00390625,-1.0078125,1.3046875,0.1015625,-0.318359375,0.005859375,-0.17578125,-10.51171875,2.9453125
4109263,,,,,,,,0.078125,-0.3984375,0.8125,0.291015625,-0.44921875,0.072265625,-0.1015625,-9.90234375,2.484375
4109264,,,,,,,,0.125,0.36328125,0.4140625,0.388671875,-0.390625,0.15234375,-0.0625,-9.12890625,2.140625
4109265,,,,,,,,0.28515625,0.96875,0.11328125,0.32421875,-0.369140625,0.20703125,0.08984375,-8.51953125,1.87109375
4109266,,,,,,,,0.33203125,1.16015625,0.01953125,0.26953125,-0.375,0.228515625,0.12890625,-8.3203125,1.79296875
4109267,,,,,,,,0.42578125,1.51171875,-0.23046875,0.181640625,-0.41015625,0.255859375,0.20703125,-7.9765625,1.56640625
4109268,,,,,,,,0.48828125,2.0390625,-0.4765625,0.130859375,-0.419921875,0.259765625,0.24609375,-7.4453125,1.3359375
4109269,,,,,,,,0.53125,2.1171875,-0.484375,0.1015625,-0.4375,0.263671875,0.28125,-7.3671875,1.3359375
4109270,36.01259316666667,129.31917083333335,51.460254399839556,21.433775770453877,1.2000000000000002,324.0,,0.546875,2.4609375,-0.41796875,-0.03125,-0.171875,-0.0546875,0.28125,-7.0234375,1.41015625
4109271,,,,,,,,0.6015625,2.95703125,-0.6171875,0.013671875,-0.486328125,0.267578125,0.3203125,-6.52734375,1.21875
4109272,,,,,,,,0.7421875,3.11328125,-0.81640625,-0.02734375,-0.447265625,0.275390625,0.4375,-6.37109375,1.02734375
4109273,,,,,,,,1.0703125,3.1796875,-1.11328125,-0.068359375,-0.400390625,0.271484375,0.7421875,-6.30078125,0.72265625
4109274,,,,,,,,1.4296875,2.94921875,-1.34375,-0.0546875,-0.388671875,0.279296875,1.0859375,-6.5234375,0.4921875
4109275,,,,,,,,1.72265625,2.69140625,-1.421875,0.00390625,-0.357421875,0.29296875,1.35546875,-6.79296875,0.4140625
4109276,,,,,,,,1.80859375,2.64453125,-1.421875,0.041015625,-0.345703125,0.302734375,1.43359375,-6.828125,0.4140625
4109277,,,,,,,,1.9453125,2.453125,-1.4296875,0.0859375,-0.322265625,0.30078125,1.546875,-7.02734375,0.4140625
4109278,,,,,,,,1.85546875,2.26171875,-1.47265625,0.072265625,-0.298828125,0.291015625,1.43359375,-7.21484375,0.37890625
4109279,,,,,,,,1.76171875,2.17578125,-1.4453125,0.041015625,-0.259765625,0.283203125,1.31640625,-7.29296875,0.4140625
4109280,36.012594,129.31916983333335,51.370104510606595,21.526241271329056,1.3,324.0,,1.625,2.0625,-1.55859375,-0.03125,-0.171875,-0.0546875,0.28125,-7.0234375,1.41015625
4109281,,,,,,,,1.48828125,2.0234375,-1.4140625,0.01171875,-0.1484375,0.20703125,1.01171875,-7.4453125,0.453125
4109282,,,,,,,,1.34765625,1.90234375,-1.375,0.017578125,-0.08203125,0.15625,0.85546875,-7.5546875,0.4921875
4109283,,,,,,,,1.1953125,1.5625,-1.296875,0.021484375,-0.048828125,0.1328125,0.703125,-7.91015625,0.5703125
4109284,,,,,,,,1.09765625,0.828125,-1.10546875,0.060546875,0.04296875,0.072265625,0.58984375,-8.63671875,0.76171875
4109285,,,,,,,,1.02734375,0.015625,-0.85546875,0.080078125,0.115234375,0.03125,0.51171875,-9.4375,1.02734375
4109286,,,,,,,,0.99609375,-0.40625,-0.6328125,0.09375,0.18359375,0.005859375,0.47265625,-9.86328125,1.2578125
