time,latitude,longitude,enu_x,enu_y,speed,course,ecg,accX,accY,accZ,gyrX,gyrY,gyrZ,eulR,eulP,eulY,validity
4829210,36.013399166666666,129.319542,84.91982389570124,110.86718422612401,1.1,233.0,,-0.48828125,-1.1640625,-0.609375,-0.19140625,-0.173828125,-0.216796875,1.04296875,-10.36328125,1.3671875,1.0
4829211,,,,,,,,-0.35546875,-1.1640625,-0.625,-0.244140625,-0.177734375,-0.22265625,1.19921875,-10.359375,1.328125,1.0
4829212,,,,,,,,-0.11328125,-0.93359375,-0.71875,-0.298828125,-0.166015625,-0.220703125,1.46484375,-10.12890625,1.2109375,1.0
4829213,,,,,,,,-0.2890625,-0.7421875,-0.76171875,-0.337890625,-0.111328125,-0.212890625,1.3125,-9.94140625,1.13671875,1.0
4829214,,,,,,,,-0.57421875,-0.51171875,-0.578125,-0.38671875,-0.0625,-0.212890625,1.04296875,-9.70703125,1.2890625,1.0
4829215,,,,,,,,-1.1328125,-1.1171875,-0.32421875,-0.404296875,-0.08984375,-0.22265625,0.5078125,-10.32421875,1.48046875,1.0
4829216,,,,,,,,-1.234375,-2.19140625,-0.5078125,-0.50390625,-0.205078125,-0.2421875,0.4296875,-11.39453125,1.25,1.0
4829217,,,,,,,,-0.8828125,-2.14453125,-0.375,-0.634765625,-0.353515625,-0.21484375,0.8125,-11.35546875,1.328125,1.0
4829218,,,,,,,,-0.29296875,-1.5625,0.15234375,-0.6328125,-0.443359375,-0.1953125,1.42578125,-10.78125,1.78515625,1.0
4829219,,,,,,,,0.56640625,-2.0234375,0.3984375,-0.546875,-0.490234375,-0.158203125,2.30859375,-11.2421875,1.9765625,1.0
4829220,36.01339883333333,129.31954083333332,84.81465107859762,110.83019679401247,1.1,239.0,,1.546875,-3.80859375,0.5078125,-0.19140625,-0.173828125,-0.216796875,1.04296875,-10.36328125,1.3671875,1.0
4829221,,,,,,,,2.91015625,-3.9140625,1.09375,-0.921875,-0.546875,-0.1015625,4.68359375,-13.16015625,2.515625,1.0
4829222,,,,,,,,3.62890625,-3.37109375,1.453125,-0.908203125,-0.515625,-0.103515625,5.41015625,-12.6171875,2.8203125,1.0
4829223,,,,,,,,4.2578125,-1.25390625,1.70703125,-0.509765625,-0.283203125,-0.1328125,6.0625,-10.51171875,3.01171875,1.0
4829224,,,,,,,,3.9140625,-0.91015625,1.6640625,-0.27734375,-0.09765625,-0.16015625,5.71875,-10.16796875,2.9375,1.0
4829225,,,,,,,,1.55859375,-1.29296875,2.015625,-0.0234375,0.20703125,-0.1953125,3.37890625,-10.546875,3.28125,1.0
4829226,,,,,,,,-0.1953125,-3.1328125,2.95703125,0.048828125,0.162109375,-0.220703125,1.65625,-12.390625,4.23828125,1.0
4829227,,,,,,,,-0.27734375,-3.25390625,2.91796875,0.107421875,0.072265625,-0.21484375,1.58203125,-12.5,4.19921875,1.0
4829228,,,,,,,,-0.07421875,-2.57421875,2.19140625,0.373046875,-0.123046875,-0.13671875,1.80859375,-11.8125,3.51171875,1.0
4829229,,,,,,,,0.03515625,-2.15234375,1.90625,0.451171875,-0.11328125,-0.099609375,1.92578125,-11.390625,3.2421875,1.0
4829230,36.01339816666667,129.3195395,84.6944538811264,110.7562228028076,1.2000000000000002,242.0,,0.03515625,-1.2421875,1.58984375,-0.19140625,-0.173828125,-0.216796875,1.92578125,-10.48046875,2.97265625,1.0
4829231,,,,,,,,-0.30078125,-0.0546875,1.3828125,0.5703125,0.1953125,0.13671875,1.58203125,-9.2890625,2.8203125,1.0
4829232,,,,,,,,-0.31640625,0.359375,0.83203125,0.486328125,0.240234375,0.23046875,1.54296875,-8.87109375,2.32421875,1.0
4829233,,,,,,,,0.09765625,0.12890625,0.67578125,0.310546875,0.138671875,0.27734375,1.92578125,-9.09765625,2.20703125,1.0
4829234,,,,,,,,0.6640625,-0.24609375,0.64453125,0.12890625,0.0,0.296875,2.4609375,-9.48046875,2.20703125,1.0
4829235,,,,,,,,0.62109375,-0.0078125,0.75390625,0.048828125,-0.021484375,0.27734375,2.38671875,-9.25390625,2.32421875,1.0
4829236,,,,,,,,0.14453125,0.84375,0.5546875,0.12890625,0.068359375,0.25,1.88671875,-8.40625,2.1328125,1.0
4829237,,,,,,,,-0.359375,1.83984375,0.03125,0.18359375,0.1328125,0.21875,1.3515625,-7.41015625,1.6328125,1.0
4829238,,,,,,,,-0.3828125,2.14453125,-0.13671875,0.171875,0.14453125,0.208984375,1.3125,-7.10546875,1.48046875,1.0
4829239,,,,,,,,-0.16015625,2.421875,-0.3515625,0.076171875,0.1328125,0.197265625,1.50390625,-6.8359375,1.2890625,1.0
4829240,36.01339766666667,129.3195385,84.60430598069681,110.70074230861493,1.1,243.0,,0.09375,2.66015625,-0.47265625,-0.19140625,-0.173828125,-0.216796875,1.734375,-6.60546875,1.17578125,1.0
4829241,,,,,,,,0.26171875,2.734375,-0.62890625,-0.01171875,0.138671875,0.173828125,1.88671875,-6.53125,1.01953125,1.0
4829242,,,,,,,,0.62109375,2.7734375,-0.703125,-0.029296875,0.171875,0.154296875,2.23046875,-6.49609375,0.9453125,1.0
4829243,,,,,,,,0.75390625,2.58984375,-0.78125,-0.060546875,0.189453125,0.130859375,2.34765625,-6.68359375,0.8671875,1.0
4829244,,,,,,,,0.76953125,2.515625,-0.859375,-0.0703125,0.212890625,0.095703125,2.34765625,-6.7578125,0.7890625,1.0
4829245,,,,,,,,0.74609375,2.3671875,-0.93359375,-0.0625,0.251953125,0.0625,2.30859375,-6.9140625,0.71484375,1.0
4829246,,,,,,,,0.70703125,2.33203125,-0.96484375,-0.060546875,0.265625,0.048828125,2.26953125,-6.94921875,0.67578125,1.0
4829247,,,,,,,,0.75390625,2.1328125,-0.93359375,-0.068359375,0.28125,0.013671875,2.30859375,-7.14453125,0.71484375,1.0
4829248,,,,,,,,0.79296875,1.7109375,-0.97265625,-0.072265625,0.29296875,-0.037109375,2.34765625,-7.5625,0.67578125,1.0
4829249,,,,,,,,0.83203125,1.48046875,-0.97265625,-0.05859375,0.32421875,-0.064453125,2.38671875,-7.79296875,0.67578125,1.0
4829250,36.013397166666664,129.31953733333333,84.49913334034453,110.64526167214075,1.1,243.0,,0.79296875,1.2109375,-0.78125,-0.025390625,0.365234375,-0.080078125,2.34765625,-8.06640625,0.8671875,1.0
4829251,,,,,,,,0.67578125,1.09765625,-0.66796875,0.02734375,0.435546875,-0.080078125,2.23046875,-8.171875,0.98046875,1.0
4829252,,,,,,,,0.484375,0.9453125,-0.64453125,0.1015625,0.498046875,-0.08203125,2.0390625,-8.33203125,1.01953125,1.0
4829253,,,,,,,,0.453125,0.8203125,-0.9140625,0.197265625,0.517578125,-0.0703125,2.0,-8.4453125,0.7890625,1.0
4829254,,,,,,,,0.5234375,0.73046875,-1.01171875,0.244140625,0.4921875,-0.072265625,2.078125,-8.51953125,0.71484375,1.0
4829255,,,,,,,,0.5234375,0.60546875,-1.28125,0.265625,0.470703125,-0.076171875,2.078125,-8.63671875,0.484375,1.0
4829256,,,,,,,,0.4453125,0.60546875,-1.296875,0.265625,0.46875,-0.072265625,2.0,-8.63671875,0.484375,1.0
4829257,,,,,,,,0.37890625,0.484375,-1.12890625,0.24609375,0.4765625,-0.07421875,1.92578125,-8.75390625,0.67578125,1.0
4829258,,,,,,,,0.26171875,0.4375,-1.0078125,0.244140625,0.48828125,-0.076171875,1.80859375,-8.79296875,0.828125,1.0
4829259,,,,,,,,-0.00390625,0.23828125,-0.73046875,0.24609375,0.5,-0.068359375,1.54296875,-8.98046875,1.13671875,1.0
4829260,36.0133965,129.31953633333333,84.40898561768185,110.57128797269692,1.1,239.0,,-0.1875,0.0390625,-0.5625,0.267578125,0.4921875,-0.052734375,1.3515625,-9.17578125,1.328125,1.0
4829261,,,,,,,,-0.33203125,-0.0078125,-0.6015625,0.271484375,0.4453125,-0.029296875,1.19921875,-9.21484375,1.328125,1.0
4829262,,,,,,,,-0.37890625,-0.015625,-0.6328125,0.27734375,0.390625,-0.015625,1.16015625,-9.2109375,1.328125,1.0
4829263,,,,,,,,-0.33203125,-0.09375,-0.7421875,0.23046875,0.33984375,0.01171875,1.19921875,-9.29296875,1.2890625,1.0
4829264,,,,,,,,-0.32421875,-0.25390625,-0.765625,0.154296875,0.302734375,0.02734375,1.19921875,-9.44140625,1.25,1.0
4829265,,,,,,,,-0.31640625,-0.453125,-0.78125,0.064453125,0.244140625,0.03515625,1.234375,-9.703125,1.2890625,1.0
4829266,,,,,,,,-0.234375,-0.68359375,-0.7109375,0.01953125,0.203125,0.0390625,1.2734375,-9.859375,1.328125,1.0
4829267,,,,,,,,-0.1484375,-0.8359375,-0.55859375,-0.060546875,0.107421875,0.02734375,1.42578125,-10.09765625,1.51953125,1.0
4829268,,,,,,,,0.04296875,-0.94921875,-0.48046875,-0.109375,0.041015625,0.00390625,1.54296875,-10.09765625,1.671875,1.0
4829269,,,,,,,,0.234375,-0.72265625,-0.20703125,-0.130859375,0.01171875,0.0,1.734375,-9.90234375,1.82421875,1.0
4829270,36.013395833333334,129.31953516666667,84.30381315250618,110.49731412981001,1.2000000000000002,237.0,,0.73046875,-0.25390625,-0.15234375,-0.17578125,0.0078125,0.0078125,1.3515625,-9.17578125,1.328125,1.0
4829271,,,,,,,,1.0859375,-0.1015625,-0.3125,-0.283203125,0.0234375,0.03515625,2.578125,-9.2890625,1.671875,1.0
4829272,,,,,,,,1.55078125,-0.4765625,-0.28125,-0.453125,0.06640625,0.068359375,3.03515625,-9.67578125,1.671875,1.0
4829273,,,,,,,,1.66796875,-0.859375,-0.296875,-0.54296875,0.09765625,0.0859375,3.15234375,-10.0546875,1.6328125,1.0
4829274,,,,,,,,1.68359375,-2.48828125,-0.65625,-0.7578125,0.123046875,0.119140625,3.15234375,-11.6953125,1.2109375,1.0
4829275,,,,,,,,1.60546875,-2.93359375,-0.62109375,-0.89453125,0.0859375,0.099609375,3.07421875,-12.15625,1.17578125,1.0
4829276,,,,,,,,1.19140625,-1.64453125,0.07421875,-0.841796875,0.162109375,0.00390625,2.65234375,-10.89453125,1.78515625,1.0
4829277,,,,,,,,0.76953125,-2.05859375,0.67578125,-0.73046875,0.453125,-0.060546875,2.23046875,-11.3125,2.32421875,1.0
4829278,,,,,,,,0.2734375,-3.8515625,0.63671875,-0.74609375,0.560546875,-0.03515625,1.734375,-13.12109375,2.24609375,1.0
4829279,,,,,,,,-0.40234375,-5.0546875,1.24609375,-1.017578125,0.40234375,0.01953125,1.04296875,-14.34375,2.74609375,1.0
4829280,36.01339516666667,129.319534,84.19864068477784,110.4233402891457,1.2000000000000002,237.0,,-0.9296875,-3.5078125,2.9296875,-0.17578125,0.0078125,0.0078125,1.3515625,-9.17578125,1.328125,1.0
4829281,,,,,,,,-0.73828125,-1.78515625,2.89453125,-0.18359375,0.669921875,-0.041015625,0.69921875,-11.08984375,4.27734375,1.0
4829282,,,,,,,,-0.39453125,-0.7421875,2.01171875,-0.001953125,0.720703125,-0.03515625,1.04296875,-10.0546875,3.39453125,1.0
4829283,,,,,,,,0.03515625,-1.31640625,1.73046875,0.0234375,0.806640625,0.01171875,1.46484375,-10.62890625,3.12890625,1.0
4829284,,,,,,,,0.91015625,-2.2734375,2.296875,-0.1875,0.89453125,0.041015625,2.30859375,-11.58984375,3.703125,1.0
4829285,,,,,,,,1.421875,-1.84375,1.98046875,0.029296875,1.083984375,-0.0234375,2.8046875,-11.1640625,3.39453125,1.0
4829286,,,,,,,,1.39453125,-1.546875,1.68359375,0.1640625,1.166015625,-0.0859375,2.76953125,-10.859375,3.12890625,1.0
4829287,,,,,,,,1.09375,-0.703125,1.0,0.248046875,1.23828125,-0.1796875,2.4609375,-10.015625,2.4765625,1.0
4829288,,,,,,,,0.12890625,-0.39453125,1.265625,0.224609375,1.326171875,-0.294921875,1.50390625,-9.703125,2.78125,1.0
4829289,,,,,,,,-0.26171875,-0.359375,1.43359375,0.19921875,1.357421875,-0.3359375,1.12109375,-9.67578125,2.97265625,1.0
4829290,36.0133945,129.31953299999998,84.10849295310888,110.34936659253228,1.2000000000000002,237.0,,-1.15234375,-0.48046875,1.75,-0.17578125,0.0078125,0.0078125,0.23828125,-9.78515625,3.3203125,1.0
4829291,,,,,,,,-1.55859375,-0.3359375,1.48828125,0.12890625,1.1328125,-0.404296875,-0.14453125,-9.6328125,3.08984375,1.0
4829292,,,,,,,,-1.7265625,0.19921875,0.73046875,0.125,0.984375,-0.38671875,-0.296875,-9.09765625,2.36328125,1.0
4829293,,,,,,,,-1.8203125,0.3828125,0.484375,0.126953125,0.94140625,-0.35546875,-0.375,-8.90625,2.1328125,1.0
4829294,,,,,,,,-1.91796875,0.953125,0.13671875,0.09375,0.962890625,-0.267578125,-0.44921875,-8.328125,1.82421875,1.0
4829295,,,,,,,,-1.62109375,1.3359375,-0.1171875,0.0546875,0.96484375,-0.216796875,-0.14453125,-7.9453125,1.59375,1.0
4829296,,,,,,,,-1.2734375,1.5625,-0.20703125,0.0,0.927734375,-0.189453125,0.203125,-7.71875,1.51953125,1.0
4829297,,,,,,,,-0.81640625,2.015625,-0.4609375,-0.015625,0.80859375,-0.203125,0.66015625,-7.2578125,1.2890625,1.0
4829298,,,,,,,,-0.671875,2.24609375,-0.57421875,-0.021484375,0.7890625,-0.212890625,0.8125,-7.02734375,1.17578125,1.0
4829299,,,,,,,,-0.6796875,2.24609375,-0.58984375,-0.013671875,0.767578125,-0.25390625,0.8125,-7.02734375,1.17578125,1.0
4829300,36.013394,129.319532,84.01834504737835,110.29388610507085,1.1,236.0,0.0,-0.9921875,2.24609375,-0.8359375,0.0,0.7734375,-0.2734375,0.23828125,-9.78515625,3.3203125,1.0
4829301,,,,,,,,-1.16015625,2.125,-0.84375,-0.001953125,0.75,-0.28125,0.35546875,-7.14453125,0.9453125,1.0
4829302,,,,,,,,-1.55078125,2.0078125,-0.77734375,0.005859375,0.720703125,-0.279296875,-0.02734375,-7.2578125,1.01953125,1.0
4829303,,,,,,,,-1.71484375,1.92578125,-0.78515625,0.01953125,0.712890625,-0.2734375,-0.18359375,-7.33203125,1.01953125,1.0
4829304,,,,,,,,-2.07421875,1.72265625,-0.8984375,0.083984375,0.654296875,-0.22265625,-0.52734375,-7.5234375,0.9453125,1.0
4829305,,,,,,,,-2.15625,1.6015625,-0.9140625,0.109375,0.630859375,-0.185546875,-0.6015625,-7.640625,0.9453125,1.0
4829306,,,,,,,,-2.08203125,1.48046875,-0.9375,0.11328125,0.58984375,-0.158203125,-0.52734375,-7.75,0.9453125,1.0
4829307,,,,,,,,-2.05078125,1.32421875,-0.87890625,0.09375,0.51171875,-0.119140625,-0.44921875,-7.984375,1.01953125,1.0
4829308,,,,,,,,-2.01171875,1.25,-0.88671875,0.09375,0.486328125,-0.10546875,-0.44921875,-7.9453125,1.09765625,1.0
4829309,,,,,,,,-1.8515625,1.125,-0.79296875,0.099609375,0.42578125,-0.0859375,-0.296875,-8.1328125,1.13671875,1.0
4829310,36.013393666666666,129.31953116666668,83.94322170328539,110.25689897060907,1.0,239.0,,-1.8125,1.00390625,-0.76953125,0.103515625,0.380859375,-0.0703125,-0.296875,-8.33203125,1.25,1.0
4829311,,,,,,,,-1.8125,0.8515625,-0.75,0.125,0.35546875,-0.056640625,-0.3359375,-8.44921875,1.2109375,1.0
4829312,,,,,,,,-1.8828125,0.7734375,-0.75,0.15234375,0.322265625,-0.044921875,-0.2578125,-8.51953125,1.17578125,1.0
4829313,,,,,,,,-1.7578125,0.7265625,-0.85546875,0.140625,0.28515625,-0.0390625,-0.14453125,-8.44921875,1.05859375,1.0
4829314,,,,,,,,-1.60546875,0.7578125,-0.94921875,0.134765625,0.25390625,-0.03125,-0.06640625,-8.4453125,1.05859375,1.0
4829315,,,,,,,,-1.4921875,0.91015625,-0.96484375,0.11328125,0.21875,-0.02734375,0.046875,-8.29296875,1.05859375,1.0
4829316,,,,,,,,-1.4140625,0.98828125,-0.98046875,0.078125,0.1875,-0.03125,0.125,-8.2109375,1.05859375,1.0
4829317,,,,,,,,-1.40625,0.98046875,-0.98828125,0.021484375,0.171875,-0.041015625,0.1640625,-8.2890625,1.05859375,1.0
4829318,,,,,,,,-1.28515625,0.7421875,-0.98046875,-0.044921875,0.142578125,-0.044921875,0.27734375,-8.59375,1.01953125,1.0
4829319,,,,,,,,-1.24609375,0.58984375,-1.01953125,-0.078125,0.123046875,-0.046875,0.4296875,-8.83203125,1.05859375,1.0
4829320,36.01339316666667,129.31952983333335,83.82302431400754,110.20141819857501,1.1,243.0,,-1.8125,1.00390625,-0.76953125,0.103515625,0.380859375,-0.0703125,0.66015625,-9.1328125,1.17578125,1.0
4829321,,,,,,,,-0.82421875,-0.0234375,-0.8203125,-0.21484375,0.095703125,-0.0625,0.77734375,-9.2890625,1.2109375,1.0
4829322,,,,,,,,-0.7109375,-0.16796875,-0.7578125,-0.25390625,0.1015625,-0.064453125,0.77734375,-9.4375,1.17578125,1.0
4829323,,,,,,,,-0.79296875,-0.27734375,-0.88671875,-0.302734375,0.115234375,-0.072265625,0.69921875,-9.515625,1.01953125,1.0
4829324,,,,,,,,-0.984375,-0.4296875,-1.0,-0.388671875,0.158203125,-0.060546875,0.546875,-9.67578125,0.9453125,1.0
4829325,,,,,,,,-0.9375,-0.54296875,-1.0390625,-0.470703125,0.17578125,-0.056640625,0.5078125,-9.78515625,0.8671875,1.0
4829326,,,,,,,,-1.0234375,-0.57421875,-1.015625,-0.505859375,0.1796875,-0.048828125,0.5859375,-9.8203125,0.8671875,1.0
4829327,,,,,,,,-0.83203125,-0.68359375,-0.9375,-0.583984375,0.19921875,-0.03515625,0.69921875,-9.8984375,0.90625,1.0
4829328,,,,,,,,-0.79296875,-0.7890625,-0.80859375,-0.642578125,0.220703125,-0.03515625,0.73828125,-10.015625,0.98046875,1.0
4829329,,,,,,,,-0.96875,-0.3515625,-0.52734375,-0.65234375,0.2421875,-0.037109375,0.546875,-9.59765625,1.17578125,1.0
4829330,36.01339299999999,129.31952866666668,83.7178513102403,110.18292398645657,1.1,249.0,,-1.3515625,-0.49609375,-0.359375,0.103515625,0.380859375,-0.0703125,0.1640625,-9.74609375,1.2890625,1.0
4829331,,,,,,,,-1.46875,-1.9375,-0.48046875,-0.673828125,0.201171875,-0.05859375,0.046875,-11.20703125,1.09765625,1.0
4829332,,,,,,,,-1.0390625,-3.078125,-0.2421875,-0.845703125,0.009765625,-0.048828125,0.46875,-12.35546875,1.25,1.0
4829333,,,,,,,,-0.203125,-3.9921875,0.5625,-0.8828125,-0.08203125,-0.04296875,1.3125,-13.27734375,2.015625,1.0
4829334,,,,,,,,1.3984375,-5.26953125,1.5078125,-0.9296875,-0.236328125,-0.046875,2.921875,-14.5703125,2.8203125,1.0
4829335,,,,,,,,3.50390625,-5.875,1.87109375,-0.9609375,-0.162109375,-0.052734375,5.02734375,-15.1875,3.08984375,1.0
4829336,,,,,,,,4.1875,-1.56640625,2.140625,-0.60546875,0.32421875,-0.1484375,5.71875,-10.89453125,3.2421875,1.0
4829337,,,,,,,,3.01953125,-0.45703125,1.90234375,-0.22265625,0.71484375,-0.259765625,4.56640625,-9.78125,2.97265625,1.0
4829338,,,,,,,,1.59765625,-0.2265625,1.67578125,-0.15234375,0.7578125,-0.28515625,3.15234375,-9.5546875,2.74609375,1.0
4829339,,,,,,,,0.26953125,-0.95703125,1.75,-0.134765625,0.6015625,-0.3125,1.84765625,-10.28515625,2.8203125,1.0
4829340,36.013392833333334,129.31952733333335,83.59765356642002,110.1644296350872,1.1,256.0,,-1.31640625,-2.41015625,2.41015625,0.103515625,0.380859375,-0.0703125,0.27734375,-11.734375,3.47265625,1.0
4829341,,,,,,,,-1.33984375,-2.91015625,2.546875,0.154296875,0.244140625,-0.203125,0.27734375,-12.23828125,3.625,1.0
4829342,,,,,,,,-0.43359375,-2.265625,1.98828125,0.27734375,0.271484375,-0.10546875,1.19921875,-11.5859375,3.08984375,1.0
4829343,,,,,,,,-0.05078125,-1.0390625,1.6796875,0.302734375,0.40625,0.00390625,1.58203125,-10.36328125,2.8203125,1.0
4829344,,,,,,,,-0.3125,-0.3515625,1.57421875,0.259765625,0.529296875,0.12109375,1.3125,-9.67578125,2.74609375,1.0
4829345,,,,,,,,-0.78125,0.1875,1.16015625,0.19140625,0.568359375,0.208984375,0.8125,-9.1328125,2.36328125,1.0
4829346,,,,,,,,-0.765625,0.1953125,0.98828125,0.138671875,0.533203125,0.228515625,0.8125,-9.1328125,2.20703125,1.0
4829347,,,,,,,,-0.42578125,0.00390625,0.7890625,0.0078125,0.388671875,0.228515625,1.12109375,-9.32421875,2.015625,1.0
4829348,,,,,,,,0.2265625,-0.40234375,0.8984375,-0.134765625,0.25,0.220703125,1.734375,-9.7421875,2.1328125,1.0
4829349,,,,,,,,-0.31640625,0.29296875,0.7578125,-0.087890625,0.33203125,0.19140625,1.16015625,-9.05859375,1.9765625,1.0
4829350,36.0133925,129.31952633333333,83.5075054756248,110.12744236125477,1.1,256.0,,-0.5234375,0.90625,0.30078125,-0.005859375,0.396484375,0.181640625,0.9296875,-8.4453125,1.51953125,1.0
4829351,,,,,,,,-0.53125,1.296875,-0.03125,0.0546875,0.431640625,0.19140625,0.890625,-8.0625,1.2109375,1.0
4829352,,,,,,,,-0.40234375,1.6484375,-0.26171875,0.044921875,0.43359375,0.18359375,1.00390625,-7.72265625,0.98046875,1.0
4829353,,,,,,,,-0.37890625,1.87890625,-0.3046875,0.01171875,0.443359375,0.17578125,1.00390625,-7.484375,0.9453125,1.0
4829354,,,,,,,,-0.24609375,2.0703125,-0.3984375,0.0,0.44921875,0.177734375,1.12109375,-7.30078125,0.8671875,1.0
4829355,,,,,,,,-0.17578125,2.26953125,-0.4375,-0.009765625,0.470703125,0.1640625,1.16015625,-7.1015625,0.828125,1.0
4829356,,,,,,,,-0.046875,2.42578125,-0.51171875,-0.02734375,0.48046875,0.14453125,1.2734375,-6.9453125,0.75390625,1.0
4829357,,,,,,,,0.0,2.4609375,-0.55859375,-0.02734375,0.5,0.138671875,1.3125,-6.91796875,0.71484375,1.0
4829358,,,,,,,,0.25390625,2.5078125,-0.55859375,-0.0234375,0.537109375,0.123046875,1.54296875,-6.87890625,0.71484375,1.0
4829359,,,,,,,,0.375,2.5078125,-0.484375,-0.01953125,0.55859375,0.109375,1.65625,-6.87890625,0.7890625,1.0
4829360,36.0133925,129.31952533333333,83.41735703431512,110.12744150466338,1.0,259.0,,0.7421875,2.2109375,-0.4609375,0.00390625,0.609375,0.06640625,2.0,-7.1796875,0.828125,1.0
4829361,,,,,,,,0.8828125,2.0859375,-0.58984375,0.025390625,0.619140625,0.03515625,2.1171875,-7.30078125,0.71484375,1.0
4829362,,,,,,,,0.890625,1.78125,-0.7890625,0.0390625,0.6328125,0.0,2.1171875,-7.60546875,0.5234375,1.0
4829363,,,,,,,,0.8984375,1.6640625,-0.921875,0.060546875,0.681640625,-0.046875,2.078125,-7.7890625,0.40625,1.0
4829364,,,,,,,,0.828125,1.51171875,-0.8984375,0.0703125,0.732421875,-0.068359375,1.96484375,-7.9453125,0.484375,1.0
4829365,,,,,,,,0.67578125,1.4375,-0.8359375,0.076171875,0.796875,-0.078125,1.7734375,-7.98828125,0.71484375,1.0
4829366,,,,,,,,0.4921875,1.2734375,-0.63671875,0.103515625,0.869140625,-0.083984375,1.65625,-8.25390625,0.828125,1.0
4829367,,,,,,,,0.38671875,1.08203125,-0.578125,0.142578125,0.87109375,-0.076171875,1.6171875,-8.51953125,0.75390625,1.0
4829368,,,,,,,,0.38671875,0.80859375,-0.70703125,0.166015625,0.85546875,-0.06640625,1.65625,-8.7890625,0.5625,1.0
4829369,,,,,,,,0.46875,0.4921875,-0.9296875,0.171875,0.84375,-0.04296875,1.65625,-8.98046875,0.5234375,1.0
4829370,36.01339233333333,129.319524,83.29715928948264,110.10894715543712,1.1,260.0,,0.4375,0.30078125,-0.953125,0.158203125,0.84375,-0.037109375,1.54296875,-9.1328125,0.484375,1.0
4829371,,,,,,,,0.37109375,0.21875,-1.0078125,0.16015625,0.857421875,-0.03125,1.46484375,-9.09765625,0.5625,1.0
4829372,,,,,,,,0.1171875,0.25390625,-0.76953125,0.158203125,0.9140625,-0.017578125,1.19921875,-9.171875,0.828125,1.0
4829373,,,,,,,,0.04296875,0.1796875,-0.7109375,0.171875,0.9296875,-0.013671875,1.08203125,-9.1328125,0.828125,1.0
4829374,,,,,,,,-0.2421875,0.24609375,-0.59765625,0.177734375,0.91796875,0.005859375,0.77734375,-9.17578125,1.01953125,1.0
4829375,,,,,,,,-0.37890625,0.1328125,-0.57421875,0.173828125,0.900390625,0.017578125,0.69921875,-9.25390625,1.05859375,1.0
4829376,,,,,,,,-0.41015625,0.0859375,-0.55078125,0.154296875,0.87109375,0.029296875,0.69921875,-9.25,1.13671875,1.0
4829377,,,,,,,,-0.43359375,0.1171875,-0.34375,0.138671875,0.8359375,0.048828125,0.66015625,-9.2109375,1.2890625,1.0
4829378,,,,,,,,-0.4921875,0.15625,-0.3671875,0.12890625,0.822265625,0.05078125,0.5859375,-9.17578125,1.2890625,1.0
4829379,,,,,,,,-0.53125,0.15625,-0.4765625,0.05859375,0.75390625,0.091796875,0.5078125,-9.17578125,1.2109375,1.0
4829380,36.01339216666667,129.31952266666667,83.17696154366888,110.09045280922899,1.1,262.0,,-0.515625,0.078125,-0.51953125,0.013671875,0.7265625,0.091796875,0.5078125,-9.25,1.17578125,1.0
4829381,,,,,,,,-0.453125,-0.265625,-0.62890625,-0.09375,0.642578125,0.0859375,0.546875,-9.59765625,1.05859375,1.0
4829382,,,,,,,,-0.46875,-0.56640625,-0.4609375,-0.23828125,0.54296875,0.072265625,0.5078125,-9.90234375,1.2109375,1.0
4829383,,,,,,,,-0.53125,-0.48828125,-0.16015625,-0.34375,0.486328125,0.046875,0.4296875,-9.8203125,1.48046875,1.0
4829384,,,,,,,,-0.4765625,-0.2890625,0.0546875,-0.3984375,0.458984375,0.0390625,0.46875,-9.63671875,1.671875,1.0
4829385,,,,,,,,0.0,-0.1640625,0.015625,-0.470703125,0.41796875,0.03515625,0.9296875,-9.515625,1.59375,1.0
4829386,,,,,,,,0.23046875,-0.1640625,-0.07421875,-0.51953125,0.392578125,0.029296875,1.16015625,-9.515625,1.48046875,1.0
4829387,,,,,,,,0.859375,-1.1171875,-0.48828125,-0.630859375,0.349609375,0.037109375,1.7734375,-10.48046875,1.01953125,1.0
4829388,,,,,,,,1.09375,-1.75,-0.80078125,-0.771484375,0.302734375,0.0390625,2.0,-11.12890625,0.63671875,1.0
4829389,,,,,,,,1.140625,-1.58984375,-0.5859375,-0.84375,0.3046875,0.041015625,2.0390625,-10.96875,0.7890625,1.0
4829390,36.01339183333334,129.31952166666667,83.0868134546474,110.05346554018206,1.0,258.0,,0.69140625,-0.6953125,-0.11328125,0.013671875,0.7265625,0.091796875,1.58203125,-10.09375,1.17578125,1.0
4829391,,,,,,,,0.23828125,-0.9140625,0.1171875,-0.833984375,0.58984375,-0.009765625,1.12109375,-10.3203125,1.328125,1.0
4829392,,,,,,,,-0.17578125,-2.73828125,0.41796875,-0.8671875,0.693359375,0.01953125,0.69921875,-12.16015625,1.55859375,1.0
4829393,,,,,,,,-0.3203125,-3.54296875,0.37890625,-0.900390625,0.6875,0.03515625,0.546875,-12.9609375,1.48046875,1.0
4829394,,,,,,,,-0.50390625,-4.875,1.5,-0.908203125,0.62109375,0.033203125,0.35546875,-14.30859375,2.515625,1.0
4829395,,,,,,,,-0.84375,-3.22265625,2.296875,-0.7421875,0.615234375,0.03125,0.0078125,-12.66015625,3.2421875,1.0
4829396,,,,,,,,-1.01953125,-1.8359375,1.73828125,-0.095703125,0.822265625,0.00390625,-0.18359375,-11.28515625,2.62890625,1.0
4829397,,,,,,,,-1.1640625,-1.14453125,1.0703125,0.130859375,0.953125,0.001953125,-0.3359375,-10.58984375,1.9765625,1.0
4829398,,,,,,,,-0.83984375,-1.55859375,1.125,0.099609375,0.978515625,0.001953125,-0.02734375,-11.0078125,2.0546875,1.0
4829399,,,,,,,,0.34765625,-2.6328125,2.03515625,0.033203125,0.943359375,-0.03125,1.16015625,-12.08984375,2.97265625,1.0
4829400,36.01339183333334,129.3195205,82.98164027335321,110.05346454596241,1.0,261.0,0.0,0.8515625,-2.8984375,2.25,0.013671875,0.7265625,0.091796875,1.65625,-12.35546875,3.203125,1.0
4829401,,,,,,,,0.9609375,-2.4453125,2.2421875,0.330078125,1.083984375,-0.201171875,1.7734375,-11.890625,3.2421875,1.0
4829402,,,,,,,,0.19140625,-1.09765625,1.84375,0.4375,1.14453125,-0.251953125,1.00390625,-10.55078125,2.859375,1.0
4829403,,,,,,,,-0.91796875,0.07421875,1.14453125,0.59765625,1.23828125,-0.36328125,-0.06640625,-9.359375,2.28515625,1.0
4829404,,,,,,,,-1.2109375,0.37109375,0.8828125,0.49609375,1.185546875,-0.380859375,-0.3359375,-9.05859375,2.09375,1.0
4829405,,,,,,,,-1.34765625,0.36328125,0.55859375,0.373046875,1.103515625,-0.3828125,-0.44921875,-9.05859375,1.82421875,1.0
4829406,,,,,,,,-1.2890625,0.31640625,0.52734375,0.2578125,1.056640625,-0.375,-0.375,-9.09765625,1.82421875,1.0
4829407,,,,,,,,-1.33984375,0.43359375,0.4375,0.220703125,1.044921875,-0.361328125,-0.41015625,-8.9765625,1.75,1.0
4829408,,,,,,,,-1.3203125,0.5859375,0.3203125,0.1875,1.048828125,-0.345703125,-0.375,-8.83203125,1.671875,1.0
4829409,,,,,,,,-1.25,0.73828125,0.234375,0.18359375,1.052734375,-0.3359375,-0.296875,-8.671875,1.59375,1.0
4829410,36.013391666666664,129.31951916666668,82.86144252600235,110.03497020184182,1.2000000000000002,264.0,,-1.1875,1.15234375,0.01171875,0.013671875,0.7265625,0.091796875,-0.21875,-8.25,1.40234375,1.0
4829411,,,,,,,,-1.04296875,1.52734375,-0.1640625,0.12890625,1.03125,-0.330078125,-0.06640625,-7.8671875,1.25,1.0
4829412,,,,,,,,-0.9453125,1.8359375,-0.33984375,0.09765625,0.986328125,-0.33203125,0.046875,-7.5625,1.09765625,1.0
4829413,,,,,,,,-0.9140625,1.98828125,-0.38671875,0.076171875,0.962890625,-0.341796875,0.0859375,-7.41015625,1.05859375,1.0
4829414,,,,,,,,-0.9765625,2.09375,-0.40234375,0.048828125,0.92578125,-0.33984375,0.046875,-7.296875,1.05859375,1.0
4829415,,,,,,,,-1.14453125,1.90234375,-0.44921875,0.041015625,0.8984375,-0.345703125,-0.10546875,-7.484375,1.01953125,1.0
4829416,,,,,,,,-1.40625,1.85546875,-0.31640625,0.0625,0.884765625,-0.33984375,-0.3359375,-7.52734375,1.17578125,1.0
4829417,,,,,,,,-1.52734375,1.89453125,-0.45703125,0.111328125,0.861328125,-0.318359375,-0.44921875,-7.484375,1.05859375,1.0
4829418,,,,,,,,-1.6953125,1.84765625,-0.59375,0.130859375,0.82421875,-0.306640625,-0.6015625,-7.5234375,0.9453125,1.0
4829419,,,,,,,,-1.7890625,1.83984375,-0.765625,0.138671875,0.787109375,-0.2734375,-0.6796875,-7.5234375,0.7890625,1.0
4829420,36.013391666666664,129.31951816666665,82.77129408155324,110.03496935207079,1.0,265.0,,-1.94921875,1.53515625,-0.671875,0.13671875,0.755859375,-0.25390625,-0.83203125,-7.83203125,0.90625,1.0
4829421,,,,,,,,-1.95703125,1.21484375,-0.62890625,0.115234375,0.6953125,-0.220703125,-0.83203125,-8.13671875,0.98046875,1.0
4829422,,,,,,,,-1.96484375,1.21484375,-0.63671875,0.123046875,0.671875,-0.203125,-0.83203125,-8.13671875,0.98046875,1.0
4829423,,,,,,,,-1.8984375,1.359375,-0.66796875,0.154296875,0.587890625,-0.189453125,-0.7578125,-7.984375,0.98046875,1.0
4829424,,,,,,,,-1.90625,1.43359375,-0.68359375,0.17578125,0.5625,-0.181640625,-0.7578125,-7.90625,0.98046875,1.0
4829425,,,,,,,,-1.875,1.6875,-0.828125,0.22265625,0.501953125,-0.17578125,-0.71875,-7.64453125,0.8671875,1.0
4829426,,,,,,,,-1.73046875,1.609375,-0.9296875,0.20703125,0.46875,-0.166015625,-0.56640625,-7.72265625,0.7890625,1.0
4829427,,,,,,,,-1.60546875,1.296875,-0.9453125,0.1875,0.439453125,-0.162109375,-0.44921875,-8.02734375,0.7890625,1.0
4829428,,,,,,,,-1.5,0.9140625,-0.890625,0.12890625,0.396484375,-0.154296875,-0.3359375,-8.40625,0.8671875,1.0
4829429,,,,,,,,-1.5078125,0.90625,-0.8984375,0.0859375,0.349609375,-0.15234375,-0.21875,-8.63671875,0.9453125,1.0
4829430,36.01339183333334,129.319517,82.66612072548038,110.05346157124137,1.0,270.0,,-1.390625,0.5625,-0.72265625,0.13671875,0.755859375,-0.25390625,-0.83203125,-7.83203125,0.90625,1.0
4829431,,,,,,,,-1.4765625,0.4375,-0.64453125,0.0859375,0.302734375,-0.16015625,-0.296875,-8.8671875,1.13671875,1.0
4829432,,,,,,,,-1.5546875,0.27734375,-0.5859375,0.0859375,0.296875,-0.166015625,-0.375,-9.01953125,1.2109375,1.0
4829433,,,,,,,,-1.5703125,0.0859375,-0.62890625,0.068359375,0.28125,-0.166015625,-0.375,-9.2109375,1.17578125,1.0
4829434,,,,,,,,-1.453125,-0.2265625,-0.63671875,0.03125,0.23828125,-0.154296875,-0.2578125,-9.51953125,1.17578125,1.0
4829435,,,,,,,,-1.23828125,-0.34375,-0.609375,-0.001953125,0.203125,-0.140625,-0.02734375,-9.6328125,1.2109375,1.0
4829436,,,,,,,,-0.96484375,-0.3515625,-0.609375,-0.029296875,0.173828125,-0.140625,0.23828125,-9.6328125,1.2109375,1.0
4829437,,,,,,,,-0.6640625,-0.390625,-0.6015625,-0.068359375,0.134765625,-0.138671875,0.546875,-9.671875,1.2109375,1.0
4829438,,,,,,,,-0.671875,-0.54296875,-0.83203125,-0.1171875,0.125,-0.15234375,0.546875,-9.8203125,0.98046875,1.0
4829439,,,,,,,,-0.56640625,-0.7734375,-0.8828125,-0.19140625,0.154296875,-0.154296875,0.66015625,-10.05859375,0.90625,1.0
4829440,36.013391999999996,129.31951583333333,82.56094737012802,110.07195378893499,1.0,276.0,,-0.4296875,-0.96484375,-0.9296875,-0.333984375,0.1953125,-0.154296875,0.8125,-10.24609375,0.828125,1.0
4829441,,,,,,,,-0.20703125,-1.0234375,-1.01171875,-0.40625,0.203125,-0.154296875,1.04296875,-10.32421875,0.71484375,1.0
4829442,,,,,,,,0.1015625,-0.87109375,-0.97265625,-0.48046875,0.2109375,-0.150390625,1.3515625,-10.1640625,0.71484375,1.0
4829443,,,,,,,,0.046875,-0.55078125,-0.87109375,-0.54296875,0.28515625,-0.16015625,1.3125,-9.859375,0.75390625,1.0
4829444,,,,,,,,-0.56640625,-0.359375,-0.7421875,-0.576171875,0.375,-0.169921875,0.69921875,-9.671875,0.828125,1.0
4829445,,,,,,,,-1.1953125,-0.50390625,-0.53515625,-0.62890625,0.412109375,-0.171875,0.0859375,-9.82421875,0.98046875,1.0
4829446,,,,,,,,-1.34765625,-0.6875,-0.51171875,-0.6484375,0.40625,-0.1640625,-0.06640625,-10.01953125,0.98046875,1.0
4829447,,,,,,,,-1.5,-1.109375,-0.640625,-0.7265625,0.361328125,-0.140625,-0.21875,-10.4375,0.7890625,1.0
4829448,,,,,,,,-1.28125,-1.1328125,-0.5234375,-0.810546875,0.314453125,-0.1015625,0.0078125,-10.4765625,0.828125,1.0
4829449,,,,,,,,-0.93359375,-0.625,-0.10546875,-0.841796875,0.29296875,-0.0546875,0.35546875,-9.98046875,1.17578125,1.0
4829450,36.0133925,129.319515,82.48582314751343,110.12743270860716,1.0,285.0,,-0.3515625,-1.421875,-0.02734375,-0.802734375,0.2890625,-0.01953125,0.9296875,-10.78125,1.17578125,1.0
4829451,,,,,,,,0.1171875,-2.9453125,0.00390625,-0.90234375,0.3046875,0.005859375,1.390625,-12.31640625,1.13671875,1.0
4829452,,,,,,,,0.57421875,-3.67578125,0.34765625,-1.017578125,0.30859375,0.015625,1.84765625,-13.04296875,1.44140625,1.0
4829453,,,,,,,,2.0390625,-3.34375,1.76171875,-1.166015625,0.27734375,0.013671875,3.3046875,-12.734375,2.74609375,1.0
4829454,,,,,,,,2.91796875,-1.8828125,2.23828125,-0.97265625,0.255859375,-0.037109375,4.18359375,-11.28515625,3.12890625,1.0
4829455,,,,,,,,1.6171875,-1.0703125,1.6328125,-0.3828125,0.5,-0.142578125,2.8828125,-10.48046875,2.4375,1.0
4829456,,,,,,,,1.11328125,-1.60546875,1.609375,-0.216796875,0.63671875,-0.17578125,2.38671875,-11.0078125,2.3984375,1.0
4829457,,,,,,,,-0.12109375,-3.28125,2.19921875,-0.154296875,0.583984375,-0.1953125,1.16015625,-12.69921875,2.97265625,1.0
4829458,,,,,,,,-0.09765625,-3.703125,2.5859375,-0.0234375,0.447265625,-0.1796875,1.19921875,-13.1171875,3.359375,1.0
4829459,,,,,,,,0.20703125,-3.4453125,2.546875,0.08203125,0.400390625,-0.166015625,1.50390625,-12.85546875,3.3203125,1.0
4829460,36.01339299999999,129.31951383333333,82.38064944888929,110.18291134496314,1.0,292.0,,0.50390625,-3.09765625,2.453125,-0.802734375,0.2890625,-0.01953125,1.80859375,-12.5,3.2421875,1.0
4829461,,,,,,,,0.26953125,-2.21875,2.19140625,0.447265625,0.55859375,-0.033203125,1.58203125,-11.625,3.05078125,1.0
4829462,,,,,,,,0.11328125,-1.875,2.015625,0.45703125,0.619140625,0.00390625,1.42578125,-11.28515625,2.8984375,1.0
4829463,,,,,,,,-0.3671875,-0.83984375,1.38671875,0.4609375,0.650390625,0.052734375,0.9296875,-10.24609375,2.32421875,1.0
4829464,,,,,,,,-0.51171875,-0.1171875,0.80078125,0.40234375,0.5859375,0.087890625,0.77734375,-9.51953125,1.78515625,1.0
4829465,,,,,,,,-0.3671875,-0.03515625,0.78515625,0.203125,0.4453125,0.123046875,0.890625,-9.4375,1.82421875,1.0
4829466,,,,,,,,-0.359375,0.15625,0.89453125,0.146484375,0.42578125,0.130859375,0.890625,-9.25,1.94140625,1.0
4829467,,,,,,,,-0.3359375,0.42578125,0.9453125,0.103515625,0.421875,0.130859375,0.890625,-8.9765625,2.015625,1.0
4829468,,,,,,,,-0.54296875,1.0078125,0.65625,0.134765625,0.443359375,0.134765625,0.66015625,-8.40625,1.75,1.0
4829469,,,,,,,,-0.6875,1.3828125,0.4921875,0.142578125,0.453125,0.1328125,0.5078125,-8.0234375,1.59375,1.0
4829470,36.0133935,129.31951283333333,82.29050048881197,110.23839012541598,1.2000000000000002,295.0,,-0.625,1.87890625,0.26953125,-0.802734375,0.2890625,-0.01953125,0.546875,-7.5234375,1.40234375,1.0
4829471,,,,,,,,-0.5625,2.34765625,0.02734375,0.126953125,0.47265625,0.14453125,0.5859375,-7.0625,1.17578125,1.0
4829472,,,,,,,,-0.3203125,2.46484375,-0.296875,0.103515625,0.458984375,0.146484375,0.8125,-6.9453125,0.8671875,1.0
4829473,,,,,,,,-0.10546875,2.47265625,-0.3515625,0.0546875,0.45703125,0.146484375,1.00390625,-6.9453125,0.828125,1.0
4829474,,,,,,,,0.1484375,2.578125,-0.3984375,0.001953125,0.45703125,0.15234375,1.234375,-6.83984375,0.7890625,1.0
4829475,,,,,,,,0.37109375,2.6328125,-0.48046875,-0.025390625,0.4765625,0.140625,1.42578125,-6.80078125,0.71484375,1.0
4829476,,,,,,,,0.53515625,2.515625,-0.55859375,-0.0234375,0.4921875,0.13671875,1.58203125,-6.91796875,0.63671875,1.0
4829477,,,,,,,,0.78515625,2.40234375,-0.55859375,-0.044921875,0.546875,0.119140625,1.80859375,-7.02734375,0.63671875,1.0
4829478,,,,,,,,0.91796875,2.2109375,-0.6328125,-0.064453125,0.60546875,0.09375,1.92578125,-7.21875,0.5625,1.0
4829479,,,,,,,,1.0546875,1.828125,-0.59765625,-0.06640625,0.642578125,0.076171875,2.0390625,-7.6015625,0.59765625,1.0
4829480,36.01339383333333,129.31951183333334,82.20035170355102,110.2753756977462,1.0,297.0,,1.0625,1.55859375,-0.51953125,-0.802734375,0.2890625,-0.01953125,0.546875,-7.5234375,1.40234375,1.0
4829481,,,,,,,,1.078125,1.40625,-0.44921875,-0.041015625,0.69921875,0.015625,2.0390625,-8.0234375,0.75390625,1.0
4829482,,,,,,,,0.92578125,1.29296875,-0.45703125,-0.025390625,0.7109375,0.00390625,1.88671875,-8.13671875,0.75390625,1.0
4829483,,,,,,,,0.671875,1.21484375,-0.46484375,0.013671875,0.759765625,-0.021484375,1.6171875,-8.2109375,0.75390625,1.0
4829484,,,,,,,,0.3046875,1.1015625,-0.4453125,0.078125,0.85546875,-0.04296875,1.234375,-8.33203125,0.7890625,1.0
4829485,,,,,,,,-0.0703125,1.0546875,-0.4609375,0.12109375,0.875,-0.052734375,0.8515625,-8.3671875,0.7890625,1.0
4829486,,,,,,,,-0.109375,1.015625,-0.50390625,0.130859375,0.865234375,-0.0546875,0.8125,-8.41015625,0.75390625,1.0
4829487,,,,,,,,-0.1015625,0.90234375,-0.64453125,0.146484375,0.833984375,-0.0546875,0.8125,-8.515625,0.63671875,1.0
4829488,,,,,,,,-0.0234375,0.74609375,-0.71484375,0.119140625,0.759765625,-0.0546875,0.890625,-8.67578125,0.59765625,1.0
4829489,,,,,,,,0.0234375,0.5078125,-0.796875,0.109375,0.751953125,-0.0546875,0.9296875,-8.91015625,0.5234375,1.0
4829490,36.01339433333333,129.31951083333334,82.11020274481861,110.33085447852203,1.0,298.0,,-0.0390625,0.5390625,-0.5546875,0.052734375,0.720703125,-0.044921875,0.8515625,-8.8671875,0.7890625,1.0
4829491,,,,,,,,-0.22265625,0.65625,-0.5703125,0.07421875,0.71875,-0.037109375,0.66015625,-8.75,0.7890625,1.0
4829492,,,,,,,,-0.40625,0.578125,-0.5859375,0.0703125,0.685546875,-0.021484375,0.46875,-8.828125,0.7890625,1.0
4829493,,,,,,,,-0.51171875,0.37890625,-0.66796875,0.033203125,0.625,0.0,0.35546875,-9.01953125,0.71484375,1.0
4829494,,,,,,,,-0.46484375,-0.15625,-0.484375,-0.01953125,0.56640625,0.005859375,0.39453125,-9.55859375,0.90625,1.0
4829495,,,,,,,,-0.375,-0.30859375,-0.37109375,-0.0546875,0.525390625,0.0234375,0.46875,-9.70703125,1.01953125,1.0
4829496,,,,,,,,-0.296875,-0.38671875,-0.29296875,-0.068359375,0.509765625,0.02734375,0.546875,-9.78515625,1.09765625,1.0
4829497,,,,,,,,-0.12890625,-0.5390625,-0.171875,-0.083984375,0.48046875,0.029296875,0.69921875,-9.94140625,1.2109375,1.0
4829498,,,,,,,,-0.08203125,-0.6171875,-0.24609375,-0.099609375,0.453125,0.029296875,0.73828125,-10.015625,1.13671875,1.0
4829499,,,,,,,,-0.07421875,-0.6171875,-0.30859375,-0.11328125,0.3828125,0.015625,0.73828125,-10.01953125,1.05859375,1.0
4829500,36.0133945,129.31950983333334,82.02005413548903,110.34934684509219,0.9,298.0,0.0,-0.14453125,-0.50390625,-0.33984375,-0.134765625,0.333984375,-0.0078125,0.66015625,-9.90234375,1.01953125,1.0
4829501,,,,,,,,0.015625,-0.1953125,-0.4375,-0.177734375,0.314453125,-0.021484375,0.8125,-9.59375,0.90625,1.0
4829502,,,,,,,,0.171875,-0.1171875,-0.3828125,-0.259765625,0.296875,-0.03515625,0.96875,-9.515625,0.9453125,1.0
4829503,,,,,,,,0.5546875,-0.07421875,-0.32421875,-0.375,0.3125,-0.03515625,1.3515625,-9.48046875,0.98046875,1.0
4829504,,,,,,,,0.9453125,-1.63671875,-0.296875,-0.625,0.38671875,-0.0234375,1.734375,-11.046875,0.9453125,1.0
4829505,,,,,,,,0.984375,-2.46875,-0.2265625,-0.80078125,0.388671875,-0.017578125,1.7734375,-11.890625,0.9453125,1.0
4829506,,,,,,,,0.984375,-2.76953125,0.1171875,-0.85546875,0.375,-0.021484375,1.7734375,-12.1953125,1.25,1.0
4829507,,,,,,,,0.75390625,-2.68359375,0.46484375,-0.80859375,0.40234375,-0.04296875,1.54296875,-12.1171875,1.51953125,1.0
4829508,,,,,,,,0.1484375,-2.484375,0.9921875,-0.685546875,0.505859375,-0.072265625,0.9296875,-11.93359375,1.9765625,1.0
4829509,,,,,,,,-0.12109375,-2.75390625,1.140625,-0.646484375,0.564453125,-0.0703125,0.66015625,-12.19921875,2.09375,1.0
4829510,36.01339516666667,129.31950883333332,81.92990500485996,110.42331883749374,1.0,300.0,,-0.7421875,-3.93359375,0.88671875,-0.134765625,0.333984375,-0.0078125,0.046875,-13.38671875,1.78515625,1.0
4829511,,,,,,,,-0.6640625,-3.12109375,1.51171875,-0.619140625,0.513671875,-0.06640625,0.125,-12.58203125,2.32421875,1.0
4829512,,,,,,,,-0.39453125,-1.93359375,1.37890625,-0.46875,0.55078125,-0.076171875,0.39453125,-11.390625,2.16796875,1.0
4829513,,,,,,,,-0.16796875,-0.81640625,1.09765625,-0.162109375,0.68359375,-0.107421875,0.62109375,-10.28515625,1.86328125,1.0
4829514,,,,,,,,-0.01953125,-0.69921875,1.14453125,-0.07421875,0.83203125,-0.119140625,0.77734375,-10.16796875,1.90234375,1.0
4829515,,,,,,,,0.28515625,-1.16015625,1.2578125,-0.142578125,0.904296875,-0.134765625,1.08203125,-10.625,2.015625,1.0
4829516,,,,,,,,0.73828125,-1.734375,1.45703125,-0.1796875,0.927734375,-0.158203125,1.54296875,-11.20703125,2.20703125,1.0
4829517,,,,,,,,1.1875,-2.1953125,1.7734375,-0.205078125,0.95703125,-0.18359375,2.0,-11.66796875,2.515625,1.0
4829518,,,,,,,,1.41015625,-2.4140625,1.97265625,-0.1328125,1.0390625,-0.216796875,2.23046875,-11.890625,2.70703125,1.0
4829519,,,,,,,,1.35546875,-2.30078125,1.93359375,-0.056640625,1.095703125,-0.236328125,2.19140625,-11.7734375,2.66796875,1.0
4829520,36.01339566666666,129.31950783333332,81.83975605025836,110.47879762048163,1.1,301.0,,0.0546875,-0.81640625,1.6171875,0.318359375,1.318359375,-0.37890625,0.9296875,-10.28515625,2.3984375,1.0
4829521,,,,,,,,-0.6953125,-0.24609375,1.33984375,0.435546875,1.37890625,-0.42578125,0.203125,-9.70703125,2.16796875,1.0
4829522,,,,,,,,-1.06640625,0.09765625,1.1640625,0.45703125,1.38671875,-0.43359375,-0.14453125,-9.359375,2.0546875,1.0
4829523,,,,,,,,-1.2890625,0.2421875,0.91796875,0.416015625,1.34765625,-0.427734375,-0.3359375,-9.2109375,1.86328125,1.0
4829524,,,,,,,,-1.48046875,0.1953125,0.50390625,0.326171875,1.2734375,-0.3984375,-0.48828125,-9.25,1.51953125,1.0
4829525,,,,,,,,-1.46484375,0.46484375,0.34765625,0.27734375,1.23828125,-0.361328125,-0.44921875,-8.98046875,1.40234375,1.0
4829526,,,,,,,,-1.25,0.91796875,0.1953125,0.2578125,1.22265625,-0.330078125,-0.21875,-8.51953125,1.2890625,1.0
4829527,,,,,,,,-1.015625,1.3671875,-0.01953125,0.248046875,1.216796875,-0.3125,0.046875,-8.06640625,1.13671875,1.0
4829528,,,,,,,,-0.8671875,1.51953125,-0.01953125,0.21484375,1.189453125,-0.33203125,0.203125,-7.91015625,1.17578125,1.0
4829529,,,,,,,,-0.8828125,2.01171875,-0.12890625,0.1796875,1.138671875,-0.3515625,0.203125,-7.40625,1.09765625,1.0
4829530,36.0133965,129.31950683333335,81.74960675494103,110.57126282229382,1.1,303.0,,-1.03125,2.1171875,-0.21484375,0.1640625,1.044921875,-0.36328125,0.0859375,-7.30078125,1.05859375,1.0
4829531,,,,,,,,-1.28515625,2.2265625,-0.3515625,0.158203125,1.005859375,-0.36328125,-0.14453125,-7.1796875,0.9453125,1.0
4829532,,,,,,,,-1.453125,2.02734375,-0.4140625,0.162109375,0.9765625,-0.3515625,-0.296875,-7.3671875,0.90625,1.0
4829533,,,,,,,,-1.9453125,1.85546875,-0.46875,0.134765625,0.919921875,-0.2890625,-0.7578125,-7.52734375,0.90625,1.0
4829534,,,,,,,,-2.06640625,1.828125,-0.5625,0.14453125,0.91015625,-0.265625,-0.87109375,-7.5625,0.828125,1.0
4829535,,,,,,,,-2.1875,1.55078125,-0.6328125,0.142578125,0.880859375,-0.2109375,-0.984375,-7.828125,0.7890625,1.0
4829536,,,,,,,,-2.1953125,1.359375,-0.76171875,0.12890625,0.861328125,-0.193359375,-0.984375,-8.02734375,0.67578125,1.0
4829537,,,,,,,,-2.12109375,1.16015625,-0.74609375,0.103515625,0.814453125,-0.16796875,-0.91015625,-8.21484375,0.71484375,1.0
4829538,,,,,,,,-2.03515625,0.9609375,-0.6796875,0.087890625,0.78515625,-0.158203125,-0.83203125,-8.40625,0.7890625,1.0
4829539,,,,,,,,-1.890625,0.84765625,-0.65625,0.0625,0.712890625,-0.140625,-0.6796875,-8.515625,0.828125,1.0
4829540,36.013397166666664,129.31950616666666,81.68950710828472,110.64523509607253,0.9,307.0,,-1.890625,0.84765625,-0.625,0.1640625,1.044921875,-0.36328125,-0.6796875,-8.515625,0.8671875,1.0
4829541,,,,,,,,-1.8515625,0.9609375,-0.6015625,0.09375,0.568359375,-0.12109375,-0.640625,-8.41015625,0.90625,1.0
4829542,,,,,,,,-1.890625,1.10546875,-0.6484375,0.150390625,0.4921875,-0.103515625,-0.6796875,-8.25390625,0.8671875,1.0
4829543,,,,,,,,-1.890625,1.22265625,-0.7421875,0.1796875,0.474609375,-0.09765625,-0.6796875,-8.13671875,0.7890625,1.0
4829544,,,,,,,,-1.8828125,1.17578125,-0.84765625,0.232421875,0.447265625,-0.087890625,-0.6796875,-8.17578125,0.71484375,1.0
4829545,,,,,,,,-1.8125,1.05859375,-0.91015625,0.232421875,0.431640625,-0.08203125,-0.6015625,-8.2890625,0.67578125,1.0
4829546,,,,,,,,-1.578125,0.8515625,-0.796875,0.173828125,0.3515625,-0.076171875,-0.375,-8.484375,0.828125,1.0
4829547,,,,,,,,-1.26953125,0.69921875,-0.734375,0.1484375,0.287109375,-0.083984375,-0.06640625,-8.63671875,0.90625,1.0
4829548,,,,,,,,-1.1875,0.61328125,-0.67578125,0.140625,0.26171875,-0.091796875,0.0078125,-8.71484375,0.98046875,1.0
4829549,,,,,,,,-1.1953125,0.5390625,-0.64453125,0.107421875,0.2265625,-0.107421875,-0.06640625,-8.9765625,1.13671875,1.0
4829550,36.01339816666667,129.31950550000002,81.62940712163315,110.75619378719858,1.0,314.0,,-1.890625,0.84765625,-0.625,0.083984375,0.232421875,-0.1171875,-0.14453125,-9.2109375,1.25,1.0
4829551,,,,,,,,-1.39453125,-0.04296875,-0.3984375,0.064453125,0.24609375,-0.1171875,-0.18359375,-9.4765625,1.25,1.0
4829552,,,,,,,,-1.40234375,-0.3125,-0.40625,0.037109375,0.234375,-0.1171875,-0.14453125,-9.67578125,1.2890625,1.0
4829553,,,,,,,,-1.35546875,-0.359375,-0.4140625,0.01953125,0.21875,-0.119140625,-0.10546875,-9.8984375,1.328125,1.0
4829554,,,,,,,,-1.28515625,-0.75,-0.3828125,-0.013671875,0.189453125,-0.1171875,-0.02734375,-10.12890625,1.328125,1.0
4829555,,,,,,,,-1.171875,-0.94140625,-0.30078125,-0.06640625,0.15625,-0.119140625,0.27734375,-10.40234375,1.40234375,1.0
4829556,,,,,,,,-0.87890625,-1.09375,-0.3359375,-0.109375,0.13671875,-0.123046875,0.4296875,-10.44140625,1.3671875,1.0
4829557,,,,,,,,-0.57421875,-1.1328125,-0.4765625,-0.15625,0.15625,-0.140625,0.77734375,-10.3984375,1.13671875,1.0
4829558,,,,,,,,-0.45703125,-1.09375,-0.55078125,-0.1796875,0.16796875,-0.140625,0.8515625,-10.32421875,1.09765625,1.0
4829559,,,,,,,,-0.2734375,-0.93359375,-0.61328125,-0.248046875,0.2109375,-0.16015625,1.00390625,-10.125,1.09765625,1.0
4829560,36.013399166666666,129.319505,81.58433187303444,110.86715261608424,1.0,324.0,,-1.890625,0.84765625,-0.625,0.083984375,0.232421875,-0.1171875,0.890625,-10.125,1.05859375,1.0
4829561,,,,,,,,-0.56640625,-0.6640625,-0.62890625,-0.390625,0.265625,-0.21484375,0.5078125,-9.94140625,1.09765625,1.0
4829562,,,,,,,,-1.15625,-0.89453125,-0.51171875,-0.443359375,0.28515625,-0.232421875,-0.10546875,-10.7421875,0.90625,1.0
4829563,,,,,,,,-1.43359375,-1.65234375,-0.6328125,-0.5390625,0.240234375,-0.232421875,-0.02734375,-11.01171875,0.90625,1.0
4829564,,,,,,,,-1.140625,-1.65234375,-0.47265625,-0.666015625,0.134765625,-0.22265625,0.77734375,-10.62890625,1.51953125,1.0
4829565,,,,,,,,-0.27734375,-1.26171875,0.28125,-0.701171875,0.021484375,-0.19140625,1.234375,-10.70703125,1.82421875,1.0
4829566,,,,,,,,-0.09375,-1.359375,0.42578125,-0.669921875,-0.009765625,-0.17578125,1.3515625,-11.08984375,1.90234375,1.0
4829567,,,,,,,,0.015625,-2.12890625,0.6484375,-0.693359375,0.029296875,-0.16796875,1.42578125,-12.01171875,2.015625,1.0
4829568,,,,,,,,0.421875,-3.7265625,1.1328125,-0.8671875,0.08984375,-0.126953125,2.15625,-13.34375,2.78125,1.0
4829569,,,,,,,,1.1015625,-3.68359375,2.0234375,-0.912109375,0.126953125,-0.119140625,3.34375,-11.69921875,3.5859375,1.0
4829570,36.013400000000004,129.31950433333336,81.52423206054392,110.95961809942601,1.0,330.0,,-1.890625,0.84765625,-0.625,0.083984375,0.232421875,-0.1171875,3.45703125,-10.09765625,3.47265625,1.0
4829571,,,,,,,,1.8515625,-0.21875,2.33984375,-0.134765625,0.474609375,-0.240234375,2.5,-9.2109375,3.359375,1.0
4829572,,,,,,,,0.87109375,0.078125,2.38671875,0.01171875,0.54296875,-0.302734375,1.3515625,-9.98046875,3.6640625,1.0
4829573,,,,,,,,-0.73046875,-1.55859375,2.90625,-0.029296875,0.369140625,-0.3203125,0.69921875,-10.9296875,3.96875,1.0
4829574,,,,,,,,-0.9453125,-2.33203125,2.9765625,0.037109375,0.18359375,-0.29296875,0.5078125,-11.69921875,4.046875,1.0
4829575,,,,,,,,-0.39453125,-1.84375,2.47265625,0.169921875,0.12890625,-0.240234375,1.08203125,-11.203125,3.55078125,1.0
4829576,,,,,,,,0.09765625,-1.22265625,2.1015625,0.255859375,0.1953125,-0.16796875,1.58203125,-10.5859375,3.203125,1.0
4829577,,,,,,,,0.2734375,-0.578125,1.83984375,0.21484375,0.3203125,-0.083984375,1.7734375,-9.94140625,2.97265625,1.0
4829578,,,,,,,,0.1640625,-0.42578125,1.75,0.158203125,0.375,-0.052734375,1.65625,-9.78515625,2.8984375,1.0
4829579,,,,,,,,-0.37109375,-0.05078125,1.2734375,0.064453125,0.455078125,0.03125,1.12109375,-9.40234375,2.4375,1.0
4829580,36.013400833333336,129.31950383333333,81.47915698555039,111.05208372336344,1.1,336.0,,-0.5390625,-0.1875,1.03515625,-0.068359375,0.451171875,0.109375,0.9296875,-9.5546875,2.20703125,1.0
4829581,,,,,,,,-0.40234375,-0.49609375,0.99609375,-0.181640625,0.35546875,0.13671875,1.04296875,-9.86328125,2.16796875,1.0
4829582,,,,,,,,-0.33984375,-0.5625,1.01171875,-0.23046875,0.29296875,0.142578125,1.08203125,-9.9375,2.16796875,1.0
4829583,,,,,,,,-0.5546875,-0.1328125,0.875,-0.181640625,0.2890625,0.1328125,0.8515625,-9.515625,2.015625,1.0
4829584,,,,,,,,-0.72265625,0.25,0.64453125,-0.095703125,0.306640625,0.134765625,0.66015625,-9.1328125,1.78515625,1.0
4829585,,,,,,,,-0.8984375,0.8984375,0.1953125,-0.0234375,0.31640625,0.123046875,0.46875,-8.484375,1.328125,1.0
4829586,,,,,,,,-0.890625,1.14453125,0.00390625,-0.005859375,0.30859375,0.119140625,0.46875,-8.25390625,1.13671875,1.0
4829587,,,,,,,,-0.875,1.4140625,-0.1953125,-0.005859375,0.30859375,0.125,0.46875,-7.984375,0.9453125,1.0
4829588,,,,,,,,-0.8125,1.56640625,-0.3203125,-0.02734375,0.330078125,0.130859375,0.5078125,-7.83203125,0.828125,1.0
4829589,,,,,,,,-0.65234375,1.87109375,-0.39453125,-0.0390625,0.35546875,0.12890625,0.66015625,-7.5234375,0.75390625,1.0
4829590,36.0134015,129.31950333333333,81.43408208533893,111.12605613704858,1.0,338.0,,-0.4765625,2.109375,-0.44140625,-0.068359375,0.451171875,0.109375,0.8125,-7.296875,0.71484375,1.0
4829591,,,,,,,,-0.3046875,2.1171875,-0.51953125,-0.046875,0.37890625,0.115234375,0.96875,-7.296875,0.63671875,1.0
4829592,,,,,,,,-0.26171875,2.08203125,-0.48046875,-0.060546875,0.390625,0.107421875,1.00390625,-7.33203125,0.67578125,1.0
4829593,,,,,,,,-0.0078125,2.00390625,-0.48046875,-0.078125,0.392578125,0.083984375,1.234375,-7.40625,0.67578125,1.0
4829594,,,,,,,,0.23828125,2.04296875,-0.3671875,-0.095703125,0.384765625,0.05078125,1.46484375,-7.37109375,0.7890625,1.0
4829595,,,,,,,,0.32421875,1.8515625,-0.359375,-0.02734375,0.400390625,-0.01171875,1.54296875,-7.60546875,0.63671875,1.0
4829596,,,,,,,,0.33203125,1.8125,-0.51953125,-0.013671875,0.396484375,-0.03515625,1.6171875,-7.64453125,0.59765625,1.0
4829597,,,,,,,,0.37109375,1.7734375,-0.56640625,-0.0078125,0.3984375,-0.111328125,1.50390625,-7.6796875,0.63671875,1.0
4829598,,,,,,,,0.24609375,1.6953125,-0.52734375,0.02734375,0.43359375,-0.16796875,1.3125,-7.6796875,0.71484375,1.0
4829599,,,,,,,,0.0859375,1.734375,-0.45703125,0.064453125,0.46875,-0.201171875,1.2734375,-7.640625,0.828125,1.0
4829600,36.013402166666665,129.31950283333333,81.3890071834566,111.20002855233722,1.0,341.0,0.0,-0.4765625,2.109375,-0.44140625,0.1015625,0.49609375,-0.23046875,1.12109375,-7.6015625,0.7890625,1.0
4829601,,,,,,,,-0.20703125,1.796875,-0.44921875,0.146484375,0.486328125,-0.236328125,1.00390625,-7.64453125,0.67578125,1.0
4829602,,,,,,,,-0.22265625,1.6796875,-0.58984375,0.1640625,0.447265625,-0.244140625,1.12109375,-7.828125,0.5625,1.0
4829603,,,,,,,,-0.0390625,1.4453125,-0.765625,0.173828125,0.404296875,-0.2421875,1.234375,-7.94921875,0.484375,1.0
4829604,,,,,,,,0.12109375,1.015625,-0.875,0.1796875,0.38671875,-0.232421875,1.42578125,-8.37109375,0.40625,1.0
4829605,,,,,,,,0.71875,0.31640625,-0.828125,0.18359375,0.412109375,-0.21875,2.0390625,-9.0546875,0.484375,1.0
4829606,,,,,,,,0.78125,-0.2265625,-0.73828125,0.1640625,0.462890625,-0.208984375,2.1171875,-9.59375,0.59765625,1.0
4829607,,,,,,,,0.62109375,-0.15625,-0.4921875,0.125,0.505859375,-0.189453125,1.96484375,-9.51953125,0.8671875,1.0
4829608,,,,,,,,0.22265625,0.1015625,-0.37109375,0.14453125,0.595703125,-0.171875,1.58203125,-9.25,1.01953125,1.0
4829609,,,,,,,,-0.19921875,0.1328125,-0.42578125,0.19140625,0.623046875,-0.154296875,1.16015625,-9.21484375,0.98046875,1.0
4829610,36.013403000000004,129.3195025,81.35895685120255,111.2924943152936,1.1,346.0,,-0.36328125,-0.14453125,-0.484375,0.1015625,0.49609375,-0.23046875,1.00390625,-9.48046875,0.9453125,1.0
4829611,,,,,,,,-0.24609375,-0.765625,-0.43359375,0.119140625,0.50390625,-0.134765625,1.12109375,-10.09375,1.01953125,1.0
4829612,,,,,,,,-0.21484375,-1.03125,-0.36328125,0.080078125,0.451171875,-0.119140625,1.16015625,-10.359375,1.09765625,1.0
4829613,,,,,,,,0.05078125,-1.60546875,-0.1015625,0.01171875,0.365234375,-0.107421875,1.42578125,-10.93359375,1.3671875,1.0
4829614,,,,,,,,0.05078125,-1.60546875,0.00390625,-0.005859375,0.3359375,-0.09765625,1.42578125,-10.9296875,1.48046875,1.0
4829615,,,,,,,,0.08984375,-1.23046875,-0.03515625,-0.0234375,0.302734375,-0.08203125,1.46484375,-10.55078125,1.44140625,1.0
4829616,,,,,,,,0.08984375,-0.7734375,-0.2265625,-0.015625,0.287109375,-0.068359375,1.46484375,-10.09375,1.25,1.0
4829617,,,,,,,,0.2421875,0.00390625,-0.6484375,-0.095703125,0.236328125,-0.00390625,1.6171875,-9.32421875,0.828125,1.0
4829618,,,,,,,,0.3671875,0.0390625,-0.6484375,-0.15234375,0.240234375,0.0078125,1.734375,-9.29296875,0.828125,1.0
4829619,,,,,,,,0.7578125,-0.3046875,-0.53125,-0.39453125,0.298828125,0.06640625,2.1171875,-9.63671875,0.90625,1.0
4829620,36.013404,129.319502,81.31388161096493,111.40345314733439,1.1,348.0,,0.87890625,-0.52734375,-0.40234375,0.1015625,0.49609375,-0.23046875,2.23046875,-9.86328125,1.01953125,1.0
4829621,,,,,,,,1.125,-1.66796875,-0.26953125,-0.67578125,0.357421875,0.111328125,2.4609375,-11.01171875,1.09765625,1.0
4829622,,,,,,,,1.140625,-2.65625,-0.31640625,-0.853515625,0.384765625,0.12890625,2.4609375,-12.01171875,0.98046875,1.0
4829623,,,,,,,,1.08984375,-2.05859375,0.33984375,-0.970703125,0.419921875,0.099609375,2.38671875,-11.4296875,1.51953125,1.0
4829624,,,,,,,,0.71875,-0.90234375,0.72265625,-0.779296875,0.6640625,0.03125,2.0,-10.28515625,1.82421875,1.0
4829625,,,,,,,,0.3828125,-1.3515625,1.0859375,-0.673828125,0.880859375,0.03515625,1.65625,-10.7421875,2.1328125,1.0
4829626,,,,,,,,0.0546875,-2.80078125,1.1484375,-0.806640625,0.83203125,0.072265625,1.3125,-12.19921875,2.1328125,1.0
4829627,,,,,,,,-0.6640625,-3.671875,2.17578125,-0.90234375,0.73046875,0.041015625,0.5859375,-13.078125,3.08984375,1.0
4829628,,,,,,,,-0.640625,-1.62890625,2.859375,-0.306640625,0.96875,-0.01953125,0.5859375,-11.05078125,3.703125,1.0
4829629,,,,,,,,-0.2890625,-0.77734375,2.4765625,0.021484375,1.091796875,-0.033203125,0.9296875,-10.203125,3.3203125,1.0
4829630,36.01340483333333,129.3195015,81.26880654003703,111.49591877085581,1.1,348.0,,0.1015625,-0.9296875,2.61328125,-0.0703125,1.23828125,-0.009765625,1.50390625,-10.48046875,3.625,1.0
4829631,,,,,,,,0.30078125,-1.0546875,2.7578125,-0.095703125,1.279296875,-0.025390625,1.6953125,-10.6640625,3.703125,1.0
4829632,,,,,,,,1.03515625,-1.3984375,2.67578125,-0.044921875,1.322265625,-0.080078125,2.23046875,-10.82421875,3.55078125,1.0
4829633,,,,,,,,1.15234375,-1.3515625,2.484375,-0.009765625,1.328125,-0.123046875,2.421875,-10.70703125,3.12890625,1.0
4829634,,,,,,,,1.21875,-0.9296875,1.6484375,0.0390625,1.310546875,-0.1953125,2.421875,-10.359375,2.5546875,1.0
4829635,,,,,,,,1.10546875,-0.85546875,1.33203125,0.078125,1.328125,-0.24609375,2.30859375,-10.28125,2.24609375,1.0
4829636,,,,,,,,0.8359375,-0.9296875,1.34765625,0.0859375,1.34765625,-0.296875,2.0390625,-10.359375,2.28515625,1.0
4829637,,,,,,,,0.046875,-0.86328125,1.75390625,0.046875,1.40234375,-0.447265625,0.8515625,-10.125,2.8984375,1.0
4829638,,,,,,,,-0.3828125,-0.70703125,1.9296875,0.046875,1.375,-0.4765625,0.5078125,-10.01953125,3.08984375,1.0
4829639,,,,,,,,-1.49609375,-0.33984375,1.68359375,0.087890625,1.1796875,-0.490234375,-0.18359375,-9.74609375,2.70703125,1.0
4829640,36.01340583333333,129.31950116666667,81.23875603896728,111.60687774188877,1.2000000000000002,348.0,,-1.50390625,-0.1875,0.9453125,-0.0703125,1.23828125,-0.009765625,1.50390625,-10.48046875,3.625,1.0
4829641,,,,,,,,-1.39453125,0.08203125,0.6171875,-0.021484375,0.9921875,-0.4296875,-0.02734375,-9.32421875,1.671875,1.0
4829642,,,,,,,,-1.1875,0.4921875,0.41015625,-0.052734375,0.9921875,-0.3828125,0.203125,-8.91015625,1.48046875,1.0
4829643,,,,,,,,-1.06640625,0.87890625,0.36328125,-0.078125,0.966796875,-0.337890625,0.35546875,-8.51953125,1.44140625,1.0
4829644,,,,,,,,-0.8515625,1.2890625,0.125,-0.076171875,0.916015625,-0.306640625,0.5859375,-8.10546875,1.2109375,1.0
4829645,,,,,,,,-0.6015625,1.55859375,-0.07421875,-0.08203125,0.857421875,-0.298828125,0.8515625,-7.83203125,1.01953125,1.0
4829646,,,,,,,,-0.5,1.85546875,-0.234375,-0.095703125,0.791015625,-0.30078125,0.96875,-7.52734375,0.8671875,1.0
4829647,,,,,,,,-0.6015625,2.09375,-0.2734375,-0.1015625,0.740234375,-0.306640625,0.890625,-7.296875,0.828125,1.0
4829648,,,,,,,,-0.76953125,2.2421875,-0.39453125,-0.056640625,0.71875,-0.294921875,0.73828125,-7.140625,0.71484375,1.0
4829649,,,,,,,,-1.13671875,2.125,-0.48828125,-0.017578125,0.736328125,-0.279296875,0.39453125,-7.26171875,0.63671875,1.0
4829650,36.013406833333335,129.31950116666667,81.23875501298767,111.71783699121275,1.0,349.0,,-1.62109375,2.05078125,-0.54296875,-0.0703125,1.23828125,-0.009765625,1.50390625,-10.48046875,3.625,1.0
4829651,,,,,,,,-1.78125,1.96484375,-0.6328125,0.068359375,0.76171875,-0.201171875,-0.21875,-7.41015625,0.5234375,1.0
4829652,,,,,,,,-1.859375,1.92578125,-0.6015625,0.10546875,0.75390625,-0.171875,-0.296875,-7.4453125,0.5625,1.0
4829653,,,,,,,,-1.9453125,1.8046875,-0.7890625,0.171875,0.771484375,-0.12890625,-0.375,-7.5625,0.40625,1.0
4829654,,,,,,,,-1.9453125,1.7265625,-0.83203125,0.189453125,0.763671875,-0.111328125,-0.375,-7.640625,0.37109375,1.0
4829655,,,,,,,,-1.859375,1.59765625,-1.00390625,0.177734375,0.6796875,-0.060546875,-0.296875,-7.75390625,0.25390625,1.0
4829656,,,,,,,,-1.7734375,1.6328125,-0.94921875,0.169921875,0.62109375,-0.03515625,-0.21875,-7.72265625,0.33203125,1.0
4829657,,,,,,,,-1.69921875,1.55859375,-0.8125,0.162109375,0.58984375,-0.033203125,-0.14453125,-7.79296875,0.484375,1.0
4829658,,,,,,,,-1.69140625,1.59765625,-0.796875,0.169921875,0.509765625,-0.01171875,-0.10546875,-7.75390625,0.71484375,1.0
4829659,,,,,,,,-1.64453125,1.58984375,-0.62109375,0.19140625,0.427734375,-0.00390625,-0.14453125,-7.90625,0.75390625,1.0
4829660,36.013408,129.319501,81.22372907889405,111.84728930963843,1.1,354.0,,-1.62109375,2.05078125,-0.54296875,0.201171875,0.37109375,0.0,-0.10546875,-8.44921875,0.75390625,1.0
4829661,,,,,,,,-1.4296875,0.546875,-0.546875,0.1953125,0.314453125,0.00390625,0.1640625,-8.90625,0.90625,1.0
4829662,,,,,,,,-1.26953125,0.39453125,-0.45703125,0.19921875,0.2578125,-0.00390625,0.31640625,-9.05859375,0.98046875,1.0
4829663,,,,,,,,-1.18359375,0.1875,-0.44140625,0.193359375,0.23046875,-0.001953125,0.31640625,-9.21484375,1.05859375,1.0
4829664,,,,,,,,-1.17578125,-0.04296875,-0.35546875,0.177734375,0.205078125,-0.009765625,0.27734375,-9.36328125,1.17578125,1.0
4829665,,,,,,,,-1.28125,-0.12890625,-0.21875,0.16015625,0.185546875,-0.01953125,0.203125,-9.4375,1.2890625,1.0
4829666,,,,,,,,-1.28125,-0.203125,-0.234375,0.138671875,0.154296875,-0.025390625,0.203125,-9.51953125,1.2890625,1.0
4829667,,,,,,,,-1.16796875,-0.2890625,-0.2890625,0.103515625,0.11328125,-0.03515625,0.31640625,-9.59765625,1.25,1.0
4829668,,,,,,,,-1.08203125,-0.40234375,-0.37890625,0.05078125,0.0859375,-0.033203125,0.39453125,-9.70703125,1.17578125,1.0
4829669,,,,,,,,-1.046875,-0.55859375,-0.37890625,-0.025390625,0.08984375,-0.03515625,0.4296875,-9.859375,1.17578125,1.0
4829670,36.013409,129.31950116666667,81.23875278956054,111.95824869803894,1.1,0.0,,-0.76953125,-0.59765625,-0.37109375,-0.09375,0.103515625,-0.02734375,0.69921875,-9.8984375,1.17578125,1.0
4829671,,,,,,,,-0.42578125,-0.52734375,-0.51171875,-0.203125,0.115234375,-0.041015625,1.04296875,-9.8203125,1.01953125,1.0
4829672,,,,,,,,-0.234375,-0.671875,-0.5703125,-0.3046875,0.13671875,-0.046875,1.234375,-9.9765625,0.9453125,1.0
4829673,,,,,,,,-0.234375,-0.75,-0.59375,-0.3671875,0.1640625,-0.05078125,1.234375,-10.0546875,0.90625,1.0
4829674,,,,,,,,-0.1953125,-0.51953125,-0.43359375,-0.474609375,0.193359375,-0.048828125,1.2734375,-9.82421875,1.01953125,1.0
4829675,,,,,,,,-0.53125,0.0234375,-0.203125,-0.5390625,0.21484375,-0.056640625,0.9296875,-9.29296875,1.2109375,1.0
4829676,,,,,,,,-1.11328125,0.0390625,-0.16015625,-0.619140625,0.234375,-0.060546875,0.35546875,-9.29296875,1.17578125,1.0
4829677,,,,,,,,-1.375,-1.3671875,-0.19140625,-0.71484375,0.2109375,-0.052734375,0.0859375,-10.703125,1.09765625,1.0
4829678,,,,,,,,-1.3359375,-1.90625,-0.07421875,-0.78515625,0.169921875,-0.04296875,0.125,-11.24609375,1.17578125,1.0
4829679,,,,,,,,-0.4921875,-2.96875,1.08203125,-0.90234375,0.0078125,-0.029296875,0.96875,-12.31640625,2.24609375,1.0
4829680,36.01341,129.31950166666667,81.28382597263071,112.06920836383247,1.2000000000000002,9.0,,0.46484375,-3.4921875,1.93359375,-0.916015625,-0.146484375,-0.021484375,1.92578125,-12.8515625,3.01171875,1.0
4829681,,,,,,,,2.72265625,-4.2109375,2.328125,-0.857421875,-0.169921875,-0.009765625,4.18359375,-13.578125,3.3203125,1.0
4829682,,,,,,,,2.72265625,-4.2109375,2.3671875,-0.84375,-0.017578125,-0.017578125,5.14453125,-12.54296875,3.39453125,1.0
4829683,,,,,,,,3.4609375,-2.05078125,2.5078125,-0.587890625,0.287109375,-0.041015625,4.9140625,-11.43359375,3.359375,1.0
4829684,,,,,,,,2.5703125,-1.734375,2.65234375,-0.25,0.576171875,-0.091796875,4.03125,-11.12890625,3.47265625,1.0
4829685,,,,,,,,0.80859375,-1.96484375,3.08203125,-0.001953125,0.53515625,-0.146484375,1.65625,-11.51171875,4.0078125,1.0
4829686,,,,,,,,0.1875,-2.125,3.1953125,0.083984375,0.4453125,-0.150390625,0.73828125,-11.890625,4.19921875,1.0
4829687,,,,,,,,-1.23828125,-2.6640625,3.125,0.279296875,0.3125,-0.14453125,0.23828125,-12.05078125,3.96875,1.0
4829688,,,,,,,,-1.25390625,-2.30859375,2.703125,0.412109375,0.25390625,-0.09375,0.23828125,-11.6953125,3.5859375,1.0
4829689,,,,,,,,-1.09765625,-2.125,2.48828125,0.44921875,0.25390625,-0.041015625,0.39453125,-11.5078125,3.39453125,1.0
4829690,36.013411,129.3195018333333,81.29884968005493,112.18016775266432,1.2000000000000002,13.0,,-0.5078125,-1.28515625,2.2421875,-0.916015625,-0.146484375,-0.021484375,0.96875,-10.6640625,3.203125,1.0
4829691,,,,,,,,-0.38671875,-0.41015625,2.234375,0.435546875,0.33984375,0.146484375,1.08203125,-9.78125,3.2421875,1.0
4829692,,,,,,,,-0.5078125,-0.02734375,1.91796875,0.408203125,0.357421875,0.2265625,0.9296875,-9.3984375,2.97265625,1.0
4829693,,,,,,,,-0.578125,0.09375,1.55078125,0.375,0.345703125,0.248046875,0.8515625,-9.2890625,2.62890625,1.0
4829694,,,,,,,,-0.46875,-0.01171875,1.28125,0.271484375,0.263671875,0.267578125,0.9296875,-9.40234375,2.3984375,1.0
4829695,,,,,,,,0.0234375,-0.28125,1.18359375,0.10546875,0.109375,0.2578125,1.390625,-9.67578125,2.32421875,1.0
4829696,,,,,,,,0.20703125,-0.2734375,1.17578125,-0.03515625,0.0078125,0.23046875,1.54296875,-9.671875,2.32421875,1.0
4829697,,,,,,,,0.0078125,0.33984375,1.01953125,-0.021484375,0.0625,0.21875,1.3125,-9.05859375,2.16796875,1.0
4829698,,,,,,,,-0.08984375,0.5703125,0.9453125,0.0,0.1015625,0.203125,1.19921875,-8.83203125,2.09375,1.0
4829699,,,,,,,,-0.18359375,1.23046875,0.5859375,0.04296875,0.19140625,0.197265625,1.08203125,-8.17578125,1.75,1.0
4829700,36.01341166666667,129.319502,81.3138737369747,112.25414072464233,1.1,13.0,0.0,-0.15234375,1.6953125,0.38671875,-0.916015625,-0.146484375,-0.021484375,1.08203125,-7.71875,1.55859375,1.0
4829701,,,,,,,,-0.09765625,1.88671875,0.30078125,0.01953125,0.240234375,0.173828125,1.12109375,-7.5234375,1.48046875,1.0
4829702,,,,,,,,-0.03515625,2.1640625,0.21484375,0.005859375,0.2578125,0.166015625,1.16015625,-7.2578125,1.40234375,1.0
4829703,,,,,,,,-0.06640625,2.5078125,0.1015625,0.005859375,0.265625,0.15234375,1.12109375,-6.9140625,1.2890625,1.0
4829704,,,,,,,,0.0625,2.78515625,-0.01953125,-0.00390625,0.279296875,0.13671875,1.234375,-6.640625,1.17578125,1.0
4829705,,,,,,,,0.32421875,2.82421875,-0.296875,0.0078125,0.310546875,0.0859375,1.46484375,-6.6015625,0.90625,1.0
4829706,,,,,,,,0.5234375,2.671875,-0.34375,0.0078125,0.3359375,0.05078125,1.65625,-6.76171875,0.8671875,1.0
4829707,,,,,,,,0.6484375,2.5546875,-0.4296875,-0.00390625,0.359375,0.013671875,1.7734375,-6.87890625,0.7890625,1.0
4829708,,,,,,,,0.6484375,2.515625,-0.46484375,0.005859375,0.375,-0.001953125,1.7734375,-6.9140625,0.75390625,1.0
4829709,,,,,,,,0.5859375,2.35546875,-0.51953125,0.03515625,0.447265625,-0.05078125,1.6953125,-7.06640625,0.71484375,1.0
4829710,36.01341266666667,129.31950233333333,81.34392218160087,112.3651002519747,1.1,15.0,,0.43359375,2.31640625,-0.60546875,-0.916015625,-0.146484375,-0.021484375,1.08203125,-7.71875,1.55859375,1.0
4829711,,,,,,,,0.30859375,2.28125,-0.6953125,0.0703125,0.51171875,-0.123046875,1.42578125,-7.14453125,0.5625,1.0
4829712,,,,,,,,0.28125,2.2421875,-0.67578125,0.076171875,0.5234375,-0.138671875,1.390625,-7.18359375,0.59765625,1.0
4829713,,,,,,,,0.1953125,2.1640625,-0.60546875,0.0859375,0.53515625,-0.169921875,1.3125,-7.2578125,0.67578125,1.0
4829714,,,,,,,,0.1796875,2.03515625,-0.70703125,0.11328125,0.5390625,-0.1796875,1.3125,-7.3671875,0.59765625,1.0
4829715,,,,,,,,0.1328125,1.84375,-0.7578125,0.109375,0.5390625,-0.1875,1.2734375,-7.5625,0.5625,1.0
4829716,,,,,,,,0.125,1.796875,-0.73046875,0.115234375,0.529296875,-0.177734375,1.2734375,-7.6015625,0.59765625,1.0
4829717,,,,,,,,0.1171875,1.26171875,-0.8671875,0.115234375,0.533203125,-0.171875,1.2734375,-8.13671875,0.484375,1.0
4829718,,,,,,,,0.02734375,0.78515625,-0.9453125,0.107421875,0.548828125,-0.15234375,1.19921875,-8.59375,0.4453125,1.0
4829719,,,,,,,,0.0625,0.70703125,-0.875,0.09765625,0.55078125,-0.15625,1.234375,-8.671875,0.5234375,1.0
4829720,36.013413666666665,129.31950266666666,81.37397062537613,112.47605977891793,1.1,17.0,,0.171875,0.46875,-0.43359375,0.0703125,0.5625,-0.140625,1.3515625,-8.91015625,0.98046875,1.0
4829721,,,,,,,,0.21875,0.234375,-0.29296875,0.0546875,0.5625,-0.125,1.390625,-9.1328125,1.13671875,1.0
4829722,,,,,,,,0.1328125,0.04296875,-0.30078125,0.041015625,0.544921875,-0.103515625,1.3125,-9.32421875,1.13671875,1.0
4829723,,,,,,,,0.0546875,-0.03515625,-0.26953125,0.044921875,0.52734375,-0.08984375,1.234375,-9.3984375,1.17578125,1.0
4829724,,,,,,,,0.01953125,-0.11328125,-0.36328125,0.048828125,0.494140625,-0.0703125,1.19921875,-9.4765625,1.09765625,1.0
4829725,,,,,,,,0.0546875,-0.43359375,-0.41796875,0.029296875,0.435546875,-0.0390625,1.234375,-9.78125,1.05859375,1.0
4829726,,,,,,,,0.24609375,-1.26953125,-0.41796875,-0.021484375,0.375,-0.01953125,1.42578125,-10.625,1.05859375,1.0
4829727,,,,,,,,0.25390625,-1.66015625,-0.265625,-0.0703125,0.337890625,-0.005859375,1.42578125,-11.0078125,1.2109375,1.0
4829728,,,,,,,,0.29296875,-1.7734375,-0.1875,-0.08984375,0.322265625,-0.00390625,1.46484375,-11.12890625,1.2890625,1.0
4829729,,,,,,,,0.078125,-1.73828125,0.1953125,-0.09765625,0.3046875,0.015625,1.234375,-11.08984375,1.671875,1.0
4829730,36.01341466666667,129.3195031666667,81.41904380861436,112.58701944694846,1.1,17.0,,0.0859375,-1.31640625,0.28125,-0.091796875,0.29296875,0.029296875,1.3515625,-8.91015625,0.98046875,1.0
4829731,,,,,,,,0.44140625,-0.47265625,-0.05859375,-0.09765625,0.23046875,0.046875,1.58203125,-9.8203125,1.40234375,1.0
4829732,,,,,,,,0.9453125,0.1875,-0.35546875,-0.1796875,0.1875,0.06640625,2.078125,-9.17578125,1.09765625,1.0
4829733,,,,,,,,1.26171875,0.109375,-0.5625,-0.419921875,0.21484375,0.11328125,2.421875,-9.44140625,0.71484375,1.0
4829734,,,,,,,,1.50390625,-0.80078125,-0.90625,-0.6171875,0.220703125,0.1484375,2.69140625,-10.6640625,0.33203125,1.0
4829735,,,,,,,,1.7890625,-2.44140625,-1.2734375,-0.775390625,0.21875,0.146484375,2.9609375,-12.35546875,-0.05078125,1.0
4829736,,,,,,,,1.875,-2.96875,-1.35546875,-0.833984375,0.234375,0.125,2.99609375,-12.73828125,-0.01171875,1.0
4829737,,,,,,,,1.734375,-3.26953125,-0.63671875,-0.904296875,0.37109375,0.072265625,2.61328125,-12.23828125,1.17578125,1.0
4829738,,,,,,,,1.33203125,-2.41015625,0.5234375,-0.8828125,0.71484375,0.005859375,1.46484375,-11.73828125,2.3984375,1.0
4829739,,,,,,,,0.15234375,-2.6328125,1.4375,-0.783203125,1.056640625,-0.00390625,0.8125,-12.58203125,2.5546875,1.0
4829740,36.01341566666667,129.31950366666666,81.46411698438338,112.69797911383856,1.1,18.0,,-0.4921875,-3.62109375,1.4609375,-0.759765625,1.115234375,0.07421875,-0.06640625,-13.3828125,2.859375,1.0
4829741,,,,,,,,-1.3203125,-3.7265625,2.44140625,-0.71484375,0.986328125,0.087890625,-0.52734375,-12.62109375,3.89453125,1.0
4829742,,,,,,,,-1.53515625,-3.18359375,2.97265625,-0.587890625,0.98046875,0.072265625,-0.56640625,-12.046875,4.23828125,1.0
4829743,,,,,,,,-1.51953125,-1.8359375,3.44140625,0.0078125,0.978515625,0.095703125,-0.56640625,-10.97265625,4.125,1.0
4829744,,,,,,,,-1.54296875,-1.52734375,3.25,0.1171875,0.970703125,0.103515625,-0.41015625,-10.703125,3.55078125,1.0
4829745,,,,,,,,-0.9375,-1.3359375,2.453125,0.16796875,0.95703125,0.130859375,0.66015625,-10.86328125,3.51171875,1.0
4829746,,,,,,,,-0.26953125,-1.4140625,2.58203125,0.16015625,0.966796875,0.12109375,0.96875,-10.96875,3.55078125,1.0
4829747,,,,,,,,0.62890625,-1.6796875,2.6796875,0.212890625,1.01953125,0.05078125,1.80859375,-11.046875,3.5859375,1.0
4829748,,,,,,,,0.91015625,-1.60546875,2.609375,0.251953125,1.02734375,0.02734375,2.0,-10.78125,3.47265625,1.0
4829749,,,,,,,,0.23828125,-0.29296875,1.8046875,0.337890625,1.044921875,-0.10546875,1.12109375,-9.7421875,2.859375,1.0
4829750,36.013416666666664,129.319504,81.49416542560598,112.80893864187445,1.1,18.0,,-0.14453125,-0.03515625,1.65234375,0.33203125,1.037109375,-0.1875,0.73828125,-9.4765625,2.74609375,1.0
4829751,,,,,,,,-1.30859375,0.46484375,1.43359375,0.21875,0.966796875,-0.2421875,-0.41015625,-8.9765625,2.58984375,1.0
4829752,,,,,,,,-1.515625,0.37890625,1.3671875,0.134765625,0.87109375,-0.248046875,-0.6015625,-9.0546875,2.5546875,1.0
4829753,,,,,,,,-1.37890625,0.3046875,1.12109375,0.083984375,0.7578125,-0.263671875,-0.44921875,-9.1328125,2.32421875,1.0
4829754,,,,,,,,-1.1953125,0.5703125,0.7578125,0.064453125,0.671875,-0.2578125,-0.2578125,-8.8671875,1.9765625,1.0
4829755,,,,,,,,-0.97265625,0.984375,0.55078125,0.060546875,0.625,-0.244140625,-0.02734375,-8.44921875,1.78515625,1.0
4829756,,,,,,,,-0.875,1.21484375,0.4296875,0.0703125,0.609375,-0.24609375,0.0859375,-8.21484375,1.671875,1.0
4829757,,,,,,,,-0.73828125,1.67578125,0.109375,0.080078125,0.576171875,-0.232421875,0.23828125,-7.75390625,1.3671875,1.0
4829758,,,,,,,,-0.59765625,2.09765625,-0.13671875,0.046875,0.5234375,-0.23828125,0.39453125,-7.328125,1.13671875,1.0
4829759,,,,,,,,-0.53125,2.39453125,-0.30078125,0.005859375,0.466796875,-0.23828125,0.46875,-7.0234375,0.98046875,1.0
4829760,36.01341766666667,129.31950433333336,81.52421386859893,112.91989816967455,1.0,16.0,,-0.59375,2.5859375,-0.23046875,-0.001953125,0.44140625,-0.234375,0.4296875,-6.83984375,1.05859375,1.0
4829761,,,,,,,,-0.8671875,2.6640625,-0.31640625,0.0078125,0.4296875,-0.236328125,0.1640625,-6.76171875,0.98046875,1.0
4829762,,,,,,,,-1.11328125,2.5078125,-0.4375,0.044921875,0.423828125,-0.22265625,-0.06640625,-6.91796875,0.8671875,1.0
4829763,,,,,,,,-1.2734375,2.43359375,-0.5234375,0.064453125,0.4296875,-0.216796875,-0.21875,-6.98828125,0.7890625,1.0
4829764,,,,,,,,-1.3984375,2.38671875,-0.61328125,0.099609375,0.41796875,-0.189453125,-0.3359375,-7.0234375,0.71484375,1.0
4829765,,,,,,,,-1.453125,2.1953125,-0.70703125,0.123046875,0.396484375,-0.154296875,-0.41015625,-7.26171875,0.63671875,1.0
4829766,,,,,,,,-1.56640625,1.92578125,-0.76171875,0.12890625,0.375,-0.12109375,-0.48828125,-7.484375,0.59765625,1.0
4829767,,,,,,,,-1.49609375,1.6875,-0.70703125,0.1484375,0.35546875,-0.08984375,-0.41015625,-7.71875,0.67578125,1.0
4829768,,,,,,,,-1.49609375,1.60546875,-0.68359375,0.154296875,0.326171875,-0.05859375,-0.41015625,-7.7890625,0.71484375,1.0
4829769,,,,,,,,-1.49609375,1.52734375,-0.5234375,0.1796875,0.2734375,-0.013671875,-0.41015625,-7.87109375,0.90625,1.0
4829770,36.01341849999999,129.31950483333333,81.56928721492311,113.01236462850721,1.1,19.0,,-1.48046875,1.51171875,-0.515625,0.20703125,0.208984375,0.013671875,-0.41015625,-7.8671875,0.9453125,1.0
4829771,,,,,,,,-1.4375,1.47265625,-0.73046875,0.208984375,0.16796875,0.02734375,-0.375,-7.90625,0.75390625,1.0
4829772,,,,,,,,-1.2734375,1.3515625,-0.75390625,0.208984375,0.146484375,0.0546875,-0.21875,-8.02734375,0.75390625,1.0
4829773,,,,,,,,-1.11328125,1.12109375,-0.83984375,0.201171875,0.1328125,0.056640625,-0.06640625,-8.25390625,0.67578125,1.0
4829774,,,,,,,,-0.875,0.85546875,-0.82421875,0.171875,0.123046875,0.068359375,0.1640625,-8.515625,0.71484375,1.0
4829775,,,,,,,,-0.75390625,0.5390625,-0.84765625,0.142578125,0.11328125,0.072265625,0.27734375,-8.83203125,0.71484375,1.0
4829776,,,,,,,,-0.78515625,0.5,-0.703125,0.126953125,0.126953125,0.060546875,0.23828125,-8.8671875,0.8671875,1.0
4829777,,,,,,,,-0.8046875,0.6171875,-0.7578125,0.119140625,0.13671875,0.052734375,0.203125,-8.75,0.828125,1.0
4829778,,,,,,,,-0.8359375,0.76953125,-0.87890625,0.115234375,0.14453125,0.044921875,0.1640625,-8.59765625,0.71484375,1.0
4829779,,,,,,,,-0.796875,0.68359375,-1.01171875,0.087890625,0.142578125,0.033203125,0.203125,-8.671875,0.59765625,1.0
4829780,36.013419500000005,129.31950566666669,81.64440986034757,113.12332457654554,1.1,25.0,,-0.70703125,0.4921875,-0.94140625,0.20703125,0.208984375,0.013671875,-0.41015625,-7.8671875,0.9453125,1.0
4829781,,,,,,,,-0.70703125,-0.04296875,-0.828125,-0.041015625,0.11328125,0.001953125,0.27734375,-9.40234375,0.7890625,1.0
4829782,,,,,,,,-0.546875,-0.35546875,-0.75,-0.095703125,0.103515625,-0.01953125,0.4296875,-9.703125,0.8671875,1.0
4829783,,,,,,,,-0.4765625,-0.6640625,-0.6640625,-0.11328125,0.095703125,-0.017578125,0.5078125,-10.015625,0.9453125,1.0
4829784,,,,,,,,-0.31640625,-0.7421875,-0.53515625,-0.162109375,0.1015625,-0.03125,0.66015625,-10.09375,1.05859375,1.0
4829785,,,,,,,,-0.23828125,-0.76953125,-0.42578125,-0.18359375,0.125,-0.033203125,0.73828125,-10.125,1.13671875,1.0
4829786,,,,,,,,-0.26953125,-0.76953125,-0.41015625,-0.201171875,0.1796875,-0.044921875,0.69921875,-10.12890625,1.13671875,1.0
4829787,,,,,,,,-0.5,-0.9609375,-0.51953125,-0.234375,0.24609375,-0.05078125,0.46875,-10.3203125,1.01953125,1.0
4829788,,,,,,,,-0.57421875,-1.1171875,-0.50390625,-0.263671875,0.2734375,-0.048828125,0.39453125,-10.4765625,1.01953125,1.0
4829789,,,,,,,,-0.375,-0.92578125,-0.30859375,-0.35546875,0.30078125,-0.0546875,0.5859375,-10.28515625,1.17578125,1.0
4829790,36.013420333333336,129.3195065,81.71953267337659,113.21579131591497,1.2000000000000002,30.0,,-0.4140625,-0.3046875,-0.125,0.20703125,0.208984375,0.013671875,-0.41015625,-7.8671875,0.9453125,1.0
4829791,,,,,,,,-1.03515625,0.125,0.01953125,-0.3515625,0.34375,-0.095703125,-0.06640625,-9.25,1.44140625,1.0
4829792,,,,,,,,-1.37890625,0.27734375,0.07421875,-0.376953125,0.333984375,-0.111328125,-0.41015625,-9.09765625,1.48046875,1.0
4829793,,,,,,,,-1.83984375,0.01171875,0.14453125,-0.408203125,0.2734375,-0.12890625,-0.87109375,-9.36328125,1.51953125,1.0
4829794,,,,,,,,-2.078125,-0.640625,0.04296875,-0.44140625,0.2109375,-0.140625,-1.1015625,-10.01953125,1.40234375,1.0
4829795,,,,,,,,-1.89453125,-1.25390625,0.015625,-0.544921875,0.0234375,-0.158203125,-0.91015625,-10.62890625,1.328125,1.0
4829796,,,,,,,,-1.10546875,-1.54296875,0.75,-0.6796875,-0.29296875,-0.103515625,-0.10546875,-10.93359375,1.9765625,1.0
4829797,,,,,,,,0.18359375,-2.53125,1.16796875,-0.708984375,-0.41796875,-0.05859375,1.19921875,-11.9296875,2.32421875,1.0
4829798,,,,,,,,3.58984375,-5.54296875,2.984375,-0.958984375,-0.376953125,-0.04296875,4.60546875,-14.95703125,3.96875,1.0
4829799,,,,,,,,5.0,-4.73046875,3.9140625,-0.89453125,-0.330078125,-0.06640625,6.0234375,-14.15234375,4.8515625,1.0
4829800,36.01342116666667,129.31950733333332,81.79465548703,113.30825805670771,1.2000000000000002,35.0,0.0,4.1484375,-3.6875,3.77734375,0.20703125,0.208984375,0.013671875,5.1796875,-13.1171875,4.66015625,1.0
4829801,,,,,,,,1.59765625,-2.84765625,3.5234375,0.24609375,0.32421875,-0.25,2.65234375,-12.27734375,4.390625,1.0
4829802,,,,,,,,0.234375,-3.0078125,3.32421875,0.486328125,0.35546875,-0.26171875,1.3125,-12.43359375,4.23828125,1.0
4829803,,,,,,,,-0.890625,-3.24609375,3.0,0.51171875,0.216796875,-0.232421875,0.203125,-12.66015625,3.96875,1.0
4829804,,,,,,,,-0.5234375,-2.44140625,2.265625,0.484375,0.080078125,-0.140625,0.5859375,-11.8515625,3.28125,1.0
4829805,,,,,,,,-0.07421875,-1.14453125,1.91015625,0.46875,0.09765625,-0.017578125,1.04296875,-10.546875,2.97265625,1.0
4829806,,,,,,,,-0.1484375,-0.71484375,1.8125,0.474609375,0.169921875,0.04296875,0.96875,-10.125,2.8984375,1.0
4829807,,,,,,,,-0.47265625,0.15625,1.45703125,0.44921875,0.32421875,0.162109375,0.62109375,-9.25,2.58984375,1.0
4829808,,,,,,,,-0.609375,0.34765625,1.21875,0.337890625,0.400390625,0.259765625,0.46875,-9.0546875,2.3984375,1.0
4829809,,,,,,,,-0.4921875,0.1953125,0.8828125,0.177734375,0.34765625,0.32421875,0.546875,-9.21484375,2.09375,1.0
4829810,36.01342216666667,129.31950816666668,81.86977812738003,113.41921800629972,1.2000000000000002,37.0,,-0.30859375,0.08984375,0.70703125,0.20703125,0.208984375,0.013671875,0.69921875,-9.3203125,1.94140625,1.0
4829811,,,,,,,,-0.21484375,0.36328125,0.59765625,-0.0625,0.15234375,0.357421875,0.73828125,-9.0546875,1.82421875,1.0
4829812,,,,,,,,-0.4375,0.91015625,0.58984375,-0.0234375,0.185546875,0.34375,0.46875,-8.515625,1.82421875,1.0
4829813,,,,,,,,-0.49609375,1.109375,0.4765625,0.01953125,0.208984375,0.333984375,0.39453125,-8.328125,1.7109375,1.0
4829814,,,,,,,,-0.6953125,1.71875,0.23828125,0.076171875,0.240234375,0.314453125,0.1640625,-7.72265625,1.48046875,1.0
4829815,,,,,,,,-0.6875,2.37109375,0.0234375,0.09375,0.228515625,0.291015625,0.125,-7.0625,1.2890625,1.0
4829816,,,,,,,,-0.65625,2.5703125,-0.0234375,0.056640625,0.22265625,0.27734375,0.125,-6.875,1.25,1.0
4829817,,,,,,,,-0.38671875,2.6875,-0.0390625,0.029296875,0.21875,0.265625,0.35546875,-6.76171875,1.25,1.0
4829818,,,,,,,,-0.2265625,2.80078125,-0.11328125,0.021484375,0.21875,0.25390625,0.5078125,-6.64453125,1.17578125,1.0
4829819,,,,,,,,0.03515625,2.9609375,-0.19140625,0.0078125,0.205078125,0.224609375,0.73828125,-6.49609375,1.09765625,1.0
