time,latitude,longitude,enu_x,enu_y,speed,course,ecg,accX,accY,accZ,gyrX,gyrY,gyrZ,eulR,eulP,eulY,validity
4823520,36.01339883333333,129.31954166666668,84.88977477612809,110.83019751975755,1.1,241.0,,-0.38671875,0.54296875,1.109375,0.26953125,-0.033203125,-0.19140625,1.42578125,-8.7109375,2.515625,1.0
4823521,,,,,,,,-0.25390625,0.69921875,0.87109375,0.33984375,0.296875,0.1640625,1.54296875,-8.5546875,2.32421875,1.0
4823522,,,,,,,,0.10546875,0.19921875,0.68359375,0.173828125,0.17578125,0.1796875,1.88671875,-9.05859375,2.16796875,1.0
4823523,,,,,,,,0.2421875,0.015625,0.6328125,0.0546875,0.0859375,0.18359375,2.0,-9.25390625,2.1328125,1.0
4823524,,,,,,,,0.18359375,0.140625,0.66015625,0.03125,0.078125,0.1796875,1.92578125,-9.13671875,2.16796875,1.0
4823525,,,,,,,,-0.16796875,0.75390625,0.5,0.109375,0.146484375,0.16015625,1.54296875,-8.515625,2.015625,1.0
4823526,,,,,,,,-0.3984375,1.2109375,0.26171875,0.150390625,0.171875,0.15234375,1.3125,-8.06640625,1.78515625,1.0
4823527,,,,,,,,-0.52734375,1.640625,0.046875,0.185546875,0.19921875,0.154296875,1.16015625,-7.64453125,1.59375,1.0
4823528,,,,,,,,-0.58984375,2.1015625,-0.16796875,0.1796875,0.205078125,0.154296875,1.08203125,-7.18359375,1.40234375,1.0
4823529,,,,,,,,-0.421875,2.3671875,-0.2578125,0.138671875,0.212890625,0.158203125,1.234375,-6.91796875,1.328125,1.0
4823530,36.01339816666667,129.319541,84.82967653114923,110.75622410742439,0.9,238.0,,-0.16796875,2.58984375,-0.20703125,0.091796875,0.216796875,0.154296875,1.46484375,-6.68359375,1.40234375,1.0
4823531,,,,,,,,0.0,2.71484375,-0.2578125,0.078125,0.228515625,0.15234375,1.6171875,-6.56640625,1.3671875,1.0
4823532,,,,,,,,0.36328125,2.55859375,-0.49609375,0.0703125,0.228515625,0.130859375,1.96484375,-6.72265625,1.13671875,1.0
4823533,,,,,,,,0.5234375,2.484375,-0.50390625,0.0703125,0.23046875,0.1328125,2.1171875,-6.80078125,1.13671875,1.0
4823534,,,,,,,,0.73828125,2.30078125,-0.47265625,0.009765625,0.275390625,0.107421875,2.30859375,-6.984375,1.17578125,1.0
4823535,,,,,,,,0.79296875,2.140625,-0.52734375,-0.00390625,0.32421875,0.0703125,2.34765625,-7.140625,1.13671875,1.0
4823536,,,,,,,,0.84765625,2.17578125,-0.60546875,0.00390625,0.341796875,0.0390625,2.38671875,-7.1015625,1.05859375,1.0
4823537,,,,,,,,0.85546875,2.1015625,-0.765625,0.01171875,0.34765625,-0.005859375,2.38671875,-7.18359375,0.90625,1.0
4823538,,,,,,,,0.85546875,2.0234375,-0.84375,0.01171875,0.353515625,-0.02734375,2.38671875,-7.2578125,0.828125,1.0
4823539,,,,,,,,0.81640625,1.79296875,-0.96484375,-0.001953125,0.36328125,-0.0546875,2.34765625,-7.484375,0.71484375,1.0
4823540,36.013397833333336,129.31954016666666,84.75455319242239,110.71923696584608,0.9,239.0,,0.66015625,1.41015625,-0.78125,-0.025390625,0.46484375,-0.087890625,1.46484375,-6.68359375,1.40234375,1.0
4823541,,,,,,,,0.203125,1.05859375,-0.56640625,-0.013671875,0.541015625,-0.09375,1.734375,-8.2109375,1.13671875,1.0
4823542,,,,,,,,0.05859375,0.9453125,-0.54296875,0.046875,0.55078125,-0.080078125,1.58203125,-8.328125,1.17578125,1.0
4823543,,,,,,,,0.2109375,0.828125,-0.69921875,0.0625,0.529296875,-0.087890625,1.734375,-8.4453125,1.01953125,1.0
4823544,,,,,,,,0.36328125,0.67578125,-0.828125,0.0703125,0.4609375,-0.076171875,1.88671875,-8.59375,0.90625,1.0
4823545,,,,,,,,0.546875,0.4765625,-0.9609375,0.0546875,0.3984375,-0.064453125,2.078125,-8.79296875,0.7890625,1.0
4823546,,,,,,,,0.59375,0.27734375,-1.01171875,0.033203125,0.3671875,-0.0546875,2.1171875,-8.9765625,0.75390625,1.0
4823547,,,,,,,,0.515625,0.15234375,-0.984375,0.0390625,0.3984375,-0.037109375,2.0390625,-9.09765625,0.7890625,1.0
4823548,,,,,,,,0.484375,0.15234375,-0.9140625,0.052734375,0.41015625,-0.033203125,2.0,-9.09765625,0.8671875,1.0
4823549,,,,,,,,0.33203125,0.0,-0.84375,0.068359375,0.40625,-0.017578125,1.84765625,-9.25390625,0.9453125,1.0
4823550,36.013397166666664,129.3195391666667,84.66440547499883,110.645263263571,1.0,239.0,,0.1484375,-0.11328125,-0.78515625,0.08203125,0.40234375,0.001953125,1.65625,-9.359375,1.01953125,1.0
4823551,,,,,,,,0.00390625,-0.07421875,-0.80078125,0.08984375,0.408203125,0.01953125,1.50390625,-9.3203125,1.01953125,1.0
4823552,,,,,,,,-0.140625,-0.046875,-0.69921875,0.09375,0.419921875,0.03125,1.3515625,-9.29296875,1.13671875,1.0
4823553,,,,,,,,-0.203125,-0.12109375,-0.6015625,0.080078125,0.41796875,0.046875,1.2734375,-9.359375,1.25,1.0
4823554,,,,,,,,-0.15625,-0.28125,-0.6015625,0.037109375,0.373046875,0.06640625,1.3125,-9.51953125,1.25,1.0
4823555,,,,,,,,-0.0625,-0.390625,-0.4921875,-0.025390625,0.302734375,0.07421875,1.390625,-9.63671875,1.3671875,1.0
4823556,,,,,,,,0.05859375,-0.46484375,-0.37890625,-0.046875,0.267578125,0.0859375,1.50390625,-9.703125,1.48046875,1.0
4823557,,,,,,,,0.25,-0.62109375,-0.265625,-0.095703125,0.228515625,0.072265625,1.6953125,-9.86328125,1.59375,1.0
4823558,,,,,,,,0.37890625,-0.58984375,-0.1875,-0.15234375,0.216796875,0.064453125,1.80859375,-9.8203125,1.671875,1.0
4823559,,,,,,,,0.50390625,-0.2734375,0.09765625,-0.23046875,0.25,0.0546875,1.92578125,-9.51953125,1.94140625,1.0
4823560,36.0133965,129.31953816666666,84.5742577490253,110.57128956218253,1.1,234.0,,0.82421875,0.34375,0.38671875,0.08203125,0.40234375,0.001953125,2.23046875,-8.90625,2.20703125,1.0
4823561,,,,,,,,0.96484375,0.5078125,0.44140625,-0.4765625,0.43359375,0.095703125,2.34765625,-8.75,2.20703125,1.0
4823562,,,,,,,,0.86328125,0.28515625,-0.015625,-0.572265625,0.46484375,0.109375,2.23046875,-8.9765625,1.7109375,1.0
4823563,,,,,,,,0.91015625,-0.28125,-0.4140625,-0.626953125,0.423828125,0.119140625,2.26953125,-9.5546875,1.2890625,1.0
4823564,,,,,,,,1.04296875,-1.15625,-0.8125,-0.7890625,0.265625,0.130859375,2.38671875,-10.4375,0.828125,1.0
4823565,,,,,,,,1.32421875,-1.5625,-0.92578125,-0.95703125,0.115234375,0.111328125,2.65234375,-10.86328125,0.63671875,1.0
4823566,,,,,,,,1.37890625,-0.93359375,-0.44921875,-1.03125,0.197265625,0.060546875,2.69140625,-10.24609375,1.01953125,1.0
4823567,,,,,,,,0.61328125,-1.0625,0.2578125,-1.044921875,0.517578125,0.009765625,1.92578125,-10.3984375,1.6328125,1.0
4823568,,,,,,,,0.3125,-1.59765625,0.44921875,-1.072265625,0.63671875,0.02734375,1.6171875,-10.93359375,1.78515625,1.0
4823569,,,,,,,,-0.51953125,-3.078125,0.66015625,-1.171875,0.611328125,0.087890625,0.77734375,-12.4296875,1.90234375,1.0
4823570,36.01339599999999,129.31953716666666,84.48410984653368,110.51580906926846,1.0,235.0,,-1.68359375,-3.12109375,2.50390625,-0.75390625,0.392578125,0.052734375,-0.41015625,-12.50390625,3.55078125,1.0
4823571,,,,,,,,-1.1015625,-0.9296875,1.390625,-0.24609375,0.419921875,0.03125,0.1640625,-10.32421875,2.3984375,1.0
4823572,,,,,,,,-0.75,-1.50390625,0.82421875,-0.048828125,0.447265625,0.0859375,0.5078125,-10.89453125,1.82421875,1.0
4823573,,,,,,,,-0.2734375,-2.5390625,1.3984375,-0.1796875,0.501953125,0.15625,0.96875,-11.93359375,2.3984375,1.0
4823574,,,,,,,,0.5546875,-3.296875,2.1796875,-0.255859375,0.5625,0.19140625,1.7734375,-12.69921875,3.1640625,1.0
4823575,,,,,,,,1.03515625,-3.18359375,2.1953125,-0.068359375,0.65234375,0.16796875,2.23046875,-12.58203125,3.1640625,1.0
4823576,,,,,,,,1.16015625,-2.5234375,1.875,0.06640625,0.693359375,0.146484375,2.34765625,-11.93359375,2.859375,1.0
4823577,,,,,,,,0.9921875,-1.7578125,1.546875,0.28125,0.74609375,0.078125,2.15625,-11.16796875,2.5546875,1.0
4823578,,,,,,,,0.34765625,-0.6484375,1.390625,0.37109375,0.736328125,-0.021484375,1.50390625,-10.05859375,2.4375,1.0
4823579,,,,,,,,-0.11328125,-0.2734375,1.23046875,0.3671875,0.72265625,-0.103515625,1.04296875,-9.671875,2.32421875,1.0
4823580,36.01339533333333,129.31953633333333,84.40898686130618,110.44183551432023,1.0,233.0,,-0.6484375,-0.34765625,0.9609375,0.3203125,0.671875,-0.16015625,0.5078125,-9.74609375,2.09375,1.0
4823581,,,,,,,,-0.81640625,-0.39453125,0.68359375,0.162109375,0.529296875,-0.1875,0.35546875,-9.78125,1.86328125,1.0
4823582,,,,,,,,-0.83203125,-0.1640625,0.36328125,0.10546875,0.478515625,-0.1796875,0.35546875,-9.5546875,1.55859375,1.0
4823583,,,,,,,,-0.83203125,0.07421875,0.19140625,0.099609375,0.484375,-0.16796875,0.35546875,-9.32421875,1.40234375,1.0
4823584,,,,,,,,-0.80078125,0.71484375,-0.015625,0.11328125,0.55078125,-0.134765625,0.39453125,-8.67578125,1.2109375,1.0
4823585,,,,,,,,-0.78125,1.3203125,-0.19921875,0.15234375,0.630859375,-0.119140625,0.4296875,-8.0625,1.05859375,1.0
4823586,,,,,,,,-0.625,1.90234375,-0.453125,0.140625,0.609375,-0.1328125,0.5859375,-7.48828125,0.828125,1.0
4823587,,,,,,,,-0.6328125,2.35546875,-0.70703125,0.125,0.55078125,-0.16015625,0.5859375,-7.0234375,0.59765625,1.0
4823588,,,,,,,,-0.59765625,2.43359375,-0.7890625,0.11328125,0.5234375,-0.173828125,0.62109375,-6.9453125,0.5234375,1.0
4823589,,,,,,,,-0.6875,2.5,-0.8828125,0.083984375,0.4765625,-0.203125,0.546875,-6.875,0.4453125,1.0
4823590,36.01339483333334,129.31953566666667,84.34888843532488,110.38635531394544,1.0,234.0,,-0.703125,2.5,-1.00390625,0.3203125,0.671875,-0.16015625,0.546875,-6.875,0.33203125,1.0
4823591,,,,,,,,-0.796875,2.34765625,-1.2109375,0.017578125,0.40625,-0.232421875,0.46875,-7.02734375,0.140625,1.0
4823592,,,,,,,,-0.8515625,2.2265625,-1.25,-0.017578125,0.400390625,-0.228515625,0.4296875,-7.14453125,0.1015625,1.0
4823593,,,,,,,,-1.1640625,1.99609375,-1.11328125,-0.02734375,0.43359375,-0.21875,0.125,-7.3671875,0.25390625,1.0
4823594,,,,,,,,-1.5625,1.61328125,-0.8828125,-0.013671875,0.462890625,-0.1875,-0.2578125,-7.75390625,0.484375,1.0
4823595,,,,,,,,-1.76953125,1.296875,-0.859375,0.056640625,0.46484375,-0.134765625,-0.44921875,-8.0625,0.5234375,1.0
4823596,,,,,,,,-1.81640625,1.10546875,-0.953125,0.072265625,0.421875,-0.11328125,-0.48828125,-8.25390625,0.4453125,1.0
4823597,,,,,,,,-1.6640625,0.8671875,-0.921875,0.046875,0.36328125,-0.087890625,-0.3359375,-8.484375,0.484375,1.0
4823598,,,,,,,,-1.5859375,0.79296875,-0.921875,0.03125,0.29296875,-0.072265625,-0.2578125,-8.55859375,0.484375,1.0
4823599,,,,,,,,-1.39453125,0.70703125,-0.8984375,0.01953125,0.220703125,-0.052734375,-0.06640625,-8.63671875,0.5234375,1.0
4823600,36.01339433333333,129.31953466666667,84.25874052903515,110.33087482316876,1.0,237.0,0.0,-1.3203125,0.5546875,-0.859375,0.3203125,0.671875,-0.16015625,0.546875,-6.875,0.33203125,1.0
4823601,,,,,,,,-1.203125,0.2109375,-0.83203125,0.044921875,0.169921875,-0.03515625,0.125,-9.13671875,0.59765625,1.0
4823602,,,,,,,,-1.08984375,0.0546875,-0.79296875,0.05859375,0.166015625,-0.033203125,0.23828125,-9.29296875,0.63671875,1.0
4823603,,,,,,,,-1.05078125,-0.01953125,-0.80859375,0.107421875,0.17578125,-0.033203125,0.27734375,-9.359375,0.63671875,1.0
4823604,,,,,,,,-1.08984375,-0.01953125,-0.80859375,0.134765625,0.181640625,-0.033203125,0.23828125,-9.359375,0.63671875,1.0
4823605,,,,,,,,-1.08203125,0.046875,-0.83984375,0.2109375,0.1875,-0.041015625,0.23828125,-9.29296875,0.63671875,1.0
4823606,,,,,,,,-1.15625,0.203125,-0.89453125,0.228515625,0.19140625,-0.044921875,0.1640625,-9.13671875,0.59765625,1.0
4823607,,,,,,,,-1.05078125,0.453125,-1.03125,0.21875,0.173828125,-0.078125,0.27734375,-8.8671875,0.5234375,1.0
4823608,,,,,,,,-0.8203125,0.53125,-1.15625,0.1953125,0.16015625,-0.08984375,0.5078125,-8.7890625,0.40625,1.0
4823609,,,,,,,,-0.5234375,0.3984375,-1.140625,0.111328125,0.12109375,-0.125,0.8125,-8.91015625,0.4453125,1.0
4823610,36.01339383333333,129.31953366666667,84.16859262395994,110.27539433536899,1.0,239.0,,-0.29296875,0.20703125,-1.1015625,0.078125,0.107421875,-0.134765625,1.04296875,-9.09375,0.484375,1.0
4823611,,,,,,,,-0.125,-0.296875,-1.0234375,-0.046875,0.099609375,-0.171875,1.234375,-9.59375,0.5625,1.0
4823612,,,,,,,,-0.0546875,-0.44140625,-1.0234375,-0.08984375,0.11328125,-0.18359375,1.3125,-9.7421875,0.5625,1.0
4823613,,,,,,,,0.05078125,-0.671875,-0.98046875,-0.171875,0.162109375,-0.197265625,1.42578125,-9.9765625,0.59765625,1.0
4823614,,,,,,,,0.03515625,-0.7890625,-0.95703125,-0.234375,0.248046875,-0.203125,1.42578125,-10.09375,0.59765625,1.0
4823615,,,,,,,,0.01953125,-0.7890625,-0.90234375,-0.26953125,0.3515625,-0.197265625,1.42578125,-10.09375,0.63671875,1.0
4823616,,,,,,,,0.01953125,-0.71875,-0.80859375,-0.287109375,0.412109375,-0.193359375,1.42578125,-10.01953125,0.71484375,1.0
4823617,,,,,,,,-0.140625,-0.48828125,-0.78515625,-0.283203125,0.505859375,-0.1953125,1.2734375,-9.78515625,0.71484375,1.0
4823618,,,,,,,,-0.609375,-0.18359375,-0.73046875,-0.2421875,0.560546875,-0.2109375,0.8125,-9.48046875,0.75390625,1.0
4823619,,,,,,,,-0.84375,-0.14453125,-0.6875,-0.22265625,0.57421875,-0.22265625,0.5859375,-9.4375,0.7890625,1.0
4823620,36.013393666666666,129.31953233333334,84.0483948823287,110.25689997617579,1.1,246.0,,-1.62109375,-0.10546875,-0.48828125,-0.20703125,0.5546875,-0.244140625,-0.18359375,-9.3984375,0.98046875,1.0
4823621,,,,,,,,-2.2109375,-0.44921875,-0.27734375,-0.23828125,0.4609375,-0.25,-0.7578125,-9.74609375,1.17578125,1.0
4823622,,,,,,,,-2.41796875,-0.91015625,-0.5234375,-0.314453125,0.326171875,-0.248046875,-0.94921875,-10.203125,0.90625,1.0
4823623,,,,,,,,-2.203125,-0.98046875,-0.4921875,-0.453125,0.14453125,-0.21875,-0.71875,-10.28515625,0.90625,1.0
4823624,,,,,,,,-1.453125,-0.3203125,0.16015625,-0.603515625,-0.06640625,-0.1328125,0.046875,-9.6328125,1.48046875,1.0
4823625,,,,,,,,-0.47265625,-1.96875,0.64453125,-0.576171875,-0.099609375,-0.083984375,1.04296875,-11.28515625,1.90234375,1.0
4823626,,,,,,,,-0.171875,-2.88671875,0.7890625,-0.607421875,-0.12109375,-0.0625,1.3515625,-12.1953125,2.015625,1.0
4823627,,,,,,,,0.9453125,-4.296875,1.3515625,-0.8515625,-0.189453125,-0.0078125,2.4609375,-13.6171875,2.515625,1.0
4823628,,,,,,,,3.4375,-3.7421875,2.5625,-0.96875,-0.24609375,-0.041015625,4.953125,-13.08203125,3.5859375,1.0
4823629,,,,,,,,3.734375,-3.0390625,2.3359375,-0.51171875,-0.07421875,-0.1015625,5.2578125,-12.39453125,3.28125,1.0
4823630,36.0133935,129.31953116666668,83.94322188026324,110.23840576257557,1.0,252.0,,2.69140625,-2.6953125,2.4453125,-0.20703125,0.5546875,-0.244140625,-0.18359375,-9.3984375,0.98046875,1.0
4823631,,,,,,,,1.56640625,-2.84765625,2.75,0.03515625,0.24609375,-0.203125,3.11328125,-12.19921875,3.6640625,1.0
4823632,,,,,,,,0.046875,-3.5078125,3.00390625,0.19921875,0.1796875,-0.236328125,1.6171875,-12.85546875,3.93359375,1.0
4823633,,,,,,,,-0.1953125,-3.27734375,2.6484375,0.38671875,0.12890625,-0.169921875,1.390625,-12.6171875,3.625,1.0
4823634,,,,,,,,-0.3203125,-2.09765625,1.99609375,0.48046875,0.2265625,-0.08984375,1.2734375,-11.43359375,3.01171875,1.0
4823635,,,,,,,,-0.55078125,-1.17578125,1.484375,0.5625,0.431640625,0.0078125,1.04296875,-10.5078125,2.5546875,1.0
4823636,,,,,,,,-0.81640625,-0.37890625,1.22265625,0.564453125,0.517578125,0.052734375,0.77734375,-9.703125,2.32421875,1.0
4823637,,,,,,,,-0.78515625,0.26953125,0.9453125,0.419921875,0.572265625,0.189453125,0.77734375,-9.05859375,2.1328125,1.0
4823638,,,,,,,,-0.49609375,0.30859375,0.55859375,0.259765625,0.4609375,0.232421875,1.04296875,-9.01953125,1.78515625,1.0
4823639,,,,,,,,-0.39453125,0.27734375,0.30078125,0.09765625,0.298828125,0.220703125,1.12109375,-9.05859375,1.55859375,1.0
4823640,36.01339316666667,129.31953000000001,83.83804905373462,110.20141834163577,1.1,255.0,,-0.41015625,0.515625,0.21484375,0.01953125,0.23828125,0.201171875,1.08203125,-8.83203125,1.48046875,1.0
4823641,,,,,,,,-0.45703125,0.8984375,0.21484375,0.025390625,0.25,0.1640625,1.00390625,-8.4453125,1.48046875,1.0
4823642,,,,,,,,-0.5546875,1.55859375,0.09375,0.064453125,0.26953125,0.12890625,0.890625,-7.7890625,1.3671875,1.0
4823643,,,,,,,,-0.5859375,1.75,0.046875,0.087890625,0.27734375,0.107421875,0.8515625,-7.6015625,1.328125,1.0
4823644,,,,,,,,-0.5,2.0546875,-0.19921875,0.091796875,0.2890625,0.087890625,0.9296875,-7.30078125,1.09765625,1.0
4823645,,,,,,,,-0.37109375,2.24609375,-0.359375,0.046875,0.298828125,0.076171875,1.04296875,-7.10546875,0.9453125,1.0
4823646,,,,,,,,-0.19921875,2.37109375,-0.453125,-0.0078125,0.29296875,0.056640625,1.19921875,-6.984375,0.8671875,1.0
4823647,,,,,,,,0.03515625,2.6015625,-0.453125,-0.041015625,0.298828125,0.041015625,1.42578125,-6.76171875,0.8671875,1.0
4823648,,,,,,,,0.15234375,2.5234375,-0.4140625,-0.046875,0.3046875,0.02734375,1.54296875,-6.8359375,0.90625,1.0
4823649,,,,,,,,0.55078125,2.37109375,-0.4921875,-0.04296875,0.326171875,-0.00390625,1.92578125,-6.984375,0.828125,1.0
4823650,36.01339316666667,129.319529,83.74790061127561,110.20141748205886,1.0,256.0,,0.703125,2.1796875,-0.53125,-0.060546875,0.34375,-0.029296875,2.078125,-7.1796875,0.7890625,1.0
4823651,,,,,,,,0.7109375,1.87109375,-0.71484375,-0.041015625,0.3671875,-0.064453125,2.078125,-7.48828125,0.59765625,1.0
4823652,,,,,,,,0.75,1.796875,-0.7578125,-0.017578125,0.373046875,-0.078125,2.1171875,-7.5625,0.5625,1.0
4823653,,,,,,,,0.7109375,1.60546875,-0.84375,0.013671875,0.40625,-0.13671875,2.0,-7.8671875,0.484375,1.0
4823654,,,,,,,,0.625,1.48828125,-0.84375,0.025390625,0.4375,-0.15625,1.96484375,-7.90625,0.4453125,1.0
4823655,,,,,,,,0.359375,1.3671875,-0.73828125,0.068359375,0.572265625,-0.20703125,1.65625,-7.94921875,0.67578125,1.0
4823656,,,,,,,,0.02734375,1.3671875,-0.53125,0.12890625,0.65234375,-0.21875,1.3515625,-7.9453125,0.8671875,1.0
4823657,,,,,,,,-0.046875,1.40625,-0.5,0.15234375,0.658203125,-0.212890625,1.234375,-7.94921875,0.828125,1.0
4823658,,,,,,,,-0.21484375,1.359375,-0.5625,0.20703125,0.64453125,-0.2109375,1.19921875,-8.06640625,0.75390625,1.0
4823659,,,,,,,,-0.22265625,1.2734375,-0.65234375,0.224609375,0.623046875,-0.197265625,1.19921875,-8.1328125,0.59765625,1.0
4823660,36.013392833333334,129.31952783333332,83.64272778363534,110.16443006415447,1.0,257.0,,0.703125,2.1796875,-0.53125,0.220703125,0.515625,-0.15234375,1.390625,-8.63671875,0.40625,1.0
4823661,,,,,,,,0.05859375,0.37109375,-1.109375,0.208984375,0.513671875,-0.1328125,1.50390625,-9.01953125,0.40625,1.0
4823662,,,,,,,,0.05859375,0.29296875,-1.1171875,0.1953125,0.509765625,-0.126953125,1.50390625,-9.015625,0.4453125,1.0
4823663,,,,,,,,0.01953125,0.29296875,-1.1015625,0.173828125,0.517578125,-0.109375,1.2734375,-8.91015625,0.484375,1.0
4823664,,,,,,,,-0.29296875,0.4296875,-1.046875,0.173828125,0.54296875,-0.10546875,1.08203125,-8.83203125,0.5625,1.0
4823665,,,,,,,,-0.5234375,0.46875,-1.03125,0.169921875,0.548828125,-0.095703125,0.8515625,-8.83203125,0.5625,1.0
4823666,,,,,,,,-0.6015625,0.4609375,-1.0390625,0.158203125,0.533203125,-0.083984375,0.77734375,-8.828125,0.5234375,1.0
4823667,,,,,,,,-0.71484375,0.421875,-1.0625,0.1171875,0.478515625,-0.072265625,0.69921875,-9.05859375,0.63671875,1.0
4823668,,,,,,,,-0.74609375,0.0703125,-0.93359375,0.068359375,0.431640625,-0.052734375,0.69921875,-9.359375,0.828125,1.0
4823669,,,,,,,,-0.73828125,-0.08203125,-0.8359375,0.01953125,0.37890625,-0.03125,0.77734375,-9.703125,0.98046875,1.0
4823670,36.01339266666666,129.31952666666666,83.53755477882162,110.14593585355613,1.0,259.0,,0.703125,2.1796875,-0.53125,0.220703125,0.515625,-0.15234375,1.04296875,-10.203125,1.13671875,1.0
4823671,,,,,,,,-0.30859375,-1.125,-0.40625,-0.1171875,0.216796875,-0.017578125,1.2734375,-10.5078125,1.40234375,1.0
4823672,,,,,,,,-0.00390625,-1.203125,-0.20703125,-0.134765625,0.16015625,-0.015625,1.42578125,-10.4765625,1.44140625,1.0
4823673,,,,,,,,0.1875,-1.00390625,-0.19921875,-0.146484375,0.111328125,-0.013671875,1.6171875,-10.28515625,1.44140625,1.0
4823674,,,,,,,,0.46484375,-0.62109375,-0.4140625,-0.171875,0.072265625,-0.017578125,1.88671875,-9.90234375,1.2109375,1.0
4823675,,,,,,,,0.6875,-0.390625,-0.55078125,-0.224609375,0.08203125,-0.009765625,2.1171875,-9.671875,1.05859375,1.0
4823676,,,,,,,,0.80078125,-0.45703125,-0.734375,-0.263671875,0.1015625,0.005859375,2.23046875,-9.74609375,0.8671875,1.0
4823677,,,,,,,,0.92578125,-0.45703125,-0.7421875,-0.380859375,0.146484375,0.033203125,2.34765625,-9.74609375,0.828125,1.0
4823678,,,,,,,,1.0859375,-1.33203125,-0.6875,-0.53515625,0.19140625,0.052734375,2.5,-10.625,0.828125,1.0
4823679,,,,,,,,1.28515625,-3.69921875,-0.86328125,-0.71875,0.193359375,0.0859375,2.69140625,-13.00390625,0.59765625,1.0
4823680,36.01339266666666,129.3195255,83.43238159873522,110.14593485415415,1.1,260.0,,1.0703125,-3.60546875,-0.21484375,0.220703125,0.515625,-0.15234375,2.4609375,-12.921875,1.17578125,1.0
4823681,,,,,,,,0.19921875,-1.59765625,1.03515625,-0.6484375,0.6328125,-0.0234375,1.58203125,-10.93359375,2.32421875,1.0
4823682,,,,,,,,-0.484375,-1.20703125,1.2734375,-0.44140625,0.85546875,0.005859375,0.890625,-10.546875,2.515625,1.0
4823683,,,,,,,,-0.765625,-2.12109375,0.99609375,-0.45703125,0.755859375,0.06640625,0.5859375,-11.47265625,2.20703125,1.0
4823684,,,,,,,,-0.68359375,-2.3046875,1.265625,-0.556640625,0.466796875,0.076171875,0.66015625,-11.66796875,2.4375,1.0
4823685,,,,,,,,-0.4375,-1.56640625,1.6875,-0.447265625,0.416015625,0.01953125,0.890625,-10.93359375,2.8203125,1.0
4823686,,,,,,,,-0.359375,-1.26171875,1.703125,-0.333984375,0.4921875,0.005859375,0.96875,-10.62890625,2.8203125,1.0
4823687,,,,,,,,-0.3515625,-0.984375,1.64453125,-0.18359375,0.6484375,0.001953125,0.96875,-10.36328125,2.74609375,1.0
4823688,,,,,,,,-0.26953125,-1.17578125,1.7265625,-0.15234375,0.732421875,0.005859375,1.04296875,-10.546875,2.8203125,1.0
4823689,,,,,,,,0.4296875,-1.70703125,2.1953125,-0.138671875,0.759765625,-0.001953125,1.734375,-11.08984375,3.28125,1.0
4823690,36.0133925,129.31952416666667,83.31218385367288,110.12744050659077,1.1,260.0,,0.89453125,-1.98046875,2.34765625,-0.09375,0.748046875,-0.03515625,2.19140625,-11.3515625,3.43359375,1.0
4823691,,,,,,,,1.08984375,-2.08984375,1.99609375,-0.001953125,0.771484375,-0.060546875,2.38671875,-11.47265625,3.08984375,1.0
4823692,,,,,,,,1.08984375,-1.96484375,1.87109375,0.046875,0.798828125,-0.087890625,2.38671875,-11.35546875,2.97265625,1.0
4823693,,,,,,,,0.58984375,-1.4375,1.45703125,0.1640625,0.93359375,-0.177734375,1.88671875,-10.8203125,2.58984375,1.0
4823694,,,,,,,,0.4296875,-1.3203125,1.48046875,0.17578125,0.97265625,-0.216796875,1.734375,-10.703125,2.62890625,1.0
4823695,,,,,,,,-0.421875,-0.6796875,1.7578125,0.205078125,1.037109375,-0.275390625,0.890625,-10.0546875,2.9375,1.0
4823696,,,,,,,,-0.4296875,-0.671875,1.7421875,0.248046875,1.052734375,-0.310546875,0.66015625,-9.9375,2.97265625,1.0
4823697,,,,,,,,-1.02734375,-0.265625,1.53125,0.2734375,0.970703125,-0.3046875,0.125,-9.44140625,2.3984375,1.0
4823698,,,,,,,,-1.359375,0.1484375,0.78125,0.23828125,0.806640625,-0.291015625,0.0078125,-9.2109375,2.09375,1.0
4823699,,,,,,,,-1.11328125,0.71484375,0.234375,0.1640625,0.701171875,-0.271484375,0.27734375,-8.6328125,1.59375,1.0
4823700,36.01339233333333,129.319523,83.20701085046822,110.10894630092557,1.1,262.0,0.0,-1.08203125,0.90625,0.19140625,0.13671875,0.669921875,-0.2734375,0.31640625,-8.4453125,1.55859375,1.0
4823701,,,,,,,,-0.75390625,1.3984375,0.01171875,0.099609375,0.625,-0.267578125,0.66015625,-7.9453125,1.40234375,1.0
4823702,,,,,,,,-0.5390625,1.7421875,-0.1171875,0.056640625,0.572265625,-0.287109375,0.890625,-7.60546875,1.2890625,1.0
4823703,,,,,,,,-0.515625,1.97265625,-0.32421875,0.048828125,0.51953125,-0.29296875,0.9296875,-7.37109375,1.09765625,1.0
4823704,,,,,,,,-0.5,2.0390625,-0.6015625,0.041015625,0.48046875,-0.302734375,0.96875,-7.30078125,0.828125,1.0
4823705,,,,,,,,-0.6953125,2.1875,-0.73046875,0.04296875,0.451171875,-0.296875,0.8125,-7.140625,0.71484375,1.0
4823706,,,,,,,,-0.90234375,2.26953125,-0.78515625,0.046875,0.44921875,-0.283203125,0.62109375,-7.0625,0.67578125,1.0
4823707,,,,,,,,-1.21484375,2.21484375,-0.87890625,0.0703125,0.46875,-0.259765625,0.31640625,-7.1015625,0.59765625,1.0
4823708,,,,,,,,-1.421875,2.1796875,-0.9296875,0.09375,0.48828125,-0.244140625,0.125,-7.140625,0.5625,1.0
4823709,,,,,,,,-1.78125,1.94140625,-1.0234375,0.126953125,0.48828125,-0.224609375,-0.21875,-7.37109375,0.484375,1.0
4823710,36.0133925,129.31952183333334,83.1018374943577,110.12743851445185,1.0,264.0,,-1.8359375,1.78515625,-1.0859375,0.13671875,0.669921875,-0.2734375,0.31640625,-8.4453125,1.55859375,1.0
4823711,,,,,,,,-1.76953125,1.7421875,-1.03125,0.099609375,0.3984375,-0.126953125,-0.18359375,-7.5625,0.5234375,1.0
4823712,,,,,,,,-1.65234375,1.625,-1.0,0.099609375,0.37109375,-0.103515625,-0.06640625,-7.68359375,0.5625,1.0
4823713,,,,,,,,-1.5390625,1.54296875,-0.90234375,0.087890625,0.328125,-0.07421875,0.046875,-7.75,0.67578125,1.0
4823714,,,,,,,,-1.5390625,1.54296875,-0.98828125,0.09375,0.314453125,-0.0703125,0.046875,-7.75390625,0.59765625,1.0
4823715,,,,,,,,-1.4609375,1.45703125,-0.93359375,0.119140625,0.28125,-0.05859375,0.125,-7.83203125,0.67578125,1.0
4823716,,,,,,,,-1.34765625,1.265625,-1.0625,0.123046875,0.24609375,-0.048828125,0.23828125,-8.02734375,0.5625,1.0
4823717,,,,,,,,-1.33984375,0.99609375,-1.02734375,0.107421875,0.228515625,-0.048828125,0.23828125,-8.29296875,0.59765625,1.0
4823718,,,,,,,,-1.30078125,0.76171875,-1.00390625,0.07421875,0.189453125,-0.052734375,0.27734375,-8.515625,0.63671875,1.0
4823719,,,,,,,,-1.30078125,0.60546875,-1.00390625,0.05859375,0.17578125,-0.048828125,0.27734375,-8.671875,0.63671875,1.0
4823720,36.0133925,129.31952066666665,82.99666431145785,110.12743751994373,1.0,266.0,,-1.1484375,0.16796875,-0.94140625,0.052734375,0.125,-0.05859375,0.4296875,-9.09375,0.71484375,1.0
4823721,,,,,,,,-1.1484375,-0.09765625,-0.875,0.060546875,0.111328125,-0.072265625,0.4296875,-9.359375,0.7890625,1.0
4823722,,,,,,,,-1.15625,-0.17578125,-0.69140625,0.052734375,0.095703125,-0.080078125,0.4296875,-9.4375,0.98046875,1.0
4823723,,,,,,,,-1.27734375,-0.17578125,-0.57421875,0.0546875,0.091796875,-0.095703125,0.31640625,-9.4375,1.09765625,1.0
4823724,,,,,,,,-1.35546875,-0.10546875,-0.421875,0.05859375,0.0859375,-0.09765625,0.23828125,-9.36328125,1.25,1.0
4823725,,,,,,,,-1.32421875,-0.03125,-0.4375,0.078125,0.048828125,-0.09765625,0.27734375,-9.2890625,1.25,1.0
4823726,,,,,,,,-1.015625,-0.11328125,-0.4453125,0.052734375,0.00390625,-0.107421875,0.5859375,-9.36328125,1.25,1.0
4823727,,,,,,,,-0.765625,-0.4296875,-0.55859375,0.009765625,-0.0234375,-0.107421875,0.8515625,-9.671875,1.13671875,1.0
4823728,,,,,,,,-0.62109375,-0.57421875,-0.63671875,-0.068359375,-0.05078125,-0.123046875,1.00390625,-9.8203125,1.05859375,1.0
4823729,,,,,,,,-0.3125,-0.6875,-0.66015625,-0.15234375,-0.052734375,-0.12890625,1.3125,-9.9375,1.01953125,1.0
4823730,36.013392833333334,129.31951966666665,82.90651552153777,110.16442308498502,1.0,272.0,,-0.21484375,-0.84375,-0.68359375,0.052734375,0.125,-0.05859375,1.42578125,-10.09375,0.98046875,1.0
4823731,,,,,,,,-0.11328125,-0.91796875,-0.765625,-0.314453125,0.01171875,-0.134765625,1.54296875,-10.16796875,0.8671875,1.0
4823732,,,,,,,,-0.0078125,-0.95703125,-0.7109375,-0.36328125,0.037109375,-0.12890625,1.65625,-10.203125,0.90625,1.0
4823733,,,,,,,,-0.0078125,-0.71875,-0.57421875,-0.45703125,0.103515625,-0.125,1.65625,-9.9765625,0.98046875,1.0
4823734,,,,,,,,-0.20703125,-0.56640625,-0.55859375,-0.4765625,0.125,-0.119140625,1.46484375,-9.82421875,0.98046875,1.0
4823735,,,,,,,,-1.01953125,0.16796875,-0.43359375,-0.494140625,0.189453125,-0.119140625,0.66015625,-9.09375,1.05859375,1.0
4823736,,,,,,,,-1.484375,0.21484375,-0.45703125,-0.529296875,0.1875,-0.091796875,0.203125,-9.0546875,0.98046875,1.0
4823737,,,,,,,,-1.6796875,-0.3203125,-0.66015625,-0.576171875,0.15234375,-0.078125,0.0078125,-9.59765625,0.75390625,1.0
4823738,,,,,,,,-1.1796875,-1.23046875,-0.66796875,-0.72265625,0.041015625,-0.029296875,0.5078125,-10.51171875,0.67578125,1.0
4823739,,,,,,,,-0.796875,-1.30078125,-0.40625,-0.783203125,-0.015625,0.0,0.890625,-10.5859375,0.90625,1.0
4823740,36.01339333333333,129.3195185,82.80134181809322,110.21990171733762,1.1,280.0,,0.015625,-1.37109375,0.4375,0.052734375,0.125,-0.05859375,1.42578125,-10.09375,0.98046875,1.0
4823741,,,,,,,,1.515625,-3.4609375,1.23046875,-0.966796875,-0.02734375,0.06640625,3.1875,-12.7734375,2.32421875,1.0
4823742,,,,,,,,1.984375,-4.1796875,1.23046875,-1.017578125,0.017578125,0.07421875,3.6484375,-13.5,2.28515625,1.0
4823743,,,,,,,,3.44140625,-4.546875,1.984375,-1.05078125,0.109375,0.0390625,5.10546875,-13.88671875,2.9375,1.0
4823744,,,,,,,,4.25390625,-2.89453125,2.64453125,-0.828125,0.2109375,-0.0234375,5.91015625,-12.234375,3.51171875,1.0
4823745,,,,,,,,3.671875,-1.3984375,2.31640625,-0.27734375,0.4296875,-0.130859375,4.9140625,-10.70703125,2.8203125,1.0
4823746,,,,,,,,3.2578125,-1.359375,2.015625,-0.171875,0.4375,-0.166015625,3.9921875,-11.16796875,2.20703125,1.0
4823747,,,,,,,,1.44140625,-2.625,1.6015625,0.009765625,0.44140625,-0.19140625,2.38671875,-12.6953125,3.1640625,1.0
4823748,,,,,,,,-0.3125,-3.23828125,3.49609375,0.25,0.421875,-0.11328125,1.390625,-12.58203125,4.31640625,1.0
4823749,,,,,,,,-0.28515625,-2.328125,3.01953125,0.37890625,0.412109375,-0.07421875,1.42578125,-11.6640625,3.85546875,1.0
4823750,36.013394,129.31951733333332,82.69616794235746,110.29387355935977,1.1,285.0,,-0.23828125,-0.75,1.85546875,0.052734375,0.125,-0.05859375,1.42578125,-10.09375,0.98046875,1.0
4823751,,,,,,,,-0.57421875,0.27734375,1.171875,0.6015625,0.53515625,0.1171875,1.12109375,-9.05859375,2.1328125,1.0
4823752,,,,,,,,-0.58984375,0.546875,0.91796875,0.501953125,0.552734375,0.216796875,1.08203125,-8.79296875,1.94140625,1.0
4823753,,,,,,,,-0.421875,0.515625,0.76953125,0.416015625,0.51171875,0.251953125,1.234375,-8.828125,1.82421875,1.0
4823754,,,,,,,,-0.04296875,0.32421875,0.73828125,0.248046875,0.38671875,0.279296875,1.58203125,-9.015625,1.82421875,1.0
4823755,,,,,,,,0.24609375,0.4375,0.74609375,0.125,0.28515625,0.28515625,1.84765625,-8.90625,1.86328125,1.0
4823756,,,,,,,,-0.01171875,0.984375,0.72265625,0.1015625,0.328125,0.26953125,1.54296875,-8.3671875,1.86328125,1.0
4823757,,,,,,,,-0.32421875,1.640625,0.4765625,0.142578125,0.361328125,0.255859375,1.19921875,-7.72265625,1.6328125,1.0
4823758,,,,,,,,-0.35546875,1.83203125,0.30859375,0.166015625,0.365234375,0.248046875,1.16015625,-7.5234375,1.48046875,1.0
4823759,,,,,,,,-0.46484375,2.30078125,0.125,0.1640625,0.376953125,0.25390625,1.00390625,-7.0625,1.328125,1.0
4823760,36.01339433333333,129.319516,82.57596967616705,110.33085884413275,1.2000000000000002,284.0,,-0.39453125,2.41796875,-0.20703125,0.052734375,0.125,-0.05859375,1.42578125,-10.09375,0.98046875,1.0
4823761,,,,,,,,-0.21484375,2.37890625,-0.26171875,0.076171875,0.376953125,0.26171875,1.19921875,-6.98828125,0.98046875,1.0
4823762,,,,,,,,-0.0703125,2.42578125,-0.34375,0.0234375,0.3828125,0.259765625,1.3125,-6.9453125,0.90625,1.0
4823763,,,,,,,,0.20703125,2.2421875,-0.4296875,-0.009765625,0.40234375,0.240234375,1.54296875,-7.14453125,0.828125,1.0
4823764,,,,,,,,0.4296875,2.01953125,-0.51171875,-0.03515625,0.41796875,0.216796875,1.734375,-7.37109375,0.75390625,1.0
4823765,,,,,,,,0.64453125,1.85546875,-0.55859375,-0.064453125,0.42578125,0.185546875,1.92578125,-7.52734375,0.71484375,1.0
4823766,,,,,,,,0.7265625,1.7109375,-0.484375,-0.0703125,0.44140625,0.171875,2.0,-7.6796875,0.7890625,1.0
4823767,,,,,,,,0.7890625,1.55859375,-0.484375,-0.064453125,0.490234375,0.134765625,2.0390625,-7.828125,0.7890625,1.0
4823768,,,,,,,,0.8046875,1.52734375,-0.484375,-0.029296875,0.505859375,0.09375,2.0390625,-7.8671875,0.7890625,1.0
4823769,,,,,,,,0.67578125,1.3359375,-0.60546875,0.001953125,0.5234375,0.03515625,1.88671875,-8.06640625,0.67578125,1.0
4823770,36.01339466666666,129.3195151666667,82.50084563397154,110.36784455581547,1.0,286.0,,0.53125,1.18359375,-0.69140625,0.0234375,0.552734375,0.01171875,1.42578125,-10.09375,0.98046875,1.0
4823771,,,,,,,,0.421875,1.03125,-0.62109375,0.041015625,0.583984375,-0.005859375,1.6171875,-8.37109375,0.67578125,1.0
4823772,,,,,,,,0.27734375,1.17578125,-0.4453125,0.083984375,0.619140625,-0.029296875,1.46484375,-8.2109375,0.8671875,1.0
4823773,,,,,,,,0.2109375,1.21484375,-0.5390625,0.16015625,0.640625,-0.033203125,1.390625,-8.171875,0.7890625,1.0
4823774,,,,,,,,0.02734375,1.28125,-0.7890625,0.216796875,0.625,-0.037109375,1.19921875,-8.10546875,0.5625,1.0
4823775,,,,,,,,0.02734375,1.3515625,-0.9765625,0.23828125,0.583984375,-0.03515625,1.19921875,-8.02734375,0.40625,1.0
4823776,,,,,,,,-0.01171875,1.3125,-0.9921875,0.23828125,0.560546875,-0.033203125,1.16015625,-8.06640625,0.40625,1.0
4823777,,,,,,,,0.0703125,1.19140625,-1.09765625,0.212890625,0.5390625,-0.029296875,1.234375,-8.17578125,0.33203125,1.0
4823778,,,,,,,,0.1171875,1.0390625,-1.12109375,0.166015625,0.546875,-0.02734375,1.2734375,-8.328125,0.33203125,1.0
4823779,,,,,,,,0.1953125,0.69140625,-0.9140625,0.1171875,0.56640625,-0.01953125,1.3515625,-8.671875,0.5625,1.0
4823780,36.013394999999996,129.31951383333333,82.38064736768501,110.40482984311203,1.0,286.0,,0.27734375,0.4921875,-0.59375,0.091796875,0.58203125,-0.009765625,1.42578125,-8.87109375,0.90625,1.0
4823781,,,,,,,,0.21875,0.41015625,-0.53515625,0.10546875,0.568359375,-0.005859375,1.3515625,-8.94140625,0.98046875,1.0
4823782,,,,,,,,0.109375,0.2109375,-0.50390625,0.109375,0.5546875,-0.005859375,1.234375,-9.13671875,1.01953125,1.0
4823783,,,,,,,,-0.1796875,-0.13671875,-0.45703125,0.13671875,0.53125,0.00390625,0.9296875,-9.4765625,1.09765625,1.0
4823784,,,,,,,,-0.2109375,-0.2890625,-0.43359375,0.1015625,0.51953125,-0.001953125,0.890625,-9.6328125,1.13671875,1.0
4823785,,,,,,,,-0.31640625,-0.7109375,-0.2578125,0.07421875,0.51171875,-0.0078125,0.77734375,-10.05859375,1.328125,1.0
4823786,,,,,,,,-0.35546875,-0.91015625,-0.15234375,0.0546875,0.46484375,-0.01171875,0.73828125,-10.2421875,1.44140625,1.0
4823787,,,,,,,,-0.30859375,-0.87109375,-0.05078125,0.044921875,0.3984375,-0.0234375,0.77734375,-10.20703125,1.55859375,1.0
4823788,,,,,,,,-0.2734375,-0.83984375,0.0625,0.037109375,0.3671875,-0.03515625,0.8125,-10.1640625,1.671875,1.0
4823789,,,,,,,,-0.15625,-0.45703125,-0.05859375,0.017578125,0.302734375,-0.046875,0.9296875,-9.78125,1.55859375,1.0
4823790,36.01339516666667,129.3195125,82.26044927785479,110.4233219262108,1.2000000000000002,284.0,,-0.00390625,-0.21875,-0.09765625,-0.005859375,0.26953125,-0.05859375,1.42578125,-8.87109375,0.90625,1.0
4823791,,,,,,,,0.45703125,0.078125,-0.44140625,-0.068359375,0.248046875,-0.060546875,1.54296875,-9.25,1.17578125,1.0
4823792,,,,,,,,0.72265625,0.00390625,-0.43359375,-0.212890625,0.244140625,-0.048828125,1.80859375,-9.32421875,1.17578125,1.0
4823793,,,,,,,,1.03125,-0.44921875,-0.41015625,-0.3828125,0.2890625,-0.041015625,2.1171875,-9.78125,1.17578125,1.0
4823794,,,,,,,,1.26953125,-1.70703125,-0.48828125,-0.59765625,0.333984375,-0.01953125,2.34765625,-11.046875,1.05859375,1.0
4823795,,,,,,,,1.34375,-2.203125,-0.41015625,-0.80078125,0.294921875,-0.0234375,2.421875,-11.546875,1.05859375,1.0
4823796,,,,,,,,1.3828125,-2.00390625,-0.1875,-0.85546875,0.265625,-0.041015625,2.4609375,-11.3515625,1.25,1.0
4823797,,,,,,,,1.30859375,-1.73046875,0.3125,-0.861328125,0.3125,-0.09375,2.38671875,-11.0859375,1.671875,1.0
4823798,,,,,,,,0.953125,-3.015625,0.4609375,-0.794921875,0.53515625,-0.154296875,2.0390625,-12.39453125,1.75,1.0
4823799,,,,,,,,-0.203125,-5.61328125,0.99609375,-0.900390625,0.671875,-0.134765625,0.890625,-14.9921875,2.20703125,1.0
4823800,36.01339566666666,129.3195115,82.1703003211535,110.47880070596298,1.1,287.0,0.0,-0.9375,-5.13671875,2.46484375,-0.96875,0.63671875,-0.1171875,1.42578125,-8.87109375,0.90625,1.0
4823801,,,,,,,,-1.25390625,-1.22265625,1.94921875,-0.4375,0.6953125,-0.17578125,-0.14453125,-10.62890625,2.97265625,1.0
4823802,,,,,,,,-0.984375,-0.6875,1.5390625,-0.12890625,0.697265625,-0.17578125,0.125,-10.09765625,2.5546875,1.0
4823803,,,,,,,,-0.6484375,-0.80078125,1.12890625,0.103515625,0.779296875,-0.12890625,0.46875,-10.20703125,2.16796875,1.0
4823804,,,,,,,,-0.1484375,-1.796875,1.66015625,-0.1640625,0.865234375,-0.068359375,0.96875,-11.20703125,2.70703125,1.0
4823805,,,,,,,,1.15234375,-3.21484375,2.546875,-0.23046875,0.93359375,-0.07421875,2.26953125,-12.6171875,3.5859375,1.0
4823806,,,,,,,,1.3046875,-3.17578125,2.5859375,-0.1484375,0.978515625,-0.099609375,2.421875,-12.58203125,3.625,1.0
4823807,,,,,,,,1.4609375,-2.171875,2.1015625,0.201171875,1.087890625,-0.171875,2.578125,-11.58984375,3.1640625,1.0
4823808,,,,,,,,0.90625,-0.79296875,1.49609375,0.3515625,1.15234375,-0.25390625,2.0390625,-10.203125,2.58984375,1.0
4823809,,,,,,,,0.171875,-0.265625,1.4296875,0.380859375,1.19921875,-0.298828125,1.3125,-9.671875,2.5546875,1.0
4823810,36.01339599999999,129.31951016666665,82.05010205752589,110.51578599830384,1.1,287.0,,-0.88671875,0.03515625,1.625,0.326171875,1.283203125,-0.3515625,1.42578125,-8.87109375,0.90625,1.0
4823811,,,,,,,,-1.37109375,-0.01171875,1.44921875,0.224609375,1.140625,-0.36328125,-0.18359375,-9.40234375,2.70703125,1.0
4823812,,,,,,,,-1.35546875,0.1328125,0.91796875,0.181640625,1.052734375,-0.349609375,-0.14453125,-9.25,2.20703125,1.0
4823813,,,,,,,,-1.37890625,0.81640625,0.28125,0.107421875,1.041015625,-0.279296875,-0.14453125,-8.55859375,1.6328125,1.0
4823814,,,,,,,,-1.38671875,1.16015625,0.16015625,0.107421875,1.052734375,-0.255859375,-0.14453125,-8.2109375,1.51953125,1.0
4823815,,,,,,,,-1.25,1.65625,0.17578125,0.1015625,1.072265625,-0.240234375,0.0078125,-7.71875,1.55859375,1.0
4823816,,,,,,,,-1.21875,1.83984375,0.07421875,0.11328125,1.046875,-0.25,0.046875,-7.52734375,1.48046875,1.0
4823817,,,,,,,,-0.91796875,2.26953125,-0.140625,0.115234375,0.9765625,-0.2734375,0.35546875,-7.10546875,1.2890625,1.0
4823818,,,,,,,,-0.8125,2.30078125,-0.1640625,0.10546875,0.9375,-0.29296875,0.46875,-7.0625,1.2890625,1.0
4823819,,,,,,,,-0.63671875,2.33203125,-0.41015625,0.068359375,0.875,-0.32421875,0.66015625,-7.02734375,1.05859375,1.0
4823820,36.013396166666666,129.31950916666668,81.95995345039209,110.53427836633944,1.1,288.0,,-0.67578125,2.37109375,-0.50390625,0.052734375,0.85546875,-0.3359375,0.62109375,-6.984375,0.98046875,1.0
4823821,,,,,,,,-0.8515625,2.28515625,-0.47265625,0.013671875,0.833984375,-0.345703125,0.46875,-7.0625,1.01953125,1.0
4823822,,,,,,,,-1.2109375,2.23828125,-0.37109375,0.025390625,0.841796875,-0.34375,0.125,-7.10546875,1.13671875,1.0
4823823,,,,,,,,-1.54296875,2.23828125,-0.46484375,0.060546875,0.84375,-0.337890625,-0.296875,-7.1796875,1.05859375,1.0
4823824,,,,,,,,-1.82421875,2.078125,-0.55859375,0.111328125,0.82421875,-0.3125,-0.44921875,-7.2578125,0.98046875,1.0
4823825,,,,,,,,-2.0234375,1.84765625,-0.6640625,0.126953125,0.775390625,-0.28515625,-0.640625,-7.484375,0.90625,1.0
4823826,,,,,,,,-2.0703125,1.6953125,-0.71875,0.119140625,0.75,-0.2578125,-0.6796875,-7.640625,0.8671875,1.0
4823827,,,,,,,,-2.1171875,1.49609375,-0.7734375,0.1171875,0.70703125,-0.21875,-0.71875,-7.83203125,0.828125,1.0
4823828,,,,,,,,-2.125,1.14453125,-0.65234375,0.083984375,0.63671875,-0.162109375,-0.71875,-8.171875,0.98046875,1.0
4823829,,,,,,,,-2.0859375,1.05859375,-0.51171875,0.0703125,0.57421875,-0.134765625,-0.6796875,-8.25,1.13671875,1.0
4823830,36.0133965,129.31950816666668,81.86980466936141,110.57126394187276,1.0,290.0,,-1.98046875,0.8671875,-0.56640625,0.099609375,0.50390625,-0.11328125,-0.56640625,-8.44921875,1.09765625,1.0
4823831,,,,,,,,-1.85546875,0.74609375,-0.66796875,0.115234375,0.41796875,-0.09765625,-0.44921875,-8.5546875,1.01953125,1.0
4823832,,,,,,,,-1.6640625,0.35546875,-0.64453125,0.123046875,0.337890625,-0.087890625,-0.2578125,-8.9375,1.05859375,1.0
4823833,,,,,,,,-1.55078125,0.078125,-0.53125,0.16796875,0.208984375,-0.068359375,-0.14453125,-9.2109375,1.2109375,1.0
4823834,,,,,,,,-1.51171875,0.1171875,-0.57421875,0.1875,0.193359375,-0.068359375,-0.10546875,-9.171875,1.17578125,1.0
4823835,,,,,,,,-1.51171875,0.22265625,-0.63671875,0.208984375,0.16796875,-0.068359375,-0.10546875,-9.05859375,1.13671875,1.0
4823836,,,,,,,,-1.51171875,0.29296875,-0.60546875,0.212890625,0.154296875,-0.068359375,-0.10546875,-8.98046875,1.17578125,1.0
4823837,,,,,,,,-1.55078125,0.5234375,-0.70703125,0.205078125,0.123046875,-0.0703125,-0.14453125,-8.75390625,1.09765625,1.0
4823838,,,,,,,,-1.55859375,0.55859375,-0.67578125,0.1953125,0.103515625,-0.072265625,-0.14453125,-8.71484375,1.13671875,1.0
4823839,,,,,,,,-1.55078125,0.4296875,-0.85546875,0.15234375,0.07421875,-0.078125,-0.14453125,-8.83203125,0.98046875,1.0
4823840,36.013397166666664,129.31950716666668,81.77965554627008,110.64523593515406,1.0,296.0,,-1.55859375,0.4296875,-0.86328125,0.095703125,0.04296875,-0.087890625,-0.02734375,-8.9765625,1.01953125,1.0
4823841,,,,,,,,-1.375,0.19921875,-0.79296875,0.029296875,-0.009765625,-0.09375,0.31640625,-9.171875,1.05859375,1.0
4823842,,,,,,,,-1.10546875,0.0859375,-0.80078125,-0.005859375,-0.029296875,-0.103515625,0.4296875,-9.21484375,1.17578125,1.0
4823843,,,,,,,,-0.84375,-0.0390625,-0.640625,-0.078125,-0.05859375,-0.09765625,0.8515625,-9.36328125,1.17578125,1.0
4823844,,,,,,,,-0.5078125,-0.19140625,-0.66796875,-0.142578125,-0.0234375,-0.09375,1.00390625,-9.515625,1.13671875,1.0
4823845,,,,,,,,-0.44140625,-0.265625,-0.73046875,-0.21484375,0.0390625,-0.083984375,0.96875,-9.51953125,1.05859375,1.0
4823846,,,,,,,,-0.4765625,-0.265625,-0.75390625,-0.251953125,0.07421875,-0.0859375,1.04296875,-9.51953125,1.05859375,1.0
4823847,,,,,,,,-0.2109375,-0.265625,-0.921875,-0.310546875,0.107421875,-0.076171875,1.234375,-9.515625,0.8671875,1.0
4823848,,,,,,,,-0.02734375,-0.4140625,-0.8046875,-0.416015625,0.14453125,-0.072265625,1.42578125,-9.67578125,0.9453125,1.0
4823849,,,,,,,,0.2109375,-0.40625,-0.70703125,-0.462890625,0.1640625,-0.060546875,1.65625,-9.671875,1.01953125,1.0
4823850,36.013398,129.3195065,81.71955572607715,110.73770141625698,1.0,306.0,,0.203125,-0.20703125,-0.4140625,0.095703125,0.04296875,-0.087890625,1.65625,-9.48046875,1.25,1.0
4823851,,,,,,,,-0.28515625,-0.734375,-0.44140625,-0.521484375,0.34765625,-0.0625,1.16015625,-10.01953125,1.17578125,1.0
4823852,,,,,,,,-0.82421875,-2.21875,-0.28125,-0.60546875,0.33984375,-0.05859375,0.62109375,-11.51171875,1.2890625,1.0
4823853,,,,,,,,-0.74609375,-3.1328125,0.42578125,-0.7734375,0.25,-0.060546875,0.69921875,-12.4296875,1.94140625,1.0
4823854,,,,,,,,0.2578125,-4.04296875,1.84375,-0.82421875,0.134765625,-0.048828125,1.6953125,-13.34765625,3.28125,1.0
4823855,,,,,,,,2.28125,-5.359375,1.875,-0.748046875,0.130859375,-0.02734375,3.7265625,-14.6875,3.203125,1.0
4823856,,,,,,,,3.0625,-3.78125,2.25390625,-0.732421875,0.265625,0.0078125,4.4921875,-13.1171875,3.51171875,1.0
4823857,,,,,,,,2.640625,-0.86328125,1.91796875,-0.4453125,0.556640625,-0.005859375,4.0703125,-10.203125,3.12890625,1.0
4823858,,,,,,,,2.15234375,-0.12890625,1.9921875,0.130859375,0.865234375,-0.119140625,3.57421875,-9.48046875,3.203125,1.0
4823859,,,,,,,,1.0,-0.48046875,2.421875,0.154296875,0.830078125,-0.171875,2.421875,-9.82421875,3.6640625,1.0
4823860,36.01339883333333,129.31950550000002,81.6294064342353,110.8301666191129,1.1,312.0,,-0.5,-1.8203125,3.01953125,0.095703125,0.04296875,-0.087890625,0.9296875,-11.16796875,4.27734375,1.0
4823861,,,,,,,,-1.2734375,-2.35546875,3.04296875,0.08984375,0.5,-0.169921875,0.1640625,-11.69921875,4.31640625,1.0
4823862,,,,,,,,-1.28125,-1.9375,2.48046875,0.248046875,0.4140625,-0.150390625,0.1640625,-11.28125,3.77734375,1.0
4823863,,,,,,,,-0.79296875,-1.140625,2.0234375,0.3671875,0.3671875,-0.095703125,0.66015625,-10.48046875,3.359375,1.0
4823864,,,,,,,,-0.21875,-0.06640625,1.8671875,0.361328125,0.400390625,-0.013671875,1.234375,-9.40234375,3.2421875,1.0
4823865,,,,,,,,-0.31640625,0.38671875,1.4453125,0.287109375,0.470703125,0.09375,1.12109375,-8.94140625,2.859375,1.0
4823866,,,,,,,,-0.37109375,0.1171875,1.109375,0.162109375,0.51953125,0.21484375,1.04296875,-9.21484375,2.5546875,1.0
4823867,,,,,,,,-0.18359375,-0.14453125,1.0546875,0.01171875,0.474609375,0.265625,1.19921875,-9.4765625,2.515625,1.0
4823868,,,,,,,,0.12109375,-0.40234375,1.23828125,-0.12109375,0.392578125,0.2890625,1.46484375,-9.74609375,2.70703125,1.0
4823869,,,,,,,,0.26953125,-0.51953125,1.3671875,-0.19140625,0.3359375,0.28515625,1.58203125,-9.86328125,2.8203125,1.0
4823870,36.0133995,129.31950466666666,81.55428205254194,110.9041387538515,1.1,313.0,,0.22265625,-0.3125,1.3359375,-0.154296875,0.326171875,0.263671875,1.50390625,-9.671875,2.78125,1.0
4823871,,,,,,,,-0.15234375,0.5,0.76953125,0.013671875,0.38671875,0.21484375,1.08203125,-8.8671875,2.20703125,1.0
4823872,,,,,,,,-0.28125,0.9609375,0.44140625,0.07421875,0.400390625,0.19140625,0.9296875,-8.41015625,1.90234375,1.0
4823873,,,,,,,,-0.3046875,1.3125,0.2109375,0.087890625,0.404296875,0.18359375,0.890625,-8.06640625,1.671875,1.0
4823874,,,,,,,,-0.328125,1.7734375,0.1171875,0.0703125,0.4296875,0.169921875,0.8515625,-7.6015625,1.59375,1.0
4823875,,,,,,,,-0.328125,2.00390625,0.05859375,0.0546875,0.501953125,0.177734375,0.8125,-7.37109375,1.55859375,1.0
4823876,,,,,,,,-0.3046875,2.30859375,0.01171875,0.064453125,0.533203125,0.177734375,0.8125,-7.0625,1.51953125,1.0
4823877,,,,,,,,-0.1953125,2.66015625,-0.04296875,0.078125,0.552734375,0.1640625,0.890625,-6.71875,1.48046875,1.0
4823878,,,,,,,,-0.05859375,2.66015625,-0.2109375,0.076171875,0.5546875,0.15625,1.00390625,-6.71875,1.328125,1.0
4823879,,,,,,,,0.234375,2.546875,-0.3125,0.052734375,0.55078125,0.134765625,1.2734375,-6.83984375,1.25,1.0
4823880,36.01340033333334,129.31950416666666,81.50920697708868,110.99660437659469,1.1,317.0,,0.6484375,2.2421875,-0.38671875,0.0078125,0.54296875,0.1171875,1.65625,-7.140625,1.17578125,1.0
4823881,,,,,,,,0.81640625,1.97265625,-0.43359375,-0.0234375,0.552734375,0.08984375,1.80859375,-7.41015625,1.13671875,1.0
4823882,,,,,,,,1.0625,1.703125,-0.51953125,-0.05078125,0.576171875,0.060546875,2.0390625,-7.6796875,1.05859375,1.0
4823883,,,,,,,,0.89453125,1.3984375,-0.40234375,-0.064453125,0.654296875,-0.015625,1.84765625,-7.98828125,1.17578125,1.0
4823884,,,,,,,,0.7109375,1.28125,-0.44140625,-0.03515625,0.7109375,-0.0546875,1.65625,-8.10546875,1.13671875,1.0
4823885,,,,,,,,0.40625,1.359375,-0.375,0.005859375,0.76953125,-0.091796875,1.3515625,-8.0234375,1.2109375,1.0
4823886,,,,,,,,0.3359375,1.359375,-0.42578125,0.046875,0.81640625,-0.1171875,1.2734375,-8.02734375,1.17578125,1.0
4823887,,,,,,,,0.14453125,1.08984375,-0.51953125,0.068359375,0.826171875,-0.13671875,1.08203125,-8.29296875,1.09765625,1.0
4823888,,,,,,,,0.03125,0.9296875,-0.60546875,0.0625,0.80859375,-0.140625,0.96875,-8.44921875,1.01953125,1.0
4823889,,,,,,,,-0.0078125,0.890625,-0.61328125,0.064453125,0.798828125,-0.142578125,0.9296875,-8.48828125,1.01953125,1.0
4823890,36.013401,129.3195035,81.44910733816907,111.07057665210523,1.0,319.0,,-0.15234375,0.85546875,-0.703125,0.078125,0.794921875,-0.140625,0.77734375,-8.515625,0.9453125,1.0
4823891,,,,,,,,-0.30859375,0.9609375,-0.71875,0.107421875,0.791015625,-0.13671875,0.62109375,-8.41015625,0.9453125,1.0
4823892,,,,,,,,-0.30859375,1.0,-0.734375,0.1171875,0.794921875,-0.13671875,0.62109375,-8.37109375,0.9453125,1.0
4823893,,,,,,,,-0.23046875,1.09765625,-0.9140625,0.087890625,0.7578125,-0.1328125,0.69921875,-8.25390625,0.7890625,1.0
4823894,,,,,,,,-0.23046875,0.9453125,-1.01171875,0.01953125,0.70703125,-0.109375,0.69921875,-8.40625,0.71484375,1.0
4823895,,,,,,,,-0.14453125,0.5625,-0.9375,-0.048828125,0.673828125,-0.08984375,0.77734375,-8.7890625,0.7890625,1.0
4823896,,,,,,,,-0.109375,0.484375,-0.8203125,-0.08203125,0.6640625,-0.080078125,0.8125,-8.8671875,0.90625,1.0
4823897,,,,,,,,-0.21484375,0.29296875,-0.66015625,-0.109375,0.671875,-0.0703125,0.69921875,-9.0546875,1.05859375,1.0
4823898,,,,,,,,-0.16015625,-0.1640625,-0.4375,-0.11328125,0.685546875,-0.05078125,0.73828125,-9.51953125,1.2890625,1.0
4823899,,,,,,,,-0.0859375,-0.28125,-0.3984375,-0.115234375,0.6796875,-0.037109375,0.8125,-9.6328125,1.328125,1.0
4823900,36.0134015,129.31950266666666,81.37398313080139,111.12605558004195,0.9,317.0,0.0,0.078125,-0.6328125,-0.125,0.078125,0.794921875,-0.140625,0.96875,-9.9765625,1.59375,1.0
4823901,,,,,,,,0.27734375,-0.9765625,0.07421875,-0.166015625,0.642578125,-0.0234375,1.16015625,-10.3203125,1.78515625,1.0
4823902,,,,,,,,0.359375,-0.93359375,0.21484375,-0.197265625,0.609375,-0.03125,1.234375,-10.28125,1.90234375,1.0
4823903,,,,,,,,0.3671875,-0.85546875,0.17578125,-0.19140625,0.595703125,-0.041015625,1.234375,-10.203125,1.86328125,1.0
4823904,,,,,,,,0.4140625,-0.39453125,-0.15234375,-0.1953125,0.544921875,-0.05859375,1.2734375,-9.7421875,1.51953125,1.0
4823905,,,,,,,,0.4609375,-0.1953125,-0.3671875,-0.23046875,0.4921875,-0.072265625,1.3125,-9.55859375,1.2890625,1.0
4823906,,,,,,,,0.57421875,-0.12109375,-0.265625,-0.310546875,0.490234375,-0.078125,1.42578125,-9.48046875,1.3671875,1.0
4823907,,,,,,,,0.73046875,-0.49609375,-0.19921875,-0.427734375,0.54296875,-0.078125,1.58203125,-9.86328125,1.40234375,1.0
4823908,,,,,,,,0.84375,-0.87890625,-0.09765625,-0.49609375,0.57421875,-0.07421875,1.6953125,-10.2421875,1.48046875,1.0
4823909,,,,,,,,1.00390625,-1.7890625,-0.171875,-0.640625,0.6015625,-0.052734375,1.84765625,-11.16796875,1.3671875,1.0
4823910,36.01340233333334,129.31950166666667,81.28383384459994,111.21852078754532,1.0,319.0,,1.08203125,-2.625,-0.06640625,0.078125,0.794921875,-0.140625,1.92578125,-12.0078125,1.40234375,1.0
4823911,,,,,,,,0.515625,-2.2578125,0.87109375,-0.740234375,0.732421875,-0.099609375,1.3515625,-11.66796875,2.20703125,1.0
4823912,,,,,,,,0.36328125,-2.82421875,0.92578125,-0.7109375,0.9140625,-0.091796875,1.19921875,-12.23828125,2.20703125,1.0
4823913,,,,,,,,-0.359375,-4.73046875,0.9140625,-0.787109375,0.9296875,-0.048828125,0.46875,-14.15234375,2.1328125,1.0
4823914,,,,,,,,-0.58984375,-4.72265625,1.3671875,-0.833984375,0.87890625,-0.03515625,0.23828125,-14.1484375,2.5546875,1.0
4823915,,,,,,,,-1.26171875,-1.53515625,2.265625,-0.5,0.916015625,-0.07421875,-0.44921875,-10.97265625,3.359375,1.0
4823916,,,,,,,,-1.33984375,-0.34765625,1.58984375,-0.13671875,0.958984375,-0.080078125,-0.52734375,-9.78515625,2.66796875,1.0
4823917,,,,,,,,-1.22265625,0.1953125,1.08984375,-0.06640625,0.953125,-0.078125,-0.41015625,-9.25,2.16796875,1.0
4823918,,,,,,,,-0.98828125,0.234375,0.9375,-0.072265625,0.951171875,-0.0703125,-0.18359375,-9.21484375,2.015625,1.0
4823919,,,,,,,,-0.71875,0.08203125,1.0546875,-0.125,0.958984375,-0.083984375,0.0859375,-9.36328125,2.1328125,1.0
4823920,36.013403000000004,129.319501,81.22373420833584,111.29249306420884,1.0,320.0,,0.69921875,-1.3671875,1.765625,-0.19921875,0.978515625,-0.16796875,1.50390625,-10.8203125,2.8203125,1.0
4823921,,,,,,,,0.99609375,-1.7109375,1.890625,-0.13671875,1.025390625,-0.212890625,1.80859375,-11.1640625,2.9375,1.0
4823922,,,,,,,,0.953125,-1.671875,1.8515625,-0.072265625,1.083984375,-0.23046875,1.7734375,-11.12890625,2.8984375,1.0
4823923,,,,,,,,0.3984375,-1.25,1.67578125,0.064453125,1.197265625,-0.279296875,1.234375,-10.703125,2.74609375,1.0
4823924,,,,,,,,0.0546875,-0.9921875,1.58984375,0.1171875,1.24609375,-0.3046875,0.890625,-10.44140625,2.66796875,1.0
4823925,,,,,,,,-0.92578125,-0.2265625,1.56640625,0.16015625,1.318359375,-0.33203125,-0.06640625,-9.671875,2.66796875,1.0
4823926,,,,,,,,-1.35546875,-0.03515625,1.58203125,0.185546875,1.33984375,-0.33203125,-0.48828125,-9.4765625,2.70703125,1.0
4823927,,,,,,,,-1.6015625,0.04296875,1.48828125,0.181640625,1.314453125,-0.333984375,-0.71875,-9.40234375,2.62890625,1.0
4823928,,,,,,,,-1.84765625,-0.00390625,1.19140625,0.154296875,1.22265625,-0.322265625,-0.94921875,-9.44140625,2.36328125,1.0
4823929,,,,,,,,-1.85546875,-0.078125,1.05078125,0.119140625,1.138671875,-0.3046875,-0.94921875,-9.515625,2.24609375,1.0
4823930,36.013403833333335,129.31950016666667,81.14860966379312,111.38495841049829,1.1,321.0,,-1.53125,0.21875,0.67578125,-0.19921875,0.978515625,-0.16796875,-0.6015625,-9.2109375,1.90234375,1.0
4823931,,,,,,,,-1.43359375,0.49609375,0.5,0.064453125,0.962890625,-0.2578125,-0.48828125,-8.9375,1.75,1.0
4823932,,,,,,,,-1.40234375,1.13671875,0.24609375,0.068359375,0.91796875,-0.2578125,-0.44921875,-8.29296875,1.51953125,1.0
4823933,,,,,,,,-1.3359375,1.328125,0.12109375,0.068359375,0.892578125,-0.259765625,-0.375,-8.10546875,1.40234375,1.0
4823934,,,,,,,,-1.16015625,1.859375,-0.19921875,0.048828125,0.822265625,-0.2734375,-0.18359375,-7.56640625,1.09765625,1.0
4823935,,,,,,,,-1.2109375,1.93359375,-0.3671875,-0.01171875,0.73828125,-0.291015625,-0.21875,-7.484375,0.9453125,1.0
4823936,,,,,,,,-1.16015625,1.96484375,-0.4921875,-0.03125,0.69140625,-0.29296875,-0.14453125,-7.4453125,0.828125,1.0
4823937,,,,,,,,-1.17578125,1.93359375,-0.57421875,-0.033203125,0.658203125,-0.296875,-0.14453125,-7.484375,0.75390625,1.0
4823938,,,,,,,,-1.17578125,1.8203125,-0.65234375,-0.0234375,0.640625,-0.30078125,-0.14453125,-7.6015625,0.67578125,1.0
4823939,,,,,,,,-1.12109375,1.6953125,-0.7734375,-0.005859375,0.64453125,-0.2890625,-0.06640625,-7.71875,0.5625,1.0
4823940,36.0134045,129.3194995,81.08851003024975,111.4589306879295,1.0,324.0,,-1.3671875,1.46875,-0.78125,-0.19921875,0.978515625,-0.16796875,-0.296875,-7.9453125,0.5625,1.0
4823941,,,,,,,,-1.50390625,1.15234375,-0.84375,0.064453125,0.703125,-0.248046875,-0.41015625,-8.25,0.5234375,1.0
4823942,,,,,,,,-1.58984375,0.9921875,-0.66015625,0.08984375,0.71484375,-0.23046875,-0.48828125,-8.41015625,0.71484375,1.0
4823943,,,,,,,,-1.51171875,0.9140625,-0.62890625,0.1015625,0.701171875,-0.220703125,-0.41015625,-8.48828125,0.75390625,1.0
4823944,,,,,,,,-1.52734375,0.83984375,-0.609375,0.125,0.681640625,-0.2109375,-0.41015625,-8.55859375,0.7890625,1.0
4823945,,,,,,,,-1.4921875,0.79296875,-0.640625,0.138671875,0.6484375,-0.1953125,-0.375,-8.59375,0.7890625,1.0
4823946,,,,,,,,-1.5,0.86328125,-0.59375,0.15234375,0.60546875,-0.19140625,-0.375,-8.51953125,0.8671875,1.0
4823947,,,,,,,,-1.5078125,0.96875,-0.53125,0.177734375,0.57421875,-0.1953125,-0.375,-8.41015625,0.9453125,1.0
4823948,,,,,,,,-1.46875,1.0078125,-0.546875,0.19140625,0.5546875,-0.1953125,-0.3359375,-8.37109375,0.9453125,1.0
4823949,,,,,,,,-1.59765625,1.07421875,-0.80078125,0.22265625,0.515625,-0.19140625,-0.44921875,-8.2890625,0.71484375,1.0
4823950,36.01340533333334,129.319499,81.04343496220723,111.55139631395437,1.0,331.0,,-1.59765625,0.953125,-0.95703125,-0.19921875,0.978515625,-0.16796875,-0.44921875,-8.40625,0.59765625,1.0
4823951,,,,,,,,-1.5390625,0.64453125,-1.0546875,0.232421875,0.455078125,-0.1875,-0.375,-8.7109375,0.5234375,1.0
4823952,,,,,,,,-1.4609375,0.5625,-1.0390625,0.189453125,0.421875,-0.1875,-0.296875,-8.7890625,0.5625,1.0
4823953,,,,,,,,-1.33203125,0.4375,-0.6953125,0.107421875,0.337890625,-0.19921875,-0.14453125,-8.91015625,0.9453125,1.0
4823954,,,,,,,,-1.37890625,0.38671875,-0.66796875,0.0859375,0.330078125,-0.197265625,-0.18359375,-8.94140625,0.98046875,1.0
4823955,,,,,,,,-1.4609375,0.1953125,-0.52734375,0.064453125,0.30859375,-0.19140625,-0.2578125,-9.13671875,1.13671875,1.0
4823956,,,,,,,,-1.46875,-0.07421875,-0.49609375,0.0234375,0.271484375,-0.17578125,-0.2578125,-9.40234375,1.17578125,1.0
4823957,,,,,,,,-1.4296875,-0.1953125,-0.453125,0.0,0.24609375,-0.171875,-0.21875,-9.51953125,1.2109375,1.0
4823958,,,,,,,,-1.29296875,-0.58203125,-0.26171875,-0.04296875,0.193359375,-0.16015625,-0.06640625,-9.8984375,1.40234375,1.0
4823959,,,,,,,,-1.25390625,-0.65625,-0.23046875,-0.0625,0.17578125,-0.150390625,-0.02734375,-9.98046875,1.44140625,1.0
4823960,36.01340616666666,129.31949866666668,81.01338463526423,111.64386207695671,1.0,338.0,,-1.25390625,-0.89453125,-0.0625,-0.19921875,0.978515625,-0.16796875,-0.44921875,-8.40625,0.59765625,1.0
4823961,,,,,,,,-1.15625,-0.88671875,-0.015625,-0.123046875,0.142578125,-0.1484375,0.0859375,-10.20703125,1.6328125,1.0
4823962,,,,,,,,-0.97265625,-0.625,-0.3203125,-0.134765625,0.142578125,-0.14453125,0.27734375,-9.9375,1.328125,1.0
4823963,,,,,,,,-0.78125,-0.3203125,-0.44921875,-0.173828125,0.154296875,-0.140625,0.46875,-9.6328125,1.17578125,1.0
4823964,,,,,,,,-0.52734375,0.03125,-0.7421875,-0.25390625,0.169921875,-0.125,0.73828125,-9.2890625,0.8671875,1.0
4823965,,,,,,,,-0.453125,0.1484375,-0.796875,-0.369140625,0.189453125,-0.115234375,0.8125,-9.17578125,0.7890625,1.0
4823966,,,,,,,,-0.48828125,0.1875,-0.71875,-0.5,0.20703125,-0.099609375,0.77734375,-9.1328125,0.828125,1.0
4823967,,,,,,,,-0.65234375,0.30859375,-0.546875,-0.607421875,0.23046875,-0.083984375,0.62109375,-9.015625,0.9453125,1.0
4823968,,,,,,,,-1.21875,0.46875,-0.26171875,-0.66015625,0.240234375,-0.064453125,0.046875,-8.87109375,1.17578125,1.0
4823969,,,,,,,,-1.44921875,-0.09765625,-0.31640625,-0.712890625,0.22265625,-0.033203125,-0.18359375,-9.4375,1.05859375,1.0
4823970,36.013407,129.3194985,80.9983590447684,111.7363279796902,0.9,345.0,,-1.2421875,-1.375,-0.16796875,-0.880859375,0.13671875,0.033203125,0.0078125,-10.7421875,1.09765625,1.0
4823971,,,,,,,,-0.08203125,-2.5546875,1.18359375,-0.974609375,0.0625,0.068359375,1.16015625,-11.9296875,2.36328125,1.0
4823972,,,,,,,,0.33984375,-3.0078125,1.375,-1.0,0.04296875,0.076171875,1.58203125,-12.39453125,2.515625,1.0
4823973,,,,,,,,1.83984375,-5.0234375,1.734375,-1.03515625,0.033203125,0.091796875,3.07421875,-14.421875,2.78125,1.0
4823974,,,,,,,,3.12890625,-5.6640625,2.296875,-1.13671875,0.044921875,0.091796875,4.33984375,-15.0703125,3.2421875,1.0
4823975,,,,,,,,4.24609375,-3.47265625,2.98046875,-1.12109375,0.109375,0.0546875,5.44921875,-12.88671875,3.81640625,1.0
4823976,,,,,,,,4.1015625,-2.6171875,2.9140625,-0.685546875,0.37890625,-0.025390625,5.296875,-12.046875,3.6640625,1.0
4823977,,,,,,,,2.4140625,-1.15234375,2.02734375,-0.146484375,0.654296875,-0.13671875,3.609375,-10.58984375,2.74609375,1.0
4823978,,,,,,,,0.0625,-2.30859375,2.4296875,0.1015625,0.720703125,-0.2109375,1.2734375,-11.734375,3.1640625,1.0
4823979,,,,,,,,-0.3359375,-2.81640625,2.609375,0.13671875,0.603515625,-0.25390625,0.890625,-12.234375,3.359375,1.0
4823980,36.013408,129.31949866666668,81.0133827591026,111.84728736747726,1.1,354.0,,-0.84765625,-3.23046875,3.12890625,-0.880859375,0.13671875,0.033203125,0.39453125,-12.66015625,3.89453125,1.0
4823981,,,,,,,,-0.55078125,-2.31640625,2.62890625,0.337890625,0.455078125,-0.16796875,0.69921875,-11.734375,3.43359375,1.0
4823982,,,,,,,,-0.3671875,-1.28125,2.0546875,0.517578125,0.5703125,-0.056640625,0.890625,-10.70703125,2.8984375,1.0
4823983,,,,,,,,-0.4375,-0.32421875,1.83984375,0.58984375,0.732421875,0.046875,0.8125,-9.74609375,2.74609375,1.0
4823984,,,,,,,,-0.60546875,0.5546875,1.5859375,0.515625,0.783203125,0.140625,0.62109375,-8.87109375,2.5546875,1.0
4823985,,,,,,,,-0.54296875,0.77734375,1.30078125,0.376953125,0.67578125,0.205078125,0.66015625,-8.63671875,2.32421875,1.0
4823986,,,,,,,,-0.34375,0.73828125,0.9296875,0.279296875,0.591796875,0.216796875,0.8515625,-8.67578125,1.9765625,1.0
4823987,,,,,,,,-0.04296875,0.640625,0.671875,0.083984375,0.439453125,0.20703125,1.12109375,-8.7890625,1.75,1.0
4823988,,,,,,,,0.01953125,0.83203125,0.73828125,-0.02734375,0.365234375,0.189453125,1.16015625,-8.59765625,1.82421875,1.0
4823989,,,,,,,,-0.07421875,1.1015625,0.77734375,-0.056640625,0.384765625,0.166015625,1.04296875,-8.328125,1.86328125,1.0
4823990,36.013409,129.3194985,80.99835699848043,111.95824647821067,1.1,353.0,,-0.39453125,1.4453125,0.625,-0.880859375,0.13671875,0.033203125,0.39453125,-12.66015625,3.89453125,1.0
4823991,,,,,,,,-0.4921875,1.64453125,0.42578125,0.037109375,0.41796875,0.12890625,0.5859375,-7.79296875,1.51953125,1.0
4823992,,,,,,,,-0.5859375,1.84375,0.1875,0.068359375,0.43359375,0.125,0.46875,-7.6015625,1.2890625,1.0
4823993,,,,,,,,-0.4921875,2.07421875,0.05859375,0.080078125,0.458984375,0.123046875,0.546875,-7.3671875,1.17578125,1.0
4823994,,,,,,,,-0.36328125,2.1875,-0.03515625,0.072265625,0.4921875,0.12109375,0.66015625,-7.26171875,1.09765625,1.0
4823995,,,,,,,,-0.0078125,2.3046875,-0.17578125,0.03125,0.529296875,0.107421875,0.96875,-7.140625,0.98046875,1.0
4823996,,,,,,,,0.3046875,2.1484375,-0.296875,0.001953125,0.54296875,0.09765625,1.2734375,-7.296875,0.8671875,1.0
4823997,,,,,,,,0.4453125,1.95703125,-0.2734375,-0.017578125,0.560546875,0.078125,1.390625,-7.484375,0.90625,1.0
4823998,,,,,,,,0.53515625,1.7265625,-0.3203125,-0.037109375,0.58203125,0.041015625,1.46484375,-7.71875,0.8671875,1.0
4823999,,,,,,,,0.50390625,1.3828125,-0.359375,-0.0390625,0.58984375,-0.00390625,1.42578125,-8.0625,0.828125,1.0
4824000,36.01341,129.31949833333334,80.98333123969381,112.06920558832296,1.0,354.0,0.0,0.51953125,1.15234375,-0.28125,-0.880859375,0.13671875,0.033203125,0.39453125,-12.66015625,3.89453125,1.0
4824001,,,,,,,,0.4453125,0.92578125,-0.21484375,-0.025390625,0.587890625,-0.07421875,1.3515625,-8.515625,0.98046875,1.0
4824002,,,,,,,,0.3671875,0.84765625,-0.17578125,-0.025390625,0.599609375,-0.078125,1.2734375,-8.59765625,1.01953125,1.0
4824003,,,,,,,,0.17578125,0.88671875,0.015625,0.0078125,0.6328125,-0.091796875,1.08203125,-8.55859375,1.2109375,1.0
4824004,,,,,,,,0.0625,0.92578125,-0.0078125,0.107421875,0.65625,-0.111328125,0.96875,-8.51953125,1.2109375,1.0
4824005,,,,,,,,0.17578125,0.76171875,-0.453125,0.173828125,0.6171875,-0.11328125,1.08203125,-8.67578125,0.7890625,1.0
4824006,,,,,,,,0.20703125,0.80078125,-0.61328125,0.18359375,0.587890625,-0.115234375,1.12109375,-8.63671875,0.63671875,1.0
4824007,,,,,,,,0.28515625,0.79296875,-0.7890625,0.19921875,0.568359375,-0.12109375,1.19921875,-8.63671875,0.484375,1.0
4824008,,,,,,,,0.28515625,0.70703125,-0.7890625,0.17578125,0.59375,-0.1171875,1.19921875,-8.71484375,0.5234375,1.0
4824009,,,,,,,,0.20703125,0.6328125,-0.61328125,0.162109375,0.611328125,-0.11328125,1.12109375,-8.79296875,0.71484375,1.0
4824010,36.01341083333333,129.31949833333334,80.9833303872199,112.161671629071,0.9,357.0,,0.015625,0.48046875,-0.3984375,-0.880859375,0.13671875,0.033203125,0.39453125,-12.66015625,3.89453125,1.0
4824011,,,,,,,,-0.21484375,0.546875,-0.33984375,0.125,0.607421875,-0.107421875,0.69921875,-8.87109375,1.01953125,1.0
4824012,,,,,,,,-0.25390625,0.69921875,-0.36328125,0.130859375,0.580078125,-0.103515625,0.66015625,-8.7109375,1.01953125,1.0
4824013,,,,,,,,-0.25390625,0.80078125,-0.4921875,0.154296875,0.5546875,-0.08984375,0.66015625,-8.59375,0.90625,1.0
4824014,,,,,,,,-0.25390625,0.45703125,-0.44140625,0.083984375,0.50390625,-0.0625,0.66015625,-8.94140625,0.98046875,1.0
4824015,,,,,,,,-0.16796875,0.1875,-0.1796875,0.046875,0.5078125,-0.046875,0.73828125,-9.2109375,1.25,1.0
4824016,,,,,,,,-0.16796875,0.03515625,0.04296875,0.02734375,0.515625,-0.041015625,0.73828125,-9.359375,1.48046875,1.0
4824017,,,,,,,,-0.12890625,-0.125,-0.00390625,0.013671875,0.5234375,-0.03515625,0.77734375,-9.515625,1.44140625,1.0
4824018,,,,,,,,0.0390625,-0.34765625,-0.05078125,-0.013671875,0.484375,-0.037109375,0.9296875,-9.7421875,1.40234375,1.0
4824019,,,,,,,,0.19140625,-0.50390625,-0.05078125,-0.0625,0.38671875,-0.05078125,1.08203125,-9.90234375,1.40234375,1.0
4824020,36.013412,129.31949833333334,80.98332919380375,112.29112408704087,1.1,359.0,,0.26953125,-0.5859375,-0.00390625,-0.880859375,0.13671875,0.033203125,1.16015625,-9.98046875,1.44140625,1.0
4824021,,,,,,,,0.18359375,-0.546875,-0.03515625,-0.17578125,0.296875,-0.103515625,1.08203125,-9.9375,1.40234375,1.0
4824022,,,,,,,,0.18359375,-0.28125,-0.140625,-0.203125,0.2890625,-0.103515625,1.08203125,-9.67578125,1.2890625,1.0
4824023,,,,,,,,0.22265625,0.1796875,-0.38671875,-0.2890625,0.328125,-0.111328125,1.12109375,-9.2109375,1.01953125,1.0
4824024,,,,,,,,0.4453125,0.37890625,-0.5078125,-0.396484375,0.37109375,-0.09375,1.3515625,-9.01953125,0.8671875,1.0
4824025,,,,,,,,0.7890625,0.1484375,-0.31640625,-0.5390625,0.4140625,-0.0703125,1.6953125,-9.25,1.01953125,1.0
4824026,,,,,,,,0.90234375,-0.07421875,-0.25390625,-0.619140625,0.4375,-0.0546875,1.80859375,-9.48046875,1.05859375,1.0
4824027,,,,,,,,1.32421875,-1.59765625,-0.3828125,-0.767578125,0.4375,-0.048828125,2.23046875,-11.01171875,0.8671875,1.0
4824028,,,,,,,,1.36328125,-2.77734375,-0.53515625,-0.94140625,0.3828125,-0.05859375,2.26953125,-12.19921875,0.63671875,1.0
4824029,,,,,,,,1.36328125,-3.07421875,-0.52734375,-1.01953125,0.32421875,-0.068359375,2.26953125,-12.5,0.59765625,1.0
4824030,36.013412833333334,129.31949833333334,80.98332834136413,112.38359012765858,1.0,2.0,,0.7890625,-1.65234375,-0.15625,-1.037109375,0.31640625,-0.11328125,1.6953125,-11.08984375,0.8671875,1.0
4824031,,,,,,,,0.19921875,-1.87109375,0.26953125,-0.81640625,0.70703125,-0.16015625,1.12109375,-11.31640625,1.17578125,1.0
4824032,,,,,,,,0.15234375,-2.59375,0.34375,-0.830078125,0.791015625,-0.119140625,1.08203125,-12.046875,1.2109375,1.0
4824033,,,,,,,,-0.65234375,-5.03515625,1.234375,-1.033203125,0.720703125,-0.060546875,0.27734375,-14.4921875,2.015625,1.0
4824034,,,,,,,,-0.921875,-4.22265625,2.08984375,-0.9296875,0.70703125,-0.037109375,0.0078125,-13.6875,2.74609375,1.0
4824035,,,,,,,,-0.765625,-1.41796875,1.30078125,-0.349609375,0.818359375,-0.044921875,0.1640625,-10.890625,1.90234375,1.0
4824036,,,,,,,,-0.7578125,-0.34765625,0.7734375,-0.1015625,0.869140625,-0.041015625,0.1640625,-9.8203125,1.3671875,1.0
4824037,,,,,,,,-0.796875,-0.26953125,0.83203125,0.123046875,1.01953125,0.0,0.125,-9.7421875,1.44140625,1.0
4824038,,,,,,,,-0.55078125,-0.875,1.46875,0.068359375,1.15234375,0.03515625,0.35546875,-10.359375,2.09375,1.0
4824039,,,,,,,,-0.015625,-1.52734375,1.95703125,0.013671875,1.19921875,0.037109375,0.890625,-11.0078125,2.58984375,1.0
4824040,36.01341383333333,129.31949833333334,80.98332731850313,112.4945493768177,1.1,3.0,,0.68359375,-1.87109375,2.37109375,-1.037109375,0.31640625,-0.11328125,1.6953125,-11.08984375,0.8671875,1.0
4824041,,,,,,,,1.1875,-1.87109375,2.31640625,0.125,1.216796875,-0.068359375,2.078125,-11.3515625,2.97265625,1.0
4824042,,,,,,,,1.33203125,-1.41015625,2.01171875,0.3203125,1.2578125,-0.150390625,2.23046875,-10.890625,2.70703125,1.0
4824043,,,,,,,,1.02734375,-0.76171875,1.6796875,0.408203125,1.28125,-0.1953125,1.92578125,-10.24609375,2.3984375,1.0
4824044,,,,,,,,0.3984375,-0.1171875,1.51171875,0.509765625,1.322265625,-0.3046875,0.96875,-9.3203125,2.28515625,1.0
4824045,,,,,,,,-0.57421875,0.49609375,1.52734375,0.515625,1.32421875,-0.36328125,0.35546875,-8.98046875,2.36328125,1.0
4824046,,,,,,,,-1.35546875,0.6796875,1.38671875,0.4609375,1.271484375,-0.390625,-0.41015625,-8.7890625,2.28515625,1.0
4824047,,,,,,,,-1.6953125,0.671875,0.98828125,0.3671875,1.1640625,-0.400390625,-0.71875,-8.79296875,1.94140625,1.0
4824048,,,,,,,,-1.6875,0.6640625,0.83203125,0.26171875,1.05859375,-0.384765625,-0.6796875,-8.7890625,1.82421875,1.0
4824049,,,,,,,,-1.48046875,0.84765625,0.609375,0.15234375,1.009765625,-0.349609375,-0.44921875,-8.59765625,1.6328125,1.0
4824050,36.01341483333333,129.31949816666665,80.96830155762355,112.60550848808688,1.1,2.0,,-1.3203125,1.1171875,0.45703125,-1.037109375,0.31640625,-0.11328125,-0.2578125,-8.328125,1.51953125,1.0
4824051,,,,,,,,-1.14453125,1.60546875,0.00390625,0.046875,1.015625,-0.21484375,-0.06640625,-7.83203125,1.09765625,1.0
4824052,,,,,,,,-1.19921875,1.71875,-0.328125,0.068359375,0.92578125,-0.234375,-0.10546875,-7.72265625,0.7890625,1.0
4824053,,,,,,,,-1.16015625,1.67578125,-0.48828125,0.064453125,0.884765625,-0.24609375,-0.06640625,-7.75390625,0.63671875,1.0
4824054,,,,,,,,-1.20703125,1.52734375,-0.6640625,0.044921875,0.814453125,-0.259765625,-0.10546875,-7.90625,0.484375,1.0
4824055,,,,,,,,-1.30078125,1.328125,-0.59375,0.01953125,0.767578125,-0.259765625,-0.18359375,-8.1015625,0.5625,1.0
4824056,,,,,,,,-1.4296875,1.3203125,-0.609375,0.04296875,0.740234375,-0.25390625,-0.296875,-8.10546875,0.5625,1.0
4824057,,,,,,,,-1.67578125,1.24609375,-0.6640625,0.103515625,0.734375,-0.248046875,-0.52734375,-8.17578125,0.5234375,1.0
4824058,,,,,,,,-1.8359375,1.24609375,-0.71875,0.142578125,0.71875,-0.244140625,-0.6796875,-8.171875,0.484375,1.0
4824059,,,,,,,,-1.890625,1.23828125,-0.6640625,0.166015625,0.66796875,-0.220703125,-0.71875,-8.171875,0.5625,1.0
4824060,36.01341566666667,129.31949833333334,80.9833254429108,112.69797466839066,1.1,6.0,,-1.8984375,1.0,-0.62109375,-1.037109375,0.31640625,-0.11328125,-0.71875,-8.41015625,0.63671875,1.0
4824061,,,,,,,,-1.859375,0.9609375,-0.60546875,0.23046875,0.568359375,-0.1875,-0.6796875,-8.4453125,0.67578125,1.0
4824062,,,,,,,,-1.8671875,0.9609375,-0.54296875,0.232421875,0.541015625,-0.171875,-0.6796875,-8.44921875,0.75390625,1.0
4824063,,,,,,,,-1.921875,1.0625,-0.515625,0.259765625,0.494140625,-0.13671875,-0.71875,-8.328125,0.828125,1.0
4824064,,,,,,,,-1.98828125,1.40625,-0.4609375,0.30078125,0.458984375,-0.125,-0.79296875,-7.98828125,0.90625,1.0
4824065,,,,,,,,-1.99609375,1.51171875,-0.578125,0.3515625,0.431640625,-0.107421875,-0.79296875,-7.87109375,0.828125,1.0
4824066,,,,,,,,-1.99609375,1.4296875,-0.83203125,0.359375,0.408203125,-0.103515625,-0.79296875,-7.94921875,0.59765625,1.0
4824067,,,,,,,,-1.921875,1.23046875,-0.984375,0.302734375,0.337890625,-0.091796875,-0.6796875,-8.25390625,0.5234375,1.0
4824068,,,,,,,,-1.69140625,0.83984375,-0.91796875,0.197265625,0.255859375,-0.076171875,-0.375,-8.71484375,0.63671875,1.0
4824069,,,,,,,,-1.578125,0.64453125,-0.88671875,0.173828125,0.228515625,-0.0703125,-0.296875,-8.75,0.71484375,1.0
4824070,36.013416666666664,129.31949866666668,81.01337389035716,112.80893419484505,1.0,13.0,,-1.8984375,1.0,-0.62109375,0.1328125,0.203125,-0.060546875,-0.18359375,-8.90625,0.828125,1.0
4824071,,,,,,,,-1.38671875,0.33203125,-0.78125,0.12890625,0.197265625,-0.064453125,-0.18359375,-9.01953125,0.7890625,1.0
4824072,,,,,,,,-1.421875,0.21875,-0.796875,0.09375,0.19140625,-0.0703125,-0.21875,-9.2109375,0.7890625,1.0
4824073,,,,,,,,-1.53125,-0.06640625,-0.765625,0.0625,0.171875,-0.06640625,-0.375,-9.4765625,0.90625,1.0
4824074,,,,,,,,-1.578125,-0.21875,-0.703125,0.048828125,0.154296875,-0.06640625,-0.3359375,-9.7421875,0.98046875,1.0
4824075,,,,,,,,-1.53125,-0.44921875,-0.58984375,0.033203125,0.14453125,-0.07421875,-0.2578125,-9.90234375,1.01953125,1.0
4824076,,,,,,,,-1.4609375,-0.57421875,-0.58984375,0.0234375,0.142578125,-0.064453125,-0.21875,-9.9765625,1.05859375,1.0
4824077,,,,,,,,-1.1875,-0.7578125,-0.3984375,0.0078125,0.142578125,-0.076171875,0.0078125,-10.09375,1.2109375,1.0
4824078,,,,,,,,-1.0,-0.83203125,-0.3671875,-0.015625,0.123046875,-0.068359375,0.203125,-10.16796875,1.25,1.0
4824079,,,,,,,,-0.53515625,-0.87890625,-0.40625,-0.052734375,0.107421875,-0.080078125,0.66015625,-10.20703125,1.2109375,1.0
4824080,36.01341783333333,129.31949916666665,81.05844689894707,112.93838706683187,1.1,20.0,,-0.08203125,-0.57421875,-0.62890625,-0.10546875,0.119140625,-0.09765625,1.12109375,-9.8984375,0.98046875,1.0
4824081,,,,,,,,-0.04296875,-0.3046875,-0.6875,-0.169921875,0.162109375,-0.1171875,1.16015625,-9.6328125,0.90625,1.0
4824082,,,,,,,,-0.05078125,-0.14453125,-0.71875,-0.19921875,0.19921875,-0.125,1.16015625,-9.4765625,0.8671875,1.0
4824083,,,,,,,,-0.359375,0.23046875,-0.609375,-0.32421875,0.328125,-0.130859375,0.8515625,-9.09765625,0.9453125,1.0
4824084,,,,,,,,-0.48046875,0.421875,-0.51953125,-0.376953125,0.37109375,-0.134765625,0.73828125,-8.90625,1.01953125,1.0
4824085,,,,,,,,-0.97265625,0.81640625,-0.33203125,-0.466796875,0.41796875,-0.125,0.23828125,-8.51953125,1.17578125,1.0
4824086,,,,,,,,-1.40234375,-0.44140625,-0.44140625,-0.54296875,0.416015625,-0.1171875,-0.18359375,-9.78515625,1.01953125,1.0
4824087,,,,,,,,-1.28515625,-1.046875,-0.546875,-0.673828125,0.341796875,-0.08984375,-0.06640625,-10.3984375,0.8671875,1.0
4824088,,,,,,,,-0.3671875,-2.53125,0.09765625,-0.921875,0.154296875,-0.052734375,0.8515625,-11.89453125,1.44140625,1.0
4824089,,,,,,,,0.70703125,-3.0234375,1.234375,-1.087890625,-0.013671875,-0.056640625,1.92578125,-12.39453125,2.4765625,1.0
4824090,36.01341883333334,129.3195,81.13356955373808,113.04934701111297,1.1,29.0,,2.73046875,-5.8359375,2.35546875,-1.080078125,0.091796875,-0.0546875,3.95703125,-15.2265625,3.39453125,1.0
4824091,,,,,,,,3.38671875,-4.36328125,3.140625,-1.0078125,0.263671875,-0.060546875,4.60546875,-13.76953125,4.0859375,1.0
4824092,,,,,,,,3.1484375,-2.4765625,3.1015625,-0.4921875,0.52734375,-0.138671875,4.375,-11.89453125,3.96875,1.0
4824093,,,,,,,,2.4921875,-1.75,2.734375,-0.171875,0.630859375,-0.177734375,3.7265625,-11.16796875,3.5859375,1.0
4824094,,,,,,,,1.53515625,-1.7890625,2.7890625,0.125,0.67578125,-0.203125,2.76953125,-11.20703125,3.6640625,1.0
4824095,,,,,,,,-0.08984375,-2.6328125,3.4609375,0.16796875,0.609375,-0.23828125,1.16015625,-12.05078125,4.3515625,1.0
4824096,,,,,,,,-0.88671875,-3.0625,3.1875,0.322265625,0.46484375,-0.1953125,0.39453125,-12.46875,4.125,1.0
4824097,,,,,,,,-0.92578125,-2.01953125,2.49609375,0.46484375,0.4921875,-0.140625,0.35546875,-11.43359375,3.47265625,1.0
4824098,,,,,,,,-0.8515625,-1.60546875,2.2734375,0.5078125,0.521484375,-0.0859375,0.4296875,-11.01171875,3.28125,1.0
4824099,,,,,,,,-0.66015625,-0.1875,2.09375,0.533203125,0.599609375,0.013671875,0.62109375,-9.59765625,3.1640625,1.0
4824100,36.01341983333334,129.31950066666667,81.19366746956015,113.16030681499397,1.1,33.0,0.0,-0.7109375,0.80078125,1.96484375,0.466796875,0.62890625,0.109375,0.546875,-8.59765625,3.08984375,1.0
4824101,,,,,,,,-0.6953125,1.03125,1.44921875,0.353515625,0.55078125,0.1953125,0.546875,-8.37109375,2.62890625,1.0
4824102,,,,,,,,-0.59765625,0.9140625,1.16015625,0.16796875,0.423828125,0.25,0.62109375,-8.484375,2.36328125,1.0
4824103,,,,,,,,-0.17578125,0.37890625,0.9140625,0.001953125,0.2734375,0.275390625,1.00390625,-9.01953125,2.1328125,1.0
4824104,,,,,,,,-0.04296875,0.234375,0.9140625,-0.064453125,0.216796875,0.2890625,1.12109375,-9.17578125,2.1328125,1.0
4824105,,,,,,,,-0.1640625,0.43359375,0.875,-0.1015625,0.185546875,0.271484375,0.96875,-8.9765625,2.09375,1.0
4824106,,,,,,,,-0.296875,0.74609375,0.73046875,-0.0546875,0.23046875,0.2421875,0.8125,-8.671875,1.94140625,1.0
4824107,,,,,,,,-0.30859375,1.0546875,0.61328125,-0.021484375,0.24609375,0.234375,0.77734375,-8.37109375,1.82421875,1.0
4824108,,,,,,,,-0.2421875,1.328125,0.375,0.03125,0.25,0.1953125,0.8125,-8.10546875,1.59375,1.0
4824109,,,,,,,,-0.21875,1.4140625,0.29296875,0.029296875,0.248046875,0.19140625,0.8125,-8.0234375,1.51953125,1.0
4824110,36.01342066666667,129.31950133333333,81.25376555256136,113.2527734130249,1.1,33.0,,-0.1875,1.875,0.0546875,0.466796875,0.62890625,0.109375,0.546875,-8.59765625,3.08984375,1.0
4824111,,,,,,,,-0.171875,1.98828125,0.0,0.099609375,0.32421875,0.169921875,0.8515625,-7.41015625,1.2109375,1.0
4824112,,,,,,,,0.04296875,2.140625,-0.015625,0.103515625,0.34765625,0.166015625,1.00390625,-7.30078125,1.25,1.0
4824113,,,,,,,,0.21484375,2.37109375,-0.13671875,0.119140625,0.361328125,0.154296875,1.16015625,-7.06640625,1.13671875,1.0
4824114,,,,,,,,0.55078125,2.21875,-0.31640625,0.13671875,0.369140625,0.150390625,1.46484375,-7.22265625,0.98046875,1.0
4824115,,,,,,,,0.61328125,2.10546875,-0.4140625,0.140625,0.375,0.12890625,1.50390625,-7.33203125,0.90625,1.0
4824116,,,,,,,,0.55078125,2.02734375,-0.390625,0.142578125,0.384765625,0.095703125,1.42578125,-7.41015625,0.9453125,1.0
4824117,,,,,,,,0.4921875,1.90234375,-0.33984375,0.130859375,0.400390625,0.0703125,1.3515625,-7.52734375,1.01953125,1.0
4824118,,,,,,,,0.4375,1.8671875,-0.24609375,0.14453125,0.427734375,0.03125,1.2734375,-7.5625,1.13671875,1.0
4824119,,,,,,,,0.3984375,1.828125,-0.26171875,0.171875,0.431640625,0.013671875,1.234375,-7.6015625,1.13671875,1.0
4824120,36.0134215,129.31950216666667,81.3288883712892,113.34524014812057,1.1,36.0,,0.29296875,1.828125,-0.32421875,0.19921875,0.416015625,-0.005859375,1.12109375,-7.60546875,1.09765625,1.0
4824121,,,,,,,,0.22265625,1.7421875,-0.42578125,0.21484375,0.416015625,-0.015625,1.04296875,-7.68359375,1.01953125,1.0
4824122,,,,,,,,0.23828125,1.62109375,-0.49609375,0.208984375,0.443359375,-0.01953125,1.04296875,-7.7890625,0.98046875,1.0
4824123,,,,,,,,0.19921875,1.54296875,-0.47265625,0.20703125,0.451171875,-0.0234375,1.00390625,-7.87109375,1.01953125,1.0
4824124,,,,,,,,0.20703125,1.4609375,-0.53515625,0.185546875,0.4375,-0.025390625,1.00390625,-7.94921875,0.98046875,1.0
4824125,,,,,,,,0.28515625,1.15234375,-0.44140625,0.150390625,0.41015625,-0.021484375,1.08203125,-8.25390625,1.09765625,1.0
4824126,,,,,,,,0.4453125,0.6171875,-0.3046875,0.126953125,0.3984375,-0.013671875,1.234375,-8.79296875,1.25,1.0
4824127,,,,,,,,0.453125,0.5703125,-0.16796875,0.109375,0.41015625,-0.01171875,1.234375,-8.83203125,1.40234375,1.0
4824128,,,,,,,,0.41796875,0.53125,-0.05859375,0.11328125,0.43359375,-0.009765625,1.19921875,-8.87109375,1.51953125,1.0
4824129,,,,,,,,0.34765625,0.67578125,-0.04296875,0.146484375,0.486328125,0.0,1.12109375,-8.7109375,1.55859375,1.0
4824130,36.01342233333333,129.31950283333333,81.38898645163826,113.43770674625311,1.0,36.0,,0.0546875,0.5546875,-0.14453125,0.1484375,0.48046875,0.017578125,0.8125,-8.83203125,1.48046875,1.0
4824131,,,,,,,,-0.00390625,0.44140625,-0.23828125,0.091796875,0.412109375,0.029296875,0.62109375,-9.09765625,1.44140625,1.0
4824132,,,,,,,,-0.12109375,0.28515625,-0.20703125,0.0625,0.39453125,0.03515625,0.546875,-9.2109375,1.44140625,1.0
4824133,,,,,,,,-0.2265625,0.0859375,-0.21484375,0.01171875,0.365234375,0.041015625,0.5078125,-9.3984375,1.48046875,1.0
4824134,,,,,,,,-0.21875,-0.01953125,-0.17578125,-0.005859375,0.34765625,0.041015625,0.46875,-9.6328125,1.6328125,1.0
4824135,,,,,,,,-0.203125,-0.33203125,-0.0234375,-0.08984375,0.23828125,0.046875,0.546875,-9.82421875,1.6328125,1.0
4824136,,,,,,,,-0.1171875,-0.52734375,-0.0546875,-0.16796875,0.107421875,0.0390625,0.62109375,-9.86328125,1.51953125,1.0
4824137,,,,,,,,-0.07421875,-0.48046875,-0.12109375,-0.1953125,0.05859375,0.04296875,0.69921875,-9.98046875,1.3671875,1.0
4824138,,,,,,,,0.08203125,-0.6328125,-0.3359375,-0.2734375,-0.02734375,0.033203125,0.77734375,-10.05859375,1.25,1.0
4824139,,,,,,,,0.08984375,-0.671875,-0.359375,-0.3203125,-0.05078125,0.03125,0.77734375,-10.01953125,1.17578125,1.0
4824140,36.013423333333336,129.31950366666666,81.46410909536094,113.54866669351318,1.2000000000000002,36.0,,0.0546875,0.5546875,-0.14453125,0.1484375,0.48046875,0.017578125,0.9296875,-9.94140625,1.25,1.0
4824141,,,,,,,,0.40234375,-0.35546875,-0.1953125,-0.46484375,-0.05859375,0.03515625,1.16015625,-9.70703125,1.3671875,1.0
4824142,,,,,,,,0.71875,-0.34765625,0.00390625,-0.541015625,-0.01953125,0.060546875,1.390625,-9.74609375,1.48046875,1.0
4824143,,,,,,,,0.83984375,-1.75,-0.1015625,-0.7109375,0.048828125,0.109375,1.50390625,-11.16796875,1.2890625,1.0
4824144,,,,,,,,0.6640625,-2.203125,-0.29296875,-0.87109375,-0.013671875,0.13671875,1.3125,-11.62890625,1.01953125,1.0
4824145,,,,,,,,0.56640625,-1.3125,-0.05078125,-0.91015625,-0.03515625,0.1015625,1.19921875,-10.7421875,1.17578125,1.0
4824146,,,,,,,,0.296875,-0.5703125,0.36328125,-0.8125,0.13671875,0.0390625,0.9296875,-10.015625,1.51953125,1.0
4824147,,,,,,,,0.3515625,-1.55859375,0.59375,-0.81640625,0.25390625,0.091796875,0.96875,-11.0078125,1.671875,1.0
4824148,,,,,,,,-0.20703125,-4.37890625,1.0625,-1.0859375,0.154296875,0.1484375,0.39453125,-13.84765625,2.015625,1.0
4824149,,,,,,,,-0.61328125,-3.91015625,2.046875,-1.03515625,0.119140625,0.115234375,-0.02734375,-13.38671875,2.8984375,1.0
4824150,36.013424,129.31950450000002,81.53923208333332,113.62264022198148,1.1,38.0,,-0.7890625,-2.984375,2.23828125,0.1484375,0.48046875,0.017578125,-0.21875,-12.01171875,2.97265625,1.0
4824151,,,,,,,,-0.46875,-1.90234375,2.0546875,-0.13671875,0.26171875,0.12109375,0.0859375,-11.39453125,2.78125,1.0
4824152,,,,,,,,0.0078125,-1.703125,2.109375,-0.04296875,0.26171875,0.154296875,0.546875,-11.203125,2.8203125,1.0
4824153,,,,,,,,0.4375,-1.7734375,2.33203125,-0.021484375,0.30078125,0.158203125,0.96875,-11.28125,3.05078125,1.0
4824154,,,,,,,,0.7578125,-1.84765625,2.5625,0.041015625,0.408203125,0.142578125,1.2734375,-11.35546875,3.28125,1.0
4824155,,,,,,,,0.92578125,-1.80859375,2.31640625,0.150390625,0.44921875,0.1015625,1.42578125,-11.31640625,3.05078125,1.0
4824156,,,,,,,,0.93359375,-1.6171875,1.98828125,0.21484375,0.431640625,0.0625,1.42578125,-11.125,2.74609375,1.0
4824157,,,,,,,,0.71484375,-1.16015625,1.7734375,0.25390625,0.427734375,-0.025390625,1.19921875,-10.66796875,2.5546875,1.0
4824158,,,,,,,,0.55859375,-1.00390625,1.7578125,0.275390625,0.43359375,-0.0703125,1.04296875,-10.5078125,2.5546875,1.0
4824159,,,,,,,,0.12890625,-0.4765625,1.75390625,0.302734375,0.462890625,-0.1484375,0.62109375,-9.9765625,2.58984375,1.0
