time,latitude,longitude,enu_x,enu_y,speed,course,ecg,accX,accY,accZ,gyrX,gyrY,gyrZ,eulR,eulP,eulY,validity
4780630,36.013386999999994,129.3195325,84.06342670075446,109.51717179393225,1.2000000000000002,236.0,,-0.45703125,1.49609375,-0.3359375,-0.90625,-0.04296875,-0.001953125,3.07421875,-12.1953125,1.09765625,1.0
4780631,,,,,,,,-0.30859375,1.75390625,-0.49609375,-0.025390625,0.623046875,-0.26171875,1.16015625,-7.52734375,1.17578125,1.0
4780632,,,,,,,,-0.36328125,1.87109375,-0.50390625,-0.041015625,0.583984375,-0.271484375,1.12109375,-7.41015625,1.17578125,1.0
4780633,,,,,,,,-0.609375,2.0625,-0.58984375,-0.03125,0.556640625,-0.2890625,0.890625,-7.21875,1.09765625,1.0
4780634,,,,,,,,-0.81640625,2.21484375,-0.59765625,0.00390625,0.560546875,-0.283203125,0.62109375,-7.02734375,1.17578125,1.0
4780635,,,,,,,,-1.18359375,2.24609375,-0.56640625,0.04296875,0.572265625,-0.27734375,0.35546875,-7.02734375,1.13671875,1.0
4780636,,,,,,,,-1.31640625,2.27734375,-0.54296875,0.087890625,0.55859375,-0.267578125,0.203125,-6.98828125,1.2109375,1.0
4780637,,,,,,,,-1.4453125,2.421875,-0.68359375,0.142578125,0.51953125,-0.234375,0.125,-6.8359375,1.05859375,1.0
4780638,,,,,,,,-1.68359375,2.46875,-0.8984375,0.189453125,0.486328125,-0.193359375,-0.10546875,-6.796875,0.8671875,1.0
4780639,,,,,,,,-1.921875,2.30859375,-0.9609375,0.2109375,0.4921875,-0.154296875,-0.3359375,-6.9453125,0.828125,1.0
4780640,36.01338666666666,129.31953183333331,84.00332808675789,109.48018480205498,1.0,238.0,,-2.1875,2.29296875,-0.9140625,-0.90625,-0.04296875,-0.001953125,-0.6015625,-6.9453125,0.90625,1.0
4780641,,,,,,,,-2.1796875,2.13671875,-0.83203125,0.197265625,0.42578125,-0.060546875,-0.6015625,-7.1015625,1.01953125,1.0
4780642,,,,,,,,-2.06640625,2.0546875,-0.86328125,0.1875,0.306640625,-0.01953125,-0.48828125,-7.18359375,1.01953125,1.0
4780643,,,,,,,,-1.875,1.90234375,-0.91796875,0.18359375,0.267578125,-0.005859375,-0.296875,-7.33203125,0.98046875,1.0
4780644,,,,,,,,-1.7890625,1.96875,-1.046875,0.1875,0.205078125,0.017578125,-0.21875,-7.2578125,0.8671875,1.0
4780645,,,,,,,,-1.73828125,1.88671875,-1.1171875,0.189453125,0.181640625,0.056640625,-0.21875,-7.33203125,0.828125,1.0
4780646,,,,,,,,-1.765625,1.73046875,-1.171875,0.16015625,0.158203125,0.060546875,-0.06640625,-7.56640625,0.8671875,1.0
4780647,,,,,,,,-1.53125,1.5703125,-1.109375,0.12109375,0.111328125,0.056640625,0.0859375,-7.68359375,0.828125,1.0
4780648,,,,,,,,-1.453125,1.53125,-1.1484375,0.10546875,0.08984375,0.056640625,0.27734375,-7.79296875,0.90625,1.0
4780649,,,,,,,,-1.20703125,1.37109375,-1.09375,0.076171875,0.052734375,0.044921875,0.31640625,-7.90625,0.90625,1.0
4780650,36.013386,129.31953049999998,83.88313086361607,109.40621082204885,1.1,238.0,,-2.1875,2.29296875,-0.9140625,-0.90625,-0.04296875,-0.001953125,0.4296875,-8.25390625,0.90625,1.0
4780651,,,,,,,,-1.0859375,0.796875,-1.1015625,0.03515625,0.00390625,0.005859375,0.4296875,-8.55859375,0.9453125,1.0
4780652,,,,,,,,-1.078125,0.48828125,-1.1015625,-0.01171875,-0.017578125,-0.017578125,0.46875,-8.90625,1.01953125,1.0
4780653,,,,,,,,-1.0,0.18359375,-0.98828125,-0.052734375,-0.048828125,-0.03125,0.546875,-9.2109375,1.13671875,1.0
4780654,,,,,,,,-0.9296875,-0.16796875,-0.82421875,-0.076171875,-0.056640625,-0.046875,0.66015625,-9.51953125,1.2109375,1.0
4780655,,,,,,,,-0.74609375,-0.4765625,-0.703125,-0.083984375,-0.052734375,-0.048828125,0.8125,-9.8203125,1.328125,1.0
4780656,,,,,,,,-0.48046875,-0.97265625,-0.54296875,-0.09375,-0.03515625,-0.056640625,1.04296875,-10.1640625,1.44140625,1.0
4780657,,,,,,,,-0.31640625,-1.203125,-0.53515625,-0.1171875,-0.01953125,-0.05859375,1.19921875,-10.40234375,1.44140625,1.0
4780658,,,,,,,,-0.10546875,-1.28125,-0.55859375,-0.15625,0.01953125,-0.0625,1.42578125,-10.48046875,1.40234375,1.0
4780659,,,,,,,,0.203125,-1.28125,-0.76171875,-0.201171875,0.0625,-0.072265625,1.734375,-10.48046875,1.17578125,1.0
4780660,36.013385666666665,129.31952916666665,83.76293328605881,109.36922325879888,1.1,244.0,,0.34765625,-1.31640625,-0.90234375,-0.3046875,0.15625,-0.078125,2.0,-10.44140625,1.01953125,1.0
4780661,,,,,,,,0.46875,-1.1953125,-0.87109375,-0.390625,0.224609375,-0.091796875,1.88671875,-10.12890625,1.05859375,1.0
4780662,,,,,,,,0.234375,-0.765625,-0.66796875,-0.4453125,0.298828125,-0.11328125,1.42578125,-9.671875,1.25,1.0
4780663,,,,,,,,-0.265625,-0.375,-0.515625,-0.470703125,0.314453125,-0.1171875,0.96875,-9.51953125,1.40234375,1.0
4780664,,,,,,,,-0.84765625,-0.8671875,-0.26171875,-0.521484375,0.287109375,-0.11328125,0.69921875,-10.09375,1.48046875,1.0
4780665,,,,,,,,-0.80859375,-1.81640625,-0.17578125,-0.640625,0.220703125,-0.08203125,0.73828125,-11.046875,1.51953125,1.0
4780666,,,,,,,,-0.6640625,-2.265625,-0.03125,-0.72265625,0.162109375,-0.0625,0.890625,-11.5078125,1.6328125,1.0
4780667,,,,,,,,0.41015625,-3.0546875,0.99609375,-0.8359375,0.091796875,-0.02734375,1.96484375,-12.31640625,2.58984375,1.0
4780668,,,,,,,,1.83203125,-3.27734375,1.57421875,-0.83984375,0.103515625,-0.013671875,3.37890625,-12.54296875,3.08984375,1.0
4780669,,,,,,,,2.6015625,-3.453125,1.56640625,-0.802734375,0.203125,-0.005859375,4.1484375,-12.734375,3.01171875,1.0
4780670,36.0133855,129.31952833333335,83.68780975925826,109.35072933463934,1.0,246.0,,3.10546875,-2.640625,1.984375,-0.712890625,0.33203125,-0.021484375,4.64453125,-11.93359375,3.359375,1.0
4780671,,,,,,,,2.68359375,-1.984375,2.14453125,-0.4609375,0.4765625,-0.05859375,4.22265625,-11.28125,3.47265625,1.0
4780672,,,,,,,,1.61328125,-2.01953125,2.0546875,-0.23046875,0.51953125,-0.115234375,3.15234375,-11.31640625,3.359375,1.0
4780673,,,,,,,,0.84765625,-2.44140625,2.17578125,-0.150390625,0.498046875,-0.140625,2.38671875,-11.734375,3.47265625,1.0
4780674,,,,,,,,0.140625,-3.0546875,2.40625,-0.017578125,0.4296875,-0.173828125,1.6953125,-12.3515625,3.703125,1.0
4780675,,,,,,,,-0.55859375,-3.5078125,2.8125,0.15625,0.357421875,-0.11328125,1.00390625,-12.8125,4.125,1.0
4780676,,,,,,,,-0.36328125,-2.359375,2.13671875,0.302734375,0.349609375,-0.029296875,1.19921875,-11.6640625,3.47265625,1.0
4780677,,,,,,,,-0.12890625,-0.83203125,1.5625,0.396484375,0.40625,0.04296875,1.42578125,-10.125,2.9375,1.0
4780678,,,,,,,,-0.12890625,-0.48828125,1.421875,0.40234375,0.44921875,0.087890625,1.42578125,-9.78125,2.8203125,1.0
4780679,,,,,,,,-0.21875,0.046875,1.26171875,0.318359375,0.509765625,0.158203125,1.3125,-9.25,2.70703125,1.0
4780680,36.013385166666666,129.319527,83.56761217515127,109.31374177489735,1.2000000000000002,249.0,,-0.234375,0.27734375,1.078125,-0.712890625,0.33203125,-0.021484375,1.2734375,-9.09765625,2.4375,1.0
4780681,,,,,,,,-0.09375,0.046875,0.75390625,0.052734375,0.400390625,0.205078125,1.390625,-9.25390625,2.24609375,1.0
4780682,,,,,,,,-0.01953125,-0.01171875,0.5546875,-0.0703125,0.33203125,0.197265625,1.42578125,-9.3203125,2.0546875,1.0
4780683,,,,,,,,-0.109375,0.140625,0.4765625,-0.083984375,0.33984375,0.18359375,1.3125,-9.17578125,1.9765625,1.0
4780684,,,,,,,,-0.39453125,0.68359375,0.35546875,-0.06640625,0.373046875,0.169921875,1.00390625,-8.6328125,1.86328125,1.0
4780685,,,,,,,,-0.5625,1.14453125,0.1640625,-0.037109375,0.419921875,0.169921875,0.8125,-8.171875,1.671875,1.0
4780686,,,,,,,,-0.69921875,1.41796875,0.0859375,-0.01171875,0.447265625,0.16796875,0.66015625,-7.91015625,1.59375,1.0
4780687,,,,,,,,-0.7890625,1.95703125,-0.2265625,-0.001953125,0.4921875,0.169921875,0.546875,-7.3671875,1.2890625,1.0
4780688,,,,,,,,-0.65234375,2.1953125,-0.38671875,-0.009765625,0.517578125,0.173828125,0.66015625,-7.140625,1.13671875,1.0
4780689,,,,,,,,-0.3984375,2.578125,-0.55078125,-0.041015625,0.525390625,0.169921875,0.890625,-6.7578125,0.98046875,1.0
4780690,36.01338483333333,129.31952600000002,83.47746408193377,109.2767545010103,1.1,251.0,,-0.06640625,2.77734375,-0.55078125,-0.712890625,0.33203125,-0.021484375,1.19921875,-6.5625,0.98046875,1.0
4780691,,,,,,,,0.03125,2.9296875,-0.5859375,-0.05859375,0.55859375,0.142578125,1.2734375,-6.4140625,0.9453125,1.0
4780692,,,,,,,,0.171875,2.890625,-0.55859375,-0.052734375,0.591796875,0.123046875,1.390625,-6.453125,0.98046875,1.0
4780693,,,,,,,,0.140625,2.890625,-0.55859375,-0.052734375,0.599609375,0.11328125,1.3515625,-6.45703125,0.98046875,1.0
4780694,,,,,,,,0.27734375,2.70703125,-0.640625,-0.02734375,0.607421875,0.076171875,1.46484375,-6.64453125,0.90625,1.0
4780695,,,,,,,,0.37890625,2.59375,-0.7265625,-0.017578125,0.595703125,0.046875,1.54296875,-6.7578125,0.828125,1.0
4780696,,,,,,,,0.4609375,2.24609375,-0.84765625,-0.021484375,0.58984375,0.021484375,1.6171875,-7.1015625,0.71484375,1.0
4780697,,,,,,,,0.32421875,1.82421875,-0.96484375,-0.033203125,0.61328125,-0.001953125,1.46484375,-7.5234375,0.59765625,1.0
4780698,,,,,,,,0.21875,1.59765625,-1.0,-0.037109375,0.630859375,-0.0078125,1.3515625,-7.75,0.5625,1.0
4780699,,,,,,,,0.1875,1.328125,-0.97265625,-0.05078125,0.689453125,-0.029296875,1.3125,-8.02734375,0.59765625,1.0
4780700,36.01338466666667,129.319525,83.38731580571027,109.25826043633572,1.0,252.0,0.0,0.08203125,1.17578125,-0.78125,-0.712890625,0.33203125,-0.021484375,1.19921875,-8.171875,0.7890625,1.0
4780701,,,,,,,,0.09765625,0.9375,-0.671875,-0.04296875,0.7578125,-0.048828125,1.19921875,-8.41015625,0.90625,1.0
4780702,,,,,,,,0.1328125,0.59375,-0.6328125,-0.033203125,0.755859375,-0.046875,1.234375,-8.75,0.9453125,1.0
4780703,,,,,,,,0.21875,0.01953125,-0.60546875,-0.03515625,0.740234375,-0.052734375,1.3125,-9.32421875,0.98046875,1.0
4780704,,,,,,,,0.2265625,-0.36328125,-0.57421875,-0.015625,0.6953125,-0.046875,1.3125,-9.70703125,1.01953125,1.0
4780705,,,,,,,,0.04296875,-0.171875,-0.42578125,0.0234375,0.701171875,-0.05078125,1.12109375,-9.51953125,1.17578125,1.0
4780706,,,,,,,,-0.1015625,0.01953125,-0.47265625,0.05078125,0.708984375,-0.044921875,0.96875,-9.32421875,1.13671875,1.0
4780707,,,,,,,,-0.59375,0.5078125,-0.56640625,0.142578125,0.736328125,-0.04296875,0.46875,-8.828125,1.05859375,1.0
4780708,,,,,,,,-0.73046875,0.578125,-0.7109375,0.1484375,0.70703125,-0.041015625,0.31640625,-8.75,0.9453125,1.0
4780709,,,,,,,,-0.80859375,0.4609375,-0.796875,0.1328125,0.67578125,-0.02734375,0.23828125,-8.8671875,0.8671875,1.0
4780710,36.0133845,129.319524,83.29716753096204,109.23976637347351,1.0,251.0,,-0.79296875,0.1484375,-0.69921875,0.056640625,0.603515625,-0.01953125,0.23828125,-9.171875,0.98046875,1.0
4780711,,,,,,,,-0.74609375,-0.12109375,-0.484375,0.01171875,0.55859375,-0.01171875,0.27734375,-9.4375,1.2109375,1.0
4780712,,,,,,,,-0.70703125,-0.1953125,-0.4453125,0.0,0.544921875,-0.017578125,0.31640625,-9.515625,1.25,1.0
4780713,,,,,,,,-0.5,-0.45703125,-0.51953125,-0.048828125,0.47265625,-0.01953125,0.5078125,-9.78515625,1.17578125,1.0
4780714,,,,,,,,-0.22265625,-0.734375,-0.58984375,-0.123046875,0.345703125,-0.044921875,0.77734375,-10.0546875,1.09765625,1.0
4780715,,,,,,,,-0.078125,-0.88671875,-0.53515625,-0.181640625,0.265625,-0.078125,0.9296875,-10.20703125,1.13671875,1.0
4780716,,,,,,,,-0.078125,-0.88671875,-0.51953125,-0.244140625,0.212890625,-0.1171875,0.9296875,-10.20703125,1.13671875,1.0
4780717,,,,,,,,0.07421875,-0.6484375,-0.50390625,-0.275390625,0.1796875,-0.1484375,1.08203125,-9.98046875,1.13671875,1.0
4780718,,,,,,,,0.328125,-0.2265625,-0.62890625,-0.318359375,0.158203125,-0.16015625,1.3515625,-9.5546875,0.98046875,1.0
4780719,,,,,,,,0.47265625,-0.11328125,-0.734375,-0.349609375,0.150390625,-0.16015625,1.50390625,-9.4375,0.8671875,1.0
4780720,36.01338416666667,129.319523,83.20701943342151,109.2027791024216,1.1,249.0,,0.953125,-0.14453125,-0.65625,0.056640625,0.603515625,-0.01953125,0.23828125,-9.171875,0.98046875,1.0
4780721,,,,,,,,1.29296875,-1.20703125,-0.609375,-0.54296875,0.236328125,-0.1484375,2.34765625,-10.546875,0.90625,1.0
4780722,,,,,,,,1.24609375,-2.6953125,-0.48046875,-0.703125,0.287109375,-0.142578125,2.30859375,-12.046875,0.98046875,1.0
4780723,,,,,,,,1.23828125,-2.80078125,-0.25390625,-0.80078125,0.263671875,-0.15234375,2.30859375,-12.15625,1.13671875,1.0
4780724,,,,,,,,0.88671875,-1.52734375,0.46484375,-0.744140625,0.287109375,-0.171875,1.96484375,-10.890625,1.78515625,1.0
4780725,,,,,,,,0.05859375,-1.8671875,0.8125,-0.46484375,0.640625,-0.234375,1.16015625,-11.2421875,2.0546875,1.0
4780726,,,,,,,,-0.5234375,-4.00390625,0.66015625,-0.53515625,0.66015625,-0.171875,0.5859375,-13.3828125,1.86328125,1.0
4780727,,,,,,,,-1.078125,-3.53515625,1.62109375,-0.62890625,0.48828125,-0.166015625,0.046875,-12.921875,2.74609375,1.0
4780728,,,,,,,,-1.125,-1.16015625,1.8046875,-0.255859375,0.619140625,-0.19921875,0.0078125,-10.55078125,2.8984375,1.0
4780729,,,,,,,,-1.140625,-0.47265625,1.34375,0.048828125,0.74609375,-0.189453125,0.0078125,-9.86328125,2.4375,1.0
4780730,36.013383999999995,129.31952166666667,83.08682167522544,109.18428475673116,1.1,253.0,,-0.87890625,-1.3125,1.40625,0.056640625,0.603515625,-0.01953125,0.23828125,-9.171875,0.98046875,1.0
4780731,,,,,,,,-0.34375,-2.203125,1.90234375,-0.12109375,0.775390625,-0.1171875,0.8125,-11.58984375,3.01171875,1.0
4780732,,,,,,,,0.26953125,-2.80859375,2.2109375,-0.125,0.763671875,-0.126953125,1.42578125,-12.1953125,3.3203125,1.0
4780733,,,,,,,,0.64453125,-2.953125,2.2578125,-0.0234375,0.779296875,-0.1640625,1.80859375,-12.35546875,3.359375,1.0
4780734,,,,,,,,0.67578125,-2.6875,2.125,0.150390625,0.87109375,-0.201171875,1.84765625,-12.0859375,3.2421875,1.0
4780735,,,,,,,,0.01953125,-1.58203125,1.81640625,0.310546875,0.953125,-0.255859375,1.19921875,-10.96875,2.97265625,1.0
4780736,,,,,,,,-0.21875,-1.12890625,1.7265625,0.37109375,0.978515625,-0.28515625,0.96875,-10.5078125,2.8984375,1.0
4780737,,,,,,,,-0.92578125,-0.2890625,1.6328125,0.419921875,1.0,-0.3203125,0.27734375,-9.671875,2.859375,1.0
4780738,,,,,,,,-1.41015625,0.00390625,1.2578125,0.333984375,0.927734375,-0.3203125,-0.18359375,-9.359375,2.5546875,1.0
4780739,,,,,,,,-1.46875,0.109375,0.796875,0.255859375,0.85546875,-0.30078125,-0.21875,-9.25,2.1328125,1.0
4780740,36.01338366666666,129.3195205,82.98164883324367,109.14729734663538,1.2000000000000002,255.0,,-1.2578125,0.453125,0.328125,0.056640625,0.603515625,-0.01953125,0.0078125,-8.90625,1.7109375,1.0
4780741,,,,,,,,-0.93359375,0.71484375,0.1875,0.11328125,0.77734375,-0.24609375,0.35546875,-8.63671875,1.59375,1.0
4780742,,,,,,,,-0.7421875,1.2890625,-0.00390625,0.103515625,0.77734375,-0.220703125,0.546875,-8.06640625,1.44140625,1.0
4780743,,,,,,,,-0.7109375,1.44140625,-0.1640625,0.123046875,0.787109375,-0.21875,0.5859375,-7.91015625,1.2890625,1.0
4780744,,,,,,,,-0.71875,1.703125,-0.265625,0.126953125,0.787109375,-0.23046875,0.5859375,-7.64453125,1.2109375,1.0
4780745,,,,,,,,-0.91796875,2.078125,-0.48046875,0.126953125,0.76953125,-0.255859375,0.39453125,-7.2578125,1.01953125,1.0
4780746,,,,,,,,-0.97265625,2.30859375,-0.578125,0.1171875,0.7421875,-0.275390625,0.35546875,-7.02734375,0.9453125,1.0
4780747,,,,,,,,-1.06640625,2.34765625,-0.6328125,0.095703125,0.71875,-0.29296875,0.27734375,-6.98828125,0.90625,1.0
4780748,,,,,,,,-1.1484375,2.22265625,-0.6875,0.083984375,0.69921875,-0.294921875,0.203125,-7.1015625,0.8671875,1.0
4780749,,,,,,,,-1.359375,2.0703125,-0.703125,0.0625,0.677734375,-0.2890625,0.0078125,-7.2578125,0.8671875,1.0
4780750,36.013383833333336,129.31951949999998,82.89150020522933,109.16578970389156,1.0,259.0,,-1.6015625,1.90234375,-0.8046875,0.056640625,0.603515625,-0.01953125,-0.21875,-7.41015625,0.7890625,1.0
4780751,,,,,,,,-1.734375,1.78515625,-0.93359375,0.107421875,0.669921875,-0.23828125,-0.3359375,-7.52734375,0.67578125,1.0
4780752,,,,,,,,-1.78125,1.6328125,-1.0703125,0.11328125,0.65234375,-0.224609375,-0.375,-7.6796875,0.5625,1.0
4780753,,,,,,,,-1.59765625,1.3671875,-0.90234375,0.08984375,0.60546875,-0.197265625,-0.18359375,-7.94921875,0.75390625,1.0
4780754,,,,,,,,-1.3671875,1.234375,-0.765625,0.072265625,0.556640625,-0.18359375,0.046875,-8.0625,0.90625,1.0
4780755,,,,,,,,-1.18359375,1.16015625,-0.70703125,0.078125,0.515625,-0.1796875,0.23828125,-8.13671875,0.98046875,1.0
4780756,,,,,,,,-1.10546875,1.12109375,-0.67578125,0.099609375,0.5,-0.177734375,0.31640625,-8.171875,1.01953125,1.0
4780757,,,,,,,,-1.19921875,1.07421875,-0.765625,0.146484375,0.484375,-0.18359375,0.23828125,-8.21484375,0.9453125,1.0
4780758,,,,,,,,-1.3515625,1.02734375,-0.9609375,0.193359375,0.462890625,-0.197265625,0.0859375,-8.25,0.7890625,1.0
4780759,,,,,,,,-1.51953125,0.828125,-0.9453125,0.17578125,0.427734375,-0.19921875,-0.06640625,-8.4453125,0.828125,1.0
4780760,36.013383833333336,129.3195185,82.80135175393207,109.1657888535254,1.0,261.0,,-1.64453125,0.4375,-0.8828125,0.056640625,0.603515625,-0.01953125,-0.18359375,-8.828125,0.90625,1.0
4780761,,,,,,,,-1.48828125,0.0859375,-0.70703125,0.142578125,0.337890625,-0.19140625,-0.02734375,-9.171875,1.09765625,1.0
4780762,,,,,,,,-1.4296875,0.0078125,-0.6171875,0.158203125,0.29296875,-0.18359375,0.046875,-9.25390625,1.2109375,1.0
4780763,,,,,,,,-1.3984375,-0.07421875,-0.546875,0.166015625,0.27734375,-0.18359375,0.0859375,-9.3203125,1.2890625,1.0
4780764,,,,,,,,-1.28125,-0.046875,-0.41015625,0.17578125,0.259765625,-0.18359375,0.203125,-9.29296875,1.44140625,1.0
4780765,,,,,,,,-1.296875,0.0234375,-0.39453125,0.17578125,0.251953125,-0.1796875,0.203125,-9.21484375,1.48046875,1.0
4780766,,,,,,,,-1.3828125,0.28515625,-0.5390625,0.189453125,0.24609375,-0.18359375,0.125,-8.9375,1.3671875,1.0
4780767,,,,,,,,-1.4296875,0.50390625,-0.671875,0.17578125,0.228515625,-0.18359375,0.0859375,-8.7109375,1.25,1.0
4780768,,,,,,,,-1.515625,0.58203125,-0.75390625,0.154296875,0.216796875,-0.1875,0.0078125,-8.6328125,1.17578125,1.0
4780769,,,,,,,,-1.5234375,0.4609375,-0.96484375,0.076171875,0.18359375,-0.189453125,0.0078125,-8.75390625,0.98046875,1.0
4780770,36.013383833333336,129.31951733333332,82.69617856179606,109.16578786275723,1.0,265.0,,-1.125,-0.0859375,-1.0390625,0.056640625,0.603515625,-0.01953125,0.4296875,-9.29296875,0.90625,1.0
4780771,,,,,,,,-0.86328125,-0.54296875,-1.0234375,-0.267578125,0.07421875,-0.193359375,0.69921875,-9.7421875,0.90625,1.0
4780772,,,,,,,,-0.16015625,-1.1484375,-0.73828125,-0.44140625,0.044921875,-0.197265625,1.42578125,-10.36328125,1.13671875,1.0
4780773,,,,,,,,0.0234375,-1.2265625,-0.72265625,-0.4765625,0.068359375,-0.1953125,1.6171875,-10.4375,1.13671875,1.0
4780774,,,,,,,,0.390625,-1.140625,-0.71484375,-0.51953125,0.14453125,-0.19140625,2.0,-10.36328125,1.09765625,1.0
4780775,,,,,,,,0.4609375,-0.67578125,-0.65234375,-0.525390625,0.302734375,-0.177734375,2.078125,-9.90234375,1.09765625,1.0
4780776,,,,,,,,0.109375,-0.16796875,-0.60546875,-0.498046875,0.419921875,-0.181640625,1.734375,-9.40234375,1.09765625,1.0
4780777,,,,,,,,-0.2421875,-0.08984375,-0.64453125,-0.513671875,0.48828125,-0.177734375,1.390625,-9.32421875,1.01953125,1.0
4780778,,,,,,,,-0.6640625,-0.20703125,-0.46484375,-0.533203125,0.4921875,-0.173828125,0.96875,-9.4375,1.17578125,1.0
4780779,,,,,,,,-0.90234375,-0.62109375,-0.3828125,-0.6171875,0.451171875,-0.173828125,0.73828125,-9.86328125,1.2109375,1.0
4780780,36.0133845,129.31951633333335,82.60602941985194,109.2397598471242,1.0,276.0,,-0.91015625,-1.1484375,-0.51953125,0.056640625,0.603515625,-0.01953125,0.73828125,-10.40234375,1.01953125,1.0
4780781,,,,,,,,-0.15234375,-0.25,0.234375,-0.794921875,0.19140625,-0.12109375,1.50390625,-9.515625,1.671875,1.0
4780782,,,,,,,,0.18359375,-0.85546875,0.57421875,-0.765625,0.2265625,-0.083984375,1.84765625,-10.125,1.94140625,1.0
4780783,,,,,,,,0.5,-2.34375,0.6953125,-0.79296875,0.251953125,-0.0625,2.15625,-11.62890625,2.015625,1.0
4780784,,,,,,,,1.06640625,-3.62890625,1.00390625,-1.0,0.263671875,-0.01171875,2.73046875,-12.92578125,2.24609375,1.0
4780785,,,,,,,,3.03515625,-3.890625,2.09375,-1.16796875,0.208984375,0.01953125,4.68359375,-13.1953125,3.2421875,1.0
4780786,,,,,,,,3.9140625,-3.453125,2.5859375,-0.912109375,0.28125,-0.03515625,5.5625,-12.77734375,3.5859375,1.0
4780787,,,,,,,,3.07421875,-3.17578125,2.6875,-0.5703125,0.521484375,-0.08984375,4.72265625,-12.5,3.625,1.0
4780788,,,,,,,,1.73046875,-3.16796875,2.8203125,-0.400390625,0.62890625,-0.12109375,3.37890625,-12.5,3.7421875,1.0
4780789,,,,,,,,0.53515625,-3.32421875,2.94140625,-0.087890625,0.71484375,-0.166015625,2.19140625,-12.65625,3.85546875,1.0
4780790,36.01338483333333,129.31951533333333,82.5158806202017,109.27674541597158,1.1,279.0,,-0.46484375,-3.28515625,3.0859375,0.14453125,0.642578125,-0.181640625,1.19921875,-12.6171875,4.0078125,1.0
4780791,,,,,,,,-0.58984375,-2.87109375,2.7890625,0.322265625,0.587890625,-0.13671875,1.08203125,-12.1953125,3.7421875,1.0
4780792,,,,,,,,-0.67578125,-1.72265625,2.08984375,0.431640625,0.587890625,-0.076171875,1.00390625,-11.046875,3.08984375,1.0
4780793,,,,,,,,-0.55078125,-1.0,1.59765625,0.44140625,0.59375,-0.03515625,1.12109375,-10.3203125,2.62890625,1.0
4780794,,,,,,,,-0.49609375,-0.07421875,1.0234375,0.37890625,0.65234375,0.087890625,1.16015625,-9.40234375,2.1328125,1.0
4780795,,,,,,,,-0.3984375,0.33984375,0.8671875,0.271484375,0.646484375,0.154296875,1.234375,-8.9765625,2.015625,1.0
4780796,,,,,,,,-0.18359375,0.1953125,0.64453125,0.13671875,0.578125,0.189453125,1.42578125,-9.1328125,1.82421875,1.0
4780797,,,,,,,,-0.04296875,-0.10546875,0.4765625,0.021484375,0.498046875,0.20703125,1.54296875,-9.44140625,1.671875,1.0
4780798,,,,,,,,-0.1796875,0.0859375,0.546875,-0.021484375,0.46875,0.21484375,1.390625,-9.25390625,1.75,1.0
4780799,,,,,,,,-0.34765625,0.5078125,0.46875,-0.037109375,0.46875,0.201171875,1.19921875,-8.828125,1.671875,1.0
4780800,36.013385166666666,129.319514,82.39568234100457,109.31373070473565,1.2000000000000002,282.0,0.0,-0.625,1.25,0.15625,0.14453125,0.642578125,-0.181640625,0.890625,-8.1015625,1.3671875,1.0
4780801,,,,,,,,-0.83203125,1.671875,-0.04296875,0.0390625,0.529296875,0.197265625,0.66015625,-7.68359375,1.17578125,1.0
4780802,,,,,,,,-0.86328125,1.7890625,-0.16796875,0.033203125,0.529296875,0.19140625,0.62109375,-7.5625,1.05859375,1.0
4780803,,,,,,,,-0.78515625,2.0625,-0.26171875,-0.017578125,0.505859375,0.193359375,0.66015625,-7.296875,0.98046875,1.0
4780804,,,,,,,,-0.34765625,2.37890625,-0.34375,-0.0390625,0.52734375,0.181640625,1.04296875,-6.98828125,0.90625,1.0
4780805,,,,,,,,-0.0859375,2.34765625,-0.3125,-0.01953125,0.572265625,0.171875,1.2734375,-7.02734375,0.9453125,1.0
4780806,,,,,,,,-0.0390625,2.34765625,-0.28515625,-0.013671875,0.58984375,0.166015625,1.3125,-7.0234375,0.98046875,1.0
4780807,,,,,,,,0.13671875,2.31640625,-0.3203125,0.01953125,0.6171875,0.150390625,1.46484375,-7.06640625,0.9453125,1.0
4780808,,,,,,,,0.390625,2.203125,-0.30078125,0.0390625,0.634765625,0.123046875,1.6953125,-7.1796875,0.98046875,1.0
4780809,,,,,,,,0.4375,2.1640625,-0.30859375,0.0546875,0.640625,0.107421875,1.734375,-7.21875,0.98046875,1.0
4780810,36.013385666666665,129.31951333333333,82.33558285460728,109.36920976504851,1.1,283.0,,0.61328125,1.89453125,-0.5078125,0.14453125,0.642578125,-0.181640625,0.890625,-8.1015625,1.3671875,1.0
4780811,,,,,,,,0.62890625,1.703125,-0.59765625,0.0546875,0.658203125,0.04296875,1.88671875,-7.6796875,0.71484375,1.0
4780812,,,,,,,,0.5234375,1.54296875,-0.65234375,0.048828125,0.662109375,0.0,1.7734375,-7.828125,0.67578125,1.0
4780813,,,,,,,,0.33984375,1.390625,-0.5234375,0.048828125,0.697265625,-0.046875,1.58203125,-7.98828125,0.828125,1.0
4780814,,,,,,,,0.1171875,1.3125,-0.5703125,0.07421875,0.73046875,-0.068359375,1.3515625,-8.06640625,0.7890625,1.0
4780815,,,,,,,,-0.14453125,1.23828125,-0.5546875,0.107421875,0.76171875,-0.08203125,1.08203125,-8.1328125,0.828125,1.0
4780816,,,,,,,,-0.296875,1.07421875,-0.66015625,0.12890625,0.740234375,-0.09375,0.9296875,-8.2890625,0.75390625,1.0
4780817,,,,,,,,-0.18359375,0.875,-0.75390625,0.115234375,0.69921875,-0.095703125,1.04296875,-8.484375,0.67578125,1.0
4780818,,,,,,,,-0.14453125,0.68359375,-0.81640625,0.1171875,0.66015625,-0.087890625,1.08203125,-8.671875,0.63671875,1.0
4780819,,,,,,,,-0.05859375,0.53125,-0.83203125,0.107421875,0.646484375,-0.08203125,1.16015625,-8.83203125,0.63671875,1.0
4780820,36.01338616666667,129.3195125,82.26045862914161,109.42468868623027,1.0,285.0,,-0.08984375,0.37109375,-0.80859375,0.111328125,0.65234375,-0.080078125,1.12109375,-8.9765625,0.67578125,1.0
4780821,,,,,,,,-0.08984375,0.21875,-0.71875,0.099609375,0.6484375,-0.08203125,1.12109375,-9.1328125,0.7890625,1.0
4780822,,,,,,,,-0.16015625,0.32421875,-0.6171875,0.111328125,0.64453125,-0.08203125,1.04296875,-9.01953125,0.90625,1.0
4780823,,,,,,,,-0.2734375,0.32421875,-0.625,0.126953125,0.66015625,-0.083984375,0.9296875,-9.015625,0.90625,1.0
4780824,,,,,,,,-0.390625,0.32421875,-0.6875,0.15234375,0.6640625,-0.08203125,0.8125,-9.01953125,0.8671875,1.0
4780825,,,,,,,,-0.54296875,0.27734375,-0.59765625,0.142578125,0.666015625,-0.080078125,0.66015625,-9.0546875,0.98046875,1.0
4780826,,,,,,,,-0.53515625,0.26953125,-0.57421875,0.13671875,0.65625,-0.080078125,0.66015625,-9.05859375,1.01953125,1.0
4780827,,,,,,,,-0.44921875,0.109375,-0.359375,0.126953125,0.646484375,-0.0703125,0.73828125,-9.2109375,1.25,1.0
4780828,,,,,,,,-0.3359375,-0.00390625,-0.3359375,0.10546875,0.6328125,-0.072265625,0.8515625,-9.3203125,1.2890625,1.0
4780829,,,,,,,,-0.25,-0.1953125,-0.3515625,0.0546875,0.57421875,-0.0703125,0.9296875,-9.515625,1.2890625,1.0
4780830,36.01338666666666,129.3195115,82.17030966247691,109.48016746530013,1.0,285.0,,0.0546875,-0.42578125,-0.4375,0.111328125,0.65234375,-0.080078125,1.234375,-9.7421875,1.2109375,1.0
4780831,,,,,,,,0.21875,-0.43359375,-0.4375,-0.0703125,0.453125,-0.087890625,1.390625,-9.7421875,1.2109375,1.0
4780832,,,,,,,,0.25390625,-0.359375,-0.359375,-0.09375,0.44140625,-0.095703125,1.42578125,-9.671875,1.2890625,1.0
4780833,,,,,,,,0.33203125,-0.16796875,-0.50390625,-0.13671875,0.43359375,-0.1171875,1.50390625,-9.48046875,1.13671875,1.0
4780834,,,,,,,,0.4375,-0.00390625,-0.60546875,-0.2265625,0.4375,-0.111328125,1.6171875,-9.32421875,1.01953125,1.0
4780835,,,,,,,,0.890625,0.109375,-0.57421875,-0.37109375,0.47265625,-0.099609375,2.078125,-9.21484375,1.01953125,1.0
4780836,,,,,,,,1.16796875,-0.83984375,-0.58203125,-0.5078125,0.517578125,-0.09375,2.34765625,-10.1640625,0.98046875,1.0
4780837,,,,,,,,1.12890625,-1.453125,-0.78515625,-0.583984375,0.515625,-0.078125,2.30859375,-10.78515625,0.75390625,1.0
4780838,,,,,,,,1.05078125,-2.7109375,-0.9140625,-0.724609375,0.470703125,-0.078125,2.23046875,-12.05078125,0.5625,1.0
4780839,,,,,,,,0.9765625,-2.625,-0.69921875,-0.763671875,0.455078125,-0.087890625,2.15625,-11.97265625,0.75390625,1.0
4780840,36.013386999999994,129.31951016666665,82.0501113850535,109.5171527588497,1.1,288.0,,0.23828125,-1.62890625,0.78515625,0.111328125,0.65234375,-0.080078125,1.42578125,-10.96875,2.16796875,1.0
4780841,,,,,,,,0.046875,-2.6484375,0.85546875,-0.6328125,0.748046875,-0.1484375,1.234375,-12.0078125,2.16796875,1.0
4780842,,,,,,,,-0.48828125,-4.9765625,0.7109375,-0.662109375,0.755859375,-0.09375,0.69921875,-14.34765625,1.9765625,1.0
4780843,,,,,,,,-0.640625,-5.27734375,1.1953125,-0.703125,0.6875,-0.087890625,0.546875,-14.6484375,2.4375,1.0
4780844,,,,,,,,-1.1015625,-4.1953125,2.1796875,-0.703125,0.583984375,-0.076171875,0.0859375,-13.58203125,3.359375,1.0
4780845,,,,,,,,-1.37109375,-1.4765625,1.91796875,-0.119140625,0.67578125,-0.091796875,-0.18359375,-10.859375,3.05078125,1.0
4780846,,,,,,,,-1.484375,-0.90234375,1.18359375,0.15234375,0.763671875,-0.06640625,-0.296875,-10.28515625,2.32421875,1.0
4780847,,,,,,,,-1.0234375,-1.859375,1.54296875,0.099609375,0.8125,-0.029296875,0.1640625,-11.24609375,2.70703125,1.0
4780848,,,,,,,,-0.13671875,-2.85546875,2.0703125,0.0234375,0.791015625,-0.01953125,1.04296875,-12.23828125,3.2421875,1.0
4780849,,,,,,,,0.71484375,-3.26953125,2.5625,-0.03515625,0.759765625,-0.05859375,1.88671875,-12.66015625,3.7421875,1.0
4780850,36.0133875,129.31950933333334,81.97498716312852,109.5726316825732,1.1,288.0,,1.14453125,-2.84765625,2.46875,0.111328125,0.65234375,-0.080078125,2.30859375,-12.234375,3.6640625,1.0
4780851,,,,,,,,0.4921875,-1.46875,1.9375,0.333984375,1.013671875,-0.158203125,1.65625,-10.86328125,3.1640625,1.0
4780852,,,,,,,,-0.51953125,-0.2109375,1.4765625,0.4296875,1.044921875,-0.279296875,0.66015625,-9.59765625,2.78125,1.0
4780853,,,,,,,,-0.71875,0.125,1.37890625,0.40625,1.03125,-0.294921875,0.46875,-9.25,2.70703125,1.0
4780854,,,,,,,,-1.0703125,0.5859375,0.91015625,0.318359375,0.966796875,-0.314453125,0.125,-8.7890625,2.28515625,1.0
4780855,,,,,,,,-1.1640625,0.42578125,0.6015625,0.19921875,0.90625,-0.294921875,0.046875,-8.9375,2.015625,1.0
4780856,,,,,,,,-1.25390625,0.37890625,0.3125,0.099609375,0.888671875,-0.2734375,-0.02734375,-8.9765625,1.75,1.0
4780857,,,,,,,,-1.2265625,0.609375,0.2890625,0.0703125,0.90234375,-0.25390625,0.0078125,-8.75,1.75,1.0
4780858,,,,,,,,-1.15625,0.76171875,0.2421875,0.07421875,0.916015625,-0.248046875,0.0859375,-8.59375,1.7109375,1.0
4780859,,,,,,,,-0.85546875,1.56640625,-0.1171875,0.095703125,0.9296875,-0.234375,0.39453125,-7.79296875,1.3671875,1.0
4780860,36.013388166666665,129.31950816666668,81.86981328657951,109.64660353474721,1.2000000000000002,292.0,,-0.7578125,2.0546875,-0.40234375,0.087890625,0.892578125,-0.27734375,0.5078125,-7.296875,1.13671875,1.0
4780861,,,,,,,,-0.734375,2.62109375,-0.58203125,0.05078125,0.861328125,-0.33203125,0.546875,-6.71875,0.98046875,1.0
4780862,,,,,,,,-0.94921875,2.62109375,-0.59765625,0.037109375,0.857421875,-0.353515625,0.35546875,-6.71875,0.98046875,1.0
4780863,,,,,,,,-1.08203125,2.5,-0.57421875,0.044921875,0.884765625,-0.365234375,0.23828125,-6.8359375,1.01953125,1.0
4780864,,,,,,,,-1.37109375,1.99609375,-0.43359375,0.06640625,0.892578125,-0.357421875,-0.02734375,-7.33203125,1.17578125,1.0
4780865,,,,,,,,-1.578125,1.79296875,-0.45703125,0.095703125,0.904296875,-0.337890625,-0.21875,-7.52734375,1.17578125,1.0
4780866,,,,,,,,-1.65625,1.80078125,-0.46484375,0.11328125,0.900390625,-0.32421875,-0.296875,-7.5234375,1.17578125,1.0
4780867,,,,,,,,-1.78515625,1.79296875,-0.56640625,0.142578125,0.880859375,-0.2890625,-0.41015625,-7.5234375,1.09765625,1.0
4780868,,,,,,,,-1.83984375,1.51171875,-0.53515625,0.15234375,0.83203125,-0.240234375,-0.44921875,-7.7890625,1.17578125,1.0
4780869,,,,,,,,-1.87890625,1.203125,-0.3671875,0.13671875,0.798828125,-0.208984375,-0.48828125,-8.10546875,1.3671875,1.0
4780870,36.01338883333334,129.31950733333332,81.79468889236333,109.72057566701025,1.1,295.0,,-1.95703125,1.08203125,-0.15625,0.087890625,0.892578125,-0.27734375,-0.56640625,-8.21484375,1.59375,1.0
4780871,,,,,,,,-2.0,1.15234375,-0.33984375,0.177734375,0.689453125,-0.150390625,-0.6015625,-8.13671875,1.44140625,1.0
4780872,,,,,,,,-2.078125,1.1796875,-0.40234375,0.234375,0.634765625,-0.134765625,-0.6796875,-8.1015625,1.40234375,1.0
4780873,,,,,,,,-1.95703125,1.171875,-0.77734375,0.234375,0.57421875,-0.11328125,-0.56640625,-8.1015625,1.05859375,1.0
4780874,,,,,,,,-1.91015625,0.78125,-0.82421875,0.166015625,0.484375,-0.087890625,-0.52734375,-8.484375,1.05859375,1.0
4780875,,,,,,,,-1.82421875,0.4296875,-0.80078125,0.091796875,0.416015625,-0.072265625,-0.44921875,-8.828125,1.09765625,1.0
4780876,,,,,,,,-1.671875,0.31640625,-0.88671875,0.064453125,0.37890625,-0.068359375,-0.296875,-8.94140625,1.01953125,1.0
4780877,,,,,,,,-1.51953125,0.27734375,-0.89453125,0.01953125,0.287109375,-0.056640625,-0.14453125,-8.9765625,1.01953125,1.0
4780878,,,,,,,,-1.3203125,0.19921875,-0.93359375,0.005859375,0.236328125,-0.046875,0.046875,-9.05859375,0.98046875,1.0
4780879,,,,,,,,-1.28125,0.16015625,-0.93359375,0.001953125,0.22265625,-0.044921875,0.0859375,-9.09765625,0.98046875,1.0
4780880,36.0133895,129.3195065,81.71956450004787,109.79454780052689,1.1,300.0,,-1.2421875,-0.0390625,-0.77734375,-0.041015625,0.19921875,-0.046875,0.125,-9.29296875,1.13671875,1.0
4780881,,,,,,,,-1.234375,-0.06640625,-0.77734375,-0.060546875,0.1796875,-0.046875,0.203125,-9.40234375,1.25,1.0
4780882,,,,,,,,-1.1640625,-0.3046875,-0.546875,-0.0625,0.166015625,-0.052734375,0.203125,-9.55859375,1.3671875,1.0
4780883,,,,,,,,-1.00390625,-0.3828125,-0.42578125,-0.060546875,0.15625,-0.064453125,0.35546875,-9.6328125,1.48046875,1.0
4780884,,,,,,,,-0.96484375,-0.265625,-0.34765625,-0.05078125,0.171875,-0.080078125,0.39453125,-9.51953125,1.55859375,1.0
4780885,,,,,,,,-0.96484375,-0.15234375,-0.6171875,-0.060546875,0.203125,-0.08203125,0.39453125,-9.40234375,1.2890625,1.0
4780886,,,,,,,,-0.9296875,-0.11328125,-0.6484375,-0.078125,0.2265625,-0.083984375,0.4296875,-9.359375,1.25,1.0
4780887,,,,,,,,-0.9296875,-0.19140625,-0.79296875,-0.14453125,0.25390625,-0.08984375,0.4296875,-9.4375,1.09765625,1.0
4780888,,,,,,,,-0.73828125,-0.296875,-0.96875,-0.244140625,0.263671875,-0.087890625,0.62109375,-9.55859375,0.90625,1.0
4780889,,,,,,,,-0.26953125,-0.375,-0.9765625,-0.3515625,0.263671875,-0.07421875,1.08203125,-9.6328125,0.8671875,1.0
4780890,36.013390333333334,129.31950550000002,81.62941519810886,109.88701300259314,1.1,308.0,,-0.19140625,-0.328125,-0.9140625,-0.041015625,0.19921875,-0.046875,0.125,-9.29296875,1.13671875,1.0
4780891,,,,,,,,-0.22265625,-0.20703125,-0.57421875,-0.572265625,0.41015625,-0.056640625,1.12109375,-9.4765625,1.17578125,1.0
4780892,,,,,,,,-0.33984375,-0.16015625,-0.4765625,-0.587890625,0.439453125,-0.060546875,1.00390625,-9.4375,1.25,1.0
4780893,,,,,,,,-0.94140625,-1.03125,-0.359375,-0.615234375,0.46875,-0.0625,0.39453125,-10.3203125,1.2890625,1.0
4780894,,,,,,,,-0.58984375,-3.0078125,0.578125,-0.78515625,0.31640625,-0.052734375,0.73828125,-12.31640625,2.1328125,1.0
4780895,,,,,,,,0.671875,-4.1875,1.91796875,-0.88671875,0.189453125,-0.03515625,2.0,-13.5,3.39453125,1.0
4780896,,,,,,,,1.09375,-4.5625,2.11328125,-0.900390625,0.15234375,-0.021484375,2.421875,-13.88671875,3.55078125,1.0
4780897,,,,,,,,2.3671875,-5.125,2.0078125,-0.90625,0.16015625,-0.005859375,3.6875,-14.4609375,3.359375,1.0
4780898,,,,,,,,3.28515625,-3.5,2.23828125,-0.83984375,0.298828125,-0.001953125,4.60546875,-12.8515625,3.51171875,1.0
4780899,,,,,,,,3.44921875,-2.46484375,2.375,-0.708984375,0.431640625,-0.01953125,4.76171875,-11.81640625,3.625,1.0
4780900,36.013391,129.31950450000002,81.53926607062596,109.96098499746361,1.1,315.0,0.0,2.15234375,-0.80859375,2.60546875,-0.041015625,0.19921875,-0.046875,0.125,-9.29296875,1.13671875,1.0
4780901,,,,,,,,0.96484375,-0.9921875,2.60546875,-0.0703125,0.96875,-0.0859375,2.26953125,-10.359375,3.81640625,1.0
4780902,,,,,,,,-0.97265625,-2.2578125,3.140625,-0.044921875,0.7890625,-0.103515625,0.31640625,-11.62890625,4.3515625,1.0
4780903,,,,,,,,-1.48046875,-2.83203125,3.25,0.029296875,0.525390625,-0.099609375,-0.18359375,-12.1953125,4.46875,1.0
4780904,,,,,,,,-1.25,-2.71875,2.46875,0.154296875,0.333984375,-0.0859375,0.046875,-12.08984375,3.703125,1.0
4780905,,,,,,,,-0.4453125,-1.7578125,2.0546875,0.20703125,0.30078125,-0.017578125,0.8515625,-11.12890625,3.3203125,1.0
4780906,,,,,,,,-0.21484375,-0.6875,1.85546875,0.203125,0.353515625,0.015625,1.08203125,-10.05859375,3.12890625,1.0
4780907,,,,,,,,-0.61328125,0.00390625,1.5390625,0.150390625,0.46484375,0.134765625,0.66015625,-9.359375,2.859375,1.0
4780908,,,,,,,,-0.85546875,0.1171875,1.21875,0.0703125,0.451171875,0.201171875,0.39453125,-9.25390625,2.5546875,1.0
4780909,,,,,,,,-0.75,-0.02734375,1.0546875,-0.056640625,0.3671875,0.236328125,0.46875,-9.3984375,2.3984375,1.0
4780910,36.013391666666664,129.31950366666666,81.46414167985435,110.0349571332853,1.1,317.0,,-0.44921875,-0.2890625,1.29296875,-0.1875,0.27734375,0.26171875,0.73828125,-9.67578125,2.62890625,1.0
4780911,,,,,,,,-0.2265625,-0.203125,1.38671875,-0.2421875,0.26953125,0.279296875,0.9296875,-9.59765625,2.70703125,1.0
4780912,,,,,,,,-0.2109375,-0.04296875,1.27734375,-0.2265625,0.28515625,0.27734375,0.9296875,-9.44140625,2.58984375,1.0
4780913,,,,,,,,-0.33203125,0.53125,0.796875,-0.138671875,0.33984375,0.255859375,0.77734375,-8.8671875,2.09375,1.0
4780914,,,,,,,,-0.37890625,0.9609375,0.48828125,-0.078125,0.373046875,0.2265625,0.69921875,-8.4453125,1.78515625,1.0
4780915,,,,,,,,-0.38671875,1.4296875,0.14453125,-0.0625,0.37109375,0.19921875,0.66015625,-7.984375,1.44140625,1.0
4780916,,,,,,,,-0.41796875,1.54296875,0.14453125,-0.064453125,0.365234375,0.189453125,0.62109375,-7.8671875,1.44140625,1.0
4780917,,,,,,,,-0.4609375,2.08984375,0.11328125,-0.064453125,0.419921875,0.169921875,0.546875,-7.328125,1.40234375,1.0
4780918,,,,,,,,-0.5390625,2.59375,-0.0078125,-0.021484375,0.494140625,0.142578125,0.4296875,-6.83984375,1.2890625,1.0
4780919,,,,,,,,-0.53125,2.74609375,-0.12109375,-0.01171875,0.505859375,0.1328125,0.4296875,-6.6796875,1.17578125,1.0
4780920,36.0133925,129.31950283333333,81.38901712121402,110.12742247881579,1.1,320.0,,-0.390625,2.74609375,-0.32421875,-0.1875,0.27734375,0.26171875,0.73828125,-9.67578125,2.62890625,1.0
4780921,,,,,,,,-0.03125,2.70703125,-0.32421875,-0.095703125,0.490234375,0.076171875,0.890625,-6.71875,0.98046875,1.0
4780922,,,,,,,,0.24609375,2.6328125,-0.359375,-0.12109375,0.48046875,0.0625,1.16015625,-6.796875,0.9453125,1.0
4780923,,,,,,,,0.56640625,2.25,-0.30859375,-0.1484375,0.486328125,0.0234375,1.46484375,-7.1796875,0.98046875,1.0
4780924,,,,,,,,0.8125,1.98828125,-0.26953125,-0.12890625,0.537109375,-0.03125,1.6953125,-7.4453125,1.01953125,1.0
4780925,,,,,,,,0.8203125,1.875,-0.3359375,-0.099609375,0.568359375,-0.0703125,1.6953125,-7.56640625,0.9453125,1.0
4780926,,,,,,,,0.8125,1.7578125,-0.328125,-0.083984375,0.578125,-0.091796875,1.6953125,-7.6796875,0.9453125,1.0
4780927,,,,,,,,0.66015625,1.52734375,-0.375,-0.03125,0.611328125,-0.142578125,1.54296875,-7.91015625,0.90625,1.0
4780928,,,,,,,,0.26953125,1.3359375,-0.61328125,0.044921875,0.66015625,-0.1796875,1.16015625,-8.10546875,0.67578125,1.0
4780929,,,,,,,,0.22265625,1.30078125,-0.62109375,0.056640625,0.6796875,-0.185546875,1.12109375,-8.1328125,0.67578125,1.0
4780930,36.01339316666667,129.31950233333333,81.34394221690266,110.20139489342395,1.0,323.0,,-0.0078125,1.16796875,-0.7890625,0.0703125,0.71484375,-0.193359375,0.890625,-8.25390625,0.5234375,1.0
4780931,,,,,,,,-0.21484375,0.9375,-0.8828125,0.0703125,0.720703125,-0.19921875,0.69921875,-8.484375,0.4453125,1.0
4780932,,,,,,,,-0.30078125,0.69921875,-0.8671875,0.087890625,0.7109375,-0.189453125,0.62109375,-8.7109375,0.484375,1.0
4780933,,,,,,,,-0.30078125,0.5859375,-0.875,0.099609375,0.705078125,-0.1953125,0.62109375,-8.828125,0.484375,1.0
4780934,,,,,,,,-0.3515625,0.5078125,-0.8515625,0.107421875,0.6875,-0.19140625,0.5859375,-8.90625,0.5234375,1.0
4780935,,,,,,,,-0.31640625,0.34765625,-0.74609375,0.11328125,0.66796875,-0.18359375,0.62109375,-9.0546875,0.63671875,1.0
4780936,,,,,,,,-0.24609375,0.30078125,-0.69140625,0.111328125,0.6484375,-0.162109375,0.69921875,-9.09375,0.71484375,1.0
4780937,,,,,,,,-0.33203125,0.37890625,-0.59375,0.115234375,0.640625,-0.146484375,0.62109375,-9.01953125,0.828125,1.0
4780938,,,,,,,,-0.29296875,0.30078125,-0.609375,0.115234375,0.640625,-0.1328125,0.66015625,-9.09375,0.828125,1.0
4780939,,,,,,,,-0.33203125,0.140625,-0.5546875,0.1015625,0.62890625,-0.126953125,0.62109375,-9.25,0.90625,1.0
4780940,36.01339433333333,129.31950166666667,81.28384205795653,110.33084679334158,1.1,328.0,,-0.33203125,-0.2109375,-0.37109375,0.0546875,0.580078125,-0.107421875,0.62109375,-9.59765625,1.09765625,1.0
4780941,,,,,,,,-0.3671875,-0.52734375,-0.03515625,0.029296875,0.529296875,-0.099609375,0.5859375,-9.8984375,1.44140625,1.0
4780942,,,,,,,,-0.375,-0.640625,0.07421875,-0.005859375,0.470703125,-0.087890625,0.5859375,-10.01953125,1.55859375,1.0
4780943,,,,,,,,-0.3671875,-0.640625,0.109375,-0.0234375,0.423828125,-0.080078125,0.5859375,-10.01953125,1.59375,1.0
4780944,,,,,,,,-0.25390625,-0.5625,-0.1875,-0.091796875,0.330078125,-0.056640625,0.69921875,-9.94140625,1.2890625,1.0
4780945,,,,,,,,-0.24609375,-0.48828125,-0.2265625,-0.1640625,0.291015625,-0.0390625,0.69921875,-9.859375,1.25,1.0
4780946,,,,,,,,-0.16796875,-0.37109375,-0.36328125,-0.23828125,0.265625,-0.021484375,0.77734375,-9.7421875,1.09765625,1.0
4780947,,,,,,,,0.0234375,-0.296875,-0.41796875,-0.333984375,0.236328125,-0.00390625,0.96875,-9.67578125,1.01953125,1.0
4780948,,,,,,,,0.2890625,-0.25,-0.32421875,-0.380859375,0.240234375,0.009765625,1.234375,-9.6328125,1.09765625,1.0
4780949,,,,,,,,0.57421875,-0.1640625,-0.18359375,-0.5390625,0.30859375,0.03125,1.50390625,-9.55859375,1.17578125,1.0
4780950,36.013394999999996,129.319501,81.22374241621672,110.40481907048343,1.0,330.0,,0.7734375,-0.50390625,-0.0546875,-0.654296875,0.40234375,0.044921875,0.62109375,-9.59765625,1.09765625,1.0
4780951,,,,,,,,0.828125,-1.3359375,-0.22265625,-0.798828125,0.419921875,0.0703125,1.734375,-10.7421875,1.01953125,1.0
4780952,,,,,,,,0.828125,-2.36328125,-0.44921875,-0.8671875,0.373046875,0.08203125,1.734375,-11.7734375,0.75390625,1.0
4780953,,,,,,,,0.99609375,-2.81640625,-0.36328125,-0.9375,0.279296875,0.076171875,1.88671875,-12.23828125,0.75390625,1.0
4780954,,,,,,,,1.109375,-2.1171875,0.09765625,-0.9296875,0.29296875,0.04296875,2.0,-11.55078125,1.17578125,1.0
4780955,,,,,,,,0.54296875,-1.99609375,0.984375,-0.8671875,0.548828125,-0.013671875,1.42578125,-11.43359375,1.9765625,1.0
4780956,,,,,,,,0.20703125,-3.2890625,0.63671875,-0.853515625,0.810546875,0.005859375,1.08203125,-12.734375,1.55859375,1.0
4780957,,,,,,,,-0.359375,-4.5078125,0.71484375,-0.9609375,0.75390625,0.056640625,0.5078125,-13.9609375,1.55859375,1.0
4780958,,,,,,,,-0.94921875,-1.87890625,2.68359375,-0.408203125,1.048828125,-0.0078125,-0.10546875,-11.35546875,3.39453125,1.0
4780959,,,,,,,,-1.0546875,-1.2265625,2.234375,-0.236328125,1.115234375,-0.00390625,-0.21875,-10.70703125,2.9375,1.0
4780960,36.01339599999999,129.31950016666667,81.14861769262737,110.51577762470573,1.1,333.0,,-0.65625,-1.3828125,1.62890625,-0.095703125,1.111328125,0.00390625,0.1640625,-10.859375,2.32421875,1.0
4780961,,,,,,,,0.53125,-2.1484375,2.0859375,-0.1796875,1.06640625,-0.044921875,1.3515625,-11.625,2.78125,1.0
4780962,,,,,,,,0.76953125,-2.26171875,2.2109375,-0.189453125,1.05859375,-0.0703125,1.58203125,-11.73828125,2.8984375,1.0
4780963,,,,,,,,1.11328125,-2.40625,2.171875,-0.04296875,1.087890625,-0.138671875,2.0,-11.8515625,2.74609375,1.0
4780964,,,,,,,,1.2578125,-2.21484375,1.8671875,0.091796875,1.15625,-0.1953125,1.92578125,-11.16796875,2.32421875,1.0
4780965,,,,,,,,0.9375,-1.41015625,1.49609375,0.201171875,1.291015625,-0.283203125,1.3515625,-10.24609375,2.1328125,1.0
4780966,,,,,,,,0.515625,-0.76953125,1.40625,0.228515625,1.359375,-0.3203125,0.77734375,-9.7421875,2.0546875,1.0
4780967,,,,,,,,-0.3046875,-0.1484375,1.2578125,0.2421875,1.5,-0.373046875,0.31640625,-9.5546875,1.9765625,1.0
4780968,,,,,,,,-0.875,-0.078125,1.08984375,0.19921875,1.509765625,-0.37109375,-0.14453125,-9.55859375,1.86328125,1.0
4780969,,,,,,,,-1.05078125,-0.078125,1.02734375,0.16796875,1.490234375,-0.373046875,-0.14453125,-9.51953125,1.75,1.0
4780970,36.013397000000005,129.3194993333333,81.07349297067796,110.62673618134622,1.2000000000000002,331.0,,-0.65625,-1.3828125,1.62890625,-0.095703125,1.111328125,0.00390625,-0.18359375,-9.3203125,1.6328125,1.0
4780971,,,,,,,,-1.08984375,0.265625,0.7109375,0.103515625,1.404296875,-0.376953125,-0.14453125,-9.05859375,1.55859375,1.0
4780972,,,,,,,,-1.02734375,0.79296875,0.48828125,0.1015625,1.365234375,-0.375,-0.06640625,-8.48828125,1.3671875,1.0
4780973,,,,,,,,-1.01171875,1.4375,0.2734375,0.099609375,1.333984375,-0.376953125,-0.02734375,-8.0234375,1.2109375,1.0
4780974,,,,,,,,-1.08984375,1.93359375,0.01171875,0.09375,1.24609375,-0.390625,-0.06640625,-7.52734375,0.98046875,1.0
4780975,,,,,,,,-1.19140625,2.234375,-0.24609375,0.078125,1.173828125,-0.400390625,-0.14453125,-7.22265625,0.75390625,1.0
4780976,,,,,,,,-1.2890625,2.39453125,-0.453125,0.05078125,1.115234375,-0.404296875,-0.21875,-7.06640625,0.5625,1.0
4780977,,,,,,,,-1.359375,2.2734375,-0.4765625,0.044921875,1.064453125,-0.41015625,-0.2578125,-7.1796875,0.5625,1.0
4780978,,,,,,,,-1.40625,2.265625,-0.515625,0.041015625,1.0625,-0.40234375,-0.296875,-7.1796875,0.5234375,1.0
4780979,,,,,,,,-1.5078125,2.1484375,-0.46484375,0.041015625,1.05078125,-0.3984375,-0.375,-7.296875,0.59765625,1.0
4780980,36.013397833333336,129.31949833333334,80.98334368519701,110.71920139113931,1.2000000000000002,331.0,,-1.65234375,2.02734375,-0.5234375,0.072265625,1.05078125,-0.35546875,-0.48828125,-7.40625,0.5625,1.0
4780981,,,,,,,,-1.9453125,1.8671875,-0.5859375,0.099609375,1.0234375,-0.341796875,-0.7578125,-7.5625,0.5234375,1.0
4780982,,,,,,,,-2.03515625,1.8203125,-0.6484375,0.107421875,0.986328125,-0.294921875,-0.83203125,-7.6015625,0.484375,1.0
4780983,,,,,,,,-2.28125,1.62890625,-0.6484375,0.14453125,0.927734375,-0.228515625,-1.0625,-7.79296875,0.5234375,1.0
4780984,,,,,,,,-2.2890625,1.46875,-0.6640625,0.1484375,0.853515625,-0.197265625,-1.0625,-7.9453125,0.5234375,1.0
4780985,,,,,,,,-2.2890625,1.26953125,-0.53515625,0.15625,0.77734375,-0.171875,-1.0625,-8.1328125,0.67578125,1.0
4780986,,,,,,,,-2.2578125,1.23046875,-0.51171875,0.154296875,0.734375,-0.162109375,-1.0234375,-8.17578125,0.71484375,1.0
4780987,,,,,,,,-2.18359375,1.23046875,-0.421875,0.166015625,0.640625,-0.140625,-0.94921875,-8.171875,0.828125,1.0
4780988,,,,,,,,-1.9921875,1.10546875,-0.4609375,0.193359375,0.490234375,-0.107421875,-0.7578125,-8.2890625,0.828125,1.0
4780989,,,,,,,,-1.921875,0.984375,-0.5234375,0.22265625,0.431640625,-0.1015625,-0.6796875,-8.41015625,0.7890625,1.0
4780990,36.01339883333333,129.31949783333332,80.9382684415491,110.83016022401111,1.1,337.0,,-1.609375,0.74609375,-0.5390625,0.24609375,0.341796875,-0.060546875,-0.375,-8.6328125,0.828125,1.0
4780991,,,,,,,,-1.37890625,0.5859375,-0.609375,0.23828125,0.3125,-0.0546875,-0.14453125,-8.7890625,0.7890625,1.0
4780992,,,,,,,,-1.25390625,0.578125,-0.5234375,0.177734375,0.259765625,-0.060546875,-0.02734375,-8.7890625,0.90625,1.0
4780993,,,,,,,,-1.2109375,0.5390625,-0.5703125,0.146484375,0.248046875,-0.0625,0.0078125,-8.828125,0.8671875,1.0
4780994,,,,,,,,-1.29296875,0.37890625,-0.47265625,0.099609375,0.228515625,-0.076171875,-0.06640625,-8.9765625,0.98046875,1.0
4780995,,,,,,,,-1.2265625,0.140625,-0.44921875,0.0546875,0.216796875,-0.078125,0.0078125,-9.2109375,1.01953125,1.0
4780996,,,,,,,,-1.21875,0.21875,-0.5234375,-0.01171875,0.208984375,-0.083984375,0.0078125,-9.13671875,0.9453125,1.0
4780997,,,,,,,,-0.87890625,0.1796875,-0.6015625,-0.078125,0.212890625,-0.09375,0.35546875,-9.171875,0.8671875,1.0
4780998,,,,,,,,-0.796875,0.140625,-0.6015625,-0.1171875,0.21484375,-0.091796875,0.4296875,-9.21484375,0.8671875,1.0
4780999,,,,,,,,-0.56640625,-0.05078125,-0.6171875,-0.234375,0.234375,-0.1015625,0.66015625,-9.40234375,0.828125,1.0
4781000,36.01339983333333,129.31949783333332,80.9382674193642,110.94111947295644,1.0,347.0,0.0,-0.34375,-0.43359375,-0.74609375,-0.361328125,0.259765625,-0.115234375,0.890625,-9.78125,0.67578125,1.0
4781001,,,,,,,,-0.265625,-0.65625,-0.828125,-0.455078125,0.279296875,-0.130859375,0.96875,-10.015625,0.5625,1.0
4781002,,,,,,,,-0.16015625,-0.6171875,-0.78125,-0.517578125,0.3203125,-0.142578125,1.08203125,-9.98046875,0.5625,1.0
4781003,,,,,,,,-0.12109375,-0.53515625,-0.69921875,-0.564453125,0.37109375,-0.150390625,1.12109375,-9.8984375,0.59765625,1.0
4781004,,,,,,,,-0.24609375,-0.1875,-0.61328125,-0.599609375,0.423828125,-0.154296875,1.00390625,-9.5546875,0.63671875,1.0
4781005,,,,,,,,-0.48046875,0.01171875,-0.3671875,-0.62890625,0.47265625,-0.16015625,0.77734375,-9.36328125,0.828125,1.0
4781006,,,,,,,,-0.94140625,-0.75390625,-0.08203125,-0.6640625,0.5,-0.15234375,0.31640625,-10.125,1.05859375,1.0
4781007,,,,,,,,-0.8359375,-3.3515625,0.40234375,-0.748046875,0.48828125,-0.10546875,0.4296875,-12.734375,1.48046875,1.0
4781008,,,,,,,,-0.48828125,-3.6875,0.96875,-0.822265625,0.439453125,-0.087890625,0.77734375,-13.08203125,2.015625,1.0
4781009,,,,,,,,0.390625,-3.6796875,2.3515625,-0.87890625,0.27734375,-0.076171875,1.65625,-13.078125,3.28125,1.0
4781010,36.013401,129.31949783333332,80.93826622652804,111.07057193059946,1.2000000000000002,357.0,,1.6484375,-4.2109375,2.61328125,-0.791015625,0.279296875,-0.08203125,0.890625,-9.78125,0.67578125,1.0
4781011,,,,,,,,2.69140625,-4.69921875,2.375,-0.751953125,0.419921875,-0.08203125,3.95703125,-14.11328125,3.1640625,1.0
4781012,,,,,,,,2.94921875,-3.50390625,3.08203125,-0.62109375,0.572265625,-0.107421875,4.22265625,-12.921875,3.81640625,1.0
4781013,,,,,,,,2.0234375,-2.35546875,3.23828125,-0.25,0.767578125,-0.154296875,3.3046875,-11.77734375,3.93359375,1.0
4781014,,,,,,,,0.453125,-2.35546875,3.0,0.009765625,0.826171875,-0.1796875,1.734375,-11.7734375,3.703125,1.0
4781015,,,,,,,,-0.94140625,-2.82421875,3.44140625,0.162109375,0.759765625,-0.189453125,0.35546875,-12.234375,4.16015625,1.0
4781016,,,,,,,,-1.171875,-2.9296875,3.54296875,0.2265625,0.712890625,-0.185546875,0.125,-12.3515625,4.27734375,1.0
4781017,,,,,,,,-1.33203125,-2.81640625,3.42578125,0.33203125,0.58203125,-0.1484375,-0.02734375,-12.234375,4.19921875,1.0
4781018,,,,,,,,-0.8046875,-2.2109375,2.73828125,0.400390625,0.490234375,-0.08984375,0.5078125,-11.625,3.55078125,1.0
4781019,,,,,,,,-0.4609375,-1.2890625,2.5,0.4140625,0.505859375,-0.033203125,0.8515625,-10.703125,3.359375,1.0
4781020,36.013402,129.31949799999998,80.95328994416633,111.18153131744529,1.1,0.0,,-0.453125,-0.79296875,2.3359375,-0.791015625,0.279296875,-0.08203125,0.890625,-9.78125,0.67578125,1.0
4781021,,,,,,,,-0.703125,-0.37109375,1.72265625,0.3125,0.560546875,0.1015625,0.5859375,-9.78515625,2.66796875,1.0
4781022,,,,,,,,-0.8125,-0.2578125,1.546875,0.271484375,0.541015625,0.12890625,0.46875,-9.671875,2.515625,1.0
4781023,,,,,,,,-0.7890625,-0.21875,1.16796875,0.1796875,0.4765625,0.1484375,0.46875,-9.6328125,2.16796875,1.0
4781024,,,,,,,,-0.62109375,-0.171875,1.1171875,0.09765625,0.380859375,0.158203125,0.62109375,-9.59375,2.1328125,1.0
4781025,,,,,,,,-0.46484375,0.05859375,1.0625,0.0078125,0.322265625,0.154296875,0.73828125,-9.36328125,2.09375,1.0
4781026,,,,,,,,-0.41796875,0.37109375,1.015625,0.017578125,0.333984375,0.1484375,0.77734375,-9.0546875,2.0546875,1.0
4781027,,,,,,,,-0.50390625,1.0234375,0.84765625,0.0703125,0.41796875,0.140625,0.66015625,-8.40625,1.90234375,1.0
4781028,,,,,,,,-0.52734375,1.60546875,0.41015625,0.09375,0.462890625,0.150390625,0.62109375,-7.828125,1.48046875,1.0
4781029,,,,,,,,-0.49609375,1.91015625,0.203125,0.083984375,0.494140625,0.15234375,0.62109375,-7.52734375,1.2890625,1.0
4781030,36.01340266666667,129.31949766666668,80.92323978721926,111.25550387472501,1.0,357.0,,-0.37890625,2.37890625,0.09375,0.03125,0.546875,0.142578125,0.69921875,-7.06640625,1.2109375,1.0
4781031,,,,,,,,-0.1640625,2.49609375,0.0859375,0.025390625,0.57421875,0.12109375,0.890625,-6.94921875,1.2109375,1.0
4781032,,,,,,,,-0.1171875,2.49609375,0.1171875,0.044921875,0.591796875,0.11328125,0.9296875,-6.94921875,1.25,1.0
4781033,,,,,,,,0.01953125,2.6875,-0.01171875,0.068359375,0.62109375,0.08203125,1.04296875,-6.76171875,1.13671875,1.0
4781034,,,,,,,,0.15234375,2.87890625,0.00390625,0.083984375,0.64453125,0.033203125,1.16015625,-6.5625,1.17578125,1.0
4781035,,,,,,,,0.3203125,2.76171875,-0.21484375,0.111328125,0.65625,-0.013671875,1.3125,-6.6796875,0.98046875,1.0
4781036,,,,,,,,0.328125,2.609375,-0.40625,0.107421875,0.646484375,-0.033203125,1.3125,-6.8359375,0.7890625,1.0
4781037,,,,,,,,0.51953125,2.33984375,-0.6875,0.08203125,0.66015625,-0.05859375,1.50390625,-7.1015625,0.5234375,1.0
4781038,,,,,,,,0.60546875,2.3046875,-0.58984375,0.01171875,0.693359375,-0.09765625,1.58203125,-7.140625,0.63671875,1.0
4781039,,,,,,,,0.52734375,2.10546875,-0.55859375,-0.005859375,0.716796875,-0.1171875,1.50390625,-7.33203125,0.67578125,1.0
4781040,36.013403499999995,129.31949783333332,80.9382636708598,111.34797005311478,0.9,1.0,,0.44921875,1.84375,-0.375,0.03125,0.546875,0.142578125,1.42578125,-7.60546875,0.8671875,1.0
4781041,,,,,,,,0.328125,1.71875,-0.3046875,-0.001953125,0.841796875,-0.162109375,1.3125,-7.72265625,0.9453125,1.0
4781042,,,,,,,,0.09765625,1.55859375,-0.27734375,0.02734375,0.880859375,-0.1875,1.08203125,-7.8671875,0.98046875,1.0
4781043,,,,,,,,0.01171875,1.59765625,-0.25390625,0.046875,0.8828125,-0.193359375,1.00390625,-7.83203125,1.01953125,1.0
4781044,,,,,,,,-0.109375,1.3984375,-0.30859375,0.05859375,0.869140625,-0.19140625,0.890625,-8.0234375,0.98046875,1.0
4781045,,,,,,,,-0.1484375,1.28515625,-0.3984375,0.048828125,0.841796875,-0.18359375,0.8125,-8.2109375,0.8671875,1.0
4781046,,,,,,,,-0.22265625,1.09375,-0.4453125,0.052734375,0.833984375,-0.185546875,0.77734375,-8.328125,0.8671875,1.0
4781047,,,,,,,,-0.4609375,0.90234375,-0.56640625,0.046875,0.82421875,-0.177734375,0.546875,-8.51953125,0.75390625,1.0
4781048,,,,,,,,-0.578125,0.80859375,-0.4765625,0.015625,0.783203125,-0.162109375,0.4296875,-8.59765625,0.8671875,1.0
4781049,,,,,,,,-0.9296875,0.921875,-0.37109375,0.0078125,0.767578125,-0.140625,0.0859375,-8.48828125,0.98046875,1.0
4781050,36.013404666666666,129.31949783333332,80.9382624781574,111.47742251086515,1.1,4.0,,-1.19140625,0.80859375,-0.33984375,0.013671875,0.7265625,-0.10546875,1.42578125,-7.60546875,0.8671875,1.0
4781051,,,,,,,,-1.2734375,0.578125,-0.34765625,-0.013671875,0.654296875,-0.0703125,-0.2578125,-8.828125,1.01953125,1.0
4781052,,,,,,,,-1.18359375,0.265625,-0.35546875,-0.037109375,0.611328125,-0.052734375,-0.18359375,-9.1328125,1.01953125,1.0
4781053,,,,,,,,-0.875,-0.234375,-0.26953125,-0.095703125,0.470703125,-0.017578125,0.125,-9.63671875,1.09765625,1.0
4781054,,,,,,,,-0.4453125,-0.76953125,-0.15625,-0.123046875,0.404296875,0.005859375,0.546875,-10.1640625,1.2109375,1.0
4781055,,,,,,,,-0.125,-1.03125,0.0078125,-0.166015625,0.37109375,-0.001953125,0.8515625,-10.4375,1.3671875,1.0
4781056,,,,,,,,0.10546875,-1.22265625,0.08984375,-0.1796875,0.3515625,-0.00390625,1.08203125,-10.625,1.44140625,1.0
4781057,,,,,,,,0.3046875,-1.34375,0.296875,-0.205078125,0.322265625,-0.013671875,1.2734375,-10.7421875,1.6328125,1.0
4781058,,,,,,,,0.84765625,-0.88671875,0.3203125,-0.189453125,0.228515625,-0.03515625,1.80859375,-10.28125,1.6328125,1.0
4781059,,,,,,,,0.96484375,-0.49609375,0.0703125,-0.177734375,0.177734375,-0.048828125,1.92578125,-9.8984375,1.3671875,1.0
4781060,36.01340566666667,129.31949799999998,80.95328619507856,111.58838189855923,1.1,6.0,,0.95703125,-0.03515625,-0.30078125,0.013671875,0.7265625,-0.10546875,1.92578125,-9.4375,0.98046875,1.0
4781061,,,,,,,,0.765625,0.38671875,-0.50390625,-0.287109375,0.216796875,-0.048828125,1.734375,-9.01953125,0.75390625,1.0
4781062,,,,,,,,0.8125,0.28125,-0.55859375,-0.396484375,0.26171875,-0.029296875,1.7734375,-9.13671875,0.67578125,1.0
4781063,,,,,,,,0.84765625,0.1640625,-0.49609375,-0.45703125,0.275390625,-0.017578125,1.80859375,-9.25,0.71484375,1.0
4781064,,,,,,,,0.96484375,-0.90625,-0.6484375,-0.578125,0.3125,0.00390625,1.92578125,-10.32421875,0.5234375,1.0
4781065,,,,,,,,0.97265625,-2.35546875,-1.046875,-0.701171875,0.33984375,0.00390625,1.92578125,-11.7734375,0.0625,1.0
4781066,,,,,,,,0.93359375,-2.30859375,-0.64453125,-0.8125,0.39453125,-0.009765625,1.88671875,-11.73828125,0.37109375,1.0
4781067,,,,,,,,0.55859375,-0.9609375,0.6484375,-0.8125,0.591796875,-0.044921875,1.50390625,-10.40234375,1.59375,1.0
4781068,,,,,,,,0.10546875,-1.375,1.140625,-0.783203125,0.720703125,-0.05859375,1.04296875,-10.82421875,2.0546875,1.0
4781069,,,,,,,,-0.66015625,-3.78125,0.75390625,-0.85546875,0.77734375,0.02734375,0.27734375,-13.234375,1.55859375,1.0
4781070,36.01340666666667,129.3194985,80.9983593859748,111.69934156368848,1.0,10.0,,-1.10546875,-4.5,1.7109375,-0.90625,0.6171875,0.029296875,-0.18359375,-13.9609375,2.4375,1.0
4781071,,,,,,,,-1.36328125,-3.0,2.89453125,-0.439453125,0.7890625,0.0390625,-0.6015625,-11.734375,3.81640625,1.0
4781072,,,,,,,,-1.515625,-2.26953125,3.18359375,-0.212890625,0.841796875,0.048828125,-0.83203125,-10.859375,3.55078125,1.0
4781073,,,,,,,,-1.76953125,-1.234375,2.546875,0.048828125,0.76171875,0.130859375,-0.52734375,-11.12890625,2.58984375,1.0
4781074,,,,,,,,-0.671875,-2.40625,2.10546875,-0.013671875,0.6796875,0.1328125,0.62109375,-12.16015625,2.859375,1.0
4781075,,,,,,,,0.3828125,-2.828125,2.5546875,0.001953125,0.671875,0.07421875,1.46484375,-12.43359375,3.2421875,1.0
4781076,,,,,,,,0.8125,-2.984375,2.59375,0.0703125,0.71484375,0.0390625,1.65625,-12.47265625,3.2421875,1.0
4781077,,,,,,,,0.859375,-2.33203125,2.5234375,0.23046875,0.798828125,-0.0078125,1.6953125,-11.8125,3.203125,1.0
4781078,,,,,,,,0.40625,-1.375,2.33984375,0.380859375,0.875,-0.103515625,1.234375,-10.86328125,3.05078125,1.0
4781079,,,,,,,,-0.09765625,-0.41796875,2.125,0.4453125,0.9140625,-0.15234375,0.73828125,-9.8984375,2.859375,1.0
4781080,36.013407666666666,129.3194985,80.99835836278108,111.81030081226486,1.1,9.0,,-0.6796875,0.37890625,1.57421875,-0.90625,0.6171875,0.029296875,0.1640625,-9.09375,2.36328125,1.0
4781081,,,,,,,,-1.15625,0.53515625,1.2578125,0.40234375,0.908203125,-0.2265625,-0.296875,-8.94140625,2.1328125,1.0
4781082,,,,,,,,-1.203125,0.41796875,1.15625,0.326171875,0.87890625,-0.234375,-0.3359375,-9.0546875,2.0546875,1.0
4781083,,,,,,,,-1.25,0.15234375,1.1171875,0.2109375,0.833984375,-0.234375,-0.375,-9.32421875,2.0546875,1.0
4781084,,,,,,,,-1.21875,0.14453125,1.0625,0.17578125,0.8203125,-0.2265625,-0.3359375,-9.32421875,2.015625,1.0
4781085,,,,,,,,-1.1171875,0.52734375,0.95703125,0.173828125,0.802734375,-0.208984375,-0.21875,-8.94140625,1.94140625,1.0
4781086,,,,,,,,-0.8671875,1.8203125,0.13671875,0.19921875,0.771484375,-0.197265625,0.046875,-7.640625,1.17578125,1.0
4781087,,,,,,,,-0.8359375,2.01171875,0.00390625,0.177734375,0.75,-0.2109375,0.0859375,-7.4453125,1.05859375,1.0
4781088,,,,,,,,-0.69921875,2.2421875,-0.140625,0.125,0.705078125,-0.234375,0.23828125,-7.22265625,0.9453125,1.0
4781089,,,,,,,,-0.66796875,2.3203125,-0.1875,0.09375,0.6796875,-0.234375,0.27734375,-7.14453125,0.90625,1.0
4781090,36.0134085,129.3194985,80.99835751027288,111.90276685276659,1.0,7.0,,-0.796875,2.42578125,-0.28125,-0.90625,0.6171875,0.029296875,0.1640625,-9.09375,2.36328125,1.0
4781091,,,,,,,,-1.00390625,2.2734375,-0.41015625,0.06640625,0.630859375,-0.2734375,-0.02734375,-7.1796875,0.71484375,1.0
4781092,,,,,,,,-1.2578125,2.08203125,-0.46484375,0.0859375,0.640625,-0.271484375,-0.2578125,-7.37109375,0.67578125,1.0
4781093,,,,,,,,-1.34375,1.99609375,-0.51171875,0.095703125,0.650390625,-0.26171875,-0.3359375,-7.44921875,0.63671875,1.0
4781094,,,,,,,,-1.6640625,1.84375,-0.58203125,0.123046875,0.6484375,-0.22265625,-0.640625,-7.6015625,0.59765625,1.0
4781095,,,,,,,,-1.75,1.7265625,-0.48828125,0.13671875,0.63671875,-0.1875,-0.71875,-7.72265625,0.71484375,1.0
4781096,,,,,,,,-1.83203125,1.4453125,-0.47265625,0.138671875,0.59765625,-0.1640625,-0.79296875,-7.984375,0.75390625,1.0
4781097,,,,,,,,-1.7578125,1.0234375,-0.26953125,0.1328125,0.5390625,-0.107421875,-0.71875,-8.41015625,0.98046875,1.0
4781098,,,,,,,,-1.765625,0.9765625,-0.16015625,0.134765625,0.501953125,-0.09375,-0.71875,-8.4453125,1.09765625,1.0
4781099,,,,,,,,-1.6875,1.015625,-0.0703125,0.142578125,0.431640625,-0.076171875,-0.640625,-8.41015625,1.2109375,1.0
