time,latitude,longitude,enu_x,enu_y,speed,course,ecg,accX,accY,accZ,gyrX,gyrY,gyrZ,eulR,eulP,eulY,validity
4714660,36.013425833333336,129.31957533333335,87.9247420464381,113.82612710341517,1.2000000000000002,34.0,,1.046875,-0.02734375,0.234375,0.232421875,-1.025390625,0.4296875,2.078125,-9.3984375,1.6328125,1.0
4714661,,,,,,,,1.0703125,0.44140625,0.02734375,0.2734375,-0.978515625,0.412109375,2.078125,-8.9375,1.44140625,1.0
4714662,,,,,,,,1.1015625,1.55078125,-0.45703125,0.30078125,-0.943359375,0.404296875,2.078125,-7.83203125,0.98046875,1.0
4714663,,,,,,,,1.1171875,1.75,-0.5546875,0.294921875,-0.9140625,0.388671875,2.078125,-7.640625,0.90625,1.0
4714664,,,,,,,,1.33203125,2.39453125,-0.76171875,0.265625,-0.8828125,0.37890625,2.26953125,-6.98828125,0.71484375,1.0
4714665,,,,,,,,1.46484375,2.77734375,-0.77734375,0.23046875,-0.865234375,0.3515625,2.38671875,-6.60546875,0.71484375,1.0
4714666,,,,,,,,1.53125,2.69921875,-0.9453125,0.19140625,-0.845703125,0.326171875,2.421875,-6.6796875,0.5625,1.0
4714667,,,,,,,,1.5859375,2.5078125,-0.9921875,0.158203125,-0.828125,0.318359375,2.4609375,-6.87890625,0.5234375,1.0
4714668,,,,,,,,1.5859375,2.4765625,-1.078125,0.1484375,-0.810546875,0.306640625,2.4609375,-6.9140625,0.4453125,1.0
4714669,,,,,,,,1.5703125,2.4765625,-1.3515625,0.15234375,-0.767578125,0.279296875,2.421875,-6.9140625,0.1796875,1.0
4714670,36.013427,129.31957599999998,87.98483968111114,113.95558016271058,1.1,29.0,,1.6171875,2.36328125,-1.515625,0.150390625,-0.7109375,0.251953125,2.4609375,-7.0234375,0.0234375,1.0
4714671,,,,,,,,1.671875,2.1328125,-1.484375,0.12890625,-0.640625,0.228515625,2.5,-7.2578125,0.0625,1.0
4714672,,,,,,,,1.671875,1.97265625,-1.484375,0.115234375,-0.59765625,0.21484375,2.5,-7.41015625,0.0625,1.0
4714673,,,,,,,,1.6796875,1.6640625,-1.4140625,0.11328125,-0.509765625,0.19140625,2.5,-7.72265625,0.140625,1.0
4714674,,,,,,,,1.6796875,1.55078125,-1.26171875,0.13671875,-0.412109375,0.1640625,2.5,-7.83203125,0.29296875,1.0
4714675,,,,,,,,1.58203125,1.3515625,-0.94921875,0.236328125,-0.220703125,0.12890625,2.38671875,-8.02734375,0.63671875,1.0
4714676,,,,,,,,1.51171875,1.46484375,-0.83984375,0.265625,-0.18359375,0.12109375,2.30859375,-7.91015625,0.75390625,1.0
4714677,,,,,,,,1.55859375,1.49609375,-0.88671875,0.34765625,-0.12890625,0.109375,2.34765625,-7.8671875,0.75390625,1.0
4714678,,,,,,,,1.60546875,1.45703125,-1.01953125,0.359375,-0.123046875,0.10546875,2.38671875,-7.90625,0.63671875,1.0
4714679,,,,,,,,1.71875,1.22265625,-1.1953125,0.369140625,-0.12109375,0.099609375,2.5,-8.13671875,0.484375,1.0
4714680,36.01342816666667,129.31957666666668,88.04493732099576,114.08503322407424,1.2000000000000002,24.0,,1.75,0.9921875,-1.37109375,0.150390625,-0.7109375,0.251953125,2.5390625,-8.3671875,0.33203125,1.0
4714681,,,,,,,,1.8046875,0.75390625,-1.328125,0.34765625,-0.06640625,0.099609375,2.578125,-8.59765625,0.40625,1.0
4714682,,,,,,,,1.6875,0.4375,-1.2421875,0.322265625,0.021484375,0.1015625,2.4609375,-8.91015625,0.5234375,1.0
4714683,,,,,,,,1.62890625,0.23828125,-1.19140625,0.29296875,0.10546875,0.1015625,2.38671875,-9.09765625,0.59765625,1.0
4714684,,,,,,,,1.48046875,0.1171875,-1.05859375,0.265625,0.18359375,0.109375,2.23046875,-9.21484375,0.75390625,1.0
4714685,,,,,,,,1.18359375,-0.16015625,-0.75390625,0.18359375,0.240234375,0.111328125,1.92578125,-9.4765625,1.09765625,1.0
4714686,,,,,,,,1.08203125,-0.58203125,-0.6171875,0.1015625,0.220703125,0.12109375,1.80859375,-9.8984375,1.25,1.0
4714687,,,,,,,,1.015625,-0.85546875,-0.45703125,0.017578125,0.177734375,0.130859375,1.734375,-10.1640625,1.40234375,1.0
4714688,,,,,,,,1.27734375,-1.1171875,-0.37890625,-0.03515625,0.12890625,0.134765625,1.96484375,-10.44140625,1.48046875,1.0
4714689,,,,,,,,1.27734375,-1.30859375,-0.41796875,-0.072265625,0.12109375,0.13671875,1.96484375,-10.625,1.44140625,1.0
4714690,36.01342916666667,129.319577,88.07498567444061,114.19599277383324,1.1,19.0,,1.0625,-1.30078125,-0.43359375,-0.134765625,0.11328125,0.130859375,1.734375,-10.625,1.40234375,1.0
4714691,,,,,,,,0.76953125,-1.15625,-0.30859375,-0.17578125,0.107421875,0.1171875,1.42578125,-10.48046875,1.51953125,1.0
4714692,,,,,,,,0.5859375,-1.453125,0.1640625,-0.20703125,0.109375,0.1015625,1.234375,-10.78125,1.9765625,1.0
4714693,,,,,,,,0.51171875,-2.328125,0.49609375,-0.236328125,0.091796875,0.107421875,1.16015625,-11.66796875,2.28515625,1.0
4714694,,,,,,,,0.328125,-3.62890625,0.59765625,-0.39453125,-0.00390625,0.09375,0.96875,-12.9609375,2.36328125,1.0
4714695,,,,,,,,-0.39453125,-5.34375,1.625,-0.611328125,-0.1328125,0.044921875,0.23828125,-14.6875,3.3203125,1.0
4714696,,,,,,,,-1.51171875,-5.7890625,2.7578125,-0.564453125,-0.177734375,0.03515625,-0.87109375,-15.15234375,4.390625,1.0
4714697,,,,,,,,-2.4296875,-5.015625,3.11328125,-0.345703125,-0.2890625,0.025390625,-1.7890625,-14.38671875,4.69921875,1.0
4714698,,,,,,,,-3.20703125,-3.13671875,2.859375,-0.189453125,-0.375,0.015625,-2.55859375,-12.50390625,4.4296875,1.0
4714699,,,,,,,,-2.63671875,0.01171875,2.09375,0.150390625,-0.552734375,0.01953125,-1.98046875,-9.359375,3.6640625,1.0
4714700,36.01343033333333,129.3195773333333,88.10503384013433,114.32544553255653,1.1,14.0,0.0,-1.95703125,1.15234375,1.6484375,-0.134765625,0.11328125,0.130859375,1.734375,-10.625,1.40234375,1.0
4714701,,,,,,,,-0.69921875,1.421875,1.51171875,0.36328125,-0.69140625,0.029296875,-0.02734375,-7.9453125,3.12890625,1.0
4714702,,,,,,,,0.125,1.19140625,1.6015625,0.130859375,-0.708984375,0.01171875,0.8125,-8.171875,3.2421875,1.0
4714703,,,,,,,,0.76953125,0.76953125,1.83203125,0.015625,-0.681640625,-0.01953125,1.46484375,-8.59375,3.47265625,1.0
4714704,,,,,,,,1.17578125,0.38671875,1.83984375,-0.126953125,-0.58203125,-0.078125,1.88671875,-8.9765625,3.47265625,1.0
4714705,,,,,,,,0.96875,0.1953125,1.5859375,-0.142578125,-0.49609375,-0.126953125,1.6953125,-9.171875,3.203125,1.0
4714706,,,,,,,,0.32421875,-0.10546875,0.9609375,-0.123046875,-0.490234375,-0.1640625,1.08203125,-9.48046875,2.5546875,1.0
4714707,,,,,,,,0.1328125,-0.2265625,0.9765625,-0.115234375,-0.5390625,-0.20703125,0.9296875,-9.59375,2.5546875,1.0
4714708,,,,,,,,0.0390625,-0.10546875,1.2109375,-0.1328125,-0.509765625,-0.21484375,0.8515625,-9.48046875,2.78125,1.0
4714709,,,,,,,,-0.46484375,-0.1796875,1.734375,-0.15625,-0.294921875,-0.24609375,0.39453125,-9.5546875,3.28125,1.0
4714710,36.01343166666666,129.3195775,88.12005709298978,114.47339134933449,1.2000000000000002,7.0,,-0.8359375,-0.1796875,1.7109375,-0.134765625,0.11328125,0.130859375,0.046875,-9.55859375,3.2421875,1.0
4714711,,,,,,,,-0.75,-0.06640625,1.44921875,-0.09765625,-0.302734375,-0.25,0.1640625,-9.4375,2.97265625,1.0
4714712,,,,,,,,-0.32421875,0.1640625,0.77734375,-0.078125,-0.421875,-0.271484375,0.62109375,-9.2109375,2.28515625,1.0
4714713,,,,,,,,-0.19921875,0.39453125,0.40234375,-0.076171875,-0.46875,-0.27734375,0.77734375,-8.9765625,1.90234375,1.0
4714714,,,,,,,,-0.27734375,0.73828125,0.109375,-0.068359375,-0.43359375,-0.28515625,0.73828125,-8.6328125,1.59375,1.0
4714715,,,,,,,,-0.35546875,1.0078125,-0.04296875,-0.015625,-0.38671875,-0.283203125,0.69921875,-8.3671875,1.44140625,1.0
4714716,,,,,,,,-0.30859375,1.46484375,-0.109375,0.044921875,-0.376953125,-0.28515625,0.77734375,-7.91015625,1.3671875,1.0
4714717,,,,,,,,-0.1484375,1.8046875,-0.34765625,0.091796875,-0.39453125,-0.279296875,0.96875,-7.56640625,1.13671875,1.0
4714718,,,,,,,,-0.10546875,2.0625,-0.51171875,0.125,-0.419921875,-0.275390625,1.04296875,-7.296875,0.98046875,1.0
4714719,,,,,,,,-0.18359375,2.1796875,-0.5546875,0.140625,-0.4453125,-0.267578125,1.00390625,-7.1796875,0.9453125,1.0
4714720,36.0134325,129.31957783333334,88.15010562976661,114.56585769285127,1.0,5.0,,-0.3671875,2.171875,-0.75390625,0.1484375,-0.455078125,-0.255859375,0.8515625,-7.1796875,0.75390625,1.0
4714721,,,,,,,,-0.51171875,2.1328125,-0.92578125,0.150390625,-0.458984375,-0.23828125,0.73828125,-7.22265625,0.59765625,1.0
4714722,,,,,,,,-0.65234375,1.97265625,-1.0390625,0.140625,-0.453125,-0.2109375,0.62109375,-7.37109375,0.484375,1.0
4714723,,,,,,,,-0.7421875,1.93359375,-1.046875,0.13671875,-0.447265625,-0.1953125,0.546875,-7.40625,0.484375,1.0
4714724,,,,,,,,-0.97265625,1.7734375,-1.0234375,0.13671875,-0.427734375,-0.154296875,0.35546875,-7.56640625,0.5234375,1.0
4714725,,,,,,,,-1.10546875,1.3515625,-0.95703125,0.14453125,-0.423828125,-0.115234375,0.23828125,-7.984375,0.59765625,1.0
4714726,,,,,,,,-1.171875,1.18359375,-1.0078125,0.16796875,-0.43359375,-0.05859375,0.203125,-8.13671875,0.5625,1.0
4714727,,,,,,,,-1.10546875,0.8359375,-1.015625,0.173828125,-0.447265625,-0.0234375,0.27734375,-8.48828125,0.5625,1.0
4714728,,,,,,,,-1.11328125,0.76171875,-0.98046875,0.173828125,-0.44921875,-0.005859375,0.27734375,-8.5546875,0.59765625,1.0
4714729,,,,,,,,-1.00390625,0.63671875,-0.91796875,0.1796875,-0.478515625,0.013671875,0.39453125,-8.67578125,0.67578125,1.0
4714730,36.013433666666664,129.31957816666667,88.18015379474322,114.69531045279948,1.0,6.0,,-0.8125,0.75390625,-0.92578125,0.1484375,-0.455078125,-0.255859375,0.5859375,-8.55859375,0.67578125,1.0
4714731,,,,,,,,-0.62890625,0.69921875,-1.0546875,0.2109375,-0.544921875,0.037109375,0.77734375,-8.59765625,0.5625,1.0
4714732,,,,,,,,-0.59375,0.66015625,-1.1015625,0.193359375,-0.5625,0.029296875,0.8125,-8.6328125,0.5234375,1.0
4714733,,,,,,,,-0.484375,0.46875,-1.1796875,0.16015625,-0.58203125,0.025390625,0.9296875,-8.828125,0.4453125,1.0
4714734,,,,,,,,-0.453125,0.3828125,-1.0703125,0.138671875,-0.59765625,0.0234375,0.96875,-8.91015625,0.5625,1.0
4714735,,,,,,,,-0.31640625,0.34765625,-0.95703125,0.119140625,-0.619140625,0.00390625,1.12109375,-8.9375,0.67578125,1.0
4714736,,,,,,,,-0.31640625,0.421875,-0.8515625,0.126953125,-0.623046875,-0.005859375,1.12109375,-8.8671875,0.7890625,1.0
4714737,,,,,,,,-0.5390625,0.484375,-0.859375,0.171875,-0.591796875,-0.025390625,0.9296875,-8.79296875,0.7890625,1.0
4714738,,,,,,,,-0.625,0.40625,-0.8203125,0.169921875,-0.583984375,-0.0234375,0.8515625,-8.8671875,0.828125,1.0
4714739,,,,,,,,-0.59375,0.3671875,-0.8671875,0.150390625,-0.58984375,-0.02734375,0.890625,-8.91015625,0.7890625,1.0
4714740,36.01343466666666,129.31957849999998,88.21020214203287,114.8062700023726,1.1,6.0,,-0.41015625,0.25390625,-0.7890625,0.1484375,-0.455078125,-0.255859375,0.5859375,-8.55859375,0.67578125,1.0
4714741,,,,,,,,-0.1953125,0.16796875,-0.7109375,0.08984375,-0.6328125,-0.044921875,1.3125,-9.09765625,0.9453125,1.0
4714742,,,,,,,,-0.25,-0.03125,-0.63671875,0.041015625,-0.6328125,-0.046875,1.2734375,-9.29296875,1.01953125,1.0
4714743,,,,,,,,-0.33984375,-0.15234375,-0.62109375,-0.01171875,-0.62109375,-0.04296875,1.19921875,-9.3984375,1.01953125,1.0
4714744,,,,,,,,-0.35546875,-0.3046875,-0.56640625,-0.0625,-0.607421875,-0.025390625,1.19921875,-9.5546875,1.05859375,1.0
4714745,,,,,,,,-0.13671875,-0.48828125,-0.58984375,-0.134765625,-0.595703125,0.0,1.42578125,-9.7421875,1.01953125,1.0
4714746,,,,,,,,0.01171875,-0.48828125,-0.53515625,-0.16796875,-0.583984375,0.013671875,1.58203125,-9.74609375,1.05859375,1.0
4714747,,,,,,,,0.0859375,-0.25,-0.50390625,-0.216796875,-0.556640625,0.037109375,1.65625,-9.515625,1.05859375,1.0
4714748,,,,,,,,-0.2265625,0.390625,-0.55859375,-0.216796875,-0.49609375,0.0546875,1.3515625,-8.87109375,0.98046875,1.0
4714749,,,,,,,,-0.87890625,0.9296875,-0.640625,-0.205078125,-0.4375,0.064453125,0.69921875,-8.33203125,0.8671875,1.0
4714750,36.01343583333333,129.319579,88.25527504120913,114.93572291352362,1.1,8.0,,-1.25390625,0.97265625,-0.5234375,-0.232421875,-0.474609375,0.095703125,0.31640625,-8.2890625,0.9453125,1.0
4714751,,,,,,,,-1.5625,-0.3984375,-0.33203125,-0.32421875,-0.591796875,0.1328125,0.0078125,-9.671875,1.09765625,1.0
4714752,,,,,,,,-1.484375,-0.84765625,-0.1015625,-0.4765625,-0.748046875,0.169921875,0.0859375,-10.12890625,1.2890625,1.0
4714753,,,,,,,,-0.82421875,-2.52734375,1.125,-0.603515625,-0.935546875,0.193359375,0.73828125,-11.81640625,2.4375,1.0
4714754,,,,,,,,-0.44140625,-3.28515625,1.42578125,-0.642578125,-1.02734375,0.205078125,1.12109375,-12.578125,2.70703125,1.0
4714755,,,,,,,,1.03125,-6.2265625,1.88671875,-0.765625,-1.208984375,0.236328125,2.578125,-15.53125,3.08984375,1.0
4714756,,,,,,,,2.6015625,-7.21484375,1.7109375,-0.841796875,-1.2890625,0.251953125,4.1484375,-16.52734375,2.859375,1.0
4714757,,,,,,,,4.68359375,-3.71484375,2.01171875,-0.876953125,-1.40625,0.25,6.21484375,-13.04296875,3.05078125,1.0
4714758,,,,,,,,4.73046875,-2.25,1.9765625,-0.416015625,-1.2109375,0.185546875,6.25390625,-11.58984375,2.9375,1.0
4714759,,,,,,,,3.04296875,-1.09375,0.8125,0.169921875,-0.810546875,0.109375,4.56640625,-10.44140625,1.75,1.0
4714760,36.013436999999996,129.31957933333334,88.28532320350266,115.0651756738284,1.1,9.0,,1.8203125,-2.546875,1.0703125,-0.232421875,-0.474609375,0.095703125,3.34375,-11.890625,2.015625,1.0
4714761,,,,,,,,0.890625,-5.0,2.84765625,0.064453125,-0.94140625,0.0546875,2.421875,-14.34765625,3.77734375,1.0
4714762,,,,,,,,1.08203125,-4.234375,2.65625,0.349609375,-0.9453125,0.125,2.61328125,-13.578125,3.5859375,1.0
4714763,,,,,,,,1.046875,-3.125,1.9921875,0.5,-0.89453125,0.16015625,2.578125,-12.46875,2.9375,1.0
4714764,,,,,,,,0.70703125,-1.54296875,1.37109375,0.6953125,-0.712890625,0.240234375,2.23046875,-10.890625,2.36328125,1.0
4714765,,,,,,,,0.109375,-0.55078125,1.0859375,0.73828125,-0.57421875,0.333984375,1.6171875,-9.8984375,2.1328125,1.0
4714766,,,,,,,,-0.27734375,0.1328125,0.75390625,0.6875,-0.56640625,0.396484375,1.19921875,-9.21484375,1.86328125,1.0
4714767,,,,,,,,-0.24609375,0.32421875,0.4296875,0.578125,-0.650390625,0.423828125,1.19921875,-9.015625,1.59375,1.0
4714768,,,,,,,,-0.0703125,0.37109375,0.37890625,0.51953125,-0.716796875,0.42578125,1.3515625,-8.9765625,1.55859375,1.0
4714769,,,,,,,,0.01953125,0.6015625,0.18359375,0.43359375,-0.8359375,0.427734375,1.42578125,-8.75390625,1.40234375,1.0
4714770,36.01343816666667,129.31957933333334,88.28532190277647,115.19462813188947,1.2000000000000002,4.0,,0.14453125,1.09765625,0.1171875,0.404296875,-0.89453125,0.44140625,3.34375,-11.890625,2.015625,1.0
4714771,,,,,,,,0.0234375,1.98828125,0.0859375,0.427734375,-0.865234375,0.44921875,1.3515625,-7.37109375,1.3671875,1.0
4714772,,,,,,,,0.0390625,2.21875,0.03125,0.4375,-0.857421875,0.45703125,1.3515625,-7.14453125,1.328125,1.0
4714773,,,,,,,,0.0703125,2.72265625,-0.0390625,0.4609375,-0.85546875,0.470703125,1.3515625,-6.64453125,1.2890625,1.0
4714774,,,,,,,,0.21484375,3.05859375,-0.19140625,0.47265625,-0.89453125,0.466796875,1.46484375,-6.30078125,1.17578125,1.0
4714775,,,,,,,,0.5078125,3.2890625,-0.1875,0.46875,-0.927734375,0.45703125,1.734375,-6.0703125,1.2109375,1.0
4714776,,,,,,,,1.03515625,3.55859375,-0.484375,0.4375,-0.962890625,0.43359375,2.23046875,-5.796875,0.9453125,1.0
4714777,,,,,,,,1.16796875,3.51953125,-0.5390625,0.408203125,-0.974609375,0.41796875,2.34765625,-5.8359375,0.90625,1.0
4714778,,,,,,,,1.3125,3.40625,-0.76171875,0.31640625,-0.990234375,0.361328125,2.4609375,-5.953125,0.71484375,1.0
4714779,,,,,,,,1.3984375,3.2890625,-0.80859375,0.294921875,-0.974609375,0.34375,2.5390625,-6.0703125,0.67578125,1.0
4714780,36.013439,129.31957916666667,88.27029624240586,115.28709402220032,1.0,358.0,,1.91015625,2.67578125,-1.13671875,0.404296875,-0.89453125,0.44140625,3.34375,-11.890625,2.015625,1.0
4714781,,,,,,,,2.125,1.91796875,-0.87109375,0.09375,-0.740234375,0.244140625,3.2265625,-7.4453125,0.63671875,1.0
4714782,,,,,,,,2.09375,1.6796875,-0.609375,0.072265625,-0.56640625,0.19140625,3.1875,-7.6796875,0.90625,1.0
4714783,,,,,,,,2.06640625,1.640625,-0.49609375,0.083984375,-0.517578125,0.17578125,3.15234375,-7.72265625,1.01953125,1.0
4714784,,,,,,,,1.99609375,1.52734375,-0.6171875,0.123046875,-0.439453125,0.13671875,3.07421875,-7.83203125,0.90625,1.0
4714785,,,,,,,,1.91796875,1.44921875,-0.6640625,0.15234375,-0.390625,0.103515625,2.99609375,-7.90625,0.8671875,1.0
4714786,,,,,,,,1.56640625,1.40625,-0.78515625,0.14453125,-0.33203125,0.087890625,2.65234375,-7.9453125,0.75390625,1.0
4714787,,,,,,,,1.3828125,1.25,-0.79296875,0.154296875,-0.259765625,0.09375,2.4609375,-8.10546875,0.75390625,1.0
4714788,,,,,,,,1.34375,1.21484375,-0.765625,0.15625,-0.220703125,0.0859375,2.421875,-8.1328125,0.7890625,1.0
4714789,,,,,,,,1.15234375,1.015625,-0.6953125,0.166015625,-0.1640625,0.091796875,2.23046875,-8.328125,0.8671875,1.0
4714790,36.01343983333334,129.319579,88.25527058236459,115.37955991447599,1.0,356.0,,1.12109375,0.859375,-0.7109375,0.404296875,-0.89453125,0.44140625,3.34375,-11.890625,2.015625,1.0
4714791,,,,,,,,1.0078125,0.78515625,-0.734375,0.197265625,-0.1484375,0.10546875,2.078125,-8.5546875,0.8671875,1.0
4714792,,,,,,,,0.90234375,0.65234375,-0.63671875,0.1796875,-0.16796875,0.11328125,1.96484375,-8.671875,0.98046875,1.0
4714793,,,,,,,,0.90234375,0.61328125,-0.671875,0.173828125,-0.177734375,0.125,1.96484375,-8.71484375,0.9453125,1.0
4714794,,,,,,,,1.0234375,0.30859375,-0.53515625,0.126953125,-0.216796875,0.13671875,2.078125,-9.01953125,1.09765625,1.0
4714795,,,,,,,,1.34765625,-0.08203125,-0.46484375,0.06640625,-0.296875,0.150390625,2.38671875,-9.40234375,1.17578125,1.0
4714796,,,,,,,,1.765625,-0.7265625,-0.62109375,0.02734375,-0.353515625,0.15234375,2.8046875,-10.05859375,1.01953125,1.0
4714797,,,,,,,,2.08203125,-1.1484375,-0.765625,-0.015625,-0.361328125,0.130859375,3.11328125,-10.48046875,0.8671875,1.0
4714798,,,,,,,,2.12109375,-1.26171875,-0.796875,-0.03515625,-0.33984375,0.119140625,3.15234375,-10.5859375,0.828125,1.0
4714799,,,,,,,,2.00390625,-1.4921875,-0.828125,-0.0546875,-0.2890625,0.107421875,3.03515625,-10.82421875,0.7890625,1.0
4714800,36.013440833333334,129.31957866666667,88.22522000604384,115.49051886174891,1.0,349.0,0.0,1.46875,-1.4921875,-0.8203125,0.404296875,-0.89453125,0.44140625,2.5,-10.82421875,0.7890625,1.0
4714801,,,,,,,,1.09375,-1.375,-0.734375,-0.048828125,-0.193359375,0.107421875,2.1171875,-10.703125,0.8671875,1.0
4714802,,,,,,,,0.671875,-0.91796875,-0.52734375,-0.052734375,-0.150390625,0.142578125,1.6953125,-10.24609375,1.05859375,1.0
4714803,,,,,,,,0.6875,-0.49609375,-0.44140625,-0.07421875,-0.140625,0.173828125,1.6953125,-9.82421875,1.13671875,1.0
4714804,,,,,,,,0.92578125,0.0859375,-0.359375,-0.123046875,-0.16015625,0.203125,1.92578125,-9.25390625,1.2109375,1.0
4714805,,,,,,,,1.24609375,0.125,-0.48828125,-0.21875,-0.234375,0.216796875,2.23046875,-9.2109375,1.05859375,1.0
4714806,,,,,,,,1.4453125,-0.296875,-0.51953125,-0.291015625,-0.287109375,0.2265625,2.421875,-9.6328125,1.01953125,1.0
4714807,,,,,,,,1.453125,-1.23828125,-0.86328125,-0.443359375,-0.3515625,0.224609375,2.421875,-10.5859375,0.63671875,1.0
4714808,,,,,,,,0.55078125,-1.765625,-0.80078125,-0.607421875,-0.4140625,0.19921875,1.50390625,-11.125,0.63671875,1.0
4714809,,,,,,,,0.17578125,-1.22265625,-0.0078125,-0.6875,-0.3671875,0.12890625,1.12109375,-10.58984375,1.3671875,1.0
4714810,36.01344166666667,129.31957783333334,88.15009542307502,115.58298414874642,1.1,340.0,,0.21484375,-0.9765625,0.78125,-0.62890625,-0.234375,0.08984375,1.16015625,-10.36328125,2.09375,1.0
4714811,,,,,,,,-0.046875,-1.734375,0.95703125,-0.576171875,-0.1484375,0.109375,0.890625,-11.125,2.20703125,1.0
4714812,,,,,,,,-0.890625,-2.88671875,1.2421875,-0.64453125,-0.189453125,0.142578125,0.046875,-12.27734375,2.4375,1.0
4714813,,,,,,,,-1.5703125,-2.9453125,2.00390625,-0.703125,-0.287109375,0.15234375,-0.640625,-12.3515625,3.12890625,1.0
4714814,,,,,,,,-1.984375,-2.32421875,2.9453125,-0.498046875,-0.287109375,0.14453125,-1.0625,-11.73828125,4.0078125,1.0
4714815,,,,,,,,-2.0078125,-1.3203125,2.74609375,-0.005859375,-0.435546875,0.1953125,-1.1015625,-10.7421875,3.77734375,1.0
4714816,,,,,,,,-1.38671875,-1.08984375,2.2109375,0.173828125,-0.55078125,0.216796875,-0.48828125,-10.5078125,3.2421875,1.0
4714817,,,,,,,,-0.8046875,-1.28125,2.1640625,0.169921875,-0.5859375,0.232421875,0.0859375,-10.703125,3.203125,1.0
4714818,,,,,,,,-0.08984375,-1.66796875,2.2265625,0.154296875,-0.560546875,0.21484375,0.77734375,-11.0859375,3.28125,1.0
4714819,,,,,,,,0.14453125,-1.62890625,2.140625,0.18359375,-0.541015625,0.166015625,1.00390625,-11.05078125,3.203125,1.0
4714820,36.0134425,129.31957716666665,88.08999556932415,115.67544958660561,1.1,333.0,,0.18359375,-1.47265625,2.04296875,-0.62890625,-0.234375,0.08984375,1.16015625,-10.36328125,2.09375,1.0
4714821,,,,,,,,-0.4140625,-0.32421875,1.53515625,0.322265625,-0.671875,-0.056640625,0.46875,-9.74609375,2.66796875,1.0
4714822,,,,,,,,-0.49609375,-0.171875,1.3515625,0.3203125,-0.6953125,-0.080078125,0.39453125,-9.59765625,2.515625,1.0
4714823,,,,,,,,-0.59765625,0.01953125,1.05859375,0.283203125,-0.712890625,-0.091796875,0.31640625,-9.3984375,2.24609375,1.0
4714824,,,,,,,,-0.4921875,0.125,0.97265625,0.2578125,-0.728515625,-0.091796875,0.4296875,-9.29296875,2.16796875,1.0
4714825,,,,,,,,-0.1328125,0.69921875,0.65234375,0.236328125,-0.75,-0.0859375,0.8125,-8.7109375,1.86328125,1.0
4714826,,,,,,,,0.15234375,1.3125,0.32421875,0.255859375,-0.728515625,-0.09375,1.12109375,-8.10546875,1.55859375,1.0
4714827,,,,,,,,0.18359375,1.53515625,0.0859375,0.2734375,-0.72265625,-0.09375,1.16015625,-7.87109375,1.328125,1.0
4714828,,,,,,,,0.19921875,1.8046875,-0.13671875,0.263671875,-0.71875,-0.09375,1.19921875,-7.6015625,1.13671875,1.0
4714829,,,,,,,,0.2265625,1.98828125,-0.26171875,0.25390625,-0.7265625,-0.09765625,1.234375,-7.40625,1.01953125,1.0
4714830,36.013443333333335,129.3195765,88.02989572396193,115.76791502648703,1.1,330.0,,0.28125,2.1015625,-0.3828125,0.2421875,-0.75390625,-0.099609375,1.3125,-7.30078125,0.90625,1.0
4714831,,,,,,,,0.265625,2.1484375,-0.484375,0.248046875,-0.7734375,-0.1015625,1.3125,-7.2578125,0.828125,1.0
4714832,,,,,,,,0.12890625,2.1796875,-0.57421875,0.267578125,-0.7578125,-0.1015625,1.19921875,-7.21875,0.75390625,1.0
4714833,,,,,,,,-0.08984375,2.1328125,-0.70703125,0.291015625,-0.724609375,-0.08984375,1.00390625,-7.26171875,0.63671875,1.0
4714834,,,,,,,,-0.33203125,1.92578125,-0.73046875,0.306640625,-0.69921875,-0.060546875,0.77734375,-7.44921875,0.63671875,1.0
4714835,,,,,,,,-0.546875,1.65625,-0.67578125,0.322265625,-0.66796875,-0.033203125,0.5859375,-7.72265625,0.71484375,1.0
4714836,,,,,,,,-0.59375,1.54296875,-0.64453125,0.3359375,-0.662109375,-0.015625,0.546875,-7.83203125,0.75390625,1.0
4714837,,,,,,,,-0.6015625,1.3828125,-0.5546875,0.345703125,-0.6796875,0.01953125,0.546875,-7.984375,0.8671875,1.0
4714838,,,,,,,,-0.6484375,1.0390625,-0.48046875,0.373046875,-0.708984375,0.05859375,0.5078125,-8.33203125,0.98046875,1.0
4714839,,,,,,,,-0.76953125,0.9921875,-0.546875,0.3984375,-0.73828125,0.0859375,0.39453125,-8.37109375,0.9453125,1.0
4714840,36.013444,129.31957583333332,87.96979605842192,115.84188725695282,1.0,327.0,,-0.80859375,1.05859375,-0.6640625,0.42578125,-0.763671875,0.119140625,0.35546875,-8.29296875,0.8671875,1.0
4714841,,,,,,,,-0.76953125,1.12890625,-0.6953125,0.439453125,-0.78125,0.166015625,0.46875,-8.1328125,0.7890625,1.0
4714842,,,,,,,,-0.6953125,1.20703125,-0.7890625,0.451171875,-0.783203125,0.171875,0.5078125,-8.10546875,0.67578125,1.0
4714843,,,,,,,,-0.6171875,1.234375,-1.01171875,0.431640625,-0.791015625,0.193359375,0.5859375,-8.13671875,0.5625,1.0
4714844,,,,,,,,-0.53515625,1.16015625,-1.02734375,0.400390625,-0.80078125,0.203125,0.62109375,-8.171875,0.59765625,1.0
4714845,,,,,,,,-0.2578125,0.9609375,-0.98046875,0.345703125,-0.798828125,0.212890625,0.890625,-8.37109375,0.67578125,1.0
4714846,,,,,,,,-0.01171875,0.953125,-0.9140625,0.232421875,-0.798828125,0.203125,1.12109375,-8.3671875,0.7890625,1.0
4714847,,,,,,,,0.1015625,1.02734375,-0.921875,0.228515625,-0.787109375,0.197265625,1.234375,-8.29296875,0.7890625,1.0
4714848,,,,,,,,0.1875,1.09765625,-0.8515625,0.224609375,-0.765625,0.1796875,1.3125,-8.2109375,0.8671875,1.0
4714849,,,,,,,,0.1875,0.90625,-0.7734375,0.20703125,-0.74609375,0.16796875,1.3125,-8.41015625,0.9453125,1.0
4714850,36.013445000000004,129.31957533333335,87.92472075993368,115.9528460571959,1.1,325.0,,0.2578125,0.5546875,-0.8671875,0.17578125,-0.728515625,0.146484375,1.390625,-8.75390625,0.8671875,1.0
4714851,,,,,,,,0.5234375,0.20703125,-0.60546875,0.107421875,-0.73828125,0.12109375,1.65625,-9.09375,1.13671875,1.0
4714852,,,,,,,,0.6015625,0.09375,-0.53125,0.08984375,-0.73828125,0.10546875,1.734375,-9.21484375,1.2109375,1.0
4714853,,,,,,,,0.6015625,-0.09765625,-0.53125,0.083984375,-0.712890625,0.078125,1.734375,-9.3984375,1.2109375,1.0
4714854,,,,,,,,0.515625,-0.375,-0.5234375,0.076171875,-0.658203125,0.0703125,1.65625,-9.671875,1.2109375,1.0
4714855,,,,,,,,0.39453125,-0.7578125,-0.40625,0.046875,-0.591796875,0.076171875,1.54296875,-10.05859375,1.328125,1.0
4714856,,,,,,,,0.39453125,-0.91015625,-0.40625,0.02734375,-0.556640625,0.072265625,1.54296875,-10.20703125,1.328125,1.0
4714857,,,,,,,,0.46875,-1.1796875,-0.359375,-0.037109375,-0.46484375,0.0859375,1.6171875,-10.48046875,1.3671875,1.0
4714858,,,,,,,,0.5078125,-1.140625,-0.3359375,-0.12109375,-0.36328125,0.10546875,1.65625,-10.44140625,1.3671875,1.0
4714859,,,,,,,,0.46875,-0.91015625,-0.328125,-0.14453125,-0.32421875,0.107421875,1.6171875,-10.203125,1.3671875,1.0
4714860,36.01344566666667,129.31957466666665,87.86462109603362,116.02681828970316,1.0,324.0,,0.05078125,-0.2109375,-0.34375,0.17578125,-0.728515625,0.146484375,1.390625,-8.75390625,0.8671875,1.0
4714861,,,,,,,,-0.6328125,0.25390625,-0.3515625,-0.23046875,-0.166015625,0.07421875,0.5078125,-9.05859375,1.2890625,1.0
4714862,,,,,,,,-1.24609375,0.4140625,-0.44140625,-0.2890625,-0.22265625,0.0625,-0.10546875,-8.91015625,1.17578125,1.0
4714863,,,,,,,,-1.7421875,0.453125,-0.51953125,-0.380859375,-0.33203125,0.05078125,-0.6015625,-8.8671875,1.05859375,1.0
4714864,,,,,,,,-2.05078125,0.26953125,-0.59375,-0.46484375,-0.46484375,0.05859375,-0.91015625,-9.0546875,0.9453125,1.0
4714865,,,,,,,,-2.203125,-0.02734375,-0.6484375,-0.54296875,-0.587890625,0.07421875,-1.0625,-9.36328125,0.828125,1.0
4714866,,,,,,,,-2.2109375,-0.10546875,-0.6640625,-0.587890625,-0.646484375,0.0859375,-1.0625,-9.4375,0.7890625,1.0
4714867,,,,,,,,-2.2109375,-0.05078125,-0.171875,-0.65625,-0.7421875,0.115234375,-1.0625,-9.40234375,1.2109375,1.0
4714868,,,,,,,,-1.93359375,-0.6875,0.16796875,-0.666015625,-0.912109375,0.189453125,-0.79296875,-10.0546875,1.44140625,1.0
4714869,,,,,,,,-0.9296875,-2.79296875,0.09375,-0.69140625,-1.111328125,0.216796875,0.203125,-12.15625,1.2890625,1.0
4714870,36.0134465,129.31957383333332,87.7894965235874,116.11928357843824,1.1,322.0,,0.2265625,-4.73046875,0.2578125,-0.806640625,-1.3515625,0.2421875,1.3515625,-14.11328125,1.3671875,1.0
4714871,,,,,,,,3.19140625,-4.9453125,1.8984375,-0.75390625,-1.8828125,0.25390625,4.30078125,-14.34765625,2.859375,1.0
4714872,,,,,,,,4.0703125,-4.40234375,2.3984375,-0.609375,-1.978515625,0.236328125,5.1796875,-13.8046875,3.3203125,1.0
4714873,,,,,,,,4.72265625,-2.9453125,2.98828125,-0.14453125,-1.73046875,0.169921875,5.83203125,-12.35546875,3.85546875,1.0
4714874,,,,,,,,1.62109375,-2.59375,2.63671875,0.421875,-0.95703125,0.07421875,2.73046875,-12.01171875,3.51171875,1.0
4714875,,,,,,,,-0.1796875,-3.0625,2.3125,0.591796875,-0.9765625,0.056640625,0.9296875,-12.47265625,3.2421875,1.0
4714876,,,,,,,,-0.1875,-2.9375,2.10546875,0.63671875,-1.068359375,0.0859375,0.9296875,-12.35546875,3.05078125,1.0
4714877,,,,,,,,0.00390625,-2.02734375,1.28515625,0.71875,-1.173828125,0.173828125,1.12109375,-11.4296875,2.28515625,1.0
4714878,,,,,,,,0.01171875,-1.19140625,0.953125,0.787109375,-1.048828125,0.2890625,1.12109375,-10.5859375,2.015625,1.0
4714879,,,,,,,,-0.08984375,-0.33984375,0.921875,0.8046875,-0.91796875,0.34765625,1.00390625,-9.7421875,2.015625,1.0
4714880,36.013447166666666,129.31957316666666,87.72939686473424,116.19325581165472,1.0,320.0,,-0.1015625,0.37890625,0.9765625,0.740234375,-0.68359375,0.44921875,0.96875,-9.01953125,2.1328125,1.0
4714881,,,,,,,,0.08984375,0.9140625,0.921875,0.595703125,-0.615234375,0.533203125,1.12109375,-8.484375,2.1328125,1.0
4714882,,,,,,,,0.44921875,0.76171875,0.4375,0.34765625,-0.78515625,0.5703125,1.42578125,-8.63671875,1.7109375,1.0
4714883,,,,,,,,0.55078125,0.69140625,0.34375,0.26953125,-0.869140625,0.55859375,1.50390625,-8.7109375,1.6328125,1.0
4714884,,,,,,,,0.62890625,0.9609375,-0.015625,0.1953125,-0.96875,0.533203125,1.54296875,-8.44921875,1.2890625,1.0
4714885,,,,,,,,0.55078125,1.11328125,-0.16796875,0.177734375,-1.0,0.48828125,1.3125,-8.0625,1.09765625,1.0
4714886,,,,,,,,0.35546875,1.6953125,-0.26171875,0.197265625,-0.96875,0.474609375,1.16015625,-7.4453125,1.01953125,1.0
4714887,,,,,,,,0.30859375,2.1171875,-0.30859375,0.208984375,-0.9609375,0.45703125,1.16015625,-6.984375,0.9453125,1.0
4714888,,,,,,,,0.36328125,2.42578125,-0.390625,0.2109375,-0.970703125,0.4609375,1.16015625,-6.87890625,0.9453125,1.0
4714889,,,,,,,,0.43359375,2.6640625,-0.40625,0.1875,-1.0,0.451171875,1.3125,-6.71875,0.90625,1.0
4714890,36.01344766666667,129.319572,87.62422320306875,116.24873438810272,1.2000000000000002,313.0,,0.73046875,2.69921875,-0.5703125,0.16015625,-1.037109375,0.443359375,0.96875,-9.01953125,2.1328125,1.0
4714891,,,,,,,,0.86328125,2.69921875,-0.62109375,0.1328125,-1.087890625,0.439453125,1.80859375,-6.875,0.59765625,1.0
4714892,,,,,,,,1.10546875,2.546875,-0.77734375,0.11328125,-1.09765625,0.43359375,2.078125,-7.0234375,0.5234375,1.0
4714893,,,,,,,,1.65234375,2.35546875,-0.96875,0.064453125,-1.095703125,0.353515625,2.4609375,-7.296875,0.1796875,1.0
4714894,,,,,,,,1.8203125,2.125,-1.203125,0.060546875,-0.98828125,0.296875,2.73046875,-7.5234375,0.1015625,1.0
4714895,,,,,,,,2.11328125,1.828125,-1.2734375,0.072265625,-0.87109375,0.25,2.73046875,-7.72265625,0.1015625,1.0
4714896,,,,,,,,2.03515625,1.51171875,-1.1953125,0.09765625,-0.74609375,0.201171875,2.65234375,-7.90625,0.1796875,1.0
4714897,,,,,,,,1.9296875,1.3671875,-1.12109375,0.1171875,-0.673828125,0.181640625,2.5390625,-8.06640625,0.25390625,1.0
4714898,,,,,,,,1.8203125,1.16796875,-1.01171875,0.154296875,-0.51953125,0.134765625,2.421875,-8.25390625,0.37109375,1.0
4714899,,,,,,,,1.67578125,1.12890625,-0.8984375,0.18359375,-0.447265625,0.125,2.26953125,-8.29296875,0.484375,1.0
4714900,36.01344866666667,129.31957116666666,87.54909845077279,116.35969288813965,1.1,313.0,0.0,1.5625,1.16796875,-0.80859375,0.2265625,-0.330078125,0.10546875,2.15625,-8.25,0.59765625,1.0
4714901,,,,,,,,1.40625,1.12109375,-0.70703125,0.271484375,-0.23828125,0.0859375,2.0,-8.2890625,0.71484375,1.0
4714902,,,,,,,,1.60546875,0.69140625,-0.77734375,0.302734375,-0.193359375,0.08203125,2.19140625,-8.7109375,0.67578125,1.0
4714903,,,,,,,,1.72265625,0.42578125,-0.90625,0.3125,-0.173828125,0.08203125,2.30859375,-8.9765625,0.5625,1.0
4714904,,,,,,,,1.76171875,0.1875,-0.91796875,0.333984375,-0.08984375,0.0625,2.34765625,-9.21484375,0.59765625,1.0
4714905,,,,,,,,1.65234375,-0.125,-0.83203125,0.345703125,-0.01953125,0.0625,2.23046875,-9.515625,0.71484375,1.0
4714906,,,,,,,,1.421875,-0.32421875,-0.625,0.361328125,0.064453125,0.05078125,2.0,-9.70703125,0.9453125,1.0
4714907,,,,,,,,1.26953125,-0.37109375,-0.3984375,0.36328125,0.126953125,0.041015625,1.84765625,-9.74609375,1.2109375,1.0
4714908,,,,,,,,1.23046875,-0.33203125,-0.296875,0.353515625,0.14453125,0.037109375,1.80859375,-9.703125,1.328125,1.0
4714909,,,,,,,,1.203125,-0.2265625,-0.14453125,0.333984375,0.154296875,0.0234375,1.7734375,-9.59765625,1.51953125,1.0
4714910,36.013449,129.31957016666667,87.45894970581224,116.39667840752494,1.1,310.0,,1.31640625,-0.12890625,-0.19140625,0.3203125,0.134765625,0.015625,1.88671875,-9.4765625,1.51953125,1.0
4714911,,,,,,,,1.39453125,-0.12890625,-0.28515625,0.26953125,0.09765625,0.01953125,1.96484375,-9.48046875,1.44140625,1.0
4714912,,,,,,,,1.23828125,-0.3203125,-0.5,0.181640625,0.048828125,0.021484375,1.80859375,-9.671875,1.25,1.0
4714913,,,,,,,,1.125,-0.35546875,-0.69921875,0.14453125,0.0390625,0.01953125,1.6953125,-9.70703125,1.05859375,1.0
4714914,,,,,,,,0.85546875,-0.2890625,-0.859375,0.06640625,0.029296875,0.017578125,1.42578125,-9.63671875,0.90625,1.0
4714915,,,,,,,,0.3203125,-0.2109375,-0.9765625,-0.083984375,0.048828125,0.029296875,0.890625,-9.5546875,0.7890625,1.0
4714916,,,,,,,,0.08203125,-0.25,-0.73828125,-0.1875,0.056640625,0.048828125,0.66015625,-9.59375,1.01953125,1.0
4714917,,,,,,,,0.08984375,-0.08984375,-0.29296875,-0.294921875,0.05078125,0.060546875,0.66015625,-9.44140625,1.44140625,1.0
4714918,,,,,,,,0.12890625,-0.09765625,-0.078125,-0.337890625,0.046875,0.0703125,0.69921875,-9.44140625,1.6328125,1.0
4714919,,,,,,,,0.3671875,-0.5859375,0.34375,-0.41796875,0.03515625,0.076171875,0.9296875,-9.9375,2.015625,1.0
4714920,36.013449333333334,129.31956866666667,87.32372677425441,116.433663478829,1.2000000000000002,300.0,,0.6796875,-2.07421875,0.4140625,0.3203125,0.134765625,0.015625,1.88671875,-9.4765625,1.51953125,1.0
4714921,,,,,,,,0.2578125,-2.5546875,0.828125,-0.744140625,-0.248046875,0.08203125,0.8125,-11.93359375,2.3984375,1.0
4714922,,,,,,,,-0.0859375,-2.42578125,1.4375,-0.703125,-0.19140625,0.015625,0.46875,-11.81640625,2.9375,1.0
4714923,,,,,,,,-0.515625,-3.23046875,2.04296875,-0.595703125,-0.078125,0.001953125,0.046875,-12.62109375,3.47265625,1.0
4714924,,,,,,,,-1.671875,-3.55859375,2.75,-0.630859375,-0.14453125,0.01171875,-1.1015625,-12.96484375,4.125,1.0
4714925,,,,,,,,-2.359375,-1.98046875,3.26953125,-0.5859375,-0.265625,-0.001953125,-1.7890625,-11.390625,4.58203125,1.0
4714926,,,,,,,,-2.359375,-1.98046875,3.29296875,-0.44140625,-0.306640625,-0.005859375,-1.59765625,-10.96875,4.46875,1.0
4714927,,,,,,,,-1.3046875,-1.0546875,2.66796875,-0.0390625,-0.470703125,0.01953125,-0.71875,-10.48046875,3.93359375,1.0
4714928,,,,,,,,-0.5078125,-1.359375,2.59765625,-0.076171875,-0.470703125,0.041015625,0.0859375,-10.78515625,3.85546875,1.0
4714929,,,,,,,,0.640625,-2.30859375,2.7734375,-0.134765625,-0.37109375,0.052734375,1.234375,-11.734375,4.0078125,1.0
4714930,36.013449333333334,129.31956733333334,87.20352893990992,116.43366228494477,1.1,293.0,,0.94921875,-2.5,2.55078125,0.3203125,0.134765625,0.015625,1.54296875,-11.93359375,3.77734375,1.0
4714931,,,,,,,,0.671875,-2.234375,2.4375,0.001953125,-0.22265625,-0.01171875,1.2734375,-11.66796875,3.6640625,1.0
4714932,,,,,,,,0.08984375,-1.4296875,2.1328125,0.125,-0.220703125,-0.068359375,0.69921875,-10.86328125,3.359375,1.0
4714933,,,,,,,,-0.1875,-0.80859375,1.953125,0.201171875,-0.263671875,-0.134765625,0.4296875,-10.24609375,3.203125,1.0
4714934,,,,,,,,-0.36328125,-0.2421875,1.70703125,0.193359375,-0.298828125,-0.1953125,0.27734375,-9.67578125,2.97265625,1.0
4714935,,,,,,,,-0.546875,-0.5859375,1.625,0.107421875,-0.333984375,-0.22265625,0.125,-10.015625,2.8984375,1.0
4714936,,,,,,,,-0.515625,-0.76953125,1.6171875,0.04296875,-0.365234375,-0.220703125,0.1640625,-10.203125,2.8984375,1.0
4714937,,,,,,,,-0.39453125,-0.65625,1.578125,-0.013671875,-0.41796875,-0.234375,0.46875,-9.78515625,2.58984375,1.0
4714938,,,,,,,,-0.1953125,0.02734375,1.08203125,0.0546875,-0.400390625,-0.23046875,0.62109375,-9.2109375,2.24609375,1.0
4714939,,,,,,,,-0.15234375,0.45703125,0.84375,0.083984375,-0.388671875,-0.25,0.62109375,-8.7890625,2.09375,1.0
4714940,36.01344983333333,129.31956616666668,87.09835528454013,116.48914086607857,1.2000000000000002,292.0,,-0.15234375,0.91015625,0.60546875,0.091796875,-0.439453125,-0.25390625,0.62109375,-8.3671875,1.78515625,1.0
4714941,,,,,,,,-0.14453125,1.3984375,0.2890625,0.08203125,-0.494140625,-0.251953125,0.77734375,-7.6015625,1.40234375,1.0
4714942,,,,,,,,-0.0234375,2.01953125,0.0546875,0.0859375,-0.53125,-0.2578125,0.8515625,-7.30078125,1.328125,1.0
4714943,,,,,,,,-0.0390625,2.125,0.015625,0.099609375,-0.537109375,-0.255859375,0.890625,-7.06640625,1.25,1.0
4714944,,,,,,,,-0.03125,2.43359375,-0.109375,0.119140625,-0.537109375,-0.25,0.8515625,-6.875,1.17578125,1.0
4714945,,,,,,,,-0.1015625,2.6171875,-0.1171875,0.15625,-0.537109375,-0.240234375,0.77734375,-6.64453125,1.05859375,1.0
4714946,,,,,,,,-0.29296875,2.76953125,-0.28515625,0.203125,-0.521484375,-0.21875,0.66015625,-6.6796875,0.98046875,1.0
4714947,,,,,,,,-0.36328125,2.73046875,-0.37890625,0.25,-0.490234375,-0.1796875,0.5078125,-6.7578125,0.8671875,1.0
4714948,,,,,,,,-0.5390625,2.6484375,-0.5078125,0.265625,-0.47265625,-0.1640625,0.5078125,-6.76171875,0.9453125,1.0
4714949,,,,,,,,-0.640625,2.6015625,-0.453125,0.291015625,-0.453125,-0.130859375,0.4296875,-6.80078125,0.9453125,1.0
4714950,36.01344983333333,129.31956499999998,86.99318217751288,116.48913982406239,1.1,288.0,,-0.74609375,2.40234375,-0.41015625,0.318359375,-0.4296875,-0.099609375,0.62109375,-8.3671875,1.78515625,1.0
4714951,,,,,,,,-0.9140625,2.203125,-0.48828125,0.34375,-0.4375,-0.025390625,0.203125,-7.1796875,0.98046875,1.0
4714952,,,,,,,,-1.078125,1.92578125,-0.46484375,0.3515625,-0.443359375,-0.001953125,0.046875,-7.44921875,1.01953125,1.0
4714953,,,,,,,,-1.0859375,1.71875,-0.6015625,0.37890625,-0.466796875,0.07421875,0.046875,-7.64453125,0.9453125,1.0
4714954,,,,,,,,-1.046875,1.6796875,-0.65625,0.380859375,-0.48046875,0.09765625,0.0859375,-7.68359375,0.90625,1.0
4714955,,,,,,,,-0.88671875,1.6328125,-0.7421875,0.3671875,-0.509765625,0.13671875,0.23828125,-7.71875,0.8671875,1.0
4714956,,,,,,,,-0.73046875,1.59765625,-0.796875,0.359375,-0.517578125,0.15625,0.39453125,-7.75390625,0.828125,1.0
4714957,,,,,,,,-0.5703125,1.359375,-0.93359375,0.326171875,-0.529296875,0.169921875,0.546875,-7.98828125,0.71484375,1.0
4714958,,,,,,,,-0.5234375,1.12890625,-0.94921875,0.306640625,-0.53125,0.173828125,0.5859375,-8.21484375,0.71484375,1.0
4714959,,,,,,,,-0.48046875,0.890625,-0.94140625,0.228515625,-0.537109375,0.1953125,0.62109375,-8.4453125,0.75390625,1.0
4714960,36.01345033333334,129.31956366666665,86.87298379597856,116.54461825945161,1.2000000000000002,287.0,,-0.32421875,0.77734375,-0.875,0.2109375,-0.541015625,0.193359375,0.77734375,-8.55859375,0.828125,1.0
4714961,,,,,,,,-0.28125,0.66015625,-0.7734375,0.173828125,-0.5390625,0.1875,0.8125,-8.671875,0.9453125,1.0
4714962,,,,,,,,-0.15625,0.578125,-0.62109375,0.171875,-0.525390625,0.181640625,0.9296875,-8.75,1.09765625,1.0
4714963,,,,,,,,-0.1484375,0.30859375,-0.71484375,0.16796875,-0.5,0.1640625,0.9296875,-9.015625,1.01953125,1.0
4714964,,,,,,,,-0.140625,0.03125,-0.84375,0.14453125,-0.498046875,0.1484375,0.9296875,-9.29296875,0.90625,1.0
4714965,,,,,,,,-0.01953125,-0.16015625,-0.61328125,0.064453125,-0.49609375,0.1171875,1.04296875,-9.48046875,1.13671875,1.0
4714966,,,,,,,,0.13671875,-0.2734375,-0.5390625,0.03515625,-0.484375,0.09375,1.19921875,-9.59765625,1.2109375,1.0
4714967,,,,,,,,0.25,-0.47265625,-0.453125,0.00390625,-0.46484375,0.0703125,1.3125,-9.78515625,1.2890625,1.0
4714968,,,,,,,,0.203125,-0.55078125,-0.4921875,-0.0390625,-0.40625,0.05078125,1.2734375,-9.859375,1.25,1.0
4714969,,,,,,,,0.234375,-0.703125,-0.484375,-0.08203125,-0.34375,0.0390625,1.3515625,-10.09375,1.17578125,1.0
4714970,36.01345066666667,129.31956233333332,86.75278559767338,116.58160348861298,1.2000000000000002,288.0,,0.3203125,-0.78125,-0.57421875,-0.177734375,-0.248046875,0.04296875,1.390625,-10.09375,1.13671875,1.0
4714971,,,,,,,,0.1640625,-0.42578125,-0.4296875,-0.283203125,-0.13671875,0.025390625,1.234375,-9.7421875,1.25,1.0
4714972,,,,,,,,-0.1015625,-0.08203125,-0.3359375,-0.302734375,-0.107421875,0.0234375,0.96875,-9.40234375,1.328125,1.0
4714973,,,,,,,,-0.44921875,0.26953125,-0.45703125,-0.341796875,-0.068359375,0.0,0.62109375,-9.05859375,1.17578125,1.0
4714974,,,,,,,,-0.83203125,0.578125,-0.58984375,-0.375,-0.078125,0.005859375,0.23828125,-8.75,1.01953125,1.0
4714975,,,,,,,,-1.296875,0.76953125,-0.55078125,-0.44921875,-0.109375,-0.005859375,-0.21875,-8.55859375,1.01953125,1.0
4714976,,,,,,,,-1.87109375,0.5078125,-0.3046875,-0.54296875,-0.193359375,0.0,-0.79296875,-8.828125,1.2109375,1.0
4714977,,,,,,,,-2.140625,-0.2109375,-0.21875,-0.626953125,-0.326171875,0.013671875,-1.0625,-9.55859375,1.25,1.0
4714978,,,,,,,,-1.95703125,-1.65234375,-0.1796875,-0.73046875,-0.509765625,0.03125,-0.87109375,-11.01171875,1.2109375,1.0
4714979,,,,,,,,-1.765625,-2.06640625,0.12109375,-0.76953125,-0.595703125,0.046875,-0.6796875,-11.4296875,1.48046875,1.0
4714980,36.01345066666667,129.319561,86.63258776566182,116.58160230245286,1.1,283.0,,-1.0078125,-3.16796875,1.28125,-0.810546875,-0.798828125,0.064453125,0.0859375,-12.54296875,2.5546875,1.0
4714981,,,,,,,,0.296875,-4.921875,1.55078125,-0.79296875,-1.005859375,0.083984375,1.390625,-14.3046875,2.74609375,1.0
4714982,,,,,,,,1.51953125,-5.7578125,1.98828125,-0.802734375,-1.091796875,0.087890625,2.61328125,-15.1484375,3.12890625,1.0
4714983,,,,,,,,2.69921875,-4.67578125,2.83984375,-0.775390625,-1.216796875,0.091796875,3.80078125,-14.07421875,3.89453125,1.0
4714984,,,,,,,,3.23046875,-2.83203125,3.0625,-0.5,-1.18359375,0.046875,4.33984375,-12.23828125,4.046875,1.0
4714985,,,,,,,,1.91796875,-1.8359375,2.75,0.212890625,-0.734375,-0.03125,3.03515625,-11.24609375,3.703125,1.0
4714986,,,,,,,,-0.12109375,-2.29296875,2.625,0.3203125,-0.662109375,-0.046875,1.00390625,-11.6953125,3.5859375,1.0
4714987,,,,,,,,-0.9453125,-2.80078125,2.2578125,0.421875,-0.98828125,-0.005859375,0.203125,-12.1953125,3.28125,1.0
4714988,,,,,,,,-0.609375,-2.6484375,1.99609375,0.4765625,-1.138671875,0.0703125,0.546875,-12.046875,3.05078125,1.0
4714989,,,,,,,,-0.2265625,-2.1953125,1.94140625,0.494140625,-1.15625,0.1171875,0.9296875,-11.5859375,3.01171875,1.0
4714990,36.013451,129.31955983333333,86.52741429736031,116.61858768249695,1.2000000000000002,282.0,,-0.02734375,-1.078125,1.6875,-0.810546875,-0.798828125,0.064453125,0.0859375,-12.54296875,2.5546875,1.0
4714991,,,,,,,,0.02734375,-0.28125,1.41015625,0.671875,-0.919921875,0.3203125,1.16015625,-9.67578125,2.58984375,1.0
4714992,,,,,,,,0.01171875,0.25,1.12890625,0.59765625,-0.8828125,0.369140625,1.12109375,-9.1328125,2.36328125,1.0
4714993,,,,,,,,0.45703125,-0.01171875,0.6953125,0.4296875,-0.923828125,0.40234375,1.54296875,-9.40234375,1.9765625,1.0
4714994,,,,,,,,0.86328125,-0.39453125,0.7578125,0.22265625,-1.0078125,0.4140625,1.92578125,-9.78515625,2.0546875,1.0
4714995,,,,,,,,0.9765625,-0.15625,0.94140625,0.044921875,-1.005859375,0.404296875,2.0,-9.5546875,2.24609375,1.0
4714996,,,,,,,,0.95703125,0.03515625,0.91015625,0.046875,-0.96875,0.3984375,1.96484375,-9.36328125,2.20703125,1.0
4714997,,,,,,,,0.75,0.76953125,0.6796875,0.111328125,-0.873046875,0.3671875,1.734375,-8.63671875,1.9765625,1.0
4714998,,,,,,,,0.61328125,1.27734375,0.3984375,0.1796875,-0.81640625,0.349609375,1.58203125,-8.1328125,1.7109375,1.0
4714999,,,,,,,,0.62890625,1.734375,0.12890625,0.1875,-0.8203125,0.345703125,1.58203125,-7.6796875,1.44140625,1.0
4715000,36.01345116666666,129.3195585,86.40721628395852,116.63707970696493,1.2000000000000002,283.0,0.0,0.6953125,2.08203125,-0.15234375,-0.810546875,-0.798828125,0.064453125,0.0859375,-12.54296875,2.5546875,1.0
4715001,,,,,,,,0.98046875,2.35546875,-0.23828125,0.1015625,-0.857421875,0.32421875,1.88671875,-7.06640625,1.09765625,1.0
4715002,,,,,,,,1.02734375,2.43359375,-0.27734375,0.0859375,-0.853515625,0.322265625,1.92578125,-6.984375,1.05859375,1.0
4715003,,,,,,,,1.2734375,2.47265625,-0.27734375,0.06640625,-0.84375,0.298828125,2.15625,-6.94921875,1.05859375,1.0
4715004,,,,,,,,1.31640625,2.47265625,-0.390625,0.072265625,-0.826171875,0.296875,2.19140625,-6.94921875,0.9453125,1.0
4715005,,,,,,,,1.41796875,2.47265625,-0.4765625,0.09375,-0.796875,0.244140625,2.26953125,-6.94921875,0.8671875,1.0
4715006,,,,,,,,1.6328125,2.48046875,-1.21875,0.140625,-0.673828125,0.173828125,2.4609375,-6.94921875,0.140625,1.0
4715007,,,,,,,,1.7109375,2.39453125,-1.265625,0.14453125,-0.62890625,0.16015625,2.5390625,-7.02734375,0.1015625,1.0
4715008,,,,,,,,1.671875,2.2421875,-1.234375,0.138671875,-0.509765625,0.1328125,2.5,-7.1796875,0.140625,1.0
4715009,,,,,,,,1.55859375,2.2421875,-1.08984375,0.12890625,-0.44921875,0.11328125,2.38671875,-7.1796875,0.29296875,1.0
4715010,36.01345116666666,129.31955733333334,86.30204318116492,116.63707867317311,1.1,279.0,,1.2578125,2.1953125,-0.79296875,-0.810546875,-0.798828125,0.064453125,2.078125,-7.21875,0.59765625,1.0
4715011,,,,,,,,1.02734375,2.1953125,-0.65234375,0.201171875,-0.181640625,0.0703125,1.84765625,-7.22265625,0.75390625,1.0
4715012,,,,,,,,0.875,2.1171875,-0.70703125,0.232421875,-0.146484375,0.064453125,1.6953125,-7.296875,0.71484375,1.0
4715013,,,,,,,,0.796875,2.03515625,-0.73046875,0.275390625,-0.119140625,0.05859375,1.6171875,-7.37109375,0.71484375,1.0
4715014,,,,,,,,0.84375,1.8359375,-0.83984375,0.259765625,-0.125,0.0703125,1.65625,-7.5625,0.63671875,1.0
4715015,,,,,,,,1.03515625,1.4453125,-0.9453125,0.236328125,-0.1171875,0.07421875,1.84765625,-7.94921875,0.5625,1.0
4715016,,,,,,,,1.1953125,1.09765625,-1.0,0.224609375,-0.09765625,0.08203125,2.0,-8.29296875,0.5234375,1.0
4715017,,,,,,,,1.2734375,0.484375,-0.984375,0.2265625,-0.06640625,0.083984375,2.078125,-8.90625,0.5625,1.0
4715018,,,,,,,,1.2734375,0.203125,-0.84765625,0.2265625,-0.015625,0.078125,2.078125,-9.17578125,0.71484375,1.0
4715019,,,,,,,,1.203125,0.0859375,-0.81640625,0.234375,0.015625,0.078125,2.0,-9.2890625,0.75390625,1.0
4715020,36.01345116666666,129.3195558333333,86.16682061906033,116.63707734568308,1.2000000000000002,274.0,,0.8671875,0.01171875,-0.43359375,-0.810546875,-0.798828125,0.064453125,2.078125,-7.21875,0.59765625,1.0
4715021,,,,,,,,0.72265625,-0.03515625,-0.265625,0.2109375,0.125,0.076171875,1.50390625,-9.40234375,1.3671875,1.0
4715022,,,,,,,,0.73046875,-0.08203125,-0.0625,0.16796875,0.0859375,0.099609375,1.58203125,-9.44140625,1.671875,1.0
4715023,,,,,,,,0.84375,-0.08203125,-0.0390625,0.134765625,0.0390625,0.119140625,1.65625,-9.48046875,1.6328125,1.0
4715024,,,,,,,,1.05078125,-0.28125,-0.12890625,0.078125,-0.021484375,0.13671875,1.80859375,-9.70703125,1.48046875,1.0
4715025,,,,,,,,1.22265625,-0.625,-0.40625,-0.00390625,-0.07421875,0.15234375,1.96484375,-9.9765625,1.2890625,1.0
4715026,,,,,,,,1.2578125,-0.703125,-0.51953125,-0.044921875,-0.103515625,0.154296875,1.96484375,-10.12890625,1.17578125,1.0
4715027,,,,,,,,1.15234375,-0.81640625,-0.66015625,-0.1171875,-0.134765625,0.16015625,1.88671875,-10.16796875,1.01953125,1.0
4715028,,,,,,,,0.9375,-0.7421875,-0.65234375,-0.18359375,-0.140625,0.166015625,1.65625,-10.09765625,1.01953125,1.0
4715029,,,,,,,,0.5625,-0.42578125,-0.46484375,-0.234375,-0.107421875,0.17578125,1.2734375,-9.78125,1.17578125,1.0
4715030,36.013451,129.31955449999998,86.04662296857951,116.61858295979816,1.2000000000000002,270.0,,0.46484375,-0.2734375,-0.40625,-0.302734375,-0.091796875,0.216796875,1.16015625,-9.6328125,1.2109375,1.0
4715031,,,,,,,,0.82421875,-0.33984375,-0.05859375,-0.384765625,-0.1015625,0.251953125,1.50390625,-9.70703125,1.51953125,1.0
4715032,,,,,,,,0.9921875,-0.6015625,-0.08203125,-0.439453125,-0.099609375,0.263671875,1.65625,-9.9765625,1.48046875,1.0
4715033,,,,,,,,1.32421875,-2.47265625,-0.2578125,-0.609375,-0.1484375,0.3046875,1.96484375,-11.85546875,1.25,1.0
4715034,,,,,,,,0.7421875,-2.72265625,0.3046875,-0.826171875,-0.16796875,0.271484375,1.3515625,-12.1171875,1.7109375,1.0
4715035,,,,,,,,0.2578125,-2.515625,0.98828125,-0.771484375,0.02734375,0.203125,0.8515625,-11.93359375,2.32421875,1.0
4715036,,,,,,,,-0.18359375,-2.81640625,1.40234375,-0.662109375,0.26171875,0.17578125,0.39453125,-12.234375,2.66796875,1.0
4715037,,,,,,,,-1.15625,-3.45703125,1.9609375,-0.6875,0.265625,0.201171875,-0.6015625,-12.88671875,3.1640625,1.0
4715038,,,,,,,,-2.4375,-2.640625,3.6328125,-0.630859375,0.263671875,0.17578125,-1.90625,-12.0859375,4.7734375,1.0
4715039,,,,,,,,-2.4296875,-2.484375,3.94921875,-0.310546875,0.263671875,0.1796875,-1.90625,-11.9296875,5.04296875,1.0
4715040,36.0134505,129.31955333333332,85.9414504084948,116.56310230486153,1.1,263.0,,-2.03125,-1.671875,3.64453125,0.048828125,0.138671875,0.197265625,-1.5234375,-11.12890625,4.73828125,1.0
4715041,,,,,,,,-0.51953125,-1.63671875,3.08984375,0.1796875,-0.041015625,0.208984375,-0.02734375,-11.08984375,4.19921875,1.0
4715042,,,,,,,,-0.046875,-1.828125,2.9765625,0.14453125,-0.060546875,0.205078125,0.4296875,-11.28515625,4.0859375,1.0
4715043,,,,,,,,0.62109375,-2.171875,2.76953125,0.05859375,-0.060546875,0.166015625,1.08203125,-11.625,3.89453125,1.0
4715044,,,,,,,,0.55078125,-1.55078125,2.33203125,0.130859375,-0.0234375,0.0390625,1.00390625,-11.01171875,3.47265625,1.0
4715045,,,,,,,,-0.2578125,-0.5234375,2.046875,0.265625,-0.0390625,-0.068359375,0.203125,-9.98046875,3.203125,1.0
4715046,,,,,,,,-0.4140625,-0.25390625,1.87890625,0.3203125,-0.06640625,-0.115234375,0.046875,-9.70703125,3.05078125,1.0
4715047,,,,,,,,-0.8125,-0.0703125,1.6484375,0.328125,-0.12890625,-0.177734375,-0.3359375,-9.515625,2.859375,1.0
4715048,,,,,,,,-0.98828125,-0.37890625,1.51171875,0.23828125,-0.20703125,-0.236328125,-0.48828125,-9.8203125,2.74609375,1.0
4715049,,,,,,,,-0.98046875,-0.5703125,1.5234375,0.12109375,-0.3046875,-0.259765625,-0.44921875,-10.01953125,2.78125,1.0
4715050,36.01345033333334,129.31955216666665,85.83627748552681,116.54460806893542,1.1,261.0,,-0.8984375,-0.4921875,1.25,0.048828125,0.138671875,0.197265625,-1.5234375,-11.12890625,4.73828125,1.0
4715051,,,,,,,,-0.546875,0.11328125,0.859375,0.130859375,-0.41015625,-0.2578125,0.046875,-9.32421875,2.1328125,1.0
4715052,,,,,,,,-0.421875,0.73046875,0.56640625,0.189453125,-0.384765625,-0.234375,0.203125,-8.7109375,1.86328125,1.0
4715053,,,,,,,,-0.33203125,1.26171875,0.359375,0.23046875,-0.357421875,-0.220703125,0.31640625,-8.17578125,1.671875,1.0
4715054,,,,,,,,-0.203125,1.56640625,0.2578125,0.224609375,-0.384765625,-0.208984375,0.46875,-7.87109375,1.59375,1.0
4715055,,,,,,,,-0.1171875,1.91015625,0.015625,0.201171875,-0.451171875,-0.19921875,0.5859375,-7.52734375,1.3671875,1.0
4715056,,,,,,,,-0.03515625,2.31640625,-0.35546875,0.18359375,-0.515625,-0.19140625,0.69921875,-7.10546875,1.01953125,1.0
4715057,,,,,,,,-0.05859375,2.5546875,-0.5234375,0.154296875,-0.55859375,-0.18359375,0.69921875,-6.87890625,0.8671875,1.0
4715058,,,,,,,,-0.04296875,2.6640625,-0.609375,0.140625,-0.5703125,-0.166015625,0.73828125,-6.7578125,0.7890625,1.0
4715059,,,,,,,,-0.21875,2.625,-0.578125,0.142578125,-0.564453125,-0.134765625,0.5859375,-6.80078125,0.828125,1.0
4715060,36.013450166666665,129.319551,85.73110456481976,116.52611383258278,1.1,260.0,,-0.3515625,2.46484375,-0.5859375,0.048828125,0.138671875,0.197265625,-1.5234375,-11.12890625,4.73828125,1.0
4715061,,,,,,,,-0.51953125,2.234375,-0.578125,0.20703125,-0.517578125,-0.078125,0.31640625,-7.1796875,0.8671875,1.0
4715062,,,,,,,,-0.92578125,1.99609375,-0.640625,0.267578125,-0.498046875,-0.037109375,-0.06640625,-7.40625,0.828125,1.0
4715063,,,,,,,,-1.0859375,1.91796875,-0.625,0.291015625,-0.521484375,0.001953125,-0.21875,-7.48828125,0.8671875,1.0
4715064,,,,,,,,-1.2578125,1.59765625,-0.609375,0.302734375,-0.55078125,0.037109375,-0.375,-7.79296875,0.90625,1.0
4715065,,,,,,,,-1.21875,1.55859375,-0.59375,0.30078125,-0.57421875,0.08984375,-0.3359375,-7.828125,0.9453125,1.0
4715066,,,,,,,,-1.140625,1.55859375,-0.6875,0.306640625,-0.59765625,0.11328125,-0.2578125,-7.83203125,0.8671875,1.0
4715067,,,,,,,,-0.98828125,1.58984375,-0.6328125,0.296875,-0.634765625,0.158203125,-0.10546875,-7.79296875,0.9453125,1.0
4715068,,,,,,,,-0.828125,1.51171875,-0.84765625,0.29296875,-0.650390625,0.185546875,0.046875,-7.87109375,0.75390625,1.0
4715069,,,,,,,,-0.7421875,1.390625,-0.98828125,0.275390625,-0.66015625,0.21484375,0.125,-7.984375,0.63671875,1.0
4715070,36.01345,129.31955000000002,85.6409563720167,116.50761974576052,1.1,258.0,,-0.61328125,1.3046875,-0.93359375,0.24609375,-0.650390625,0.236328125,0.23828125,-8.0625,0.71484375,1.0
4715071,,,,,,,,-0.21484375,0.609375,-1.01171875,0.236328125,-0.6953125,0.251953125,0.62109375,-8.75,0.67578125,1.0
4715072,,,,,,,,-0.16796875,0.4921875,-0.98046875,0.22265625,-0.6953125,0.251953125,0.66015625,-8.87109375,0.71484375,1.0
4715073,,,,,,,,-0.07421875,0.30078125,-0.921875,0.2109375,-0.697265625,0.240234375,0.73828125,-9.05859375,0.7890625,1.0
4715074,,,,,,,,0.0078125,0.1796875,-0.78125,0.244140625,-0.673828125,0.220703125,0.8125,-9.171875,0.9453125,1.0
4715075,,,,,,,,0.09375,-0.12890625,-0.76171875,0.275390625,-0.638671875,0.20703125,0.890625,-9.4765625,0.98046875,1.0
4715076,,,,,,,,0.140625,-0.25,-0.84375,0.283203125,-0.619140625,0.1953125,0.9296875,-9.59765625,0.90625,1.0
4715077,,,,,,,,0.26171875,-0.48828125,-0.67578125,0.27734375,-0.591796875,0.17578125,1.04296875,-9.82421875,1.09765625,1.0
4715078,,,,,,,,0.38671875,-0.56640625,-0.515625,0.26171875,-0.5390625,0.1328125,1.16015625,-9.90234375,1.2890625,1.0
4715079,,,,,,,,0.38671875,-0.609375,-0.5234375,0.267578125,-0.517578125,0.115234375,1.16015625,-9.9375,1.2890625,1.0
4715080,36.013449666666666,129.3195486666667,85.52075889834907,116.4706321580164,1.2000000000000002,256.0,,0.42578125,-0.6484375,-0.5078125,0.24609375,-0.650390625,0.236328125,0.23828125,-8.0625,0.71484375,1.0
4715081,,,,,,,,0.26953125,-0.84765625,-0.484375,0.203125,-0.376953125,0.0625,1.04296875,-10.16796875,1.3671875,1.0
4715082,,,,,,,,0.1171875,-1.0,-0.5390625,0.138671875,-0.3125,0.041015625,0.890625,-10.32421875,1.328125,1.0
4715083,,,,,,,,0.03125,-1.046875,-0.47265625,0.1015625,-0.279296875,0.037109375,0.8125,-10.36328125,1.40234375,1.0
4715084,,,,,,,,-0.203125,-0.93359375,-0.40234375,-0.00390625,-0.1953125,0.0078125,0.5859375,-10.2421875,1.48046875,1.0
4715085,,,,,,,,-0.43359375,-0.703125,-0.31640625,-0.0625,-0.146484375,-0.01953125,0.35546875,-10.015625,1.55859375,1.0
4715086,,,,,,,,-1.1328125,-0.05078125,-0.34765625,-0.103515625,-0.10546875,-0.056640625,-0.3359375,-9.36328125,1.51953125,1.0
4715087,,,,,,,,-1.4453125,0.21484375,-0.32421875,-0.177734375,-0.12890625,-0.083984375,-0.640625,-9.09765625,1.51953125,1.0
4715088,,,,,,,,-1.8359375,0.40625,-0.38671875,-0.216796875,-0.16015625,-0.099609375,-1.0234375,-8.90625,1.44140625,1.0
4715089,,,,,,,,-2.42578125,0.5625,-0.0546875,-0.30078125,-0.263671875,-0.1171875,-1.59765625,-8.75,1.75,1.0
4715090,36.013449333333334,129.31954750000003,85.41558615330588,116.43364471870234,1.1,257.0,,-2.7890625,0.33984375,-0.24609375,-0.373046875,-0.392578125,-0.123046875,-1.9453125,-8.9765625,1.51953125,1.0
4715091,,,,,,,,-2.7734375,0.078125,-0.3984375,-0.451171875,-0.52734375,-0.123046875,-1.90625,-9.25390625,1.328125,1.0
4715092,,,,,,,,-2.62890625,-0.10546875,-0.3125,-0.572265625,-0.5859375,-0.125,-1.75390625,-9.4375,1.3671875,1.0
4715093,,,,,,,,-2.53515625,-0.171875,-0.05859375,-0.646484375,-0.65625,-0.072265625,-1.63671875,-9.51953125,1.55859375,1.0
4715094,,,,,,,,-1.671875,-1.4296875,-0.02734375,-0.693359375,-0.892578125,-0.017578125,-0.7578125,-10.78515625,1.51953125,1.0
4715095,,,,,,,,0.95703125,-5.8203125,0.40234375,-0.818359375,-1.26171875,-0.005859375,1.88671875,-15.1875,1.86328125,1.0
4715096,,,,,,,,2.42578125,-6.80859375,1.453125,-0.908203125,-1.7109375,0.01171875,3.37890625,-16.18359375,2.8203125,1.0
4715097,,,,,,,,6.6171875,-5.296875,4.07421875,-0.806640625,-2.328125,0.01171875,7.59375,-14.6875,5.34765625,1.0
4715098,,,,,,,,7.17578125,-4.5703125,5.1171875,-0.58984375,-2.54296875,0.0078125,8.16796875,-13.9609375,6.34375,1.0
4715099,,,,,,,,3.26953125,-2.6875,3.6015625,0.328125,-1.27734375,-0.154296875,4.30078125,-12.08984375,4.7734375,1.0
4715100,36.013449,129.319546,85.28036394682451,116.3966569881073,1.3,257.0,0.0,-0.875,-2.671875,2.7109375,-0.373046875,-0.392578125,-0.123046875,0.203125,-12.05078125,4.0078125,1.0
4715101,,,,,,,,-0.6796875,-2.5234375,1.8671875,0.841796875,-0.8671875,-0.16015625,0.4296875,-11.890625,3.2421875,1.0
4715102,,,,,,,,0.1015625,-1.96484375,1.26953125,0.748046875,-1.171875,-0.0546875,1.234375,-11.3125,2.70703125,1.0
4715103,,,,,,,,0.27734375,-1.19921875,0.984375,0.73828125,-1.056640625,0.0859375,1.42578125,-10.55078125,2.4765625,1.0
4715104,,,,,,,,0.1953125,-0.36328125,0.921875,0.740234375,-0.71875,0.2265625,1.3515625,-9.70703125,2.4765625,1.0
4715105,,,,,,,,0.07421875,0.62109375,0.94921875,0.59375,-0.40625,0.392578125,1.19921875,-8.71484375,2.58984375,1.0
4715106,,,,,,,,0.1640625,0.62109375,0.84375,0.521484375,-0.40234375,0.4296875,1.2734375,-8.7109375,2.515625,1.0
4715107,,,,,,,,0.47265625,0.5,0.58203125,0.37890625,-0.501953125,0.45703125,1.54296875,-8.828125,2.28515625,1.0
4715108,,,,,,,,0.53515625,0.66015625,0.47265625,0.255859375,-0.638671875,0.439453125,1.58203125,-8.67578125,2.20703125,1.0
4715109,,,,,,,,0.52734375,1.3125,0.3828125,0.2265625,-0.697265625,0.408203125,1.54296875,-8.0234375,2.1328125,1.0
4715110,36.01344866666667,129.31954466666667,85.16016647070367,116.35966940470686,1.3,256.0,,0.43359375,1.65625,0.25,0.267578125,-0.6953125,0.37109375,1.42578125,-7.68359375,2.015625,1.0
4715111,,,,,,,,0.3359375,2.30859375,-0.0390625,0.298828125,-0.697265625,0.34765625,1.3125,-7.02734375,1.75,1.0
4715112,,,,,,,,0.3125,2.5390625,-0.046875,0.296875,-0.697265625,0.3359375,1.2734375,-6.796875,1.75,1.0
4715113,,,,,,,,0.25390625,2.76171875,-0.30859375,0.28515625,-0.728515625,0.30859375,1.19921875,-6.56640625,1.51953125,1.0
4715114,,,,,,,,0.3359375,2.8359375,-0.36328125,0.26953125,-0.740234375,0.310546875,1.2734375,-6.4921875,1.48046875,1.0
4715115,,,,,,,,0.46875,2.9609375,-0.37890625,0.234375,-0.74609375,0.306640625,1.390625,-6.375,1.48046875,1.0
4715116,,,,,,,,0.7109375,3.10546875,-0.5078125,0.21875,-0.765625,0.291015625,1.6171875,-6.22265625,1.3671875,1.0
4715117,,,,,,,,0.8359375,3.10546875,-0.6015625,0.20703125,-0.765625,0.27734375,1.734375,-6.22265625,1.2890625,1.0
4715118,,,,,,,,1.234375,2.8359375,-0.80859375,0.1796875,-0.7109375,0.240234375,2.1171875,-6.4921875,1.09765625,1.0
4715119,,,,,,,,1.546875,2.64453125,-0.89453125,0.173828125,-0.671875,0.224609375,2.421875,-6.68359375,1.01953125,1.0
4715120,36.013448333333336,129.31954366666665,85.0700184496017,116.32268211570148,1.2000000000000002,252.0,,1.5859375,2.53125,-0.91796875,0.162109375,-0.466796875,0.1484375,2.4609375,-6.796875,1.01953125,1.0
4715121,,,,,,,,1.6328125,2.33203125,-0.93359375,0.1796875,-0.365234375,0.09765625,2.5,-6.984375,1.01953125,1.0
4715122,,,,,,,,1.5546875,2.140625,-0.97265625,0.189453125,-0.328125,0.076171875,2.421875,-7.1796875,0.98046875,1.0
4715123,,,,,,,,1.43359375,2.0546875,-0.95703125,0.1875,-0.255859375,0.029296875,2.30859375,-7.26171875,1.01953125,1.0
4715124,,,,,,,,1.2421875,1.77734375,-0.97265625,0.19140625,-0.162109375,-0.01171875,2.1171875,-7.5234375,1.01953125,1.0
4715125,,,,,,,,1.08203125,1.47265625,-0.91796875,0.17578125,-0.05078125,-0.046875,1.96484375,-7.828125,1.09765625,1.0
4715126,,,,,,,,0.99609375,1.16015625,-0.89453125,0.16796875,-0.029296875,-0.048828125,1.88671875,-8.13671875,1.13671875,1.0
4715127,,,,,,,,0.875,0.76953125,-0.94921875,0.173828125,0.037109375,-0.044921875,1.7734375,-8.51953125,1.09765625,1.0
4715128,,,,,,,,0.67578125,0.53125,-0.97265625,0.19921875,0.1015625,-0.033203125,1.58203125,-8.75390625,1.09765625,1.0
4715129,,,,,,,,0.59765625,0.375,-0.8671875,0.205078125,0.130859375,-0.03515625,1.50390625,-8.90625,1.2109375,1.0
4715130,36.013448000000004,129.31954233333332,84.94982097164869,116.28569453568343,1.2000000000000002,250.0,,0.63671875,0.17578125,-0.734375,0.162109375,-0.466796875,0.1484375,2.4609375,-6.796875,1.01953125,1.0
4715131,,,,,,,,0.89453125,-0.21484375,-0.5234375,0.1640625,0.166015625,-0.0234375,1.80859375,-9.48046875,1.59375,1.0
4715132,,,,,,,,1.05078125,-0.2890625,-0.4609375,0.119140625,0.16015625,-0.0234375,1.96484375,-9.5546875,1.671875,1.0
4715133,,,,,,,,1.203125,-0.296875,-0.171875,0.091796875,0.181640625,-0.021484375,2.1171875,-9.5546875,1.9765625,1.0
4715134,,,,,,,,1.36328125,-0.15234375,-0.25390625,0.08203125,0.1796875,-0.0234375,2.26953125,-9.3984375,1.90234375,1.0
4715135,,,,,,,,1.47265625,0.03125,-0.40625,0.068359375,0.16015625,-0.021484375,2.38671875,-9.2109375,1.75,1.0
4715136,,,,,,,,1.47265625,0.03125,-0.53125,0.056640625,0.14453125,-0.0234375,2.38671875,-9.2109375,1.6328125,1.0
4715137,,,,,,,,1.43359375,0.0234375,-0.73046875,-0.060546875,0.134765625,-0.025390625,2.34765625,-9.21484375,1.44140625,1.0
4715138,,,,,,,,1.04296875,-0.08203125,-0.90625,-0.166015625,0.146484375,-0.0234375,1.96484375,-9.3203125,1.25,1.0
4715139,,,,,,,,0.58984375,-0.19921875,-0.8828125,-0.267578125,0.162109375,-0.017578125,1.50390625,-9.4375,1.25,1.0
