time,latitude,longitude,enu_x,enu_y,speed,course,ecg,accX,accY,accZ,gyrX,gyrY,gyrZ,eulR,eulP,eulY,validity
612630,36.01321433333333,129.3192385,57.559908860764196,90.35799479994355,1.4000000000000001,220.0,,-0.3828125,-0.2421875,1.6953125,0.08203125,-0.232421875,0.287109375,0.234375,-9.8046875,0.92578125,1.0
612631,,,,,,,,-0.3828125,-0.3203125,1.6484375,0.439453125,0.6328125,-0.0859375,-1.03125,-9.8046875,3.53125,1.0
612632,,,,,,,,-0.44921875,-0.2109375,1.32421875,0.470703125,0.60546875,-0.11328125,-1.10546875,-9.69140625,3.22265625,1.0
612633,,,,,,,,-0.41796875,0.046875,0.765625,0.388671875,0.4921875,-0.17578125,-1.06640625,-9.421875,2.7265625,1.0
612634,,,,,,,,-0.28125,0.46875,0.2421875,0.224609375,0.46875,-0.22265625,-0.9140625,-9.0,2.2265625,1.0
612635,,,,,,,,0.0,0.73046875,-0.0859375,0.076171875,0.5234375,-0.244140625,-0.609375,-8.73046875,1.921875,1.0
612636,,,,,,,,0.03125,1.08203125,-0.23828125,0.078125,0.548828125,-0.251953125,-0.5703125,-8.38671875,1.76953125,1.0
612637,,,,,,,,0.0078125,1.6171875,-0.29296875,0.123046875,0.583984375,-0.30078125,-0.5703125,-7.8515625,1.73046875,1.0
612638,,,,,,,,0.0703125,2.00390625,-0.33984375,0.10546875,0.552734375,-0.318359375,-0.4921875,-7.4609375,1.69140625,1.0
612639,,,,,,,,0.0546875,2.15625,-0.38671875,0.080078125,0.53125,-0.330078125,-0.4921875,-7.3125,1.65234375,1.0
612640,36.0132135,129.31923766666665,57.48478559371634,90.26552827086971,1.2000000000000002,220.0,,-0.0390625,2.578125,-0.34765625,0.08203125,-0.232421875,0.287109375,0.234375,-9.8046875,0.92578125,1.0
612641,,,,,,,,-0.453125,2.77734375,-0.69921875,0.03515625,0.5234375,-0.341796875,-0.953125,-6.69921875,1.34765625,1.0
612642,,,,,,,,-0.66796875,2.9296875,-0.69921875,0.04296875,0.541015625,-0.369140625,-1.14453125,-6.546875,1.34765625,1.0
612643,,,,,,,,-0.84375,3.12109375,-0.8203125,0.052734375,0.501953125,-0.376953125,-1.296875,-6.35546875,1.234375,1.0
612644,,,,,,,,-0.9609375,3.16015625,-1.0234375,0.095703125,0.47265625,-0.404296875,-1.375,-6.3125,1.0390625,1.0
612645,,,,,,,,-1.03125,2.8515625,-0.9921875,0.154296875,0.44140625,-0.416015625,-1.4140625,-6.625,1.078125,1.0
612646,,,,,,,,-1.046875,2.73828125,-1.0,0.162109375,0.431640625,-0.42578125,-1.4140625,-6.73828125,1.078125,1.0
612647,,,,,,,,-1.078125,2.4296875,-0.9375,0.166015625,0.400390625,-0.41796875,-1.4140625,-7.05078125,1.15625,1.0
612648,,,,,,,,-1.0703125,2.1171875,-0.76171875,0.19140625,0.384765625,-0.408203125,-1.375,-7.35546875,1.34765625,1.0
612649,,,,,,,,-1.0625,1.96484375,-0.70703125,0.197265625,0.37109375,-0.392578125,-1.3359375,-7.50390625,1.42578125,1.0
612650,36.01321266666666,129.31923683333335,57.409662328929485,90.1730617402393,1.1,221.0,,-1.1328125,2.03125,-0.80078125,0.08203125,-0.232421875,0.287109375,-1.375,-7.4296875,1.34765625,1.0
612651,,,,,,,,-1.00390625,2.0234375,-0.85546875,0.17578125,0.375,-0.31640625,-1.22265625,-7.4296875,1.30859375,1.0
612652,,,,,,,,-1.01953125,1.90234375,-0.9453125,0.15234375,0.365234375,-0.267578125,-1.22265625,-7.5390625,1.234375,1.0
612653,,,,,,,,-0.98828125,1.7890625,-1.109375,0.150390625,0.359375,-0.24609375,-1.18359375,-7.66015625,1.078125,1.0
612654,,,,,,,,-0.93359375,1.3203125,-1.1640625,0.16796875,0.3359375,-0.19140625,-1.10546875,-8.12109375,1.0390625,1.0
612655,,,,,,,,-0.90234375,0.78515625,-1.109375,0.197265625,0.298828125,-0.1640625,-1.06640625,-8.6484375,1.1171875,1.0
612656,,,,,,,,-0.875,0.421875,-1.1328125,0.21484375,0.2578125,-0.142578125,-1.03125,-9.0,1.1171875,1.0
612657,,,,,,,,-0.8828125,0.109375,-1.078125,0.19921875,0.220703125,-0.126953125,-1.03125,-9.3046875,1.1953125,1.0
612658,,,,,,,,-0.890625,-0.0078125,-1.01171875,0.173828125,0.216796875,-0.126953125,-1.03125,-9.42578125,1.26953125,1.0
612659,,,,,,,,-0.93359375,-0.08984375,-0.91015625,0.130859375,0.193359375,-0.11328125,-1.06640625,-9.49609375,1.38671875,1.0
612660,36.01321216666667,129.31923566666669,57.304489271292844,90.11758143208517,1.2000000000000002,225.0,,-1.05078125,0.015625,-0.87890625,0.07421875,0.16015625,-0.1015625,-1.375,-7.4296875,1.34765625,1.0
612661,,,,,,,,-1.2109375,0.015625,-0.96484375,0.056640625,0.1328125,-0.08984375,-1.3359375,-9.38671875,1.34765625,1.0
612662,,,,,,,,-1.25,-0.0234375,-1.00390625,0.05078125,0.12109375,-0.08203125,-1.375,-9.42578125,1.30859375,1.0
612663,,,,,,,,-1.21875,-0.09765625,-1.05078125,0.056640625,0.1015625,-0.06640625,-1.3359375,-9.49609375,1.26953125,1.0
612664,,,,,,,,-1.02734375,-0.296875,-1.171875,0.0703125,0.08984375,-0.06640625,-1.14453125,-9.6875,1.15625,1.0
612665,,,,,,,,-0.99609375,-0.45703125,-1.1796875,0.087890625,0.080078125,-0.06640625,-1.10546875,-9.8359375,1.15625,1.0
612666,,,,,,,,-0.95703125,-0.49609375,-1.140625,0.080078125,0.06640625,-0.0703125,-1.06640625,-9.87890625,1.1953125,1.0
612667,,,,,,,,-0.96484375,-0.57421875,-1.2265625,0.04296875,0.03125,-0.08203125,-1.06640625,-9.953125,1.1171875,1.0
612668,,,,,,,,-0.9375,-0.49609375,-1.33203125,-0.02734375,-0.01953125,-0.107421875,-1.03125,-9.875,1.00390625,1.0
612669,,,,,,,,-0.97265625,-0.421875,-1.2578125,-0.068359375,-0.029296875,-0.12109375,-1.06640625,-9.8046875,1.078125,1.0
612670,36.013211500000004,129.31923466666666,57.21434110692116,90.04360801361544,1.2000000000000002,227.0,,-1.1796875,0.078125,-0.97265625,0.07421875,0.16015625,-0.1015625,-1.375,-7.4296875,1.34765625,1.0
612671,,,,,,,,-1.45703125,0.34375,-0.49609375,-0.220703125,-0.041015625,-0.154296875,-1.52734375,-9.0390625,1.80859375,1.0
612672,,,,,,,,-1.6328125,-0.22265625,-0.3125,-0.28515625,-0.0078125,-0.169921875,-1.6796875,-9.609375,1.9609375,1.0
612673,,,,,,,,-1.48828125,-1.5625,-0.44921875,-0.298828125,-0.00390625,-0.17578125,-1.52734375,-10.95703125,1.80859375,1.0
612674,,,,,,,,-0.5546875,-3.5078125,0.24609375,-0.353515625,0.00390625,-0.19921875,-0.5703125,-12.91015625,2.45703125,1.0
612675,,,,,,,,1.19140625,-5.03125,1.703125,-0.349609375,-0.025390625,-0.22265625,1.19140625,-14.44140625,3.875,1.0
612676,,,,,,,,3.11328125,-5.67578125,2.01171875,-0.396484375,-0.083984375,-0.244140625,3.14453125,-15.0859375,4.14453125,1.0
612677,,,,,,,,4.2421875,-3.9453125,3.0859375,-0.583984375,-0.1640625,-0.25,4.296875,-13.37109375,5.1796875,1.0
612678,,,,,,,,4.00390625,-3.27734375,3.34375,-0.72265625,-0.20703125,-0.23828125,4.06640625,-12.71484375,5.40625,1.0
612679,,,,,,,,2.62109375,-2.06640625,3.76953125,-0.845703125,-0.283203125,-0.201171875,2.72265625,-11.5234375,5.71484375,1.0
612680,36.013211,129.3192331666667,57.07911850061652,89.98812751052803,1.4000000000000001,232.0,,0.80078125,-1.78125,3.80859375,-0.693359375,-0.2109375,-0.19140625,0.92578125,-11.2578125,5.67578125,1.0
612681,,,,,,,,-0.2578125,-2.15625,3.82421875,-0.505859375,-0.009765625,-0.25390625,-0.109375,-11.64453125,5.63671875,1.0
612682,,,,,,,,-0.87890625,-2.6953125,3.03515625,-0.361328125,0.099609375,-0.27734375,-0.72265625,-12.1796875,4.83203125,1.0
612683,,,,,,,,-0.7578125,-2.75390625,2.01953125,0.033203125,0.318359375,-0.3671875,-0.5703125,-12.25,3.80078125,1.0
612684,,,,,,,,-0.54296875,-2.5234375,1.98046875,0.197265625,0.365234375,-0.416015625,-0.33984375,-12.02734375,3.76171875,1.0
612685,,,,,,,,-0.0390625,-1.68359375,2.0625,0.400390625,0.283203125,-0.48828125,0.1953125,-11.18359375,3.875,1.0
612686,,,,,,,,0.3203125,-0.92578125,1.6875,0.44921875,0.220703125,-0.505859375,0.578125,-10.41796875,3.53125,1.0
612687,,,,,,,,0.18359375,-0.2109375,1.1953125,0.505859375,0.0625,-0.435546875,0.50390625,-9.69140625,3.109375,1.0
612688,,,,,,,,-0.1640625,-0.1875,1.04296875,0.384765625,0.025390625,-0.3359375,0.1953125,-9.65234375,2.99609375,1.0
612689,,,,,,,,-0.26953125,-0.6484375,0.7265625,0.265625,0.06640625,-0.146484375,0.12109375,-10.11328125,2.7265625,1.0
612690,36.01321033333333,129.319232,56.97394555593239,89.91415399758446,1.3,234.0,,-0.31640625,-0.6953125,0.65625,-0.693359375,-0.2109375,-0.19140625,0.92578125,-11.2578125,5.67578125,1.0
612691,,,,,,,,-0.76953125,-0.1953125,0.41015625,0.125,0.2890625,0.046875,-0.37890625,-9.6484375,2.45703125,1.0
612692,,,,,,,,-0.8359375,-0.04296875,0.3203125,0.046875,0.3203125,0.083984375,-0.453125,-9.49609375,2.3828125,1.0
612693,,,,,,,,-0.96875,0.5390625,-0.01953125,-0.154296875,0.275390625,0.15625,-0.609375,-8.92578125,2.03515625,1.0
612694,,,,,,,,-0.9453125,1.16015625,-0.38671875,-0.205078125,0.228515625,0.169921875,-0.609375,-8.30859375,1.65234375,1.0
612695,,,,,,,,-0.9296875,1.43359375,-0.59765625,-0.193359375,0.2265625,0.171875,-0.609375,-8.0390625,1.42578125,1.0
612696,,,,,,,,-0.859375,1.86328125,-0.58203125,-0.142578125,0.22265625,0.1484375,-0.5703125,-7.6171875,1.42578125,1.0
612697,,,,,,,,-0.57421875,2.32421875,-0.61328125,-0.0703125,0.2109375,0.13671875,-0.30078125,-7.15625,1.38671875,1.0
612698,,,,,,,,-0.25390625,2.66796875,-0.57421875,-0.02734375,0.197265625,0.125,0.00390625,-6.8125,1.42578125,1.0
612699,,,,,,,,-0.09375,2.74609375,-0.5390625,-0.017578125,0.19140625,0.130859375,0.15625,-6.734375,1.4609375,1.0
612700,36.013209833333335,129.31923116666667,56.8988220409766,89.85867388867479,1.1,233.0,0.0,0.46875,3.3203125,-0.69140625,-0.693359375,-0.2109375,-0.19140625,0.6953125,-6.1640625,1.30859375,1.0
612701,,,,,,,,0.69140625,3.328125,-0.8046875,0.0,0.26171875,0.119140625,0.88671875,-6.16796875,1.1953125,1.0
612702,,,,,,,,1.04296875,3.17578125,-0.921875,0.0078125,0.275390625,0.109375,1.23046875,-6.3125,1.078125,1.0
612703,,,,,,,,1.25,3.0234375,-1.16015625,0.048828125,0.30859375,0.068359375,1.421875,-6.47265625,0.84765625,1.0
612704,,,,,,,,1.3046875,2.859375,-1.3671875,0.1484375,0.345703125,-0.021484375,1.4609375,-6.62890625,0.65625,1.0
612705,,,,,,,,1.3046875,2.8203125,-1.54296875,0.22265625,0.359375,-0.09375,1.4609375,-6.6640625,0.50390625,1.0
612706,,,,,,,,1.2265625,2.73828125,-1.703125,0.2265625,0.365234375,-0.126953125,1.3828125,-6.73828125,0.3515625,1.0
612707,,,,,,,,0.953125,2.61328125,-1.65625,0.17578125,0.35546875,-0.2265625,1.1171875,-6.85546875,0.4296875,1.0
612708,,,,,,,,0.58203125,2.484375,-1.55859375,0.103515625,0.349609375,-0.291015625,0.76953125,-6.96875,0.54296875,1.0
612709,,,,,,,,0.4921875,2.37890625,-1.51953125,0.072265625,0.33984375,-0.322265625,0.6953125,-7.078125,0.58203125,1.0
612710,36.01320933333333,129.31923,56.793648975908425,89.80319358389445,1.1,238.0,,0.4296875,1.94921875,-1.60546875,0.025390625,0.36328125,-0.376953125,0.6953125,-6.1640625,1.30859375,1.0
612711,,,,,,,,0.4375,1.6015625,-1.6796875,-0.015625,0.419921875,-0.41796875,0.6953125,-7.8515625,0.4296875,1.0
612712,,,,,,,,0.56640625,0.8671875,-1.64453125,-0.0390625,0.515625,-0.431640625,0.84765625,-8.58203125,0.46484375,1.0
612713,,,,,,,,0.55078125,0.67578125,-1.59765625,-0.048828125,0.564453125,-0.427734375,0.84765625,-8.765625,0.50390625,1.0
612714,,,,,,,,0.40625,0.21484375,-1.3671875,-0.05078125,0.62890625,-0.4140625,0.734375,-9.23046875,0.734375,1.0
612715,,,,,,,,0.21875,-0.01171875,-1.20703125,-0.0703125,0.638671875,-0.39453125,0.578125,-9.45703125,0.88671875,1.0
612716,,,,,,,,-0.0625,-0.16796875,-1.16796875,-0.095703125,0.634765625,-0.369140625,0.3125,-9.61328125,0.92578125,1.0
612717,,,,,,,,-0.46875,-0.2890625,-1.0390625,-0.130859375,0.701171875,-0.33203125,-0.0703125,-9.73046875,1.0390625,1.0
612718,,,,,,,,-0.6328125,-0.25,-0.9609375,-0.140625,0.712890625,-0.318359375,-0.2265625,-9.69140625,1.1171875,1.0
612719,,,,,,,,-1.11328125,-0.17578125,-0.5234375,-0.123046875,0.744140625,-0.291015625,-0.68359375,-9.61328125,1.5390625,1.0
612720,36.013208666666664,129.31922883333334,56.688476029951346,89.72922007463518,1.2000000000000002,237.0,,-1.12890625,-0.2109375,-0.4296875,0.025390625,0.36328125,-0.376953125,-0.68359375,-9.65234375,1.6171875,1.0
612721,,,,,,,,-0.82421875,-0.296875,-0.73046875,-0.064453125,0.685546875,-0.212890625,-0.37890625,-9.73046875,1.30859375,1.0
612722,,,,,,,,-0.5625,-0.41015625,-1.19140625,-0.0625,0.642578125,-0.189453125,-0.109375,-9.8359375,0.84765625,1.0
612723,,,,,,,,-0.48828125,-0.3671875,-1.3828125,-0.05859375,0.59765625,-0.169921875,-0.03515625,-9.8046875,0.65625,1.0
612724,,,,,,,,-0.3046875,-0.296875,-1.21875,-0.04296875,0.482421875,-0.130859375,0.15625,-9.7265625,0.8125,1.0
612725,,,,,,,,-0.1484375,-0.34375,-1.18359375,-0.060546875,0.3359375,-0.09375,0.3125,-9.765625,0.84765625,1.0
612726,,,,,,,,-0.03515625,-0.3828125,-1.09765625,-0.08203125,0.2578125,-0.076171875,0.42578125,-9.8046875,0.92578125,1.0
612727,,,,,,,,0.69140625,-0.7578125,-0.515625,-0.146484375,0.158203125,-0.029296875,1.15234375,-10.19140625,1.5,1.0
612728,,,,,,,,0.80859375,-3.09375,-0.30859375,-0.22265625,0.083984375,-0.005859375,1.26953125,-12.5234375,1.69140625,1.0
612729,,,,,,,,0.30859375,-4.6953125,-0.16015625,-0.291015625,0.044921875,0.0078125,0.76953125,-14.13671875,1.80859375,1.0
612730,36.013208,129.3192275,56.56827830584333,89.65524646986117,1.4000000000000001,237.0,,-0.41796875,-6.48828125,1.671875,0.025390625,0.36328125,-0.376953125,-0.68359375,-9.65234375,1.6171875,1.0
612731,,,,,,,,-1.59765625,-6.9375,2.57421875,-0.517578125,0.01953125,0.0703125,-1.14453125,-16.390625,4.44921875,1.0
612732,,,,,,,,-2.625,-7.92578125,2.3671875,-0.5625,0.083984375,0.0703125,-2.1796875,-17.3828125,4.21875,1.0
612733,,,,,,,,-2.5,-2.93359375,4.4140625,-0.595703125,0.2734375,0.072265625,-2.0625,-12.40625,6.2109375,1.0
612734,,,,,,,,-1.65234375,-0.93359375,3.51171875,-0.60546875,0.287109375,0.056640625,-1.22265625,-10.41796875,5.25390625,1.0
612735,,,,,,,,-0.640625,-0.6171875,2.80078125,-0.576171875,0.28125,0.0234375,-0.2265625,-10.11328125,4.48828125,1.0
612736,,,,,,,,1.8203125,-2.05859375,2.43359375,-0.59375,0.2265625,-0.017578125,2.2265625,-11.5625,4.06640625,1.0
612737,,,,,,,,1.97265625,-3.078125,2.3984375,0.03125,-0.158203125,-0.056640625,2.37890625,-12.60546875,3.953125,1.0
612738,,,,,,,,1.19921875,-2.625,2.2734375,0.333984375,-0.1484375,-0.052734375,1.61328125,-12.140625,3.8359375,1.0
612739,,,,,,,,0.73046875,-2.5078125,1.46875,0.431640625,-0.017578125,-0.048828125,1.15234375,-12.02734375,3.0703125,1.0
612740,36.0132075,129.31922616666668,56.44808046207177,89.59976607403344,1.4000000000000001,239.0,,0.3125,-2.6171875,0.609375,0.025390625,0.36328125,-0.376953125,0.734375,-12.14453125,2.2265625,1.0
612741,,,,,,,,0.05078125,-2.35546875,1.0390625,0.126953125,0.552734375,-0.0546875,0.46484375,-11.8671875,2.6875,1.0
612742,,,,,,,,-0.41015625,-1.27734375,1.796875,0.0,0.798828125,-0.08203125,0.00390625,-10.80078125,3.453125,1.0
612743,,,,,,,,-0.67578125,-0.9296875,1.76171875,0.025390625,0.72265625,-0.125,-0.26171875,-10.453125,3.41796875,1.0
612744,,,,,,,,-0.30078125,-0.125,0.546875,0.224609375,0.51171875,-0.232421875,0.12109375,-9.65234375,2.2265625,1.0
612745,,,,,,,,-0.02734375,0.171875,0.1328125,0.107421875,0.732421875,-0.39453125,0.42578125,-9.34765625,1.84375,1.0
612746,,,,,,,,0.32421875,0.5546875,-0.30078125,0.13671875,0.970703125,-0.466796875,0.80859375,-8.96484375,1.42578125,1.0
612747,,,,,,,,0.4453125,1.16015625,-0.734375,0.2734375,1.0078125,-0.466796875,0.9609375,-8.34765625,1.0390625,1.0
612748,,,,,,,,0.35546875,1.3515625,-0.78515625,0.27734375,0.966796875,-0.47265625,0.88671875,-8.16015625,1.00390625,1.0
612749,,,,,,,,0.1328125,1.7734375,-1.0078125,0.23828125,0.912109375,-0.498046875,0.6953125,-7.734375,0.8125,1.0
612750,36.013207,129.31922533333332,56.37295693928992,89.54428596917806,1.1,239.0,,-0.12890625,2.5703125,-0.8046875,0.025390625,0.36328125,-0.376953125,0.734375,-12.14453125,2.2265625,1.0
612751,,,,,,,,-0.3125,2.8671875,-0.6328125,0.130859375,0.927734375,-0.513671875,0.3125,-6.625,1.234375,1.0
612752,,,,,,,,-0.51171875,3.09765625,-0.375,0.125,0.927734375,-0.51953125,0.12109375,-6.39453125,1.5,1.0
612753,,,,,,,,-0.734375,3.2890625,-0.3515625,0.10546875,0.931640625,-0.521484375,-0.0703125,-6.20703125,1.5390625,1.0
612754,,,,,,,,-0.8828125,3.359375,-0.4453125,0.091796875,0.96484375,-0.51953125,-0.1875,-6.12890625,1.4609375,1.0
612755,,,,,,,,-1.3203125,3.6953125,-0.6953125,0.0625,0.974609375,-0.533203125,-0.5703125,-5.78515625,1.234375,1.0
612756,,,,,,,,-1.59765625,3.6953125,-0.8984375,0.06640625,0.966796875,-0.537109375,-0.83984375,-5.78515625,1.0390625,1.0
612757,,,,,,,,-1.94140625,3.41796875,-1.140625,0.05859375,0.927734375,-0.546875,-1.14453125,-6.046875,0.8125,1.0
612758,,,,,,,,-2.1640625,3.06640625,-1.08203125,0.06640625,0.83984375,-0.544921875,-1.3359375,-6.390625,0.88671875,1.0
612759,,,,,,,,-2.1953125,2.8671875,-1.05859375,0.083984375,0.771484375,-0.521484375,-1.3359375,-6.5859375,0.92578125,1.0
612760,36.0132065,129.31922416666666,56.26778386987119,89.48880567137911,1.1,241.0,,-2.08203125,2.140625,-0.65234375,0.107421875,0.748046875,-0.478515625,-1.18359375,-7.31640625,1.34765625,1.0
612761,,,,,,,,-1.8125,1.703125,-0.59765625,0.123046875,0.7890625,-0.400390625,-0.875,-7.73828125,1.42578125,1.0
612762,,,,,,,,-1.70703125,1.5859375,-0.53125,0.0859375,0.794921875,-0.365234375,-0.76171875,-7.85546875,1.5,1.0
612763,,,,,,,,-1.53125,1.2734375,-0.69921875,-0.0703125,0.779296875,-0.236328125,-0.5703125,-8.15625,1.34765625,1.0
612764,,,,,,,,-1.53125,0.8046875,-0.8515625,-0.041015625,0.65625,-0.140625,-0.5703125,-8.6171875,1.1953125,1.0
612765,,,,,,,,-1.53125,0.5,-0.9296875,-0.001953125,0.607421875,-0.115234375,-0.5703125,-8.921875,1.1171875,1.0
612766,,,,,,,,-1.4921875,0.30859375,-0.9375,0.017578125,0.576171875,-0.1015625,-0.53125,-9.11328125,1.1171875,1.0
612767,,,,,,,,-1.5703125,-0.12109375,-0.75390625,0.052734375,0.525390625,-0.080078125,-0.609375,-9.53515625,1.30859375,1.0
612768,,,,,,,,-1.74609375,-0.3203125,-0.53125,0.072265625,0.48046875,-0.06640625,-0.80078125,-9.7265625,1.5390625,1.0
612769,,,,,,,,-1.78515625,-0.3984375,-0.5390625,0.072265625,0.45703125,-0.060546875,-0.83984375,-9.8046875,1.5390625,1.0
612770,36.013206,129.319223,56.16261079655488,89.43332537585651,1.2000000000000002,244.0,,-1.859375,-0.47265625,-0.66015625,0.048828125,0.3984375,-0.0390625,-0.9140625,-9.87890625,1.42578125,1.0
612771,,,,,,,,-1.8828125,-0.43359375,-0.74609375,0.03125,0.3515625,-0.021484375,-0.953125,-9.8359375,1.34765625,1.0
612772,,,,,,,,-1.76171875,-0.3984375,-0.74609375,0.0234375,0.3359375,-0.0234375,-0.83984375,-9.80859375,1.34765625,1.0
612773,,,,,,,,-1.796875,-0.55078125,-0.90625,0.033203125,0.302734375,-0.0078125,-0.875,-9.953125,1.1953125,1.0
612774,,,,,,,,-1.7890625,-0.55859375,-0.984375,0.037109375,0.28515625,-0.005859375,-0.875,-9.95703125,1.1171875,1.0
612775,,,,,,,,-1.62890625,-0.40625,-1.0,0.05859375,0.21484375,0.0,-0.72265625,-9.8046875,1.1171875,1.0
612776,,,,,,,,-1.5078125,-0.44140625,-1.0078125,0.072265625,0.150390625,0.001953125,-0.609375,-9.83984375,1.1171875,1.0
612777,,,,,,,,-1.53515625,-0.3359375,-1.046875,0.0703125,0.1328125,-0.00390625,-0.64453125,-9.7265625,1.078125,1.0
612778,,,,,,,,-1.30859375,-0.25,-1.24609375,0.041015625,0.095703125,0.001953125,-0.41796875,-9.65234375,0.88671875,1.0
612779,,,,,,,,-1.19140625,-0.2578125,-1.359375,0.01171875,0.07421875,-0.00390625,-0.30078125,-9.65234375,0.7734375,1.0
612780,36.013205666666664,129.3192215,56.02738805336652,89.39633809781648,1.3,250.0,,-0.80078125,-0.3359375,-1.62109375,0.048828125,0.3984375,-0.0390625,-0.9140625,-9.87890625,1.42578125,1.0
612781,,,,,,,,-0.41015625,-0.2578125,-1.23046875,-0.08203125,0.05078125,0.0078125,0.46484375,-9.6484375,0.88671875,1.0
612782,,,,,,,,-0.44140625,0.0546875,-0.9375,-0.17578125,0.009765625,0.013671875,0.42578125,-9.34765625,1.15625,1.0
612783,,,,,,,,-0.9765625,0.015625,-0.42578125,-0.2421875,0.00390625,0.015625,-0.109375,-9.3828125,1.65234375,1.0
612784,,,,,,,,-1.16015625,-1.1328125,-0.5078125,-0.333984375,0.009765625,0.009765625,-0.30078125,-10.53515625,1.5390625,1.0
612785,,,,,,,,-0.84765625,-2.16015625,-0.09375,-0.41015625,0.0390625,0.02734375,0.00390625,-11.5625,1.921875,1.0
612786,,,,,,,,0.34765625,-2.98828125,0.87109375,-0.443359375,0.072265625,0.033203125,1.19140625,-12.40625,2.83984375,1.0
612787,,,,,,,,1.88671875,-4.05859375,2.0234375,-0.44921875,0.080078125,0.03515625,2.72265625,-13.4765625,3.953125,1.0
612788,,,,,,,,3.19921875,-5.8046875,2.66796875,-0.576171875,0.060546875,0.064453125,4.02734375,-15.2421875,4.52734375,1.0
612789,,,,,,,,3.8671875,-6.08984375,3.45703125,-0.8515625,-0.04296875,0.099609375,4.6796875,-15.546875,5.25390625,1.0
612790,36.013205666666664,129.31922,55.892165072223506,89.39633723648245,1.3,256.0,,3.375,-4.42578125,3.89453125,0.048828125,0.3984375,-0.0390625,-0.9140625,-9.87890625,1.42578125,1.0
612791,,,,,,,,1.21484375,-1.796875,4.01171875,-0.740234375,0.16015625,0.185546875,1.99609375,-11.296875,5.59765625,1.0
612792,,,,,,,,0.54296875,-1.70703125,4.23828125,-0.66796875,0.287109375,0.19140625,1.30859375,-11.22265625,5.79296875,1.0
612793,,,,,,,,-0.9296875,-2.15625,3.9453125,-0.443359375,0.470703125,0.15625,-0.1875,-11.6796875,5.4453125,1.0
612794,,,,,,,,-0.98828125,-2.04296875,2.92578125,-0.287109375,0.533203125,0.138671875,-0.26171875,-11.56640625,4.41015625,1.0
612795,,,,,,,,-0.8046875,-1.61328125,2.390625,0.234375,0.587890625,0.072265625,-0.109375,-11.14453125,3.875,1.0
612796,,,,,,,,-0.21484375,-0.703125,1.53125,0.5546875,0.580078125,-0.0546875,0.46484375,-10.2265625,3.0703125,1.0
612797,,,,,,,,-0.0625,-0.35546875,1.234375,0.609375,0.517578125,-0.076171875,0.6171875,-9.87890625,2.8046875,1.0
612798,,,,,,,,0.08984375,0.05078125,0.640625,0.615234375,0.357421875,-0.052734375,0.76953125,-9.45703125,2.265625,1.0
612799,,,,,,,,-0.0625,0.01953125,0.6875,0.591796875,0.302734375,-0.021484375,0.6171875,-9.4921875,2.34375,1.0
612800,36.013205500000005,129.31921849999998,55.75694220822567,89.3778431701778,1.3,259.0,0.0,-0.0546875,-0.296875,0.82421875,0.048828125,0.3984375,-0.0390625,0.6171875,-9.8046875,2.53515625,1.0
612801,,,,,,,,-0.078125,-0.37890625,0.890625,0.4140625,0.298828125,0.134765625,0.578125,-9.87890625,2.6484375,1.0
612802,,,,,,,,-0.28515625,-0.1484375,0.625,0.283203125,0.357421875,0.189453125,0.34765625,-9.6484375,2.421875,1.0
612803,,,,,,,,-0.50390625,0.5,0.4453125,-0.03515625,0.423828125,0.27734375,0.08203125,-9.00390625,2.265625,1.0
612804,,,,,,,,-0.42578125,0.84765625,0.33984375,-0.166015625,0.458984375,0.3359375,0.12109375,-8.65234375,2.15234375,1.0
612805,,,,,,,,-0.3125,1.12890625,0.125,-0.220703125,0.4921875,0.359375,0.234375,-8.12109375,1.5390625,1.0
612806,,,,,,,,-0.25,1.3984375,-0.2578125,-0.205078125,0.505859375,0.353515625,0.1953125,-8.00390625,1.38671875,1.0
612807,,,,,,,,-0.30078125,1.94921875,-0.6171875,-0.12890625,0.544921875,0.314453125,0.12109375,-7.08203125,1.0390625,1.0
612808,,,,,,,,-0.26171875,2.640625,-0.76171875,-0.048828125,0.53515625,0.279296875,0.1953125,-6.625,1.0390625,1.0
612809,,,,,,,,-0.0859375,3.0703125,-0.75390625,0.08203125,0.54296875,0.23046875,0.2734375,-6.39453125,1.00390625,1.0
612810,36.013205166666665,129.31921766666667,55.68181856794514,89.3408562771191,1.0,260.0,,-0.0546875,-0.296875,0.82421875,0.103515625,0.57421875,0.220703125,0.46484375,-6.35546875,0.96484375,1.0
612811,,,,,,,,0.24609375,3.10546875,-0.82421875,0.09375,0.619140625,0.21484375,0.6953125,-6.625,0.7734375,1.0
612812,,,,,,,,0.453125,2.90625,-1.0234375,0.0859375,0.6640625,0.21484375,0.76953125,-6.7734375,0.7734375,1.0
612813,,,,,,,,0.73828125,2.515625,-1.0703125,0.09375,0.732421875,0.1953125,0.80859375,-7.27734375,0.8125,1.0
612814,,,,,,,,0.66796875,2.25,-1.0078125,0.10546875,0.744140625,0.18359375,0.6953125,-7.4609375,0.88671875,1.0
612815,,,,,,,,0.5078125,1.90234375,-0.87109375,0.109375,0.75,0.15234375,0.578125,-7.73828125,0.96484375,1.0
612816,,,,,,,,0.34765625,1.63671875,-0.7734375,0.060546875,0.73828125,0.10546875,0.34765625,-7.8515625,1.078125,1.0
612817,,,,,,,,0.28515625,1.6640625,-0.7734375,0.03125,0.73828125,0.0859375,0.3125,-7.88671875,1.0390625,1.0
612818,,,,,,,,0.1953125,1.6640625,-0.85546875,-0.03125,0.71875,0.033203125,0.1953125,-7.88671875,0.92578125,1.0
612819,,,,,,,,0.15625,1.62890625,-0.93359375,-0.05078125,0.716796875,0.001953125,0.34765625,-8.04296875,0.84765625,1.0
612820,36.013205166666665,129.3192165,55.576645138520185,89.34085561119083,1.0,262.0,,-0.0546875,-0.296875,0.82421875,0.103515625,0.57421875,0.220703125,0.3125,-8.0,0.65625,1.0
612821,,,,,,,,0.1875,1.4375,-1.29296875,-0.083984375,0.7109375,-0.091796875,0.08203125,-8.16015625,0.46484375,1.0
612822,,,,,,,,0.08203125,1.359375,-1.36328125,-0.048828125,0.693359375,-0.12890625,-0.03515625,-8.30859375,0.50390625,1.0
612823,,,,,,,,-0.109375,0.8984375,-1.28515625,0.00390625,0.673828125,-0.142578125,-0.109375,-8.73046875,0.54296875,1.0
612824,,,,,,,,-0.1171875,0.671875,-1.24609375,0.029296875,0.662109375,-0.154296875,0.04296875,-9.0703125,0.65625,1.0
612825,,,,,,,,0.04296875,0.43359375,-1.1328125,0.033203125,0.66796875,-0.16015625,0.08203125,-9.109375,0.6953125,1.0
612826,,,,,,,,0.07421875,0.39453125,-1.1328125,0.044921875,0.689453125,-0.158203125,0.00390625,-9.23046875,0.62109375,1.0
612827,,,,,,,,-0.15625,0.1640625,-1.25390625,0.068359375,0.7265625,-0.16015625,-0.33984375,-9.3828125,0.50390625,1.0
612828,,,,,,,,-0.38671875,0.125,-1.26171875,0.078125,0.693359375,-0.15234375,-0.4921875,-9.421875,0.62109375,1.0
612829,,,,,,,,-0.5,0.078125,-1.22265625,0.091796875,0.68359375,-0.142578125,-0.72265625,-9.49609375,0.88671875,1.0
612830,36.013205,129.31921499999999,55.44142227259407,89.32236154928547,1.2000000000000002,263.0,,-0.84765625,-0.1484375,-0.703125,0.103515625,0.57421875,0.220703125,-0.83984375,-9.6484375,1.15625,1.0
612831,,,,,,,,-0.76953125,-0.41796875,-0.55859375,0.12890625,0.662109375,-0.10546875,-0.76171875,-9.9140625,1.30859375,1.0
612832,,,,,,,,-0.4921875,-0.65625,-0.44921875,0.115234375,0.66015625,-0.087890625,-0.4921875,-10.15234375,1.42578125,1.0
612833,,,,,,,,-0.453125,-0.84765625,-0.49609375,0.091796875,0.646484375,-0.08203125,-0.453125,-10.3359375,1.38671875,1.0
612834,,,,,,,,-0.37109375,-0.92578125,-0.50390625,0.0546875,0.642578125,-0.078125,-0.37890625,-10.41796875,1.38671875,1.0
612835,,,,,,,,-0.32421875,-0.47265625,-0.19921875,0.01953125,0.5625,-0.076171875,-0.33984375,-9.95703125,1.69140625,1.0
612836,,,,,,,,0.05859375,0.02734375,-0.3515625,-0.013671875,0.4453125,-0.080078125,0.04296875,-9.45703125,1.5390625,1.0
612837,,,,,,,,0.6328125,0.41015625,-0.58203125,-0.021484375,0.365234375,-0.09375,0.6171875,-9.07421875,1.30859375,1.0
612838,,,,,,,,0.86328125,0.33203125,-0.65625,-0.02734375,0.330078125,-0.099609375,0.84765625,-9.15234375,1.234375,1.0
612839,,,,,,,,1.359375,-0.5859375,-0.6875,-0.0546875,0.26953125,-0.111328125,1.34375,-10.0703125,1.1953125,1.0
612840,36.013205166666665,129.31921366666666,55.32122395089216,89.34085399919057,1.2000000000000002,265.0,,0.96875,-2.08984375,-0.375,0.103515625,0.57421875,0.220703125,-0.83984375,-9.6484375,1.15625,1.0
612841,,,,,,,,0.7421875,-3.26953125,-0.25,-0.078125,0.23046875,-0.111328125,0.734375,-12.75390625,1.6171875,1.0
612842,,,,,,,,0.46484375,-4.53125,0.98046875,-0.154296875,0.263671875,-0.08984375,0.46484375,-14.01953125,2.83984375,1.0
612843,,,,,,,,-0.5703125,-6.48828125,1.54296875,-0.337890625,0.373046875,-0.0625,-0.5703125,-15.96875,3.37890625,1.0
612844,,,,,,,,-1.3359375,-8.00390625,1.63671875,-0.615234375,0.521484375,-0.02734375,-1.3359375,-17.5,3.41796875,1.0
612845,,,,,,,,-2.6015625,-3.78125,4.03515625,-0.755859375,0.6796875,-0.0390625,-2.6015625,-13.29296875,5.75390625,1.0
612846,,,,,,,,-2.66015625,-2.6171875,3.8828125,-0.69921875,0.712890625,-0.0703125,-2.67578125,-12.14453125,5.5234375,1.0
612847,,,,,,,,-0.70703125,-1.64453125,2.0234375,-0.66015625,0.740234375,-0.109375,-0.72265625,-11.1796875,3.609375,1.0
612848,,,,,,,,0.90234375,-2.2109375,2.24609375,-0.712890625,0.802734375,-0.146484375,0.88671875,-11.76171875,3.76171875,1.0
612849,,,,,,,,1.66796875,-2.921875,2.390625,-0.685546875,0.71484375,-0.134765625,1.65234375,-12.484375,3.8359375,1.0
612850,36.01320533333333,129.31921233333333,55.20102562981466,89.3593464512723,1.2000000000000002,267.0,,0.94140625,-2.25390625,2.1328125,0.068359375,0.6328125,-0.181640625,0.92578125,-11.828125,3.53125,1.0
612851,,,,,,,,-0.1875,-1.11328125,0.73046875,0.27734375,0.7265625,-0.12109375,-0.1875,-10.6796875,2.19140625,1.0
612852,,,,,,,,-0.63671875,-0.5,1.34765625,0.19140625,1.296875,-0.125,-0.64453125,-10.0703125,2.83984375,1.0
612853,,,,,,,,-0.71484375,-0.42578125,1.53125,0.216796875,1.3671875,-0.13671875,-0.72265625,-9.99609375,3.03125,1.0
612854,,,,,,,,-0.78515625,-0.30859375,1.69140625,0.388671875,1.333984375,-0.19140625,-0.80078125,-9.87890625,3.22265625,1.0
612855,,,,,,,,-1.015625,-0.1640625,1.1484375,0.52734375,1.189453125,-0.24609375,-1.03125,-9.7265625,2.7265625,1.0
612856,,,,,,,,-1.13671875,0.71875,0.375,0.48046875,1.126953125,-0.310546875,-1.14453125,-8.84375,2.0,1.0
612857,,,,,,,,-1.10546875,1.24609375,0.09765625,0.341796875,1.15625,-0.373046875,-1.10546875,-8.3046875,1.76953125,1.0
612858,,,,,,,,-0.84765625,1.51171875,-0.03515625,0.28125,1.154296875,-0.37890625,-0.83984375,-8.04296875,1.65234375,1.0
612859,,,,,,,,-0.609375,2.1171875,-0.33203125,0.208984375,1.0234375,-0.3984375,-0.5703125,-7.43359375,1.38671875,1.0
612860,36.013205500000005,129.31921133333333,55.110876859631865,89.3778390934711,1.1,269.0,,-0.28125,2.46484375,-0.546875,0.24609375,0.94921875,-0.37890625,-0.2265625,-7.08203125,1.1953125,1.0
612861,,,,,,,,-0.32421875,2.73046875,-0.515625,0.2578125,0.91796875,-0.365234375,-0.26171875,-6.81640625,1.234375,1.0
612862,,,,,,,,-0.34765625,2.921875,-0.43359375,0.259765625,0.88671875,-0.3359375,-0.26171875,-6.625,1.34765625,1.0
612863,,,,,,,,-0.34765625,2.8828125,-0.44140625,0.24609375,0.884765625,-0.32421875,-0.26171875,-6.6640625,1.34765625,1.0
612864,,,,,,,,-0.44921875,2.953125,-0.51953125,0.20703125,0.951171875,-0.30859375,-0.33984375,-6.58984375,1.30859375,1.0
612865,,,,,,,,-0.640625,2.9140625,-0.6015625,0.19140625,0.962890625,-0.298828125,-0.53125,-6.625,1.234375,1.0
612866,,,,,,,,-0.83984375,2.9453125,-0.6953125,0.18359375,0.9765625,-0.3046875,-0.72265625,-6.58984375,1.15625,1.0
612867,,,,,,,,-1.23828125,3.08984375,-0.796875,0.19921875,0.994140625,-0.328125,-1.10546875,-6.4296875,1.078125,1.0
612868,,,,,,,,-1.36328125,3.12890625,-0.8125,0.208984375,0.9921875,-0.341796875,-1.22265625,-6.390625,1.078125,1.0
612869,,,,,,,,-1.68359375,2.890625,-0.890625,0.26171875,0.939453125,-0.39453125,-1.52734375,-6.625,1.0390625,1.0
612870,36.013205500000005,129.31921,54.99067865527408,89.37783834001098,1.1,271.0,,-1.62890625,2.43359375,-0.921875,0.28125,0.896484375,-0.421875,-1.44921875,-7.078125,1.0390625,1.0
612871,,,,,,,,-1.40234375,1.796875,-0.66015625,0.27734375,0.85546875,-0.408203125,-1.18359375,-7.69921875,1.34765625,1.0
612872,,,,,,,,-1.41796875,1.796875,-0.59765625,0.275390625,0.865234375,-0.404296875,-1.18359375,-7.6953125,1.42578125,1.0
612873,,,,,,,,-1.35546875,1.75,-0.40234375,0.25390625,0.865234375,-0.365234375,-1.10546875,-7.734375,1.65234375,1.0
612874,,,,,,,,-1.40234375,1.7421875,-0.453125,0.224609375,0.857421875,-0.34765625,-1.14453125,-7.73828125,1.6171875,1.0
612875,,,,,,,,-1.5625,1.6953125,-0.74609375,0.14453125,0.86328125,-0.25390625,-1.296875,-7.77734375,1.34765625,1.0
612876,,,,,,,,-1.80078125,1.2265625,-0.9140625,0.142578125,0.861328125,-0.20703125,-1.52734375,-8.23828125,1.1953125,1.0
612877,,,,,,,,-1.9140625,0.84375,-0.84765625,0.162109375,0.85546875,-0.185546875,-1.640625,-8.62109375,1.26953125,1.0
612878,,,,,,,,-1.9375,0.37109375,-0.81640625,0.26953125,0.78125,-0.181640625,-1.6796875,-9.0703125,1.34765625,1.0
612879,,,,,,,,-2.015625,0.1015625,-0.71875,0.2734375,0.751953125,-0.185546875,-1.7578125,-9.34375,1.4609375,1.0
612880,36.01320583333334,129.31920883333333,54.88550499478028,89.41482409702812,1.1,276.0,,-2.12890625,-0.17578125,-0.625,0.28125,0.896484375,-0.421875,-1.44921875,-7.078125,1.0390625,1.0
612881,,,,,,,,-2.20703125,-0.2578125,-0.640625,0.185546875,0.587890625,-0.19921875,-1.94921875,-9.69140625,1.578125,1.0
612882,,,,,,,,-2.24609375,-0.375,-0.58203125,0.134765625,0.5,-0.19921875,-1.98828125,-9.80859375,1.65234375,1.0
612883,,,,,,,,-2.21484375,-0.3828125,-0.6328125,0.115234375,0.419921875,-0.193359375,-1.94921875,-9.8046875,1.6171875,1.0
612884,,,,,,,,-1.9453125,-0.42578125,-0.52734375,0.111328125,0.365234375,-0.17578125,-1.6796875,-9.83984375,1.73046875,1.0
612885,,,,,,,,-1.609375,-0.6953125,-0.46484375,0.1328125,0.328125,-0.166015625,-1.3359375,-10.11328125,1.80859375,1.0
612886,,,,,,,,-1.5390625,-0.62890625,-0.47265625,0.1484375,0.2734375,-0.158203125,-1.2578125,-10.03515625,1.80859375,1.0
612887,,,,,,,,-1.65625,-0.59765625,-0.60546875,0.138671875,0.208984375,-0.150390625,-1.375,-9.9921875,1.69140625,1.0
612888,,,,,,,,-1.86328125,-0.44140625,-1.00390625,0.11328125,0.146484375,-0.154296875,-1.56640625,-9.8359375,1.30859375,1.0
612889,,,,,,,,-1.71875,-0.375,-1.28125,0.05859375,0.02734375,-0.16796875,-1.4140625,-9.76953125,1.0390625,1.0
612890,36.01320616666667,129.31920766666664,54.780331333305185,89.45180985631009,1.1,285.0,,-1.38671875,-0.22265625,-1.6328125,0.021484375,-0.041015625,-0.177734375,-1.06640625,-9.61328125,0.6953125,1.0
612891,,,,,,,,-0.9453125,-0.11328125,-1.6640625,0.0,-0.087890625,-0.1875,-0.609375,-9.49609375,0.65625,1.0
612892,,,,,,,,-0.9140625,-0.07421875,-1.5859375,-0.017578125,-0.099609375,-0.197265625,-0.5703125,-9.453125,0.734375,1.0
612893,,,,,,,,-0.8125,0.0390625,-1.28125,-0.07421875,-0.138671875,-0.201171875,-0.453125,-9.34375,1.0390625,1.0
612894,,,,,,,,-0.8203125,0.0390625,-1.2265625,-0.119140625,-0.162109375,-0.203125,-0.453125,-9.34375,1.078125,1.0
612895,,,,,,,,-0.96875,-0.6796875,-1.0390625,-0.2890625,-0.19921875,-0.185546875,-0.5703125,-10.07421875,1.234375,1.0
612896,,,,,,,,-0.59375,-2.25,-0.3984375,-0.390625,-0.189453125,-0.158203125,-0.1875,-11.64453125,1.84375,1.0
612897,,,,,,,,-0.1796875,-2.93359375,-0.06640625,-0.453125,-0.1796875,-0.1484375,0.234375,-12.33203125,2.15234375,1.0
612898,,,,,,,,1.56640625,-4.87109375,1.20703125,-0.580078125,-0.103515625,-0.10546875,2.609375,-14.78125,3.875,1.0
612899,,,,,,,,2.171875,-5.36328125,1.7265625,-0.609375,-0.0859375,-0.08984375,3.4921875,-15.2421875,4.375,1.0
612900,36.013206833333335,129.31920666666667,54.69018222185264,89.52578212336645,1.2000000000000002,295.0,0.0,-1.38671875,-0.22265625,-1.6328125,-0.736328125,-0.05859375,-0.0546875,-1.06640625,-9.61328125,0.6953125,1.0
612901,,,,,,,,5.3125,-7.4765625,3.32421875,-1.009765625,-0.021484375,-0.01953125,5.7109375,-16.546875,5.5625,1.0
612902,,,,,,,,5.3046875,-4.5859375,4.3671875,-0.994140625,0.0078125,0.0078125,5.25390625,-12.83203125,6.09765625,1.0
612903,,,,,,,,3.62890625,-1.5078125,3.96484375,-0.81640625,0.15234375,0.013671875,4.06640625,-10.99609375,5.79296875,1.0
612904,,,,,,,,1.60546875,-0.9453125,4.73828125,-0.611328125,0.45703125,0.001953125,2.03515625,-10.45703125,6.48046875,1.0
612905,,,,,,,,-0.2734375,-1.0859375,4.1796875,-0.357421875,0.791015625,-0.068359375,0.15625,-10.609375,5.8671875,1.0
612906,,,,,,,,-0.5703125,-1.0078125,3.66015625,-0.1953125,0.88671875,-0.091796875,-0.1484375,-10.53125,5.33203125,1.0
612907,,,,,,,,-0.90625,-0.51171875,2.2890625,0.30859375,0.9375,-0.1953125,-0.4921875,-10.03125,3.953125,1.0
612908,,,,,,,,-0.68359375,0.79296875,0.73828125,0.666015625,0.8828125,-0.37890625,-0.26171875,-8.73046875,2.45703125,1.0
612909,,,,,,,,-0.59375,0.80859375,0.515625,0.642578125,0.423828125,-0.416015625,-0.109375,-8.6875,2.3828125,1.0
612910,36.0132075,129.3192055,54.58500833713475,89.59975430003284,1.3,300.0,,-0.01171875,-0.55859375,1.65625,0.484375,0.33203125,-0.302734375,0.50390625,-10.03125,3.609375,1.0
612911,,,,,,,,0.30859375,-0.44921875,1.41796875,0.337890625,0.435546875,-0.20703125,0.84765625,-9.91796875,3.41796875,1.0
612912,,,,,,,,0.30859375,-0.296875,1.20703125,0.111328125,0.5234375,-0.103515625,0.84765625,-9.76953125,3.22265625,1.0
612913,,,,,,,,0.28515625,0.24609375,0.81640625,-0.16796875,0.564453125,0.03515625,0.80859375,-9.23046875,2.83984375,1.0
612914,,,,,,,,0.37890625,0.75390625,0.53515625,-0.390625,0.595703125,0.16015625,0.88671875,-8.7265625,2.53515625,1.0
612915,,,,,,,,0.41796875,0.953125,0.22265625,-0.400390625,0.6484375,0.232421875,0.88671875,-8.54296875,2.19140625,1.0
612916,,,,,,,,0.39453125,1.07421875,0.08984375,-0.34375,0.6796875,0.240234375,0.84765625,-8.42578125,2.03515625,1.0
612917,,,,,,,,0.06640625,1.54296875,-0.390625,-0.140625,0.73828125,0.216796875,0.46484375,-7.96484375,1.5390625,1.0
612918,,,,,,,,-0.01953125,2.15625,-0.53515625,-0.06640625,0.703125,0.15625,0.34765625,-7.35546875,1.38671875,1.0
612919,,,,,,,,-0.0390625,2.30859375,-0.61328125,-0.037109375,0.669921875,0.12109375,0.3125,-7.1953125,1.30859375,1.0
612920,36.013208,129.31920433333335,54.47983456677611,89.65523326983956,1.2000000000000002,299.0,,0.12890625,2.5078125,-0.6875,0.484375,0.33203125,-0.302734375,0.46484375,-7.0078125,1.234375,1.0
612921,,,,,,,,0.4140625,2.73828125,-0.6953125,0.056640625,0.63671875,0.037109375,0.734375,-6.7734375,1.234375,1.0
612922,,,,,,,,0.7890625,2.6171875,-0.7890625,0.068359375,0.708984375,0.025390625,1.078125,-6.890625,1.15625,1.0
612923,,,,,,,,0.96484375,2.38671875,-0.796875,0.064453125,0.76171875,0.041015625,1.23046875,-7.12109375,1.15625,1.0
612924,,,,,,,,0.8671875,2.1953125,-0.69140625,0.068359375,0.8046875,0.046875,1.1171875,-7.31640625,1.26953125,1.0
612925,,,,,,,,0.734375,2.078125,-0.66796875,0.060546875,0.84375,0.052734375,0.9609375,-7.4296875,1.30859375,1.0
612926,,,,,,,,0.70703125,2.04296875,-0.58984375,0.0546875,0.869140625,0.048828125,0.92578125,-7.46484375,1.38671875,1.0
612927,,,,,,,,0.765625,1.96484375,-0.59765625,0.052734375,0.90625,0.033203125,0.9609375,-7.54296875,1.38671875,1.0
612928,,,,,,,,0.59765625,2.1171875,-0.55859375,0.025390625,0.94140625,0.015625,0.76953125,-7.390625,1.42578125,1.0
612929,,,,,,,,0.31640625,2.0703125,-0.9140625,-0.013671875,0.94921875,-0.01953125,0.46484375,-7.43359375,1.078125,1.0
612930,36.013208666666664,129.31920333333335,54.38968545811284,89.72920554116959,1.2000000000000002,301.0,,0.1015625,1.88671875,-1.02734375,0.484375,0.33203125,-0.302734375,0.234375,-7.62109375,0.96484375,1.0
612931,,,,,,,,-0.00390625,1.765625,-1.02734375,-0.0078125,0.88671875,-0.12109375,0.12109375,-7.734375,0.96484375,1.0
612932,,,,,,,,-0.08203125,1.765625,-1.02734375,0.00390625,0.86328125,-0.146484375,0.04296875,-7.734375,0.96484375,1.0
612933,,,,,,,,-0.08203125,1.7265625,-1.15234375,0.0234375,0.80859375,-0.197265625,0.04296875,-7.7734375,0.84765625,1.0
612934,,,,,,,,-0.04296875,1.71875,-1.1875,0.060546875,0.80078125,-0.22265625,0.08203125,-7.7734375,0.8125,1.0
612935,,,,,,,,0.015625,1.52734375,-1.234375,0.041015625,0.775390625,-0.216796875,0.15625,-7.9609375,0.7734375,1.0
612936,,,,,,,,0.171875,1.2578125,-1.2421875,0.0234375,0.7734375,-0.208984375,0.3125,-8.234375,0.7734375,1.0
612937,,,,,,,,0.4375,0.6015625,-0.66796875,0.017578125,0.75,-0.16796875,0.578125,-8.8828125,1.34765625,1.0
612938,,,,,,,,0.32421875,0.2109375,-0.58984375,-0.00390625,0.720703125,-0.134765625,0.46484375,-9.26953125,1.42578125,1.0
612939,,,,,,,,0.24609375,-0.05078125,-0.5234375,-0.037109375,0.71484375,-0.119140625,0.38671875,-9.53515625,1.5,1.0
612940,36.01320933333333,129.31920216666668,54.28451157559411,89.8031777209327,1.2000000000000002,302.0,,0.09375,-0.203125,-0.36328125,-0.087890625,0.705078125,-0.09765625,0.234375,-9.69140625,1.65234375,1.0
612941,,,,,,,,-0.01171875,-0.48046875,-0.30859375,-0.1328125,0.703125,-0.0703125,0.12109375,-9.953125,1.69140625,1.0
612942,,,,,,,,0.15625,-1.0078125,-0.140625,-0.14453125,0.748046875,-0.048828125,0.2734375,-10.4921875,1.84375,1.0
612943,,,,,,,,0.078125,-1.125,0.015625,-0.15234375,0.7734375,-0.037109375,0.1953125,-10.61328125,2.0,1.0
612944,,,,,,,,-0.02734375,-1.4296875,0.18359375,-0.177734375,0.787109375,-0.009765625,0.08203125,-10.91796875,2.15234375,1.0
612945,,,,,,,,-0.33984375,-1.27734375,0.3203125,-0.1640625,0.775390625,0.00390625,-0.26171875,-10.76171875,2.265625,1.0
612946,,,,,,,,-0.21875,-0.39453125,0.0,-0.15234375,0.7265625,0.009765625,-0.1484375,-9.875,1.921875,1.0
612947,,,,,,,,0.29296875,0.71484375,-0.6796875,-0.15625,0.703125,0.009765625,0.34765625,-8.76953125,1.234375,1.0
612948,,,,,,,,0.83984375,1.25,-1.09375,-0.16796875,0.703125,0.0078125,0.88671875,-8.23828125,0.8125,1.0
612949,,,,,,,,1.3515625,1.22265625,-1.5,-0.1796875,0.681640625,-0.009765625,1.3828125,-8.265625,0.390625,1.0
612950,36.01321,129.31920116666666,54.19436246778511,89.87714999541315,1.2000000000000002,303.0,,2.08984375,-0.42578125,-1.9375,-0.162109375,0.6171875,-0.044921875,2.11328125,-9.9140625,-0.0703125,1.0
612951,,,,,,,,2.171875,-1.921875,-1.1953125,-0.103515625,0.52734375,-0.08203125,2.1875,-11.4140625,0.65625,1.0
612952,,,,,,,,2.02734375,-2.45703125,-0.87890625,-0.1171875,0.517578125,-0.083984375,2.03515625,-11.94921875,0.96484375,1.0
612953,,,,,,,,1.26171875,-3.484375,-0.44140625,-0.21484375,0.5625,-0.083984375,1.26953125,-12.984375,1.38671875,1.0
612954,,,,,,,,0.49609375,-4.05859375,0.1484375,-0.3125,0.6171875,-0.080078125,0.50390625,-13.55859375,1.9609375,1.0
612955,,,,,,,,-0.26171875,-4.84765625,1.828125,-0.75390625,0.8125,-0.0234375,-0.26171875,-14.359375,3.5703125,1.0
612956,,,,,,,,-0.82421875,-6.70703125,1.8359375,-1.08203125,0.984375,-0.033203125,-0.83984375,-16.234375,3.4921875,1.0
612957,,,,,,,,-1.12890625,-7.04296875,1.9296875,-1.134765625,1.072265625,-0.0703125,-1.14453125,-16.58203125,3.53125,1.0
612958,,,,,,,,-2.73046875,-3.19921875,2.5,-1.017578125,1.119140625,-0.162109375,-2.75390625,-12.75390625,3.9921875,1.0
612959,,,,,,,,-2.76953125,-2.53125,2.046875,-0.875,1.0234375,-0.23046875,-2.79296875,-12.1015625,3.453125,1.0
612960,36.013210666666666,129.3192,54.08918858867669,89.95112217735861,1.2000000000000002,305.0,,-0.37890625,-2.34765625,2.359375,-0.748046875,0.966796875,-0.248046875,-0.37890625,-11.94921875,3.609375,1.0
612961,,,,,,,,0.86328125,-2.8359375,2.85546875,0.087890625,0.986328125,-0.20703125,0.88671875,-12.4453125,4.02734375,1.0
612962,,,,,,,,0.5546875,-2.26171875,2.4296875,0.26953125,0.98046875,-0.16015625,0.578125,-11.8671875,3.609375,1.0
612963,,,,,,,,-0.171875,-1.2265625,1.5078125,0.314453125,1.037109375,-0.068359375,-0.1484375,-10.83984375,2.7265625,1.0
612964,,,,,,,,-0.546875,-0.578125,1.1484375,0.291015625,1.1875,-0.04296875,-0.53125,-10.1875,2.3828125,1.0
612965,,,,,,,,-0.953125,-0.15625,1.15625,0.2734375,1.634765625,0.01171875,-0.953125,-9.765625,2.421875,1.0
612966,,,,,,,,-1.28125,-0.30078125,1.4453125,0.32421875,1.708984375,0.0078125,-1.296875,-9.9140625,2.7265625,1.0
612967,,,,,,,,-1.57421875,-0.26953125,1.484375,0.51171875,1.7265625,-0.083984375,-1.60546875,-9.87890625,2.8046875,1.0
612968,,,,,,,,-1.640625,-0.00390625,1.14453125,0.6015625,1.66796875,-0.138671875,-1.6796875,-9.609375,2.49609375,1.0
612969,,,,,,,,-1.7578125,0.51953125,0.5546875,0.626953125,1.404296875,-0.30078125,-1.796875,-9.07421875,2.0,1.0
612970,36.01321133333333,129.31919883333333,53.984014711993936,90.0250943606133,1.3,306.0,,-1.6484375,1.20703125,0.140625,0.52734375,1.318359375,-0.341796875,-1.6796875,-8.38671875,1.6171875,1.0
612971,,,,,,,,-1.16015625,1.9296875,-0.4375,0.298828125,1.20703125,-0.39453125,-1.18359375,-7.66015625,1.078125,1.0
612972,,,,,,,,-1.08984375,2.08203125,-0.55859375,0.21875,1.171875,-0.41015625,-1.10546875,-7.50390625,0.96484375,1.0
612973,,,,,,,,-0.69921875,2.34765625,-0.5234375,0.21484375,1.083984375,-0.4140625,-0.68359375,-7.23828125,1.0390625,1.0
612974,,,,,,,,-0.71484375,2.42578125,-0.453125,0.2578125,1.0625,-0.3984375,-0.68359375,-7.16015625,1.1171875,1.0
612975,,,,,,,,-0.6328125,2.48828125,-0.20703125,0.271484375,1.0859375,-0.328125,-0.5703125,-7.078125,1.42578125,1.0
612976,,,,,,,,-0.6875,2.37109375,-0.421875,0.19140625,1.12890625,-0.302734375,-0.609375,-7.1953125,1.234375,1.0
612977,,,,,,,,-0.72265625,2.2578125,-0.4296875,0.150390625,1.138671875,-0.291015625,-0.64453125,-7.3125,1.234375,1.0
612978,,,,,,,,-0.953125,2.296875,-0.33203125,0.11328125,1.125,-0.29296875,-0.875,-7.2734375,1.34765625,1.0
612979,,,,,,,,-1.078125,2.296875,-0.33984375,0.109375,1.107421875,-0.29296875,-0.9921875,-7.2734375,1.34765625,1.0
612980,36.01321216666667,129.31919783333333,53.89386549962777,90.11755984667465,1.3,308.0,,-1.55078125,2.37109375,-0.31640625,0.52734375,1.318359375,-0.341796875,-1.44921875,-7.1953125,1.38671875,1.0
612981,,,,,,,,-1.8359375,2.32421875,-0.37109375,0.171875,0.91015625,-0.36328125,-1.71875,-7.234375,1.34765625,1.0
612982,,,,,,,,-1.890625,2.25,-0.43359375,0.17578125,0.869140625,-0.369140625,-1.7578125,-7.3125,1.30859375,1.0
612983,,,,,,,,-1.76171875,2.1640625,-0.33203125,0.197265625,0.861328125,-0.36328125,-1.60546875,-7.390625,1.42578125,1.0
612984,,,,,,,,-1.66015625,2.1640625,-0.28125,0.2421875,0.849609375,-0.349609375,-1.48828125,-7.39453125,1.5,1.0
612985,,,,,,,,-1.6015625,2.109375,-0.234375,0.263671875,0.828125,-0.31640625,-1.4140625,-7.43359375,1.578125,1.0
612986,,,,,,,,-1.64453125,2.03515625,-0.25,0.265625,0.8125,-0.291015625,-1.44921875,-7.5,1.578125,1.0
612987,,,,,,,,-1.69140625,1.94921875,-0.2734375,0.26171875,0.796875,-0.259765625,-1.48828125,-7.58203125,1.578125,1.0
612988,,,,,,,,-1.73046875,1.875,-0.296875,0.255859375,0.78515625,-0.22265625,-1.52734375,-7.66015625,1.578125,1.0
612989,,,,,,,,-1.77734375,1.51953125,-0.4453125,0.26953125,0.783203125,-0.193359375,-1.56640625,-8.00390625,1.4609375,1.0
612990,36.013213,129.31919699999997,53.81874105872568,90.2100254224867,1.2000000000000002,313.0,,-1.84375,1.16796875,-0.54296875,0.52734375,1.318359375,-0.341796875,-1.44921875,-7.1953125,1.38671875,1.0
612991,,,,,,,,-1.8515625,0.77734375,-0.57421875,0.267578125,0.681640625,-0.15234375,-1.640625,-8.7265625,1.38671875,1.0
612992,,,,,,,,-1.81640625,0.5390625,-0.55078125,0.263671875,0.642578125,-0.15234375,-1.60546875,-8.96484375,1.42578125,1.0
612993,,,,,,,,-1.69140625,0.30859375,-0.4609375,0.2421875,0.576171875,-0.15234375,-1.48828125,-9.1875,1.5390625,1.0
612994,,,,,,,,-1.69140625,0.26171875,-0.46875,0.234375,0.548828125,-0.146484375,-1.48828125,-9.2265625,1.5390625,1.0
612995,,,,,,,,-1.69140625,0.171875,-0.4609375,0.173828125,0.458984375,-0.1328125,-1.48828125,-9.30859375,1.578125,1.0
612996,,,,,,,,-1.69140625,0.09375,-0.63671875,0.1015625,0.380859375,-0.10546875,-1.48828125,-9.3828125,1.42578125,1.0
612997,,,,,,,,-1.72265625,-0.296875,-0.68359375,0.08203125,0.3046875,-0.07421875,-1.52734375,-9.765625,1.38671875,1.0
612998,,,,,,,,-1.80078125,-0.6015625,-0.6171875,0.083984375,0.2734375,-0.060546875,-1.60546875,-10.07421875,1.4609375,1.0
612999,,,,,,,,-1.75390625,-0.6875,-0.5859375,0.08203125,0.26171875,-0.056640625,-1.56640625,-10.1484375,1.5,1.0
613000,36.01321383333333,129.3191965,53.77366617379273,90.30249118535545,1.0,321.0,0.0,-1.63671875,-0.765625,-0.5546875,0.52734375,1.318359375,-0.341796875,-1.44921875,-10.23046875,1.5390625,1.0
613001,,,,,,,,-1.40234375,-0.765625,-0.67578125,0.0390625,0.20703125,-0.048828125,-1.22265625,-10.23046875,1.42578125,1.0
613002,,,,,,,,-1.171875,-0.734375,-0.78515625,-0.0078125,0.18359375,-0.03515625,-0.9921875,-10.1875,1.30859375,1.0
613003,,,,,,,,-0.703125,-0.53515625,-1.08984375,-0.041015625,0.150390625,-0.0234375,-0.53125,-9.9921875,1.00390625,1.0
613004,,,,,,,,-0.51171875,-0.34375,-1.046875,-0.056640625,0.119140625,-0.025390625,-0.33984375,-9.8046875,1.0390625,1.0
613005,,,,,,,,-0.50390625,0.1171875,-1.11328125,-0.0703125,0.095703125,-0.037109375,-0.33984375,-9.34375,0.96484375,1.0
613006,,,,,,,,-0.84765625,0.6171875,-1.19140625,-0.125,0.076171875,-0.052734375,-0.68359375,-8.84765625,0.88671875,1.0
613007,,,,,,,,-1.26953125,0.65234375,-0.74609375,-0.169921875,0.052734375,-0.078125,-1.10546875,-8.8046875,1.30859375,1.0
613008,,,,,,,,-1.0390625,-1.484375,-0.5703125,-0.236328125,0.0390625,-0.12109375,-0.875,-10.95703125,1.4609375,1.0
613009,,,,,,,,-0.40625,-2.13671875,0.15234375,-0.291015625,0.04296875,-0.142578125,-0.2265625,-11.6015625,2.15234375,1.0
613010,36.01321466666666,129.31919616666667,53.743616057932485,90.39495703879537,1.1,332.0,,0.69921875,-2.73828125,1.33203125,-0.359375,0.056640625,-0.150390625,0.88671875,-12.21484375,3.30078125,1.0
613011,,,,,,,,1.5703125,-3.69140625,1.79296875,-0.4453125,0.076171875,-0.140625,1.765625,-13.17578125,3.72265625,1.0
613012,,,,,,,,2.453125,-5.03125,2.16015625,-0.5,0.083984375,-0.12890625,2.6484375,-14.51953125,4.06640625,1.0
613013,,,,,,,,3.43359375,-5.89453125,2.984375,-0.828125,0.03125,-0.068359375,3.64453125,-15.390625,4.796875,1.0
613014,,,,,,,,4.4375,-4.4921875,4.44921875,-0.923828125,-0.0078125,-0.009765625,4.640625,-14.015625,6.17578125,1.0
613015,,,,,,,,3.25,-2.44921875,4.02734375,-0.841796875,0.013671875,0.013671875,3.453125,-11.984375,5.67578125,1.0
613016,,,,,,,,1.984375,-1.47265625,4.14453125,-0.7890625,0.13671875,0.009765625,2.1875,-11.0234375,5.71484375,1.0
613017,,,,,,,,0.4140625,-1.0078125,4.55859375,-0.81640625,0.296875,-0.037109375,0.6171875,-10.57421875,6.05859375,1.0
613018,,,,,,,,-0.765625,-0.953125,3.40234375,-0.587890625,0.44140625,-0.05859375,-0.5703125,-10.53515625,4.83203125,1.0
613019,,,,,,,,-0.7265625,-0.9921875,2.96875,-0.3359375,0.515625,-0.099609375,-0.53125,-10.57421875,4.375,1.0
613020,36.013215833333334,129.31919566666664,53.698540944418156,90.52440921749881,1.2000000000000002,340.0,,-0.20703125,-0.71484375,1.609375,-0.359375,0.056640625,-0.150390625,0.00390625,-10.30078125,3.03125,1.0
613021,,,,,,,,-0.10546875,-0.1875,1.71875,0.5546875,0.6328125,-0.34375,0.12109375,-9.76953125,3.1875,1.0
613022,,,,,,,,-0.3125,-0.078125,1.73046875,0.625,0.435546875,-0.3515625,-0.0703125,-9.6484375,3.26171875,1.0
613023,,,,,,,,-0.25390625,-0.078125,1.35546875,0.609375,0.341796875,-0.3203125,0.00390625,-9.65234375,2.91796875,1.0
613024,,,,,,,,-0.16015625,-0.1328125,1.22265625,0.53125,0.2578125,-0.232421875,0.12109375,-9.6875,2.83984375,1.0
613025,,,,,,,,-0.16796875,-0.09375,1.140625,0.396484375,0.31640625,-0.138671875,0.12109375,-9.6484375,2.8046875,1.0
613026,,,,,,,,-0.20703125,-0.02734375,1.0625,0.16015625,0.48828125,0.0078125,0.08203125,-9.57421875,2.765625,1.0
613027,,,,,,,,-0.15234375,0.05859375,0.77734375,0.001953125,0.5,0.095703125,0.12109375,-9.49609375,2.49609375,1.0
613028,,,,,,,,-0.12890625,0.25,0.5078125,-0.099609375,0.49609375,0.1484375,0.12109375,-9.30859375,2.2265625,1.0
613029,,,,,,,,-0.17578125,0.5546875,-0.05859375,-0.177734375,0.50390625,0.181640625,0.04296875,-9.0,1.65234375,1.0
613030,36.01321666666667,129.31919533333334,53.66849083498062,90.6168750713393,1.2000000000000002,341.0,,-0.19140625,0.82421875,-0.30859375,-0.2265625,0.48828125,0.197265625,0.00390625,-8.73046875,1.38671875,1.0
613031,,,,,,,,-0.3515625,1.1015625,-0.33203125,-0.21875,0.466796875,0.197265625,-0.1875,-8.4609375,1.34765625,1.0
613032,,,,,,,,-0.34375,1.21484375,-0.31640625,-0.20703125,0.443359375,0.189453125,-0.1875,-8.34375,1.34765625,1.0
613033,,,,,,,,-0.3515625,1.4609375,-0.34765625,-0.1640625,0.439453125,0.16015625,-0.2265625,-8.12109375,1.30859375,1.0
613034,,,,,,,,-0.3359375,1.765625,-0.26171875,-0.15625,0.4375,0.14453125,-0.2265625,-7.8125,1.38671875,1.0
613035,,,,,,,,-0.203125,1.921875,-0.28515625,-0.146484375,0.443359375,0.125,-0.109375,-7.65625,1.34765625,1.0
613036,,,,,,,,0.01171875,2.1484375,-0.26953125,-0.150390625,0.4765625,0.12109375,0.08203125,-7.4296875,1.34765625,1.0
613037,,,,,,,,0.1796875,2.3125,-0.23046875,-0.1484375,0.484375,0.12890625,0.234375,-7.27734375,1.38671875,1.0
613038,,,,,,,,0.51171875,2.3125,-0.29296875,-0.10546875,0.5625,0.15234375,0.54296875,-7.27734375,1.30859375,1.0
613039,,,,,,,,0.6015625,2.1953125,-0.3671875,-0.080078125,0.583984375,0.14453125,0.6171875,-7.390625,1.234375,1.0
613040,36.0132175,129.31919483333334,53.62341594831497,90.70934083481475,1.0,342.0,,0.6796875,2.3125,-0.359375,-0.2265625,0.48828125,0.197265625,0.00390625,-8.73046875,1.38671875,1.0
613041,,,,,,,,0.6328125,2.38671875,-0.33203125,0.095703125,0.66015625,0.138671875,0.578125,-7.19921875,1.26953125,1.0
613042,,,,,,,,0.65625,2.42578125,-0.30078125,0.14453125,0.6796875,0.119140625,0.578125,-7.15625,1.30859375,1.0
613043,,,,,,,,0.62890625,2.2734375,-0.390625,0.166015625,0.68359375,0.1015625,0.54296875,-7.3125,1.234375,1.0
613044,,,,,,,,0.45703125,1.99609375,-0.6015625,0.1875,0.68359375,0.064453125,0.34765625,-7.58203125,1.0390625,1.0
613045,,,,,,,,0.21484375,2.10546875,-0.75390625,0.203125,0.66796875,-0.044921875,0.08203125,-7.46484375,0.92578125,1.0
613046,,,,,,,,0.0625,1.8984375,-0.87109375,0.185546875,0.609375,-0.140625,-0.0703125,-7.66015625,0.84765625,1.0
613047,,,,,,,,0.09765625,1.62890625,-0.76953125,0.16796875,0.564453125,-0.173828125,-0.03515625,-7.921875,0.96484375,1.0
613048,,,,,,,,0.25390625,1.20703125,-0.73828125,0.166015625,0.560546875,-0.189453125,0.12109375,-8.34765625,1.00390625,1.0
613049,,,,,,,,0.3984375,0.81640625,-0.6875,0.189453125,0.5625,-0.208984375,0.2734375,-8.73046875,1.078125,1.0
613050,36.0132185,129.31919466666668,53.608390498377005,90.82029998833649,1.1,347.0,,0.390625,0.30859375,-0.625,0.1953125,0.55078125,-0.220703125,0.2734375,-9.23046875,1.15625,1.0
613051,,,,,,,,0.375,-0.00390625,-0.5625,0.1328125,0.513671875,-0.220703125,0.2734375,-9.53125,1.234375,1.0
613052,,,,,,,,0.21484375,0.03515625,-0.53515625,0.103515625,0.5078125,-0.212890625,0.12109375,-9.49609375,1.26953125,1.0
613053,,,,,,,,-0.140625,0.1796875,-0.50390625,0.06640625,0.5078125,-0.197265625,-0.2265625,-9.34765625,1.30859375,1.0
613054,,,,,,,,-0.17578125,0.1796875,-0.43359375,0.046875,0.513671875,-0.18359375,-0.26171875,-9.34375,1.38671875,1.0
613055,,,,,,,,-0.109375,-0.01171875,-0.2421875,-0.005859375,0.525390625,-0.154296875,-0.1875,-9.53125,1.578125,1.0
613056,,,,,,,,-0.03125,-0.125,-0.2421875,-0.017578125,0.546875,-0.142578125,-0.109375,-9.65234375,1.578125,1.0
613057,,,,,,,,0.04296875,-0.77734375,-0.12109375,0.0078125,0.572265625,-0.099609375,-0.03515625,-10.296875,1.69140625,1.0
613058,,,,,,,,-0.03125,-1.0859375,-0.12890625,0.03515625,0.56640625,-0.103515625,-0.109375,-10.609375,1.69140625,1.0
613059,,,,,,,,0.04296875,-0.85546875,-0.25,0.07421875,0.53515625,-0.09375,-0.03515625,-10.375,1.578125,1.0
613060,36.0132195,129.31919433333331,53.5783402735371,90.93125904992803,1.1,348.0,,0.08203125,-0.671875,-0.328125,0.1953125,0.55078125,-0.220703125,0.2734375,-9.23046875,1.15625,1.0
613061,,,,,,,,0.2734375,-0.2109375,-0.56640625,0.0703125,0.439453125,-0.0859375,0.1953125,-9.7265625,1.26953125,1.0
613062,,,,,,,,0.54296875,0.44140625,-0.99609375,0.052734375,0.400390625,-0.0859375,0.46484375,-9.07421875,0.84765625,1.0
613063,,,,,,,,0.8046875,0.77734375,-1.26171875,0.01953125,0.373046875,-0.0859375,0.734375,-8.7265625,0.58203125,1.0
613064,,,,,,,,1.30859375,1.046875,-1.4140625,-0.017578125,0.3359375,-0.076171875,1.23046875,-8.4609375,0.4296875,1.0
613065,,,,,,,,1.953125,0.890625,-1.37890625,-0.0234375,0.2890625,-0.05078125,1.8828125,-8.6171875,0.46484375,1.0
613066,,,,,,,,2.53515625,-0.71875,-0.796875,-0.05859375,0.28515625,-0.03515625,2.45703125,-10.23046875,1.0390625,1.0
613067,,,,,,,,2.03515625,-2.671875,-0.28125,-0.2109375,0.361328125,-0.0078125,1.95703125,-12.18359375,1.5390625,1.0
613068,,,,,,,,1.1640625,-4.203125,0.32421875,-0.3359375,0.466796875,0.009765625,1.078125,-13.71484375,2.11328125,1.0
613069,,,,,,,,0.13671875,-5.4609375,2.31640625,-0.501953125,0.58984375,0.029296875,0.04296875,-14.9765625,4.06640625,1.0
613070,36.01322066666667,129.31919416666668,53.563314713864685,91.06071141245536,1.2000000000000002,351.0,,-0.7890625,-6.32421875,3.03125,-0.841796875,0.833984375,0.05078125,0.2734375,-9.23046875,1.15625,1.0
613071,,,,,,,,-1.76953125,-4.9296875,3.921875,-0.994140625,0.990234375,0.025390625,-1.91015625,-14.4765625,5.484375,1.0
613072,,,,,,,,-2.296875,-3.95703125,3.9296875,-0.982421875,1.021484375,0.013671875,-2.4453125,-13.515625,5.4453125,1.0
613073,,,,,,,,-2.20703125,-2.25390625,3.44140625,-0.896484375,1.037109375,-0.03125,-2.37109375,-11.83203125,4.87109375,1.0
613074,,,,,,,,-1.31640625,-1.828125,3.11328125,-0.85546875,1.046875,-0.060546875,-1.48828125,-11.41796875,4.44921875,1.0
613075,,,,,,,,0.99609375,-2.73046875,3.0390625,-0.8046875,0.994140625,-0.02734375,0.80859375,-12.33203125,4.296875,1.0
613076,,,,,,,,1.45703125,-3.11328125,3.15625,-0.712890625,0.9296875,-0.015625,1.26953125,-12.7109375,4.375,1.0
613077,,,,,,,,0.98046875,-1.06640625,2.15234375,0.326171875,0.916015625,-0.009765625,0.76953125,-10.68359375,3.33984375,1.0
613078,,,,,,,,0.69140625,-0.80859375,1.75390625,0.3515625,1.123046875,-0.03515625,0.46484375,-10.41796875,2.99609375,1.0
613079,,,,,,,,0.4296875,-0.80859375,1.62109375,0.310546875,1.29296875,-0.033203125,0.1953125,-10.41796875,2.87890625,1.0
613080,36.01322183333333,129.319194,53.548289152620875,91.19016377381053,1.3,350.0,,-0.25,-0.73046875,2.2109375,0.287109375,1.591796875,-0.080078125,-0.4921875,-10.3359375,3.4921875,1.0
613081,,,,,,,,-0.89453125,-0.5390625,1.7734375,0.48046875,1.5625,-0.173828125,-1.14453125,-10.1484375,3.109375,1.0
613082,,,,,,,,-0.78125,0.02734375,0.73828125,0.470703125,1.37890625,-0.23828125,-1.03125,-9.5703125,2.11328125,1.0
613083,,,,,,,,-0.7421875,0.49609375,0.40234375,0.404296875,1.2890625,-0.279296875,-0.9921875,-9.11328125,1.80859375,1.0
613084,,,,,,,,-0.640625,0.640625,0.30078125,0.14453125,1.12109375,-0.37109375,-0.9140625,-8.76953125,1.578125,1.0
613085,,,,,,,,-0.62109375,1.0625,0.0546875,0.15625,1.060546875,-0.41015625,-0.83984375,-8.54296875,1.5,1.0
613086,,,,,,,,-0.48828125,1.33984375,-0.03515625,0.23828125,1.013671875,-0.439453125,-0.68359375,-8.26953125,1.42578125,1.0
613087,,,,,,,,-0.51953125,1.66796875,-0.13671875,0.287109375,1.015625,-0.447265625,-0.72265625,-7.7734375,1.42578125,1.0
613088,,,,,,,,-0.58203125,1.97265625,-0.0234375,0.29296875,1.015625,-0.44140625,-0.72265625,-7.6171875,1.5,1.0
613089,,,,,,,,-0.60546875,2.1640625,0.0703125,0.248046875,1.025390625,-0.404296875,-0.72265625,-7.4296875,1.6171875,1.0
613090,36.01322283333333,129.31919383333334,53.533263703866496,91.30112292830411,1.2000000000000002,349.0,,-0.66796875,2.43359375,0.16796875,0.18359375,1.052734375,-0.36328125,-0.76171875,-7.16015625,1.73046875,1.0
613091,,,,,,,,-0.8828125,2.5859375,0.05859375,0.1328125,1.109375,-0.310546875,-0.953125,-7.0078125,1.65234375,1.0
613092,,,,,,,,-1.3515625,2.6640625,-0.0703125,0.12890625,1.09765625,-0.310546875,-1.4140625,-6.93359375,1.5390625,1.0
613093,,,,,,,,-1.625,2.81640625,-0.125,0.138671875,1.056640625,-0.3203125,-1.6796875,-6.7734375,1.5,1.0
613094,,,,,,,,-1.7578125,2.80859375,-0.140625,0.17578125,1.001953125,-0.330078125,-1.796875,-6.7734375,1.5,1.0
613095,,,,,,,,-1.7734375,2.80859375,-0.26953125,0.208984375,0.96484375,-0.349609375,-1.796875,-6.77734375,1.38671875,1.0
613096,,,,,,,,-1.7421875,2.72265625,-0.28515625,0.220703125,0.9453125,-0.3515625,-1.7578125,-6.85546875,1.38671875,1.0
613097,,,,,,,,-1.640625,2.609375,-0.30859375,0.232421875,0.927734375,-0.33984375,-1.640625,-6.96875,1.38671875,1.0
613098,,,,,,,,-1.61328125,2.5625,-0.32421875,0.240234375,0.921875,-0.3359375,-1.60546875,-7.0078125,1.38671875,1.0
613099,,,,,,,,-1.51953125,2.5234375,-0.32421875,0.23046875,0.892578125,-0.294921875,-1.48828125,-7.05078125,1.42578125,1.0
613100,36.01322366666667,129.31919383333334,53.5332631408017,91.39358896671135,1.1,352.0,0.0,-1.3359375,2.40234375,-0.41796875,0.22265625,0.87890625,-0.27734375,-1.296875,-7.16015625,1.34765625,1.0
613101,,,,,,,,-1.18359375,2.28125,-0.40234375,0.20703125,0.83984375,-0.23046875,-1.14453125,-7.2734375,1.38671875,1.0
613102,,,,,,,,-1.10546875,2.1640625,-0.48828125,0.1796875,0.791015625,-0.1875,-1.06640625,-7.390625,1.30859375,1.0
613103,,,,,,,,-1.14453125,2.08203125,-0.5859375,0.1484375,0.74609375,-0.140625,-1.10546875,-7.4609375,1.234375,1.0
613104,,,,,,,,-1.22265625,1.8515625,-0.83203125,0.142578125,0.669921875,-0.1171875,-1.18359375,-7.69921875,1.00390625,1.0
613105,,,,,,,,-1.22265625,1.57421875,-0.95703125,0.123046875,0.578125,-0.107421875,-1.18359375,-7.9609375,0.88671875,1.0
613106,,,,,,,,-1.17578125,1.4140625,-1.00390625,0.119140625,0.541015625,-0.10546875,-1.14453125,-8.12109375,0.84765625,1.0
613107,,,,,,,,-1.13671875,0.6484375,-0.98046875,0.126953125,0.484375,-0.087890625,-1.10546875,-8.8828125,0.88671875,1.0
613108,,,,,,,,-1.21484375,-0.01171875,-0.58203125,0.123046875,0.43359375,-0.080078125,-1.18359375,-9.53515625,1.30859375,1.0
613109,,,,,,,,-1.16796875,-0.31640625,-0.2734375,0.109375,0.42578125,-0.076171875,-1.14453125,-9.83984375,1.6171875,1.0
613110,36.013224666666666,129.31919383333334,53.53326246469163,91.5045482118029,1.0,356.0,,-1.08984375,-0.6328125,-0.13671875,0.22265625,0.87890625,-0.27734375,-1.06640625,-10.1484375,1.76953125,1.0
613111,,,,,,,,-1.12890625,-0.86328125,-0.21484375,-0.015625,0.3359375,-0.05078125,-1.10546875,-10.37890625,1.69140625,1.0
613112,,,,,,,,-1.12109375,-1.015625,-0.2890625,-0.052734375,0.29296875,-0.046875,-1.10546875,-10.53125,1.6171875,1.0
613113,,,,,,,,-0.9296875,-1.1015625,-0.47265625,-0.111328125,0.1953125,-0.03125,-0.9140625,-10.61328125,1.42578125,1.0
613114,,,,,,,,-0.72265625,-1.1015625,-0.53515625,-0.041015625,0.099609375,-0.01953125,-0.72265625,-10.61328125,1.34765625,1.0
613115,,,,,,,,-0.33984375,-0.79296875,-0.8046875,0.025390625,0.07421875,-0.021484375,-0.33984375,-10.30078125,1.078125,1.0
613116,,,,,,,,-0.26171875,-0.75390625,-0.99609375,0.05078125,0.08203125,-0.01953125,-0.26171875,-10.26171875,0.88671875,1.0
613117,,,,,,,,0.15625,-0.75390625,-1.30859375,0.0703125,0.115234375,-0.015625,0.15625,-10.26171875,0.58203125,1.0
613118,,,,,,,,0.47265625,-0.91796875,-1.39453125,0.07421875,0.1171875,-0.009765625,0.46484375,-10.4140625,0.50390625,1.0
613119,,,,,,,,0.55078125,-0.953125,-1.31640625,0.06640625,0.125,-0.001953125,0.54296875,-10.453125,0.58203125,1.0
613120,36.01322566666667,129.31919416666668,53.56331133091958,91.61550764124557,1.1,6.0,,0.40234375,-0.71875,-1.09375,0.22265625,0.87890625,-0.27734375,-1.06640625,-10.1484375,1.76953125,1.0
613121,,,,,,,,-0.27734375,-0.1875,-1.02734375,-0.03515625,0.13671875,-0.03515625,-0.30078125,-9.69140625,0.88671875,1.0
613122,,,,,,,,-0.46875,0.04296875,-0.8671875,-0.09375,0.1640625,-0.037109375,-0.4921875,-9.45703125,1.0390625,1.0
613123,,,,,,,,-1.234375,0.65625,-0.734375,-0.2109375,0.220703125,-0.03125,-1.2578125,-8.84375,1.15625,1.0
613124,,,,,,,,-1.7734375,0.73828125,-0.48046875,-0.310546875,0.294921875,-0.01953125,-1.796875,-8.76953125,1.38671875,1.0
613125,,,,,,,,-1.796875,-0.140625,-0.6796875,-0.345703125,0.361328125,-0.01953125,-1.8359375,-9.65234375,1.15625,1.0
613126,,,,,,,,-1.71875,-0.51953125,-0.7734375,-0.32421875,0.400390625,-0.025390625,-1.7578125,-10.03515625,1.0390625,1.0
613127,,,,,,,,-1.25,-1.09375,-0.85546875,-0.287109375,0.4453125,-0.033203125,-1.296875,-10.609375,0.92578125,1.0
613128,,,,,,,,-0.5546875,-1.28515625,0.00390625,-0.296875,0.455078125,-0.02734375,-0.609375,-10.796875,1.76953125,1.0
613129,,,,,,,,0.0,-2.5703125,0.6796875,-0.419921875,0.412109375,0.029296875,-0.0703125,-12.1015625,2.3828125,1.0
613130,36.013226833333334,129.31919466666668,53.6083848557962,91.7449603696037,1.2000000000000002,14.0,,2.04296875,-6.2421875,2.44140625,-0.6875,0.353515625,0.134765625,1.95703125,-15.78125,4.06640625,1.0
613131,,,,,,,,3.234375,-5.18359375,4.96484375,-0.796875,0.384765625,0.24609375,3.109375,-14.7421875,6.48046875,1.0
613132,,,,,,,,2.4296875,-3.05859375,4.8125,-0.7421875,0.34375,0.271484375,2.265625,-12.6328125,6.25,1.0
613133,,,,,,,,1.33984375,-2.1015625,4.34765625,-0.78125,0.2734375,0.259765625,1.15234375,-11.6796875,5.75390625,1.0
613134,,,,,,,,0.59765625,-2.40234375,4.38671875,-0.923828125,0.107421875,0.224609375,0.38671875,-11.98828125,5.71484375,1.0
613135,,,,,,,,-0.56640625,-2.1875,4.35546875,-0.79296875,0.19921875,0.234375,-0.80078125,-11.80078125,5.59765625,1.0
613136,,,,,,,,-0.9921875,-1.2265625,2.6875,-0.271484375,0.515625,0.171875,-1.2578125,-10.8359375,3.875,1.0
613137,,,,,,,,-0.55859375,-0.078125,1.1875,0.50390625,0.671875,0.009765625,-0.83984375,-9.69140625,2.3828125,1.0
613138,,,,,,,,-0.5859375,0.3046875,1.0703125,0.751953125,0.69140625,-0.064453125,-0.875,-9.3046875,2.3046875,1.0
613139,,,,,,,,-0.90234375,0.87109375,0.9453125,0.865234375,0.609375,-0.119140625,-1.18359375,-8.73046875,2.265625,1.0
613140,36.013228000000005,129.31919516666667,53.65345838100218,91.87441309954997,1.3,17.0,,-0.86328125,0.5546875,1.05859375,-0.6875,0.353515625,0.134765625,1.95703125,-15.78125,4.06640625,1.0
613141,,,,,,,,-0.7109375,-0.21875,1.171875,0.87890625,0.44140625,-0.064453125,-0.9921875,-9.8046875,2.6484375,1.0
613142,,,,,,,,-0.59375,-0.42578125,1.125,0.837890625,0.423828125,0.0,-0.875,-9.99609375,2.6875,1.0
613143,,,,,,,,-0.50390625,-0.203125,0.82421875,0.662109375,0.568359375,0.0625,-0.80078125,-9.76953125,2.45703125,1.0
613144,,,,,,,,-0.38671875,0.171875,0.5234375,0.255859375,0.630859375,0.201171875,-0.72265625,-9.38671875,2.2265625,1.0
613145,,,,,,,,-0.26953125,0.81640625,0.125,-0.015625,0.546875,0.259765625,-0.64453125,-8.7265625,1.84375,1.0
613146,,,,,,,,-0.37109375,1.12109375,0.01953125,-0.099609375,0.51171875,0.265625,-0.76171875,-8.42578125,1.73046875,1.0
613147,,,,,,,,-0.5078125,1.3203125,-0.234375,-0.134765625,0.533203125,0.248046875,-0.953125,-8.234375,1.4609375,1.0
613148,,,,,,,,-0.58984375,1.703125,-0.33203125,-0.087890625,0.51953125,0.193359375,-1.06640625,-7.8515625,1.34765625,1.0
613149,,,,,,,,-0.359375,2.01953125,-0.4375,-0.005859375,0.44921875,0.130859375,-0.875,-7.54296875,1.234375,1.0
613150,36.013229,129.31919566666664,53.69853201381535,91.98537262102452,1.1,17.0,,0.09375,2.35546875,-0.484375,0.078125,0.451171875,0.09765625,1.95703125,-15.78125,4.06640625,1.0
613151,,,,,,,,0.4921875,2.546875,-0.453125,0.11328125,0.517578125,0.099609375,-0.0703125,-7.01171875,1.234375,1.0
613152,,,,,,,,0.58203125,2.546875,-0.4609375,0.12890625,0.53515625,0.09765625,0.00390625,-7.0078125,1.234375,1.0
613153,,,,,,,,0.75,2.47265625,-0.546875,0.13671875,0.56640625,0.09765625,0.15625,-7.078125,1.15625,1.0
613154,,,,,,,,0.7578125,2.39453125,-0.546875,0.150390625,0.578125,0.095703125,0.15625,-7.15625,1.15625,1.0
613155,,,,,,,,0.78125,2.234375,-0.5234375,0.15234375,0.578125,0.07421875,0.15625,-7.3125,1.1953125,1.0
613156,,,,,,,,0.61328125,1.875,-0.5078125,0.201171875,0.611328125,0.03515625,-0.03515625,-7.65625,1.234375,1.0
613157,,,,,,,,0.30859375,1.7578125,-0.44921875,0.216796875,0.625,0.01171875,-0.33984375,-7.7734375,1.30859375,1.0
613158,,,,,,,,0.171875,1.60546875,-0.38671875,0.2421875,0.630859375,-0.0390625,-0.4921875,-7.92578125,1.38671875,1.0
613159,,,,,,,,0.02734375,1.52734375,-0.40234375,0.23828125,0.6171875,-0.056640625,-0.64453125,-8.00390625,1.38671875,1.0
613160,36.013229833333334,129.31919616666667,53.74360576278566,92.07783893351734,1.1,21.0,,-0.12109375,1.59765625,-0.45703125,0.078125,0.451171875,0.09765625,-0.80078125,-7.92578125,1.34765625,1.0
613161,,,,,,,,-0.04296875,1.7109375,-0.51953125,0.212890625,0.564453125,-0.119140625,-0.72265625,-7.81640625,1.30859375,1.0
613162,,,,,,,,-0.00390625,1.58984375,-0.57421875,0.21484375,0.564453125,-0.1484375,-0.68359375,-7.921875,1.26953125,1.0
613163,,,,,,,,0.02734375,1.51171875,-0.53515625,0.220703125,0.5703125,-0.16015625,-0.64453125,-8.0,1.30859375,1.0
613164,,,,,,,,0.0625,1.3515625,-0.6484375,0.267578125,0.56640625,-0.208984375,-0.609375,-8.15625,1.234375,1.0
613165,,,,,,,,-0.03515625,0.68359375,-0.66015625,0.310546875,0.55078125,-0.232421875,-0.68359375,-8.80859375,1.26953125,1.0
613166,,,,,,,,-0.51171875,0.67578125,-0.54296875,0.275390625,0.53515625,-0.23828125,-1.14453125,-8.80859375,1.42578125,1.0
613167,,,,,,,,-0.671875,0.71484375,-0.484375,0.2421875,0.5,-0.236328125,-1.296875,-8.765625,1.5,1.0
613168,,,,,,,,-0.60546875,0.75390625,-0.4140625,0.2265625,0.478515625,-0.236328125,-1.22265625,-8.73046875,1.578125,1.0
613169,,,,,,,,-0.421875,0.78515625,-0.28515625,0.19140625,0.462890625,-0.2265625,-1.03125,-8.69140625,1.73046875,1.0
613170,36.01323083333333,129.31919683333334,53.80370416781771,92.18879854727864,1.2000000000000002,25.0,,0.1015625,0.81640625,-0.453125,0.140625,0.41796875,-0.185546875,-0.4921875,-8.65234375,1.578125,1.0
613171,,,,,,,,0.55078125,0.64453125,-0.8046875,0.142578125,0.41796875,-0.1640625,-0.03515625,-8.8046875,1.234375,1.0
613172,,,,,,,,0.734375,0.4140625,-0.8984375,0.126953125,0.416015625,-0.123046875,0.15625,-9.04296875,1.15625,1.0
613173,,,,,,,,0.69921875,0.33984375,-0.8984375,0.10546875,0.396484375,-0.103515625,0.12109375,-9.11328125,1.15625,1.0
613174,,,,,,,,0.4296875,0.1875,-0.63671875,0.060546875,0.373046875,-0.091796875,-0.1484375,-9.26953125,1.42578125,1.0
613175,,,,,,,,-0.03125,0.0234375,-0.484375,0.013671875,0.314453125,-0.09375,-0.609375,-9.42578125,1.578125,1.0
613176,,,,,,,,-0.296875,0.0625,-0.484375,-0.08984375,0.248046875,-0.107421875,-0.875,-9.3828125,1.578125,1.0
613177,,,,,,,,-0.3046875,0.03125,-0.62109375,-0.224609375,0.21484375,-0.119140625,-0.875,-9.42578125,1.42578125,1.0
613178,,,,,,,,-0.26953125,-0.00390625,-0.64453125,-0.275390625,0.205078125,-0.130859375,-0.83984375,-9.45703125,1.38671875,1.0
613179,,,,,,,,0.14453125,-0.38671875,-0.4296875,-0.3671875,0.166015625,-0.140625,-0.41796875,-9.8359375,1.578125,1.0
613180,36.01323183333333,129.31919766666667,53.87882734221749,92.29975825332956,1.2000000000000002,29.0,,0.484375,-1.0703125,-0.125,-0.41015625,0.111328125,-0.138671875,-0.4921875,-8.65234375,1.578125,1.0
613181,,,,,,,,0.55078125,-2.59375,0.296875,-0.4375,0.0625,-0.130859375,0.00390625,-12.06640625,2.2265625,1.0
613182,,,,,,,,-0.26953125,-4.03515625,1.37890625,-0.462890625,0.0625,-0.10546875,-0.80078125,-13.51953125,3.26171875,1.0
613183,,,,,,,,-0.8046875,-4.79296875,2.515625,-0.490234375,0.076171875,-0.08984375,-1.3359375,-14.28125,4.375,1.0
613184,,,,,,,,-1.3125,-5.93359375,2.75390625,-0.57421875,0.13671875,-0.048828125,-1.8359375,-15.4296875,4.56640625,1.0
613185,,,,,,,,-2.52734375,-7.4296875,2.43359375,-0.697265625,0.26171875,-0.009765625,-3.05859375,-16.9296875,4.18359375,1.0
613186,,,,,,,,-3.05859375,-4.42578125,4.1953125,-0.83203125,0.416015625,0.037109375,-3.59765625,-13.9375,5.8671875,1.0
613187,,,,,,,,-1.81640625,-1.94921875,3.2421875,-0.8125,0.470703125,0.05859375,-2.37109375,-11.484375,4.796875,1.0
613188,,,,,,,,-0.11328125,-1.98046875,2.51171875,-0.78125,0.4296875,0.052734375,-0.68359375,-11.52734375,4.02734375,1.0
613189,,,,,,,,1.5390625,-2.39453125,2.046875,-0.751953125,0.3359375,0.04296875,0.9609375,-11.94921875,3.4921875,1.0
613190,36.01323283333333,129.3191985,53.95395051170415,92.41071796028533,1.3,30.0,,2.12109375,-2.609375,2.4921875,-0.56640625,0.0859375,0.072265625,1.53515625,-12.1796875,3.8359375,1.0
613191,,,,,,,,1.6015625,-2.1015625,2.515625,0.01953125,0.044921875,0.025390625,1.0,-11.6796875,3.8359375,1.0
613192,,,,,,,,1.296875,-1.60546875,1.87890625,0.1953125,0.171875,-0.017578125,0.6953125,-11.1796875,3.22265625,1.0
613193,,,,,,,,1.07421875,-0.79296875,1.296875,0.015625,0.5859375,-0.044921875,0.46484375,-10.375,2.6484375,1.0
613194,,,,,,,,0.8046875,-0.1875,1.03125,-0.025390625,0.912109375,-0.119140625,0.1953125,-9.76953125,2.3828125,1.0
613195,,,,,,,,0.421875,0.12890625,0.953125,0.08984375,1.001953125,-0.19921875,-0.1875,-9.45703125,2.3046875,1.0
613196,,,,,,,,0.0703125,0.01953125,1.0625,0.234375,0.896484375,-0.251953125,-0.53125,-9.57421875,2.421875,1.0
613197,,,,,,,,0.0859375,0.09765625,0.921875,0.28515625,0.791015625,-0.32421875,-0.4921875,-9.4921875,2.3046875,1.0
613198,,,,,,,,0.3359375,0.9765625,0.31640625,0.25,0.81640625,-0.396484375,-0.2265625,-8.6171875,1.73046875,1.0
613199,,,,,,,,0.3828125,1.359375,-0.12109375,0.197265625,0.962890625,-0.451171875,-0.1484375,-8.234375,1.30859375,1.0
613200,36.013233666666665,129.31919950000002,54.044098567765545,92.50318455367352,1.2000000000000002,31.0,0.0,0.3515625,2.01171875,-0.359375,-0.56640625,0.0859375,0.072265625,-0.1484375,-7.58203125,1.078125,1.0
613201,,,,,,,,0.3359375,2.2421875,-0.3203125,0.103515625,1.134765625,-0.45703125,-0.1484375,-7.3515625,1.1171875,1.0
613202,,,,,,,,0.15234375,2.44140625,-0.2578125,0.12109375,1.16015625,-0.466796875,-0.30078125,-7.15625,1.1953125,1.0
613203,,,,,,,,-0.1796875,2.671875,-0.15234375,0.138671875,1.154296875,-0.47265625,-0.609375,-6.93359375,1.30859375,1.0
613204,,,,,,,,-0.35546875,2.82421875,-0.04296875,0.12890625,1.162109375,-0.474609375,-0.76171875,-6.7734375,1.42578125,1.0
613205,,,,,,,,-0.640625,3.015625,0.0234375,0.1015625,1.1640625,-0.470703125,-1.03125,-6.5859375,1.5,1.0
613206,,,,,,,,-0.80859375,3.0546875,0.0234375,0.060546875,1.177734375,-0.474609375,-1.18359375,-6.55078125,1.5,1.0
613207,,,,,,,,-1.3828125,3.0234375,-0.28125,-0.0234375,1.19140625,-0.474609375,-1.71875,-6.58984375,1.1953125,1.0
613208,,,,,,,,-1.46875,2.984375,-0.4296875,-0.01953125,1.1484375,-0.49609375,-1.7578125,-6.625,1.0390625,1.0
613209,,,,,,,,-1.72265625,2.79296875,-0.58203125,0.03515625,1.068359375,-0.494140625,-1.98828125,-6.81640625,0.88671875,1.0
613210,36.013234499999996,129.3192,54.089172305863116,92.5956508683661,1.1,30.0,,-1.73828125,2.74609375,-0.54296875,-0.56640625,0.0859375,0.072265625,-1.98828125,-6.8515625,0.92578125,1.0
613211,,,,,,,,-2.015625,2.5546875,-0.3671875,0.201171875,0.892578125,-0.490234375,-2.21875,-7.05078125,1.1171875,1.0
613212,,,,,,,,-1.9375,2.2890625,-0.3515625,0.23828125,0.810546875,-0.470703125,-2.1015625,-7.3125,1.15625,1.0
613213,,,,,,,,-1.83984375,2.12890625,-0.3046875,0.234375,0.75390625,-0.419921875,-1.98828125,-7.46484375,1.234375,1.0
613214,,,,,,,,-1.6796875,1.9296875,-0.3203125,0.205078125,0.712890625,-0.384765625,-1.796875,-7.65625,1.234375,1.0
613215,,,,,,,,-1.51953125,1.765625,-0.31640625,0.1875,0.63671875,-0.30859375,-1.60546875,-7.81640625,1.26953125,1.0
613216,,,,,,,,-1.49609375,1.53515625,-0.40625,0.1796875,0.552734375,-0.251953125,-1.56640625,-8.0390625,1.1953125,1.0
613217,,,,,,,,-1.55078125,1.30859375,-0.5,0.197265625,0.453125,-0.201171875,-1.60546875,-8.265625,1.1171875,1.0
613218,,,,,,,,-1.5859375,0.9921875,-0.5625,0.212890625,0.341796875,-0.162109375,-1.640625,-8.58203125,1.078125,1.0
613219,,,,,,,,-1.6015625,0.640625,-0.73828125,0.236328125,0.2578125,-0.125,-1.640625,-8.921875,0.92578125,1.0
613220,36.013235333333334,129.319201,54.17932035658592,92.6881174632179,1.2000000000000002,37.0,,-1.41015625,0.2109375,-0.9140625,-0.56640625,0.0859375,0.072265625,-1.98828125,-6.8515625,0.92578125,1.0
613221,,,,,,,,-1.296875,0.125,-0.78515625,0.2265625,0.1328125,-0.06640625,-1.3359375,-9.42578125,0.92578125,1.0
613222,,,,,,,,-1.2578125,0.01171875,-0.76953125,0.177734375,0.078125,-0.029296875,-1.296875,-9.53515625,0.96484375,1.0
613223,,,,,,,,-1.14453125,-0.02734375,-0.59375,0.130859375,0.013671875,-0.01171875,-1.18359375,-9.5703125,1.15625,1.0
613224,,,,,,,,-1.09765625,-0.07421875,-0.640625,0.072265625,-0.0390625,0.0078125,-1.14453125,-9.61328125,1.1171875,1.0
613225,,,,,,,,-1.01953125,-0.30078125,-0.6875,0.005859375,-0.078125,0.015625,-1.06640625,-9.8359375,1.078125,1.0
613226,,,,,,,,-0.9453125,-0.34765625,-0.6875,-0.01171875,-0.09375,0.017578125,-0.9921875,-9.87890625,1.078125,1.0
613227,,,,,,,,-0.8203125,-0.42578125,-0.6015625,-0.04296875,-0.1171875,0.01953125,-0.875,-9.95703125,1.15625,1.0
613228,,,,,,,,-0.74609375,-0.1171875,-0.671875,-0.046875,-0.13671875,0.015625,-0.80078125,-9.65234375,1.078125,1.0
613229,,,,,,,,-0.66015625,0.1484375,-0.78515625,-0.052734375,-0.1484375,0.015625,-0.72265625,-9.3828125,0.96484375,1.0
613230,36.013236,129.31920233333332,54.299518058629786,92.76209103590053,1.3,45.0,,-0.5546875,0.41796875,-1.12109375,-0.56640625,0.0859375,0.072265625,-0.609375,-9.109375,0.62109375,1.0
613231,,,,,,,,-0.4765625,0.609375,-1.14453125,-0.12890625,-0.1796875,-0.029296875,-0.53125,-8.921875,0.58203125,1.0
613232,,,,,,,,-0.59765625,0.6484375,-0.82421875,-0.1484375,-0.185546875,-0.05859375,-0.64453125,-8.88671875,0.88671875,1.0
613233,,,,,,,,-0.79296875,0.6875,-0.31640625,-0.16796875,-0.197265625,-0.08984375,-0.83984375,-8.84375,1.38671875,1.0
613234,,,,,,,,-1.11328125,-0.08203125,-0.0703125,-0.189453125,-0.203125,-0.1171875,-1.14453125,-9.61328125,1.6171875,1.0
613235,,,,,,,,-1.04296875,-2.07421875,0.640625,-0.271484375,-0.193359375,-0.13671875,-1.06640625,-11.60546875,2.3046875,1.0
613236,,,,,,,,0.625,-5.4375,3.46875,-0.3828125,-0.1796875,-0.140625,0.6171875,-14.9765625,5.1015625,1.0
613237,,,,,,,,2.9453125,-7.83984375,3.62890625,-0.478515625,-0.185546875,-0.125,2.953125,-17.38671875,5.21484375,1.0
613238,,,,,,,,3.93359375,-8.4453125,3.41015625,-0.517578125,-0.216796875,-0.103515625,3.94921875,-18.00390625,4.94921875,1.0
613239,,,,,,,,5.6875,-7.98046875,4.5,-0.68359375,-0.251953125,-0.068359375,5.7109375,-17.54296875,5.984375,1.0
613240,36.0132365,129.31920366666665,54.41971587270335,92.81757140203399,1.3,52.0,,4.30078125,-3.7421875,5.765625,-0.923828125,-0.328125,-0.0078125,4.33203125,-13.328125,7.1328125,1.0
613241,,,,,,,,1.3046875,-0.82421875,5.3515625,-0.685546875,-0.337890625,-0.01171875,1.34375,-10.4140625,6.6328125,1.0
613242,,,,,,,,-0.84765625,-0.1640625,4.625,-0.310546875,-0.181640625,-0.05078125,-0.80078125,-9.76953125,5.8671875,1.0
613243,,,,,,,,-1.0390625,-0.30859375,3.8671875,-0.109375,-0.0390625,-0.095703125,-0.9921875,-9.9140625,5.1015625,1.0
613244,,,,,,,,-1.390625,-0.80859375,3.3984375,0.26953125,0.12890625,-0.166015625,-1.3359375,-10.41796875,4.640625,1.0
613245,,,,,,,,-0.296875,-0.39453125,2.04296875,0.767578125,0.203125,-0.28515625,-0.2265625,-9.9921875,3.33984375,1.0
613246,,,,,,,,0.82421875,0.25,1.91015625,0.98046875,-0.0390625,-0.3046875,0.92578125,-9.34375,3.30078125,1.0
613247,,,,,,,,0.79296875,-0.1484375,2.27734375,0.9296875,-0.419921875,-0.244140625,0.92578125,-9.73046875,3.76171875,1.0
613248,,,,,,,,0.515625,-0.46484375,2.19921875,0.826171875,-0.482421875,-0.181640625,0.65625,-10.03125,3.72265625,1.0
613249,,,,,,,,0.453125,-0.47265625,1.71484375,0.412109375,-0.4921875,0.01953125,0.6171875,-10.03125,3.33984375,1.0
613250,36.01323716666666,129.31920516666665,54.55493834041634,92.89154507201799,1.3,52.0,,0.5703125,-0.44140625,1.0,0.22265625,-0.52734375,0.1328125,0.734375,-9.99609375,2.6484375,1.0
613251,,,,,,,,0.26953125,-0.27734375,0.86328125,0.013671875,-0.384765625,0.21484375,0.42578125,-9.8359375,2.53515625,1.0
613252,,,,,,,,-0.12890625,0.06640625,0.87109375,-0.140625,-0.24609375,0.30859375,0.00390625,-9.49609375,2.53515625,1.0
613253,,,,,,,,-0.234375,0.21875,0.71875,-0.2109375,-0.25390625,0.34375,-0.109375,-9.34375,2.3828125,1.0
613254,,,,,,,,-0.34765625,0.80078125,0.28125,-0.287109375,-0.326171875,0.38671875,-0.26171875,-8.76953125,1.921875,1.0
613255,,,,,,,,-0.203125,1.15234375,0.12109375,-0.33203125,-0.380859375,0.416015625,-0.1484375,-8.421875,1.73046875,1.0
613256,,,,,,,,0.05859375,1.54296875,-0.3515625,-0.349609375,-0.361328125,0.431640625,0.08203125,-8.0390625,1.234375,1.0
613257,,,,,,,,0.328125,1.9375,-0.3203125,-0.330078125,-0.3125,0.435546875,0.3125,-7.66015625,1.234375,1.0
613258,,,,,,,,0.42578125,2.05078125,-0.3046875,-0.2890625,-0.302734375,0.435546875,0.38671875,-7.54296875,1.234375,1.0
613259,,,,,,,,0.7109375,2.51953125,-0.28125,-0.197265625,-0.2890625,0.41015625,0.6171875,-7.078125,1.234375,1.0
613260,36.01323766666667,129.31920616666667,54.64508661510246,92.94702525554177,1.1,51.0,,0.97265625,3.1328125,-0.34375,0.22265625,-0.52734375,0.1328125,0.734375,-9.99609375,2.6484375,1.0
613261,,,,,,,,1.296875,3.3671875,-0.58984375,-0.244140625,-0.2890625,0.41796875,1.1171875,-6.2421875,0.88671875,1.0
613262,,,,,,,,1.51953125,3.29296875,-0.95703125,-0.216796875,-0.236328125,0.4140625,1.30859375,-6.3125,0.50390625,1.0
613263,,,,,,,,1.6953125,3.17578125,-1.29296875,-0.181640625,-0.21875,0.416015625,1.4609375,-6.43359375,0.16015625,1.0
613264,,,,,,,,1.86328125,2.91015625,-1.46875,-0.048828125,-0.177734375,0.408203125,1.57421875,-6.69921875,-0.03125,1.0
613265,,,,,,,,1.97265625,2.48828125,-1.36328125,0.052734375,-0.17578125,0.38671875,1.65234375,-7.12109375,0.08203125,1.0
613266,,,,,,,,1.66796875,2.44921875,-0.94921875,0.14453125,-0.18359375,0.361328125,1.30859375,-7.16015625,0.50390625,1.0
613267,,,,,,,,1.5,2.40234375,-0.8125,0.16015625,-0.169921875,0.33203125,1.1171875,-7.19921875,0.65625,1.0
613268,,,,,,,,1.28515625,2.2734375,-0.75,0.14453125,-0.1328125,0.318359375,0.88671875,-7.3125,0.734375,1.0
613269,,,,,,,,1.0078125,2.04296875,-0.64453125,0.080078125,-0.037109375,0.26953125,0.578125,-7.54296875,0.84765625,1.0
613270,36.013238,129.31920733333334,54.750259771086554,92.98401232569839,1.1,53.0,,0.99609375,1.890625,-0.65234375,0.22265625,-0.52734375,0.1328125,0.734375,-9.99609375,2.6484375,1.0
613271,,,,,,,,1.0859375,1.54296875,-0.8515625,0.0078125,0.13671875,0.130859375,0.6171875,-8.04296875,0.65625,1.0
613272,,,,,,,,1.01953125,1.078125,-1.00390625,0.05078125,0.228515625,0.078125,0.54296875,-8.50390625,0.50390625,1.0
613273,,,,,,,,0.83203125,0.87890625,-1.05078125,0.12890625,0.2890625,0.01171875,0.34765625,-8.69140625,0.46484375,1.0
613274,,,,,,,,0.48828125,0.2265625,-0.7265625,0.130859375,0.279296875,-0.01953125,0.00390625,-9.34765625,0.8125,1.0
613275,,,,,,,,0.4140625,-0.34765625,-0.4375,0.134765625,0.244140625,-0.048828125,-0.0703125,-9.9140625,1.1171875,1.0
613276,,,,,,,,0.4140625,-0.5078125,-0.359375,0.125,0.244140625,-0.060546875,-0.0703125,-10.0703125,1.1953125,1.0
613277,,,,,,,,0.3671875,-0.78515625,-0.18359375,0.130859375,0.279296875,-0.08203125,-0.109375,-10.3359375,1.38671875,1.0
613278,,,,,,,,0.3671875,-0.78515625,-0.16015625,0.115234375,0.31640625,-0.09375,-0.109375,-10.33984375,1.42578125,1.0
613279,,,,,,,,0.2421875,-0.74609375,-0.28515625,0.10546875,0.31640625,-0.1015625,-0.2265625,-10.30078125,1.30859375,1.0
613280,36.01323850000001,129.3192085,54.855432810687006,93.03949260511754,1.1,52.0,,0.234375,-0.74609375,-0.40625,0.1015625,0.28515625,-0.1015625,-0.2265625,-10.296875,1.1953125,1.0
613281,,,,,,,,0.19921875,-0.76171875,-0.53125,0.12109375,0.251953125,-0.09375,-0.26171875,-10.30078125,1.078125,1.0
613282,,,,,,,,0.2734375,-1.03125,-0.5859375,0.130859375,0.193359375,-0.072265625,-0.1875,-10.57421875,1.0390625,1.0
613283,,,,,,,,0.2265625,-1.375,-0.62890625,0.13671875,0.16015625,-0.056640625,-0.2265625,-10.91796875,1.00390625,1.0
613284,,,,,,,,0.15234375,-1.91015625,-0.609375,0.14453125,0.107421875,-0.044921875,-0.30078125,-11.44921875,1.0390625,1.0
613285,,,,,,,,0.14453125,-1.26171875,-0.15625,0.1328125,0.056640625,-0.021484375,-0.30078125,-10.796875,1.5,1.0
613286,,,,,,,,0.328125,-0.6171875,-0.046875,0.072265625,-0.017578125,-0.01953125,-0.109375,-10.15234375,1.6171875,1.0
613287,,,,,,,,0.86328125,0.2265625,-0.6328125,0.0078125,-0.091796875,0.00390625,0.42578125,-9.3046875,1.0390625,1.0
613288,,,,,,,,1.015625,0.41796875,-0.74609375,-0.046875,-0.169921875,0.01171875,0.578125,-9.109375,0.92578125,1.0
613289,,,,,,,,1.69921875,0.07421875,-1.0078125,-0.107421875,-0.23828125,0.01953125,1.26953125,-9.453125,0.65625,1.0
