time,latitude,longitude,enu_x,enu_y,speed,course,ecg,accX,accY,accZ,gyrX,gyrY,gyrZ,eulR,eulP,eulY,validity
646010,36.013232333333335,129.31921599999998,55.53155175291357,92.35524816917976,1.2000000000000002,214.0,,0.08203125,-0.35546875,1.265625,0.25390625,-0.509765625,-0.029296875,-0.76171875,-9.953125,2.2265625,1.0
646011,,,,,,,,0.34375,-0.0390625,0.9765625,0.126953125,-0.505859375,-0.083984375,-0.4921875,-9.65234375,1.9609375,1.0
646012,,,,,,,,0.55859375,0.37890625,0.69140625,0.060546875,-0.568359375,-0.13671875,-0.26171875,-9.2265625,1.69140625,1.0
646013,,,,,,,,0.6171875,0.49609375,0.5703125,0.05859375,-0.62890625,-0.162109375,-0.1875,-9.109375,1.578125,1.0
646014,,,,,,,,0.984375,1.078125,0.25390625,0.060546875,-0.73046875,-0.197265625,0.1953125,-8.5390625,1.26953125,1.0
646015,,,,,,,,1.09765625,1.3828125,0.0390625,0.078125,-0.771484375,-0.220703125,0.34765625,-8.234375,1.078125,1.0
646016,,,,,,,,1.19140625,1.96875,-0.20703125,0.09765625,-0.755859375,-0.234375,0.46484375,-7.65625,0.84765625,1.0
646017,,,,,,,,1.10546875,2.46484375,-0.48828125,0.1171875,-0.69921875,-0.244140625,0.42578125,-7.16015625,0.58203125,1.0
646018,,,,,,,,0.9765625,2.65625,-0.58203125,0.130859375,-0.69140625,-0.2421875,0.3125,-6.97265625,0.50390625,1.0
646019,,,,,,,,0.62890625,2.76953125,-0.60546875,0.134765625,-0.6796875,-0.25,0.00390625,-6.85546875,0.50390625,1.0
646020,36.013231499999996,129.3192155,55.48647802886582,92.2627818450847,1.1,214.0,,0.33203125,2.6953125,-0.58203125,0.25390625,-0.509765625,-0.029296875,-0.26171875,-6.93359375,0.54296875,1.0
646021,,,,,,,,-0.24609375,2.54296875,-0.5078125,0.13671875,-0.693359375,-0.271484375,-0.76171875,-7.078125,0.65625,1.0
646022,,,,,,,,-0.546875,2.50390625,-0.5234375,0.115234375,-0.716796875,-0.267578125,-1.03125,-7.12109375,0.65625,1.0
646023,,,,,,,,-0.66796875,2.54296875,-0.57421875,0.1015625,-0.705078125,-0.224609375,-1.10546875,-7.08203125,0.62109375,1.0
646024,,,,,,,,-0.64453125,2.578125,-0.66015625,0.123046875,-0.69140625,-0.208984375,-1.06640625,-7.05078125,0.54296875,1.0
646025,,,,,,,,-0.6015625,2.42578125,-0.828125,0.201171875,-0.6796875,-0.16796875,-0.875,-7.35546875,0.3125,1.0
646026,,,,,,,,-0.4921875,2.2734375,-0.921875,0.22265625,-0.677734375,-0.138671875,-0.76171875,-7.43359375,0.3125,1.0
646027,,,,,,,,-0.2109375,2.04296875,-0.875,0.2421875,-0.677734375,-0.09375,-0.453125,-7.66015625,0.4296875,1.0
646028,,,,,,,,-0.109375,1.9609375,-0.84375,0.26171875,-0.677734375,-0.0625,-0.37890625,-7.73828125,0.46484375,1.0
646029,,,,,,,,0.06640625,1.84375,-0.76171875,0.267578125,-0.6875,-0.017578125,-0.109375,-7.7734375,0.50390625,1.0
646030,36.013230666666665,129.31921483333332,55.42637952824189,92.17031542752501,1.1,212.0,,0.33203125,2.6953125,-0.58203125,0.26171875,-0.6953125,0.03125,0.08203125,-7.7734375,0.54296875,1.0
646031,,,,,,,,0.5859375,1.8671875,-0.81640625,0.234375,-0.701171875,0.0703125,0.2734375,-7.77734375,0.50390625,1.0
646032,,,,,,,,0.6171875,1.7890625,-0.9921875,0.20703125,-0.69140625,0.11328125,0.3125,-7.85546875,0.3515625,1.0
646033,,,,,,,,0.625,1.7421875,-1.0390625,0.205078125,-0.6796875,0.125,0.2734375,-8.0,0.23828125,1.0
646034,,,,,,,,0.4609375,1.34375,-1.23046875,0.185546875,-0.65625,0.1484375,0.15625,-8.23828125,0.19921875,1.0
646035,,,,,,,,0.35546875,0.9609375,-1.0546875,0.189453125,-0.607421875,0.166015625,0.04296875,-8.6171875,0.390625,1.0
646036,,,,,,,,0.1328125,0.2265625,-0.7421875,0.169921875,-0.50390625,0.162109375,-0.1875,-9.34765625,0.734375,1.0
646037,,,,,,,,-0.04296875,-0.46484375,-0.6796875,0.12109375,-0.431640625,0.15234375,-0.37890625,-10.03515625,0.8125,1.0
646038,,,,,,,,-0.05078125,-0.73046875,-0.6796875,0.0859375,-0.40234375,0.14453125,-0.37890625,-10.296875,0.8125,1.0
646039,,,,,,,,0.07421875,-1.046875,-0.34375,0.001953125,-0.3671875,0.12109375,-0.26171875,-10.609375,1.15625,1.0
646040,36.013229833333334,129.31921433333335,55.38130579980593,92.07784910514368,1.1,211.0,,0.2734375,-1.12109375,-0.421875,0.26171875,-0.6953125,0.03125,-0.0703125,-10.68359375,1.078125,1.0
646041,,,,,,,,0.6640625,-0.73828125,-0.453125,-0.07421875,-0.34375,0.06640625,0.3125,-10.296875,1.0390625,1.0
646042,,,,,,,,0.578125,-0.671875,-0.48046875,-0.087890625,-0.341796875,0.03515625,0.234375,-10.2265625,1.00390625,1.0
646043,,,,,,,,0.5,-0.671875,-0.51953125,-0.09765625,-0.337890625,0.017578125,0.15625,-10.2265625,0.96484375,1.0
646044,,,,,,,,0.109375,-0.5546875,-0.51171875,-0.08203125,-0.3125,0.0,-0.2265625,-10.11328125,0.96484375,1.0
646045,,,,,,,,-0.01171875,-0.47265625,-0.62109375,-0.037109375,-0.298828125,-0.017578125,-0.33984375,-10.03515625,0.84765625,1.0
646046,,,,,,,,-0.10546875,-0.171875,-0.734375,-0.021484375,-0.25,-0.041015625,-0.41796875,-9.73046875,0.734375,1.0
646047,,,,,,,,-0.53515625,0.32421875,-0.83984375,-0.048828125,-0.134765625,-0.068359375,-0.83984375,-9.2265625,0.62109375,1.0
646048,,,,,,,,-0.734375,0.515625,-0.83984375,-0.078125,-0.115234375,-0.072265625,-1.03125,-9.04296875,0.62109375,1.0
646049,,,,,,,,-1.4296875,0.91015625,-0.86328125,-0.142578125,-0.09765625,-0.06640625,-1.71875,-8.6484375,0.58203125,1.0
646050,36.013229,129.31921366666666,55.321207297054784,91.98538268962454,1.1,209.0,,-1.9375,0.91015625,-0.58203125,-0.1953125,-0.0859375,-0.060546875,-2.21875,-8.6484375,0.84765625,1.0
646051,,,,,,,,-2.40234375,0.41015625,-0.13671875,-0.236328125,-0.048828125,-0.052734375,-2.67578125,-9.1484375,1.26953125,1.0
646052,,,,,,,,-2.3359375,-0.5859375,-0.05859375,-0.2890625,-0.046875,-0.041015625,-2.6015625,-10.15234375,1.30859375,1.0
646053,,,,,,,,-2.2578125,-1.50390625,0.05078125,-0.369140625,-0.125,-0.048828125,-2.5234375,-11.06640625,1.38671875,1.0
646054,,,,,,,,-1.84375,-3.796875,0.08203125,-0.443359375,-0.271484375,-0.0546875,-2.1015625,-13.37109375,1.38671875,1.0
646055,,,,,,,,-1.0546875,-5.97265625,0.12890625,-0.537109375,-0.431640625,-0.06640625,-1.296875,-15.546875,1.38671875,1.0
646056,,,,,,,,0.46875,-8.23046875,0.3515625,-0.59375,-0.513671875,-0.072265625,0.234375,-17.8046875,1.578125,1.0
646057,,,,,,,,2.8359375,-9.06640625,1.4765625,-0.654296875,-0.6796875,-0.048828125,2.609375,-18.6484375,2.6484375,1.0
646058,,,,,,,,4.92578125,-3.765625,4.64453125,-0.603515625,-0.802734375,0.005859375,4.71484375,-13.37109375,5.75390625,1.0
646059,,,,,,,,2.55078125,-2.72265625,4.22265625,-0.587890625,-1.140625,0.134765625,2.33984375,-12.328125,5.25390625,1.0
646060,36.013228000000005,129.31921283333335,55.24608414092834,91.87442297109828,1.1,210.0,,-1.77734375,-1.94140625,2.546875,-0.66796875,-1.6796875,0.2109375,-1.98828125,-11.5625,3.453125,1.0
646061,,,,,,,,-1.34765625,-1.7421875,2.171875,-0.267578125,-1.373046875,0.21484375,-1.56640625,-11.37890625,3.03125,1.0
646062,,,,,,,,-1.1875,-1.38671875,2.171875,0.17578125,-0.974609375,0.1015625,-1.4140625,-11.02734375,3.03125,1.0
646063,,,,,,,,-0.88671875,-0.32421875,0.9375,0.748046875,-0.595703125,-0.076171875,-1.10546875,-9.953125,1.84375,1.0
646064,,,,,,,,-0.703125,-0.0546875,0.40234375,0.8125,-0.708984375,-0.099609375,-0.9140625,-9.69140625,1.34765625,1.0
646065,,,,,,,,-0.58984375,0.54296875,-0.03125,0.751953125,-1.525390625,-0.115234375,-0.76171875,-9.07421875,1.0390625,1.0
646066,,,,,,,,-0.12109375,0.3515625,0.3984375,0.767578125,-1.662109375,-0.03125,-0.26171875,-9.265625,1.5390625,1.0
646067,,,,,,,,0.453125,-0.30078125,0.62109375,0.794921875,-1.611328125,0.0234375,0.3125,-9.91796875,1.80859375,1.0
646068,,,,,,,,1.1640625,-0.890625,0.6171875,0.828125,-1.498046875,0.046875,1.0390625,-10.4921875,1.8828125,1.0
646069,,,,,,,,1.30859375,-0.73828125,0.6953125,0.78515625,-1.431640625,0.109375,1.19140625,-10.33984375,2.0,1.0
646070,36.013227,129.31921233333333,55.20101052288549,91.76346344062765,1.1,210.0,,1.27734375,0.47265625,0.03515625,-0.66796875,-1.6796875,0.2109375,-1.98828125,-11.5625,3.453125,1.0
646071,,,,,,,,1.171875,1.09375,-0.2109375,0.173828125,-1.21875,0.416015625,1.0390625,-8.5,1.1953125,1.0
646072,,,,,,,,1.2109375,1.70703125,-0.48828125,-0.12109375,-1.318359375,0.533203125,1.0390625,-7.8828125,0.92578125,1.0
646073,,,,,,,,1.5703125,2.05078125,-0.6640625,-0.107421875,-1.18359375,0.544921875,1.34375,-7.5390625,0.734375,1.0
646074,,,,,,,,2.1640625,2.328125,-0.7109375,0.03125,-1.021484375,0.44140625,1.8828125,-7.27734375,0.6953125,1.0
646075,,,,,,,,2.02734375,2.40234375,-0.78515625,0.021484375,-1.0390625,0.41796875,1.73046875,-7.19921875,0.62109375,1.0
646076,,,,,,,,2.03515625,2.48046875,-0.7109375,-0.00390625,-1.052734375,0.388671875,1.73046875,-7.1171875,0.6953125,1.0
646077,,,,,,,,1.98828125,2.59375,-0.86328125,-0.0703125,-1.134765625,0.328125,1.65234375,-7.0078125,0.54296875,1.0
646078,,,,,,,,2.109375,2.5546875,-0.90234375,-0.05859375,-1.12109375,0.306640625,1.765625,-7.046875,0.50390625,1.0
646079,,,,,,,,2.203125,2.5546875,-1.09375,0.0078125,-1.05859375,0.29296875,1.84375,-7.05078125,0.3125,1.0
646080,36.013226333333336,129.319212,55.170961442650885,91.68949042106276,1.0,208.0,,2.2421875,2.546875,-1.1015625,-0.66796875,-1.6796875,0.2109375,-1.98828125,-11.5625,3.453125,1.0
646081,,,,,,,,2.32421875,2.35546875,-1.15625,0.134765625,-0.94140625,0.27734375,1.95703125,-7.234375,0.2734375,1.0
646082,,,,,,,,2.37890625,2.234375,-1.03125,0.234375,-0.896484375,0.267578125,1.99609375,-7.35546875,0.4296875,1.0
646083,,,,,,,,2.1953125,2.15625,-0.92578125,0.244140625,-0.900390625,0.265625,1.8046875,-7.4296875,0.54296875,1.0
646084,,,,,,,,1.859375,2.03515625,-0.734375,0.236328125,-0.865234375,0.244140625,1.4609375,-7.5390625,0.7734375,1.0
646085,,,,,,,,1.62890625,1.796875,-0.59765625,0.2109375,-0.798828125,0.228515625,1.23046875,-7.77734375,0.92578125,1.0
646086,,,,,,,,1.60546875,1.59765625,-0.66796875,0.14453125,-0.642578125,0.171875,1.19140625,-7.9609375,0.88671875,1.0
646087,,,,,,,,1.60546875,1.29296875,-0.68359375,0.111328125,-0.5390625,0.1328125,1.19140625,-8.265625,0.88671875,1.0
646088,,,,,,,,1.56640625,1.0234375,-0.72265625,0.103515625,-0.486328125,0.115234375,1.15234375,-8.5390625,0.84765625,1.0
646089,,,,,,,,1.4921875,0.78515625,-0.7734375,0.12109375,-0.40234375,0.083984375,1.078125,-8.76953125,0.8125,1.0
646090,36.013225166666665,129.3192116666667,55.140912714888145,91.5600377794187,1.1,201.0,,1.33203125,0.28125,-0.60546875,0.150390625,-0.33984375,0.05078125,0.92578125,-9.26953125,1.00390625,1.0
646091,,,,,,,,1.1015625,-0.06640625,-0.5078125,0.16796875,-0.291015625,0.04296875,0.6953125,-9.61328125,1.1171875,1.0
646092,,,,,,,,0.984375,-0.2265625,-0.36328125,0.18359375,-0.267578125,0.044921875,0.578125,-9.765625,1.26953125,1.0
646093,,,,,,,,0.73828125,-0.33984375,-0.09375,0.185546875,-0.158203125,0.041015625,0.34765625,-9.87890625,1.578125,1.0
646094,,,,,,,,0.74609375,-0.34765625,-0.1171875,0.18359375,-0.087890625,0.046875,0.34765625,-9.87890625,1.578125,1.0
646095,,,,,,,,0.93359375,-0.35546875,-0.32421875,0.1875,-0.076171875,0.048828125,0.54296875,-9.875,1.38671875,1.0
646096,,,,,,,,1.125,-0.43359375,-0.6796875,0.18359375,-0.0859375,0.052734375,0.734375,-9.953125,1.0390625,1.0
646097,,,,,,,,1.0859375,-0.73828125,-1.0859375,0.173828125,-0.1015625,0.0546875,0.6953125,-10.26171875,0.65625,1.0
646098,,,,,,,,1.046875,-0.90234375,-1.19921875,0.173828125,-0.119140625,0.06640625,0.65625,-10.41796875,0.54296875,1.0
646099,,,,,,,,0.81640625,-1.3203125,-1.13671875,0.1640625,-0.150390625,0.07421875,0.42578125,-10.83984375,0.62109375,1.0
646100,36.01322416666667,129.31921183333333,55.155938180581096,91.44907862756739,1.1,192.0,0.0,1.33203125,0.28125,-0.60546875,0.162109375,-0.2109375,0.09765625,0.34765625,-10.80078125,0.6953125,1.0
646101,,,,,,,,0.47265625,-1.21484375,-0.7421875,0.12890625,-0.2890625,0.115234375,-0.03515625,-10.64453125,1.15625,1.0
646102,,,,,,,,0.2109375,-0.9921875,-0.5625,0.064453125,-0.306640625,0.11328125,-0.30078125,-10.296875,1.30859375,1.0
646103,,,,,,,,0.10546875,-0.49609375,-0.37890625,-0.017578125,-0.306640625,0.119140625,-0.26171875,-9.765625,1.42578125,1.0
646104,,,,,,,,0.2109375,-0.11328125,-0.41796875,-0.109375,-0.287109375,0.109375,-0.0703125,-9.453125,1.30859375,1.0
646105,,,,,,,,0.82421875,0.203125,-0.82421875,-0.16796875,-0.2578125,0.11328125,0.42578125,-9.30859375,0.96484375,1.0
646106,,,,,,,,1.0625,0.05078125,-0.81640625,-0.166015625,-0.244140625,0.109375,0.65625,-9.45703125,0.96484375,1.0
646107,,,,,,,,1.3671875,-0.75390625,-0.9921875,-0.13671875,-0.259765625,0.12109375,0.9609375,-10.2578125,0.7734375,1.0
646108,,,,,,,,0.9921875,-2.2890625,-0.44140625,-0.154296875,-0.33984375,0.140625,0.578125,-11.80078125,1.30859375,1.0
646109,,,,,,,,0.07421875,-1.98046875,0.625,-0.26171875,-0.455078125,0.17578125,-0.33984375,-11.48828125,2.34375,1.0
646110,36.013223,129.319212,55.17096376577629,91.319626269302,1.1,186.0,,-0.22265625,-1.54296875,1.3828125,-0.423828125,-0.462890625,0.193359375,-0.64453125,-11.06640625,3.0703125,1.0
646111,,,,,,,,-0.484375,-2.80859375,1.9375,-0.65625,-0.41015625,0.21875,-0.9140625,-12.328125,3.5703125,1.0
646112,,,,,,,,-1.84765625,-3.51953125,3.5390625,-0.91015625,-0.361328125,0.2265625,-2.29296875,-13.0546875,5.1015625,1.0
646113,,,,,,,,-2.1484375,-3.51171875,4.19921875,-0.892578125,-0.24609375,0.16015625,-2.6015625,-13.05859375,5.67578125,1.0
646114,,,,,,,,-2.140625,-2.953125,4.23828125,-0.67578125,-0.212890625,0.10546875,-2.6015625,-12.52734375,5.63671875,1.0
646115,,,,,,,,-1.328125,-1.796875,3.4765625,-0.548828125,-0.15234375,0.115234375,-1.796875,-11.375,4.796875,1.0
646116,,,,,,,,-0.015625,-1.05859375,3.14453125,-0.646484375,-0.185546875,0.08203125,-0.4921875,-10.64453125,4.41015625,1.0
646117,,,,,,,,0.90234375,-0.73828125,2.86328125,-0.515625,-0.333984375,0.068359375,0.42578125,-10.3359375,4.06640625,1.0
646118,,,,,,,,1.09375,-0.69921875,2.6875,-0.341796875,-0.4453125,0.083984375,0.6171875,-10.296875,3.875,1.0
646119,,,,,,,,1.4375,-0.66015625,2.12109375,0.017578125,-0.634765625,0.087890625,0.9609375,-10.26171875,3.30078125,1.0
646120,36.01322166666667,129.319212,55.17096469490978,91.17168060675482,1.3,181.0,,1.2109375,-0.69921875,1.76171875,0.265625,-0.70703125,0.080078125,0.734375,-10.30078125,2.95703125,1.0
646121,,,,,,,,0.86328125,-0.44140625,1.73046875,0.361328125,-0.62109375,0.0546875,0.38671875,-10.03515625,2.95703125,1.0
646122,,,,,,,,0.734375,-0.23828125,1.57421875,0.345703125,-0.53515625,0.005859375,0.2734375,-9.8359375,2.83984375,1.0
646123,,,,,,,,0.609375,-0.01953125,1.3515625,0.25390625,-0.52734375,-0.060546875,0.15625,-9.61328125,2.6484375,1.0
646124,,,,,,,,0.625,0.2109375,0.9765625,0.123046875,-0.517578125,-0.12890625,0.1953125,-9.38671875,2.3046875,1.0
646125,,,,,,,,0.75390625,0.44140625,0.5078125,-0.005859375,-0.52734375,-0.201171875,0.34765625,-9.15234375,1.84375,1.0
646126,,,,,,,,0.82421875,0.5546875,0.43359375,-0.044921875,-0.54296875,-0.236328125,0.42578125,-9.04296875,1.76953125,1.0
646127,,,,,,,,1.12890625,0.71875,0.1640625,-0.0703125,-0.572265625,-0.29296875,0.76953125,-8.88671875,1.5,1.0
646128,,,,,,,,1.2734375,0.87890625,0.01953125,-0.095703125,-0.564453125,-0.31640625,0.9609375,-8.7265625,1.34765625,1.0
646129,,,,,,,,1.390625,1.109375,-0.32421875,-0.119140625,-0.53125,-0.314453125,1.1171875,-8.5,1.00390625,1.0
646130,36.0132205,129.31921216666666,55.185990282630115,91.04222824890634,1.2000000000000002,180.0,,1.43359375,1.33984375,-0.5390625,0.265625,-0.70703125,0.080078125,0.734375,-10.30078125,2.95703125,1.0
646131,,,,,,,,1.203125,1.61328125,-0.5625,-0.18359375,-0.47265625,-0.2890625,1.0,-8.00390625,0.734375,1.0
646132,,,,,,,,1.05078125,1.8515625,-0.5859375,-0.19140625,-0.455078125,-0.271484375,0.88671875,-7.7734375,0.6953125,1.0
646133,,,,,,,,0.59765625,2.01171875,-0.30078125,-0.1640625,-0.439453125,-0.24609375,0.46484375,-7.6171875,0.96484375,1.0
646134,,,,,,,,0.34375,2.00390625,-0.21875,-0.158203125,-0.4375,-0.236328125,0.234375,-7.6171875,1.0390625,1.0
646135,,,,,,,,-0.0703125,2.05078125,-0.0546875,-0.154296875,-0.4296875,-0.21484375,-0.1484375,-7.578125,1.1953125,1.0
646136,,,,,,,,-0.24609375,2.08984375,-0.15625,-0.16015625,-0.41796875,-0.20703125,-0.30078125,-7.54296875,1.078125,1.0
646137,,,,,,,,-0.37890625,2.2421875,-0.38671875,-0.154296875,-0.408203125,-0.197265625,-0.41796875,-7.39453125,0.84765625,1.0
646138,,,,,,,,-0.5859375,2.2890625,-0.390625,-0.046875,-0.396484375,-0.126953125,-0.5703125,-7.3515625,0.8125,1.0
646139,,,,,,,,-0.609375,2.203125,-0.3828125,0.0234375,-0.4453125,-0.095703125,-0.5703125,-7.43359375,0.8125,1.0
646140,36.01321966666667,129.31921233333333,55.201015636166346,90.94976230487603,1.1,176.0,,-0.69921875,1.9765625,-0.46875,0.0859375,-0.50390625,-0.060546875,-0.64453125,-7.66015625,0.734375,1.0
646141,,,,,,,,-0.75390625,1.859375,-0.484375,0.13671875,-0.515625,-0.017578125,-0.68359375,-7.77734375,0.734375,1.0
646142,,,,,,,,-0.6484375,1.62109375,-0.5,0.171875,-0.49609375,0.025390625,-0.5703125,-8.00390625,0.734375,1.0
646143,,,,,,,,-0.5703125,1.62109375,-0.5078125,0.19140625,-0.4921875,0.044921875,-0.4921875,-8.0,0.734375,1.0
646144,,,,,,,,-0.3046875,1.66015625,-0.64453125,0.224609375,-0.48828125,0.08984375,-0.2265625,-7.96484375,0.62109375,1.0
646145,,,,,,,,-0.11328125,1.61328125,-0.74609375,0.255859375,-0.5078125,0.126953125,-0.03515625,-8.0,0.54296875,1.0
646146,,,,,,,,-0.05859375,1.375,-0.80859375,0.265625,-0.537109375,0.177734375,0.00390625,-8.23828125,0.50390625,1.0
646147,,,,,,,,0.09375,0.83984375,-0.83203125,0.25390625,-0.548828125,0.201171875,0.15625,-8.76953125,0.50390625,1.0
646148,,,,,,,,0.109375,0.640625,-0.85546875,0.26171875,-0.572265625,0.228515625,0.15625,-8.9609375,0.50390625,1.0
646149,,,,,,,,0.1171875,0.328125,-0.80078125,0.259765625,-0.578125,0.244140625,0.15625,-9.26953125,0.58203125,1.0
646150,36.01321866666667,129.31921233333333,55.20101633338008,90.83880305923512,1.0,173.0,,0.09765625,0.2890625,-0.83203125,0.0859375,-0.50390625,-0.060546875,-0.64453125,-7.66015625,0.734375,1.0
646151,,,,,,,,0.1875,0.328125,-0.7421875,0.203125,-0.552734375,0.265625,0.1953125,-9.265625,0.6953125,1.0
646152,,,,,,,,0.12890625,0.15625,-0.94140625,0.12890625,-0.548828125,0.26953125,0.12109375,-9.421875,0.50390625,1.0
646153,,,,,,,,0.13671875,-0.0703125,-0.99609375,0.06640625,-0.54296875,0.251953125,0.12109375,-9.6484375,0.46484375,1.0
646154,,,,,,,,0.3515625,-0.1875,-0.83984375,0.041015625,-0.5390625,0.23828125,0.3125,-9.765625,0.62109375,1.0
646155,,,,,,,,0.43359375,-0.42578125,-0.54296875,0.048828125,-0.51953125,0.212890625,0.38671875,-9.99609375,0.92578125,1.0
646156,,,,,,,,0.48046875,-0.53125,-0.54296875,0.05078125,-0.513671875,0.201171875,0.42578125,-10.109375,0.92578125,1.0
646157,,,,,,,,0.2578125,-0.69140625,-0.65625,0.03125,-0.48046875,0.169921875,0.1953125,-10.2578125,0.8125,1.0
646158,,,,,,,,0.0,-0.80859375,-0.734375,-0.06640625,-0.43359375,0.12890625,-0.0703125,-10.375,0.734375,1.0
646159,,,,,,,,0.0,-0.8828125,-0.7265625,-0.08203125,-0.431640625,0.10546875,-0.0703125,-10.453125,0.734375,1.0
646160,36.01321766666667,129.3192125,55.216041803632656,90.727843907655,1.0,169.0,,-0.23046875,-0.65625,-0.6796875,0.0859375,-0.50390625,-0.060546875,-0.64453125,-7.66015625,0.734375,1.0
646161,,,,,,,,-0.5,-0.34765625,-0.58984375,-0.109375,-0.357421875,0.03515625,-0.5703125,-9.91796875,0.84765625,1.0
646162,,,,,,,,-1.00390625,0.11328125,-0.6953125,-0.162109375,-0.326171875,0.009765625,-1.06640625,-9.453125,0.734375,1.0
646163,,,,,,,,-1.3203125,0.34765625,-0.6796875,-0.220703125,-0.294921875,-0.005859375,-1.375,-9.2265625,0.734375,1.0
646164,,,,,,,,-1.7421875,0.88671875,-0.1953125,-0.265625,-0.255859375,-0.01953125,-1.796875,-8.6875,1.1953125,1.0
646165,,,,,,,,-2.09375,1.0390625,0.29296875,-0.2890625,-0.216796875,-0.021484375,-2.140625,-8.54296875,1.65234375,1.0
646166,,,,,,,,-2.32421875,0.80859375,-0.1484375,-0.296875,-0.208984375,-0.013671875,-2.37109375,-8.765625,1.1953125,1.0
646167,,,,,,,,-2.109375,0.203125,-0.67578125,-0.333984375,-0.275390625,-0.01171875,-2.140625,-9.3828125,0.62109375,1.0
646168,,,,,,,,-1.54296875,-0.90625,-0.1875,-0.412109375,-0.40234375,-0.00390625,-1.56640625,-10.4921875,1.078125,1.0
646169,,,,,,,,-0.40234375,-3.12890625,0.96484375,-0.4765625,-0.564453125,0.001953125,-0.41796875,-12.7109375,2.19140625,1.0
646170,36.01321666666667,129.3192126666667,55.23106727660595,90.61688475646591,1.1,166.0,,1.8515625,-6.30078125,1.66015625,0.0859375,-0.50390625,-0.060546875,-0.64453125,-7.66015625,0.734375,1.0
646171,,,,,,,,4.2578125,-7.48046875,3.2421875,-0.572265625,-0.86328125,-0.00390625,4.2578125,-17.08203125,4.375,1.0
646172,,,,,,,,4.78515625,-6.27734375,3.76953125,-0.732421875,-0.939453125,0.0078125,4.79296875,-15.89453125,4.83203125,1.0
646173,,,,,,,,3.89453125,-3.51171875,3.54296875,-0.865234375,-1.07421875,0.07421875,3.91015625,-13.13671875,4.52734375,1.0
646174,,,,,,,,3.20703125,-3.05078125,3.2734375,-0.9140625,-1.185546875,0.099609375,3.22265625,-12.67578125,4.21875,1.0
646175,,,,,,,,-0.73828125,-3.76171875,3.80078125,-0.98828125,-1.306640625,0.119140625,-0.72265625,-13.3984375,4.60546875,1.0
646176,,,,,,,,-1.56640625,-3.05859375,2.390625,-0.05859375,-1.169921875,-0.033203125,-1.52734375,-12.7109375,3.0703125,1.0
646177,,,,,,,,-1.3359375,-2.63671875,2.23828125,0.28125,-1.142578125,-0.103515625,-1.296875,-12.29296875,2.91796875,1.0
646178,,,,,,,,-0.6875,-0.8359375,1.35546875,0.55859375,-1.302734375,-0.166015625,-0.609375,-10.49609375,2.11328125,1.0
646179,,,,,,,,-0.38671875,-0.64453125,1.2109375,0.509765625,-1.361328125,-0.162109375,-0.30078125,-10.296875,2.0,1.0
646180,36.01321533333333,129.31921283333335,55.246092979670195,90.46893918924086,1.2000000000000002,168.0,,0.26953125,-0.578125,1.125,0.529296875,-1.4453125,-0.080078125,0.38671875,-10.2265625,1.9609375,1.0
646181,,,,,,,,0.37109375,-0.33984375,1.03125,0.623046875,-1.490234375,0.03515625,0.50390625,-9.9921875,1.921875,1.0
646182,,,,,,,,0.36328125,0.07421875,0.47265625,0.73046875,-1.466796875,0.189453125,0.50390625,-9.5703125,1.42578125,1.0
646183,,,,,,,,0.5234375,0.3046875,0.27734375,0.759765625,-1.453125,0.265625,0.65625,-9.34765625,1.26953125,1.0
646184,,,,,,,,0.578125,0.82421875,-0.17578125,0.68359375,-1.388671875,0.38671875,0.6953125,-8.8046875,0.88671875,1.0
646185,,,,,,,,0.76171875,1.58984375,-0.328125,0.328125,-1.34375,0.501953125,0.84765625,-8.04296875,0.8125,1.0
646186,,,,,,,,0.76171875,2.40234375,-0.61328125,0.203125,-1.34765625,0.541015625,0.80859375,-7.23828125,0.54296875,1.0
646187,,,,,,,,1.0703125,2.96875,-0.71484375,0.169921875,-1.376953125,0.55078125,1.078125,-6.6640625,0.46484375,1.0
646188,,,,,,,,1.0859375,3.1328125,-0.72265625,0.154296875,-1.400390625,0.55859375,1.078125,-6.5078125,0.46484375,1.0
646189,,,,,,,,1.26953125,3.36328125,-0.8203125,0.11328125,-1.4375,0.568359375,1.23046875,-6.27734375,0.390625,1.0
646190,36.01321433333333,129.31921316666666,55.27614322266992,90.35798013314104,1.1,164.0,,1.82421875,3.546875,-0.7890625,0.033203125,-1.404296875,0.55078125,1.73046875,-6.0859375,0.4296875,1.0
646191,,,,,,,,2.54296875,3.4296875,-0.9453125,-0.05078125,-1.3359375,0.55078125,2.37890625,-6.20703125,0.2734375,1.0
646192,,,,,,,,2.59765625,3.0859375,-1.13671875,-0.064453125,-1.31640625,0.54296875,2.41796875,-6.55078125,0.08203125,1.0
646193,,,,,,,,2.61328125,2.81640625,-1.1640625,-0.076171875,-1.244140625,0.513671875,2.37890625,-6.81640625,0.046875,1.0
646194,,,,,,,,2.69140625,2.43359375,-1.1640625,-0.013671875,-1.177734375,0.45703125,2.41796875,-7.19921875,0.046875,1.0
646195,,,,,,,,2.484375,1.7734375,-0.9453125,0.0390625,-1.146484375,0.4375,2.1875,-7.85546875,0.2734375,1.0
646196,,,,,,,,2.43359375,1.62109375,-0.875,0.05859375,-1.109375,0.3984375,2.11328125,-8.0,0.3515625,1.0
646197,,,,,,,,2.1484375,1.19921875,-0.65234375,0.0703125,-1.044921875,0.35546875,1.8046875,-8.421875,0.58203125,1.0
646198,,,,,,,,1.8515625,0.84765625,-0.40234375,0.0703125,-0.9609375,0.318359375,1.5,-8.76953125,0.84765625,1.0
646199,,,,,,,,1.703125,0.7734375,-0.28515625,0.06640625,-0.9140625,0.29296875,1.34375,-8.84375,0.96484375,1.0
646200,36.0132135,129.3192135,55.306193354065385,90.2655142849149,1.1,161.0,0.0,1.64453125,0.50390625,-0.21875,0.05078125,-0.814453125,0.25,1.26953125,-9.109375,1.0390625,1.0
646201,,,,,,,,1.7265625,0.08203125,-0.25390625,0.060546875,-0.6953125,0.2109375,1.34375,-9.53515625,1.00390625,1.0
646202,,,,,,,,1.734375,-0.0390625,-0.30859375,0.078125,-0.640625,0.189453125,1.34375,-9.65234375,0.96484375,1.0
646203,,,,,,,,1.8203125,-0.31640625,-0.5078125,0.12109375,-0.537109375,0.166015625,1.421875,-9.91796875,0.7734375,1.0
646204,,,,,,,,1.7734375,-0.31640625,-0.59375,0.15234375,-0.48046875,0.154296875,1.3828125,-9.91796875,0.6953125,1.0
646205,,,,,,,,1.67578125,-0.39453125,-0.65625,0.224609375,-0.412109375,0.14453125,1.26953125,-9.9921875,0.65625,1.0
646206,,,,,,,,1.29296875,-0.27734375,-0.640625,0.28515625,-0.388671875,0.13671875,0.88671875,-9.875,0.6953125,1.0
646207,,,,,,,,1.140625,-0.28515625,-0.6484375,0.302734375,-0.380859375,0.130859375,0.734375,-9.87890625,0.6953125,1.0
646208,,,,,,,,0.71875,-0.33203125,-0.43359375,0.326171875,-0.3359375,0.130859375,0.3125,-9.9140625,0.96484375,1.0
646209,,,,,,,,0.609375,-0.5703125,-0.3046875,0.31640625,-0.298828125,0.1171875,0.1953125,-10.15234375,1.1171875,1.0
646210,36.0132125,129.31921416666668,55.36629315081093,90.15455541817593,1.2000000000000002,152.0,,1.0390625,-1.50390625,-0.234375,0.05078125,-0.814453125,0.25,0.6171875,-11.0625,1.234375,1.0
646211,,,,,,,,1.26953125,-1.6953125,-0.421875,0.177734375,-0.220703125,0.11328125,0.84765625,-11.26171875,1.078125,1.0
646212,,,,,,,,1.5078125,-1.7734375,-0.734375,0.15234375,-0.228515625,0.11328125,1.078125,-11.3359375,0.7734375,1.0
646213,,,,,,,,1.66015625,-1.20703125,-0.7578125,0.087890625,-0.322265625,0.125,1.23046875,-10.76171875,0.7734375,1.0
646214,,,,,,,,1.546875,-0.2109375,-1.07421875,0.0625,-0.388671875,0.123046875,1.1171875,-9.76953125,0.46484375,1.0
646215,,,,,,,,1.5078125,0.39453125,-1.265625,0.0390625,-0.44921875,0.142578125,1.078125,-9.1484375,0.2734375,1.0
646216,,,,,,,,1.58203125,0.47265625,-1.2265625,0.01953125,-0.443359375,0.13671875,1.15234375,-9.0703125,0.3125,1.0
646217,,,,,,,,1.74609375,0.32421875,-0.91796875,-0.060546875,-0.435546875,0.154296875,1.30859375,-9.2265625,0.62109375,1.0
646218,,,,,,,,1.8203125,-0.48046875,-0.8828125,-0.11328125,-0.384765625,0.1484375,1.3828125,-10.03125,0.65625,1.0
646219,,,,,,,,1.828125,-0.9765625,-0.875,-0.12109375,-0.3671875,0.140625,1.3828125,-10.53125,0.65625,1.0
646220,36.01321183333334,129.31921516666668,55.456442263412804,90.08058315636514,1.3,142.0,,1.0234375,-2.66015625,0.1015625,0.05078125,-0.814453125,0.25,0.578125,-12.21484375,1.6171875,1.0
646221,,,,,,,,-0.4296875,-3.3046875,2.55078125,-0.408203125,-0.28125,0.126953125,-0.875,-12.87109375,4.02734375,1.0
646222,,,,,,,,-1.45703125,-1.91796875,3.86328125,-0.544921875,-0.181640625,0.1015625,-1.91015625,-11.48828125,5.29296875,1.0
646223,,,,,,,,-1.6875,-1.8046875,3.3125,-0.646484375,-0.16015625,0.107421875,-2.140625,-11.37890625,4.71875,1.0
646224,,,,,,,,-1.7578125,-1.94140625,2.921875,-0.87890625,-0.080078125,0.099609375,-2.21875,-11.52734375,4.2578125,1.0
646225,,,,,,,,-1.71875,-2.078125,4.1640625,-0.853515625,0.033203125,0.04296875,-2.1796875,-11.68359375,5.40625,1.0
646226,,,,,,,,-1.49609375,-2.40625,4.34375,-0.599609375,0.025390625,-0.017578125,-1.94921875,-12.02734375,5.484375,1.0
646227,,,,,,,,-0.65234375,-1.7109375,4.046875,-0.318359375,-0.169921875,-0.009765625,-1.10546875,-11.3359375,5.140625,1.0
646228,,,,,,,,-0.34765625,-1.3671875,3.91015625,-0.283203125,-0.310546875,0.001953125,-0.80078125,-10.9921875,4.98828125,1.0
646229,,,,,,,,0.21875,-0.63671875,3.2421875,-0.30078125,-0.435546875,0.0234375,-0.2265625,-10.2578125,4.296875,1.0
646230,36.013211,129.31921616666665,55.546591492535455,89.98811768665374,1.3,137.0,,0.18359375,-0.09375,2.8359375,0.05078125,-0.814453125,0.25,-0.26171875,-9.7265625,3.875,1.0
646231,,,,,,,,-0.1640625,-0.20703125,2.65234375,0.072265625,-0.337890625,0.0546875,-0.83984375,-10.03125,3.72265625,1.0
646232,,,,,,,,-0.78515625,-0.70703125,2.8359375,0.203125,-0.365234375,0.03125,-1.22265625,-10.33984375,3.875,1.0
646233,,,,,,,,-1.08984375,-0.859375,2.8828125,0.248046875,-0.326171875,0.01171875,-1.52734375,-10.4140625,3.9140625,1.0
646234,,,,,,,,-1.05859375,-0.70703125,2.515625,0.150390625,-0.3359375,-0.0078125,-1.375,-10.19140625,3.453125,1.0
646235,,,,,,,,-0.8359375,-0.40234375,2.10546875,-0.0234375,-0.353515625,-0.0390625,-1.03125,-9.91796875,2.95703125,1.0
646236,,,,,,,,-0.30859375,0.01953125,1.41796875,-0.232421875,-0.39453125,-0.07421875,-0.53125,-9.53515625,2.3828125,1.0
646237,,,,,,,,0.2421875,0.3046875,1.06640625,-0.341796875,-0.45703125,-0.087890625,-0.1484375,-9.34375,2.15234375,1.0
646238,,,,,,,,0.45703125,0.41796875,0.75390625,-0.318359375,-0.4921875,-0.1015625,0.08203125,-9.2265625,1.80859375,1.0
646239,,,,,,,,0.5546875,0.58203125,0.62109375,-0.294921875,-0.5234375,-0.107421875,0.1953125,-9.0703125,1.65234375,1.0
646240,36.0132105,129.31921716666665,55.636740489700685,89.93263863536103,1.1,133.0,,0.609375,0.93359375,0.41796875,-0.306640625,-0.5390625,-0.125,0.2734375,-8.73046875,1.42578125,1.0
646241,,,,,,,,0.69921875,1.4296875,0.25,-0.333984375,-0.568359375,-0.142578125,0.38671875,-8.234375,1.234375,1.0
646242,,,,,,,,0.68359375,1.9765625,-0.02734375,-0.333984375,-0.572265625,-0.15234375,0.38671875,-7.6953125,0.92578125,1.0
646243,,,,,,,,0.578125,2.51953125,-0.1875,-0.302734375,-0.56640625,-0.171875,0.3125,-7.16015625,0.734375,1.0
646244,,,,,,,,0.4765625,2.81640625,-0.28515625,-0.244140625,-0.572265625,-0.189453125,0.234375,-6.8515625,0.62109375,1.0
646245,,,,,,,,0.26171875,3.015625,-0.34765625,-0.162109375,-0.583984375,-0.203125,0.04296875,-6.66796875,0.54296875,1.0
646246,,,,,,,,0.17578125,3.0546875,-0.33984375,-0.12109375,-0.58984375,-0.2109375,-0.03515625,-6.625,0.54296875,1.0
646247,,,,,,,,-0.08984375,3.015625,-0.29296875,-0.0546875,-0.59765625,-0.224609375,-0.26171875,-6.6640625,0.58203125,1.0
646248,,,,,,,,-0.23046875,2.87109375,-0.33203125,-0.015625,-0.609375,-0.2265625,-0.37890625,-6.8125,0.54296875,1.0
646249,,,,,,,,-0.4140625,2.60546875,-0.453125,-0.021484375,-0.623046875,-0.23046875,-0.53125,-7.08203125,0.4296875,1.0
646250,36.01321016666667,129.31921783333334,55.69683982580796,89.89565260075436,1.0,130.0,,-0.56640625,2.3671875,-0.5703125,-0.04296875,-0.626953125,-0.2109375,-0.64453125,-7.31640625,0.3125,1.0
646251,,,,,,,,-0.67578125,2.05859375,-0.5625,-0.05078125,-0.6484375,-0.18359375,-0.72265625,-7.62109375,0.3125,1.0
646252,,,,,,,,-0.76953125,1.79296875,-0.36328125,-0.052734375,-0.658203125,-0.166015625,-0.80078125,-7.8828125,0.50390625,1.0
646253,,,,,,,,-0.65234375,1.484375,-0.25390625,0.01171875,-0.69140625,-0.1015625,-0.64453125,-8.1953125,0.62109375,1.0
646254,,,,,,,,-0.59375,1.5234375,-0.33984375,0.044921875,-0.71484375,-0.0546875,-0.5703125,-8.15625,0.54296875,1.0
646255,,,,,,,,-0.45703125,1.78515625,-0.578125,0.068359375,-0.7421875,-0.001953125,-0.41796875,-7.88671875,0.3125,1.0
646256,,,,,,,,-0.33984375,1.859375,-0.6171875,0.078125,-0.74609375,0.01953125,-0.30078125,-7.8125,0.2734375,1.0
646257,,,,,,,,-0.04296875,1.66796875,-0.859375,0.119140625,-0.77734375,0.0859375,0.00390625,-8.0,0.046875,1.0
646258,,,,,,,,0.03515625,1.515625,-0.82421875,0.14453125,-0.78515625,0.107421875,0.08203125,-8.16015625,0.08203125,1.0
646259,,,,,,,,0.234375,0.97265625,-0.73046875,0.19140625,-0.78125,0.13671875,0.2734375,-8.69140625,0.19921875,1.0
646260,36.0132095,129.31921883333334,55.78698894418061,89.82168034282043,1.1,127.0,,0.2734375,0.7734375,-0.69921875,-0.04296875,-0.626953125,-0.2109375,0.3125,-8.88671875,0.23828125,1.0
646261,,,,,,,,0.32421875,0.12109375,-0.578125,0.216796875,-0.77734375,0.17578125,0.34765625,-9.53515625,0.390625,1.0
646262,,,,,,,,0.39453125,-0.19140625,-0.44140625,0.185546875,-0.765625,0.177734375,0.42578125,-9.83984375,0.54296875,1.0
646263,,,,,,,,0.44140625,-0.4609375,-0.41796875,0.12109375,-0.75390625,0.173828125,0.46484375,-10.109375,0.58203125,1.0
646264,,,,,,,,0.609375,-0.73046875,-0.3515625,0.01953125,-0.740234375,0.15234375,0.6171875,-10.375,0.65625,1.0
646265,,,,,,,,0.76171875,-0.5859375,-0.42578125,0.001953125,-0.734375,0.1171875,0.76953125,-10.2265625,0.58203125,1.0
646266,,,,,,,,0.92578125,-0.5859375,-0.38671875,0.0078125,-0.728515625,0.095703125,0.92578125,-10.2265625,0.62109375,1.0
646267,,,,,,,,1.15234375,-0.69921875,-0.39453125,0.02734375,-0.724609375,0.064453125,1.15234375,-10.33984375,0.62109375,1.0
646268,,,,,,,,1.25390625,-0.77734375,-0.359375,0.048828125,-0.6328125,0.025390625,1.26953125,-10.4140625,0.65625,1.0
646269,,,,,,,,1.25390625,-0.859375,-0.3671875,0.046875,-0.591796875,0.01953125,1.26953125,-10.4921875,0.65625,1.0
646270,36.013208666666664,129.31921966666667,55.86211340442951,89.72921478075327,1.2000000000000002,129.0,,0.9765625,-0.859375,-0.40234375,-0.04296875,-0.626953125,-0.2109375,1.0,-10.49609375,0.62109375,1.0
646271,,,,,,,,0.43359375,-0.171875,-0.40234375,-0.03125,-0.4296875,0.0078125,0.46484375,-9.8046875,0.62109375,1.0
646272,,,,,,,,0.00390625,0.328125,-0.39453125,-0.06640625,-0.3359375,-0.00390625,0.04296875,-9.3046875,0.62109375,1.0
646273,,,,,,,,-0.84765625,0.90234375,-0.3515625,-0.111328125,-0.171875,-0.0078125,-0.80078125,-8.7265625,0.65625,1.0
646274,,,,,,,,-1.765625,1.28515625,0.27734375,-0.140625,-0.064453125,-0.017578125,-1.71875,-8.34375,1.26953125,1.0
646275,,,,,,,,-2.1875,1.0546875,0.640625,-0.173828125,0.00390625,-0.01171875,-2.140625,-8.58203125,1.6171875,1.0
646276,,,,,,,,-2.4921875,0.2890625,0.921875,-0.19140625,0.052734375,-0.0078125,-2.4453125,-9.34375,1.8828125,1.0
646277,,,,,,,,-2.08203125,-2.4609375,1.52734375,-0.265625,0.056640625,0.017578125,-2.02734375,-12.10546875,2.45703125,1.0
646278,,,,,,,,-0.9296875,-5.45703125,1.828125,-0.3515625,-0.05078125,0.041015625,-0.875,-15.08984375,2.7265625,1.0
646279,,,,,,,,0.5703125,-7.86328125,1.71484375,-0.44140625,-0.220703125,0.0546875,0.6171875,-17.5,2.57421875,1.0
646280,36.013208,129.31922083333333,55.96728730092218,89.65524262047234,1.3,127.0,,2.21875,-9.5859375,2.3359375,-0.04296875,-0.626953125,-0.2109375,2.265625,-19.23046875,3.1484375,1.0
646281,,,,,,,,4.515625,-5.78515625,5.31640625,-0.67578125,-0.55078125,0.076171875,4.5625,-15.43359375,6.09765625,1.0
646282,,,,,,,,4.40234375,-4.32421875,5.1875,-0.77734375,-0.8125,0.107421875,3.4921875,-12.9453125,5.37109375,1.0
646283,,,,,,,,3.453125,-3.2890625,4.69140625,-0.72265625,-0.912109375,0.134765625,1.57421875,-12.06640625,4.94921875,1.0
646284,,,,,,,,0.43359375,-2.16796875,4.33984375,-0.56640625,-1.134765625,0.18359375,-0.5703125,-11.76171875,5.0625,1.0
646285,,,,,,,,-0.6015625,-2.09375,4.4765625,-0.509765625,-1.19140625,0.181640625,-1.3359375,-11.80078125,4.83203125,1.0
646286,,,,,,,,-1.3671875,-2.125,4.26953125,-0.451171875,-1.2109375,0.154296875,-2.29296875,-11.94921875,4.296875,1.0
646287,,,,,,,,-2.04296875,-1.85546875,2.83203125,-0.216796875,-1.19921875,0.10546875,-2.02734375,-11.5234375,3.33984375,1.0
646288,,,,,,,,-1.6640625,-1.3203125,1.90234375,0.728515625,-0.88671875,-0.06640625,-1.640625,-10.9921875,2.45703125,1.0
646289,,,,,,,,-1.10546875,-0.32421875,0.5625,0.73046875,-1.046875,-0.013671875,-1.06640625,-9.99609375,1.1953125,1.0
646290,36.0132075,129.31922183333333,56.05743630598879,89.59976357264722,1.2000000000000002,125.0,,-0.83984375,0.13671875,0.59765625,-0.04296875,-0.626953125,-0.2109375,2.265625,-19.23046875,3.1484375,1.0
646291,,,,,,,,-0.2265625,0.03125,1.00390625,0.56640625,-1.447265625,0.14453125,-0.1875,-9.65234375,1.73046875,1.0
646292,,,,,,,,0.04296875,-0.16015625,1.09375,0.57421875,-1.484375,0.224609375,0.08203125,-9.83984375,1.84375,1.0
646293,,,,,,,,0.5625,-0.09375,0.765625,0.720703125,-1.384765625,0.380859375,0.578125,-9.765625,1.6171875,1.0
646294,,,,,,,,0.79296875,0.359375,0.125,0.48046875,-1.34375,0.498046875,0.76953125,-9.3046875,1.078125,1.0
646295,,,,,,,,0.6796875,1.125,-0.05859375,0.154296875,-1.46875,0.591796875,0.6171875,-8.54296875,0.92578125,1.0
646296,,,,,,,,0.703125,1.5859375,0.0546875,0.03515625,-1.54296875,0.615234375,0.6171875,-8.08203125,1.0390625,1.0
646297,,,,,,,,1.03515625,1.96875,0.0859375,-0.064453125,-1.6328125,0.65234375,0.88671875,-7.6953125,1.078125,1.0
646298,,,,,,,,1.39453125,2.3515625,0.1640625,-0.048828125,-1.580078125,0.6484375,1.19140625,-7.3125,1.15625,1.0
646299,,,,,,,,1.48828125,2.43359375,0.125,-0.064453125,-1.541015625,0.634765625,1.26953125,-7.234375,1.1171875,1.0
646300,36.013207,129.319223,56.16261008704481,89.5442846217544,1.2000000000000002,120.0,0.0,1.87109375,2.80859375,-0.296875,-0.04296875,-0.626953125,-0.2109375,1.61328125,-6.8515625,0.6953125,1.0
646301,,,,,,,,2.1328125,3.0390625,-0.25,-0.123046875,-1.443359375,0.564453125,1.8046875,-6.625,0.734375,1.0
646302,,,,,,,,2.77734375,3.0390625,-0.5546875,-0.005859375,-1.326171875,0.5078125,2.37890625,-6.62890625,0.4296875,1.0
646303,,,,,,,,2.79296875,2.7734375,-0.87109375,0.0390625,-1.2890625,0.498046875,2.37890625,-6.89453125,0.12109375,1.0
646304,,,,,,,,2.82421875,2.57421875,-0.88671875,0.1015625,-1.228515625,0.4765625,2.37890625,-7.08203125,0.12109375,1.0
646305,,,,,,,,2.80078125,2.45703125,-0.85546875,0.109375,-1.20703125,0.462890625,2.33984375,-7.1953125,0.16015625,1.0
646306,,,,,,,,2.75,2.3828125,-0.7578125,0.140625,-1.19140625,0.431640625,2.265625,-7.27734375,0.2734375,1.0
646307,,,,,,,,2.48046875,2.21875,-0.52734375,0.1484375,-1.1875,0.380859375,1.95703125,-7.43359375,0.54296875,1.0
646308,,,,,,,,2.375,2.17578125,-0.45703125,0.1328125,-1.1640625,0.36328125,1.84375,-7.46484375,0.62109375,1.0
646309,,,,,,,,2.12890625,2.09765625,-0.359375,0.083984375,-1.09375,0.32421875,1.57421875,-7.54296875,0.734375,1.0
646310,36.0132065,129.319224,56.25275909244076,89.48880557514074,1.1,120.0,,2.16796875,2.01953125,-0.3359375,-0.04296875,-0.626953125,-0.2109375,1.61328125,-6.8515625,0.6953125,1.0
646311,,,,,,,,2.13671875,1.63671875,-0.3046875,0.048828125,-0.931640625,0.232421875,1.57421875,-8.00390625,0.8125,1.0
646312,,,,,,,,2.22265625,1.32421875,-0.27734375,0.052734375,-0.8203125,0.18359375,1.65234375,-8.30859375,0.84765625,1.0
646313,,,,,,,,2.34375,0.89453125,-0.3203125,0.060546875,-0.720703125,0.1328125,1.765625,-8.73046875,0.8125,1.0
646314,,,,,,,,2.375,0.28125,-0.421875,0.072265625,-0.615234375,0.099609375,1.8046875,-9.34375,0.734375,1.0
646315,,,,,,,,2.13671875,-0.25390625,-0.4296875,0.07421875,-0.51953125,0.07421875,1.57421875,-9.87890625,0.734375,1.0
646316,,,,,,,,1.984375,-0.33984375,-0.4375,0.068359375,-0.435546875,0.05859375,1.421875,-9.95703125,0.734375,1.0
646317,,,,,,,,1.2578125,-0.41796875,0.12890625,0.0703125,-0.361328125,0.0390625,0.6953125,-10.03515625,1.30859375,1.0
646318,,,,,,,,0.859375,-0.1875,0.49609375,0.06640625,-0.26953125,0.013671875,0.3125,-9.8046875,1.69140625,1.0
646319,,,,,,,,0.58984375,-0.03125,0.6484375,0.087890625,-0.177734375,-0.005859375,0.04296875,-9.65234375,1.84375,1.0
646320,36.01320616666667,129.31922516666666,56.35793275740484,89.45181983585768,1.1,116.0,,1.00390625,0.14453125,-0.29296875,0.08984375,-0.05078125,-0.041015625,0.46484375,-9.45703125,0.92578125,1.0
646321,,,,,,,,1.1328125,-0.35546875,-0.84375,0.07421875,0.080078125,-0.029296875,0.6171875,-9.953125,0.390625,1.0
646322,,,,,,,,1.1328125,-0.5078125,-0.890625,0.05859375,-0.001953125,-0.0078125,0.6171875,-10.11328125,0.3515625,1.0
646323,,,,,,,,1.0859375,-0.859375,-0.96875,0.0234375,-0.150390625,0.03125,0.578125,-10.453125,0.2734375,1.0
646324,,,,,,,,0.8203125,-0.546875,-0.70703125,-0.06640625,-0.21484375,0.0625,0.3125,-10.1484375,0.54296875,1.0
646325,,,,,,,,0.58203125,-0.36328125,-0.34765625,-0.123046875,-0.154296875,0.095703125,0.08203125,-9.953125,0.88671875,1.0
646326,,,,,,,,0.47265625,-0.046875,-0.22265625,-0.166015625,-0.12109375,0.10546875,-0.03515625,-9.65234375,1.00390625,1.0
646327,,,,,,,,0.62890625,0.37890625,0.015625,-0.2421875,-0.125,0.12109375,0.12109375,-9.2265625,1.234375,1.0
646328,,,,,,,,1.28515625,0.296875,0.08203125,-0.302734375,-0.109375,0.123046875,0.76953125,-9.3046875,1.26953125,1.0
646329,,,,,,,,1.6015625,-0.69921875,-0.4375,-0.333984375,-0.109375,0.11328125,1.078125,-10.30078125,0.734375,1.0
646330,36.013206,129.31922649999998,56.478131079936844,89.4333273986472,1.2000000000000002,106.0,,1.53125,-1.6484375,-0.328125,0.08984375,-0.05078125,-0.041015625,1.0,-11.26171875,0.8125,1.0
646331,,,,,,,,0.453125,-3.06640625,0.20703125,-0.380859375,-0.064453125,0.0859375,-0.0703125,-12.671875,1.30859375,1.0
646332,,,,,,,,-0.7265625,-3.09765625,1.578125,-0.3828125,-0.107421875,0.072265625,-1.2578125,-12.71484375,2.6484375,1.0
646333,,,,,,,,-1.37890625,-3.01953125,2.21484375,-0.390625,-0.12890625,0.068359375,-1.91015625,-12.6328125,3.26171875,1.0
646334,,,,,,,,-2.98828125,-4.24609375,4.00390625,-0.654296875,-0.1796875,0.11328125,-3.51953125,-13.86328125,4.98828125,1.0
646335,,,,,,,,-3.671875,-4.421875,5.15234375,-0.984375,-0.0703125,0.1171875,-4.2109375,-14.0546875,6.05859375,1.0
646336,,,,,,,,-2.8203125,-2.98828125,4.44140625,-0.892578125,0.015625,0.03125,-3.3671875,-12.6328125,5.21484375,1.0
646337,,,,,,,,-1.25,-1.87890625,3.75390625,-0.76953125,0.080078125,0.0390625,-1.796875,-11.52734375,4.44921875,1.0
646338,,,,,,,,-0.59765625,-1.7578125,3.76171875,-0.740234375,0.06640625,0.0546875,-1.14453125,-11.4140625,4.41015625,1.0
646339,,,,,,,,0.7421875,-1.48828125,3.25,-0.69140625,-0.181640625,0.05859375,0.1953125,-11.14453125,3.8359375,1.0
646340,36.013206,129.31922766666668,56.58330451081291,89.4333280755554,1.1,100.0,,1.00390625,-1.09765625,2.89453125,-0.185546875,-0.681640625,0.052734375,0.46484375,-10.76171875,3.41796875,1.0
646341,,,,,,,,0.66796875,-0.7890625,2.34765625,0.2578125,-0.8203125,0.123046875,0.12109375,-10.45703125,2.87890625,1.0
646342,,,,,,,,0.3203125,-0.828125,2.0703125,0.4765625,-0.71875,0.15234375,-0.2265625,-10.49609375,2.6484375,1.0
646343,,,,,,,,0.0234375,-0.8671875,2.23828125,0.505859375,-0.59375,0.134765625,-0.53125,-10.53515625,2.83984375,1.0
646344,,,,,,,,-0.16015625,-0.90625,2.33984375,0.4375,-0.390625,0.11328125,-0.72265625,-10.57421875,2.99609375,1.0
646345,,,,,,,,0.0,-0.59765625,2.18359375,0.306640625,-0.337890625,0.05859375,-0.5703125,-10.2578125,2.87890625,1.0
646346,,,,,,,,0.30078125,-0.21484375,1.76953125,0.173828125,-0.39453125,-0.013671875,-0.26171875,-9.875,2.49609375,1.0
646347,,,,,,,,0.54296875,0.43359375,0.98828125,-0.109375,-0.56640625,-0.119140625,0.00390625,-9.23046875,1.73046875,1.0
646348,,,,,,,,0.66015625,0.8203125,0.7109375,-0.169921875,-0.619140625,-0.14453125,0.12109375,-8.84375,1.4609375,1.0
646349,,,,,,,,0.7109375,1.28515625,0.4609375,-0.201171875,-0.71484375,-0.17578125,0.1953125,-8.38671875,1.1953125,1.0
646350,36.013206,129.319229,56.70350271384602,89.43332885053361,1.1,93.0,,0.6796875,1.6015625,0.16015625,-0.150390625,-0.74609375,-0.197265625,0.1953125,-8.08203125,0.88671875,1.0
646351,,,,,,,,0.7734375,1.828125,0.12890625,-0.078125,-0.78125,-0.21484375,0.3125,-7.85546875,0.84765625,1.0
646352,,,,,,,,0.81640625,2.14453125,-0.09765625,-0.0546875,-0.75,-0.197265625,0.38671875,-7.5390625,0.62109375,1.0
646353,,,,,,,,0.75390625,2.328125,-0.21484375,-0.076171875,-0.65625,-0.1640625,0.34765625,-7.35546875,0.50390625,1.0
646354,,,,,,,,0.73046875,2.44921875,-0.21484375,-0.08984375,-0.564453125,-0.12890625,0.34765625,-7.234375,0.50390625,1.0
646355,,,,,,,,0.5234375,2.56640625,-0.16796875,-0.109375,-0.53515625,-0.09765625,0.15625,-7.12109375,0.54296875,1.0
646356,,,,,,,,0.2421875,2.52734375,-0.16796875,-0.1015625,-0.52734375,-0.08203125,-0.109375,-7.15625,0.54296875,1.0
646357,,,,,,,,-0.08203125,2.56640625,-0.12109375,-0.07421875,-0.5546875,-0.083984375,-0.41796875,-7.12109375,0.58203125,1.0
646358,,,,,,,,-0.5625,2.6875,0.03125,-0.03515625,-0.583984375,-0.103515625,-0.875,-7.0078125,0.734375,1.0
646359,,,,,,,,-0.76953125,2.6484375,0.0703125,0.017578125,-0.59375,-0.123046875,-1.06640625,-7.046875,0.7734375,1.0
646360,36.01320616666667,129.31923,56.79365124775851,89.45182264163914,1.0,89.0,,-0.87109375,2.53515625,0.015625,0.078125,-0.576171875,-0.126953125,-1.14453125,-7.16015625,0.734375,1.0
646361,,,,,,,,-0.92578125,2.22265625,-0.03125,0.14453125,-0.546875,-0.12890625,-1.18359375,-7.4609375,0.6953125,1.0
646362,,,,,,,,-0.93359375,2.11328125,-0.0390625,0.16796875,-0.53515625,-0.1171875,-1.18359375,-7.578125,0.6953125,1.0
646363,,,,,,,,-0.87109375,1.9140625,-0.1015625,0.23046875,-0.505859375,-0.1015625,-1.10546875,-7.7734375,0.65625,1.0
646364,,,,,,,,-0.8046875,1.80078125,-0.23828125,0.255859375,-0.51171875,-0.083984375,-1.03125,-7.8828125,0.54296875,1.0
646365,,,,,,,,-0.63671875,1.70703125,-0.36328125,0.294921875,-0.53125,-0.041015625,-0.83984375,-7.96484375,0.46484375,1.0
646366,,,,,,,,-0.06640625,1.515625,-0.33984375,0.2578125,-0.599609375,0.0234375,-0.26171875,-8.15625,0.54296875,1.0
646367,,,,,,,,0.0,1.46875,-0.31640625,0.2578125,-0.60546875,0.041015625,-0.1875,-8.19921875,0.58203125,1.0
646368,,,,,,,,0.15234375,1.27734375,-0.34765625,0.259765625,-0.626953125,0.0625,-0.03515625,-8.3828125,0.58203125,1.0
646369,,,,,,,,0.19140625,1.1640625,-0.36328125,0.2734375,-0.642578125,0.08203125,0.00390625,-8.50390625,0.58203125,1.0
646370,36.01320616666667,129.31923116666667,56.898824676016716,89.45182332228532,1.1,87.0,,0.18359375,0.88671875,-0.38671875,0.078125,-0.576171875,-0.126953125,-1.14453125,-7.16015625,0.734375,1.0
646371,,,,,,,,0.19140625,0.7734375,-0.48828125,0.20703125,-0.701171875,0.107421875,0.00390625,-8.88671875,0.50390625,1.0
646372,,,,,,,,0.078125,0.57421875,-0.39453125,0.140625,-0.70703125,0.091796875,-0.109375,-9.07421875,0.62109375,1.0
646373,,,,,,,,0.23046875,0.21875,-0.25,0.08203125,-0.673828125,0.083984375,0.04296875,-9.42578125,0.7734375,1.0
646374,,,,,,,,0.4296875,-0.046875,-0.15234375,0.025390625,-0.615234375,0.072265625,0.234375,-9.6875,0.88671875,1.0
646375,,,,,,,,0.61328125,-0.515625,-0.19140625,-0.05078125,-0.5390625,0.04296875,0.42578125,-10.15234375,0.84765625,1.0
646376,,,,,,,,0.7578125,-0.8125,-0.03515625,-0.083984375,-0.515625,0.03125,0.578125,-10.45703125,1.00390625,1.0
646377,,,,,,,,0.7890625,-0.859375,-0.02734375,-0.11328125,-0.50390625,0.0078125,0.6171875,-10.49609375,1.00390625,1.0
646378,,,,,,,,0.66796875,-0.77734375,-0.01171875,-0.142578125,-0.484375,-0.01953125,0.50390625,-10.4140625,1.00390625,1.0
646379,,,,,,,,0.54296875,-0.66015625,-0.07421875,-0.1796875,-0.4375,-0.041015625,0.38671875,-10.296875,0.92578125,1.0
646380,36.01320633333333,129.3192325,57.0190227599112,89.47031730777208,1.2000000000000002,90.0,,0.3046875,-0.4765625,-0.3359375,-0.19921875,-0.375,-0.060546875,-1.14453125,-7.16015625,0.734375,1.0
646381,,,,,,,,0.13671875,-0.09375,-0.38671875,-0.20703125,-0.322265625,-0.087890625,0.00390625,-9.73046875,0.58203125,1.0
646382,,,,,,,,-0.15234375,0.328125,-0.48046875,-0.177734375,-0.22265625,-0.125,-0.26171875,-9.30859375,0.46484375,1.0
646383,,,,,,,,-0.70703125,0.7578125,-0.38671875,-0.171875,-0.146484375,-0.1328125,-0.80078125,-8.88671875,0.54296875,1.0
646384,,,,,,,,-1.02734375,0.98828125,-0.21875,-0.21875,-0.0859375,-0.126953125,-1.10546875,-8.65234375,0.6953125,1.0
646385,,,,,,,,-1.50390625,0.7109375,-0.15625,-0.263671875,-0.03125,-0.10546875,-1.56640625,-8.921875,0.734375,1.0
646386,,,,,,,,-1.703125,0.44921875,-0.25390625,-0.275390625,0.0,-0.09375,-1.7578125,-9.19140625,0.62109375,1.0
646387,,,,,,,,-1.7421875,-0.77734375,-0.1953125,-0.33203125,0.029296875,-0.072265625,-1.796875,-10.4140625,0.65625,1.0
646388,,,,,,,,-1.40234375,-2.5,0.57421875,-0.40625,-0.001953125,-0.048828125,-1.44921875,-12.140625,1.38671875,1.0
646389,,,,,,,,-0.26171875,-4.828125,1.30078125,-0.474609375,-0.08203125,-0.03515625,-0.30078125,-14.48046875,2.07421875,1.0
646390,36.01320633333333,129.31923366666666,57.12419618741801,89.47031799090351,1.1,90.0,,0.80078125,-6.515625,1.85546875,-0.552734375,-0.17578125,-0.0234375,0.76953125,-16.16796875,2.57421875,1.0
646391,,,,,,,,2.6015625,-7.625,2.8671875,-0.751953125,-0.27734375,-0.017578125,2.5703125,-17.2734375,3.53125,1.0
646392,,,,,,,,3.20703125,-6.23828125,3.6328125,-0.8671875,-0.32421875,0.001953125,3.18359375,-15.89453125,4.2578125,1.0
646393,,,,,,,,3.20703125,-3.35546875,3.03125,-0.9765625,-0.4296875,0.04296875,3.18359375,-13.01953125,3.5703125,1.0
646394,,,,,,,,2.06640625,-2.7734375,3.09375,-0.953125,-0.787109375,0.119140625,2.03515625,-12.44921875,3.4921875,1.0
646395,,,,,,,,-0.1484375,-3.265625,3.671875,-0.896484375,-0.91796875,0.12109375,-0.1875,-12.94921875,3.9921875,1.0
646396,,,,,,,,-0.63671875,-3.37890625,3.6875,-0.828125,-0.935546875,0.08984375,-0.68359375,-13.0546875,3.953125,1.0
646397,,,,,,,,-0.8359375,-2.73046875,2.37109375,-0.103515625,-0.76171875,-0.064453125,-0.875,-12.41015625,2.57421875,1.0
646398,,,,,,,,-0.4453125,-1.6875,1.87109375,0.4609375,-0.720703125,-0.259765625,-0.453125,-11.37890625,2.11328125,1.0
646399,,,,,,,,-0.38671875,-1.45703125,1.92578125,0.435546875,-0.84375,-0.28125,-0.37890625,-11.140625,2.19140625,1.0
646400,36.0132065,129.31923483333333,57.22936949545684,89.48881188295533,1.1,90.0,0.0,-0.01171875,-0.4609375,1.171875,0.431640625,-1.21875,-0.234375,0.04296875,-10.15234375,1.5,1.0
646401,,,,,,,,0.1796875,0.19140625,0.98046875,0.708984375,-1.142578125,-0.07421875,0.2734375,-9.4921875,1.42578125,1.0
646402,,,,,,,,0.32421875,0.61328125,0.7578125,0.75390625,-1.0859375,-0.0234375,0.42578125,-9.07421875,1.234375,1.0
646403,,,,,,,,0.5078125,1.0703125,0.5234375,0.75390625,-1.056640625,0.09375,0.6171875,-8.62109375,1.078125,1.0
646404,,,,,,,,0.5546875,1.30078125,0.33203125,0.69140625,-1.07421875,0.1484375,0.65625,-8.38671875,0.92578125,1.0
646405,,,,,,,,0.71484375,2.17578125,0.1171875,0.470703125,-1.109375,0.216796875,0.80859375,-7.5,0.7734375,1.0
646406,,,,,,,,1.0078125,2.7578125,0.0703125,0.2578125,-1.189453125,0.302734375,1.078125,-6.9296875,0.7734375,1.0
646407,,,,,,,,1.0546875,3.015625,0.09375,0.240234375,-1.205078125,0.310546875,1.1171875,-6.6640625,0.8125,1.0
646408,,,,,,,,1.4609375,3.37109375,0.13671875,0.23046875,-1.21875,0.337890625,1.5,-6.3125,0.88671875,1.0
646409,,,,,,,,1.62109375,3.515625,0.08984375,0.236328125,-1.212890625,0.33984375,1.65234375,-6.1640625,0.84765625,1.0
646410,36.01320666666666,129.319236,57.334542802709954,89.50730577649277,1.1,85.0,,1.8046875,3.515625,-0.0859375,0.21875,-1.1875,0.357421875,0.04296875,-10.15234375,1.5,1.0
646411,,,,,,,,2.05078125,3.41015625,-0.26171875,0.203125,-1.154296875,0.3671875,2.03515625,-6.27734375,0.54296875,1.0
646412,,,,,,,,2.1875,3.0625,-0.5078125,0.197265625,-1.103515625,0.36328125,2.1484375,-6.62890625,0.3125,1.0
646413,,,,,,,,2.2421875,2.7890625,-0.63671875,0.21875,-1.072265625,0.359375,2.1875,-6.890625,0.19921875,1.0
646414,,,,,,,,2.34375,2.59765625,-0.70703125,0.2734375,-1.013671875,0.357421875,2.265625,-7.078125,0.16015625,1.0
646415,,,,,,,,2.51953125,2.28125,-0.66015625,0.30859375,-0.970703125,0.349609375,2.41796875,-7.39453125,0.23828125,1.0
646416,,,,,,,,2.50390625,2.015625,-0.578125,0.3125,-0.947265625,0.341796875,2.37890625,-7.66015625,0.3515625,1.0
646417,,,,,,,,2.359375,1.73828125,-0.53125,0.259765625,-0.95703125,0.33984375,2.2265625,-7.92578125,0.4296875,1.0
646418,,,,,,,,2.3046875,1.62109375,-0.51953125,0.16796875,-0.96484375,0.3203125,2.1484375,-8.04296875,0.46484375,1.0
646419,,,,,,,,2.09375,1.5390625,-0.5703125,0.103515625,-0.93359375,0.283203125,1.921875,-8.1171875,0.4296875,1.0
646420,36.013206833333335,129.31923700000002,57.42469133390847,89.52579957272987,1.0,83.0,,1.79296875,1.61328125,-0.65625,0.09765625,-0.841796875,0.24609375,1.61328125,-8.0390625,0.3515625,1.0
646421,,,,,,,,1.6953125,1.0625,-0.625,0.205078125,-0.583984375,0.083984375,1.5,-8.58203125,0.4296875,1.0
646422,,,,,,,,1.6171875,0.640625,-0.6875,0.2265625,-0.529296875,0.037109375,1.421875,-9.0,0.390625,1.0
646423,,,,,,,,1.5625,0.05859375,-0.55859375,0.232421875,-0.48828125,0.0078125,1.3828125,-9.5703125,0.54296875,1.0
646424,,,,,,,,1.53125,-0.09375,-0.4609375,0.23828125,-0.4609375,0.0,1.34375,-9.73046875,0.65625,1.0
646425,,,,,,,,1.32421875,-0.40234375,-0.29296875,0.224609375,-0.376953125,-0.02734375,1.1171875,-10.11328125,0.88671875,1.0
646426,,,,,,,,1.1953125,-0.5234375,-0.23828125,0.212890625,-0.302734375,-0.03515625,0.92578125,-10.1484375,1.0390625,1.0
646427,,,,,,,,1.08203125,-0.5234375,-0.1328125,0.21484375,-0.2578125,-0.044921875,0.88671875,-10.15234375,1.0390625,1.0
646428,,,,,,,,0.98046875,-0.4921875,-0.0390625,0.2109375,-0.205078125,-0.044921875,0.76953125,-10.0703125,1.1953125,1.0
646429,,,,,,,,0.90234375,-0.453125,-0.015625,0.2109375,-0.18359375,-0.04296875,0.84765625,-10.11328125,1.15625,1.0
646430,36.013206833333335,129.31923816666668,57.52986476158331,89.525800260735,1.1,82.0,,1.79296875,1.61328125,-0.65625,0.22265625,-0.146484375,-0.03515625,0.88671875,-10.11328125,1.15625,1.0
646431,,,,,,,,1.234375,-0.5390625,-0.24609375,0.23828125,-0.134765625,-0.017578125,1.1171875,-10.15234375,1.00390625,1.0
646432,,,,,,,,1.1796875,-0.8515625,-0.44140625,0.236328125,-0.158203125,-0.001953125,1.078125,-10.45703125,0.84765625,1.0
646433,,,,,,,,1.140625,-1.08203125,-0.6015625,0.236328125,-0.162109375,0.0078125,1.0390625,-10.6796875,0.6953125,1.0
646434,,,,,,,,0.94140625,-1.2734375,-0.625,0.21484375,-0.216796875,0.037109375,0.84765625,-10.875,0.6953125,1.0
646435,,,,,,,,0.58984375,-1.20703125,-0.609375,0.20703125,-0.234375,0.0546875,0.50390625,-10.796875,0.734375,1.0
646436,,,,,,,,0.359375,-0.9453125,-0.44140625,0.169921875,-0.2421875,0.083984375,0.2734375,-10.53125,0.92578125,1.0
646437,,,,,,,,0.20703125,-0.41015625,-0.41796875,0.12890625,-0.2421875,0.09375,0.12109375,-9.9921875,0.96484375,1.0
646438,,,,,,,,0.328125,-0.1796875,-0.42578125,0.099609375,-0.24609375,0.111328125,0.234375,-9.76953125,0.96484375,1.0
646439,,,,,,,,0.703125,0.39453125,-0.5859375,0.029296875,-0.263671875,0.130859375,0.6171875,-9.1875,0.8125,1.0
646440,36.013207333333334,129.3192395,57.650062599896025,89.58128067197747,1.2000000000000002,73.0,,1.484375,0.203125,-0.65625,-0.048828125,-0.28515625,0.146484375,1.3828125,-9.38671875,0.734375,1.0
646441,,,,,,,,1.71484375,-0.29296875,-0.34375,-0.099609375,-0.3046875,0.162109375,1.61328125,-9.875,1.0390625,1.0
646442,,,,,,,,1.234375,-1.59765625,-0.21875,-0.1171875,-0.35546875,0.177734375,1.1171875,-11.18359375,1.15625,1.0
646443,,,,,,,,0.4296875,-2.515625,0.29296875,-0.177734375,-0.3828125,0.18359375,0.3125,-12.10546875,1.65234375,1.0
646444,,,,,,,,-0.1015625,-2.01171875,1.62109375,-0.28515625,-0.384765625,0.1953125,-0.2265625,-11.6015625,2.95703125,1.0
646445,,,,,,,,-1.1953125,-1.97265625,2.87890625,-0.48828125,-0.369140625,0.203125,-1.3359375,-11.5625,4.18359375,1.0
646446,,,,,,,,-1.30078125,-2.38671875,3.015625,-0.5703125,-0.306640625,0.181640625,-1.44921875,-11.98828125,4.296875,1.0
646447,,,,,,,,-1.44921875,-3.6015625,3.453125,-0.669921875,-0.193359375,0.095703125,-1.60546875,-13.21484375,4.640625,1.0
646448,,,,,,,,-1.2578125,-3.51171875,4.51171875,-0.71875,-0.18359375,0.06640625,-1.4140625,-13.13671875,5.63671875,1.0
646449,,,,,,,,-1.1015625,-2.1640625,4.23828125,-0.703125,-0.173828125,0.017578125,-1.2578125,-11.80078125,5.29296875,1.0
646450,36.013208,129.31924066666667,57.75523553996543,89.65525419331897,1.2000000000000002,66.0,,-0.8828125,-1.46484375,3.53515625,-0.638671875,-0.333984375,0.025390625,-1.03125,-11.1015625,4.52734375,1.0
646451,,,,,,,,0.03125,-0.8515625,3.3671875,-0.642578125,-0.59375,0.017578125,-0.109375,-10.49609375,4.296875,1.0
646452,,,,,,,,0.94140625,-0.73046875,2.80078125,-0.513671875,-0.66796875,0.02734375,0.80859375,-10.37890625,3.68359375,1.0
646453,,,,,,,,1.05859375,-0.8046875,2.51953125,-0.09375,-0.609375,0.017578125,0.92578125,-10.453125,3.37890625,1.0
646454,,,,,,,,1.0859375,-0.875,2.34765625,0.330078125,-0.56640625,0.056640625,0.9609375,-10.53125,3.22265625,1.0
646455,,,,,,,,0.8203125,-0.76171875,2.1953125,0.431640625,-0.46484375,0.07421875,0.6953125,-10.4140625,3.109375,1.0
646456,,,,,,,,0.66796875,-0.68359375,2.1796875,0.396484375,-0.408203125,0.08984375,0.54296875,-10.3359375,3.109375,1.0
646457,,,,,,,,0.51953125,-0.61328125,2.01953125,0.310546875,-0.3125,0.078125,0.38671875,-10.26171875,2.99609375,1.0
646458,,,,,,,,0.47265625,-0.4140625,1.7265625,0.208984375,-0.28125,0.0390625,0.34765625,-10.0703125,2.7265625,1.0
646459,,,,,,,,0.7421875,-0.078125,1.17578125,0.087890625,-0.298828125,-0.00390625,0.6171875,-9.7265625,2.19140625,1.0
646460,36.013208666666664,129.31924183333334,57.860408478758515,89.7292277152068,1.2000000000000002,61.0,,0.95703125,0.19921875,0.8125,-0.041015625,-0.349609375,-0.078125,0.84765625,-9.45703125,1.84375,1.0
646461,,,,,,,,1.171875,0.7421875,0.36328125,-0.123046875,-0.3828125,-0.138671875,1.078125,-8.92578125,1.38671875,1.0
646462,,,,,,,,1.1953125,0.84765625,0.25390625,-0.146484375,-0.396484375,-0.162109375,1.1171875,-8.8046875,1.26953125,1.0
646463,,,,,,,,1.140625,1.15625,0.109375,-0.154296875,-0.412109375,-0.197265625,1.078125,-8.50390625,1.1171875,1.0
646464,,,,,,,,0.95703125,1.46875,0.00390625,-0.14453125,-0.416015625,-0.212890625,0.92578125,-8.19921875,1.00390625,1.0
646465,,,,,,,,0.91015625,1.8203125,-0.171875,-0.09765625,-0.359375,-0.201171875,0.92578125,-7.8515625,0.8125,1.0
646466,,,,,,,,0.71484375,2.12890625,-0.2890625,-0.046875,-0.2109375,-0.17578125,0.76953125,-7.54296875,0.6953125,1.0
646467,,,,,,,,0.6640625,2.12109375,-0.2421875,-0.025390625,-0.146484375,-0.158203125,0.734375,-7.5390625,0.734375,1.0
646468,,,,,,,,0.25390625,2.3125,-0.12890625,-0.04296875,-0.125,-0.154296875,0.34765625,-7.35546875,0.84765625,1.0
646469,,,,,,,,0.1328125,2.3984375,-0.08984375,-0.048828125,-0.13671875,-0.158203125,0.234375,-7.27734375,0.88671875,1.0
646470,36.01320916666667,129.31924283333333,57.95055676280048,89.78470793364284,1.0,59.0,,-0.3046875,2.625,-0.01171875,-0.037109375,-0.16015625,-0.169921875,-0.1875,-7.05078125,0.96484375,1.0
646471,,,,,,,,-0.87109375,2.78125,-0.08203125,-0.01171875,-0.166015625,-0.185546875,-0.72265625,-6.89453125,0.88671875,1.0
646472,,,,,,,,-0.96484375,2.81640625,-0.1640625,0.03125,-0.158203125,-0.189453125,-0.80078125,-6.85546875,0.8125,1.0
646473,,,,,,,,-1.29296875,2.85546875,-0.36328125,0.080078125,-0.12890625,-0.193359375,-1.10546875,-6.8125,0.62109375,1.0
646474,,,,,,,,-1.35546875,2.65625,-0.41015625,0.146484375,-0.134765625,-0.1796875,-1.14453125,-7.01171875,0.58203125,1.0
646475,,,,,,,,-1.33984375,2.54296875,-0.47265625,0.216796875,-0.111328125,-0.154296875,-1.10546875,-7.12109375,0.54296875,1.0
646476,,,,,,,,-1.28125,2.34375,-0.58203125,0.267578125,-0.08203125,-0.11328125,-1.03125,-7.31640625,0.46484375,1.0
646477,,,,,,,,-1.10546875,2.21875,-0.60546875,0.287109375,-0.07421875,-0.07421875,-0.83984375,-7.43359375,0.46484375,1.0
646478,,,,,,,,-0.95703125,2.09765625,-0.71875,0.2578125,-0.064453125,0.001953125,-0.68359375,-7.54296875,0.390625,1.0
646479,,,,,,,,-0.8828125,1.58984375,-0.8359375,0.232421875,-0.103515625,0.0625,-0.609375,-8.04296875,0.3125,1.0
646480,36.01321,129.31924383333336,58.04070480436583,89.87717456587124,1.2000000000000002,55.0,,-0.875,0.98046875,-0.70703125,0.216796875,-0.16015625,0.083984375,-0.609375,-8.6484375,0.46484375,1.0
646481,,,,,,,,-0.828125,0.3203125,-0.5,0.20703125,-0.216796875,0.10546875,-0.5703125,-9.30859375,0.6953125,1.0
646482,,,,,,,,-0.8671875,0.12890625,-0.4296875,0.19921875,-0.240234375,0.111328125,-0.609375,-9.49609375,0.7734375,1.0
646483,,,,,,,,-0.703125,-0.4921875,-0.37109375,0.162109375,-0.291015625,0.119140625,-0.453125,-10.109375,0.84765625,1.0
646484,,,,,,,,-0.58203125,-0.68359375,-0.1953125,0.109375,-0.3359375,0.11328125,-0.33984375,-10.30078125,1.0390625,1.0
646485,,,,,,,,-0.3125,-0.609375,-0.0546875,0.072265625,-0.37109375,0.115234375,-0.0703125,-10.2265625,1.1953125,1.0
646486,,,,,,,,-0.3125,-0.5390625,-0.0546875,0.064453125,-0.390625,0.10546875,-0.0703125,-10.15234375,1.1953125,1.0
646487,,,,,,,,-0.15234375,-0.4609375,-0.1328125,0.0546875,-0.44140625,0.08203125,0.08203125,-10.0703125,1.1171875,1.0
646488,,,,,,,,0.0,-0.23046875,-0.21875,0.064453125,-0.5,0.068359375,0.234375,-9.8359375,1.0390625,1.0
646489,,,,,,,,0.19140625,-0.15625,-0.25390625,0.064453125,-0.50390625,0.0625,0.42578125,-9.76953125,1.00390625,1.0
