time,latitude,longitude,enu_x,enu_y,speed,course,ecg,accX,accY,accZ,gyrX,gyrY,gyrZ,eulR,eulP,eulY,validity
643370,36.01323766666667,129.3192765,60.985539336627525,92.94706698362543,1.2000000000000002,44.0,,-0.296875,-0.36328125,-0.609375,0.064453125,-0.388671875,0.12109375,-0.453125,-9.91796875,0.734375,1.0
643371,,,,,,,,-0.8828125,0.21875,-0.2578125,-0.142578125,-0.39453125,0.017578125,-1.03125,-9.34375,1.078125,1.0
643372,,,,,,,,-1.6015625,-0.671875,0.1484375,-0.30078125,-0.4140625,0.060546875,-1.7578125,-10.2265625,1.4609375,1.0
643373,,,,,,,,-1.5234375,-1.23828125,0.38671875,-0.35546875,-0.423828125,0.09765625,-1.6796875,-10.796875,1.69140625,1.0
643374,,,,,,,,-1.25,-3.19140625,1.19921875,-0.380859375,-0.41015625,0.13671875,-1.4140625,-12.75,2.45703125,1.0
643375,,,,,,,,-0.3984375,-4.9453125,1.73046875,-0.345703125,-0.369140625,0.146484375,-0.5703125,-14.515625,2.95703125,1.0
643376,,,,,,,,1.41015625,-7.55078125,1.64453125,-0.296875,-0.32421875,0.13671875,1.23046875,-17.1171875,2.83984375,1.0
643377,,,,,,,,3.1875,-7.16015625,2.3671875,-0.42578125,-0.38671875,0.125,2.9921875,-16.73828125,3.53125,1.0
643378,,,,,,,,3.921875,-5.00390625,3.1796875,-0.603515625,-0.5859375,0.134765625,3.71875,-14.58984375,4.296875,1.0
643379,,,,,,,,2.5078125,-2.046875,2.78125,-0.5703125,-0.73828125,0.1328125,2.3046875,-11.64453125,3.8359375,1.0
643380,36.01323816666666,129.31927766666666,61.09071233710725,93.0025473370466,1.2000000000000002,48.0,,0.29296875,-1.6640625,3.7109375,-0.431640625,-0.8359375,0.166015625,-0.453125,-9.91796875,0.734375,1.0
643381,,,,,,,,-1.40625,-1.95703125,3.90234375,-0.26171875,-0.818359375,0.201171875,-1.640625,-11.56640625,4.87109375,1.0
643382,,,,,,,,-1.90625,-2.30078125,3.3046875,-0.169921875,-0.765625,0.173828125,-2.140625,-11.90625,4.2578125,1.0
643383,,,,,,,,-1.28515625,-2.453125,2.59375,0.384765625,-0.517578125,0.08984375,-1.52734375,-12.06640625,3.5703125,1.0
643384,,,,,,,,-0.17578125,-1.6953125,1.84765625,0.69140625,-0.345703125,-0.001953125,-0.41796875,-11.30078125,2.87890625,1.0
643385,,,,,,,,0.515625,-1.0078125,0.93359375,0.640625,-0.5859375,-0.01171875,0.2734375,-10.609375,2.03515625,1.0
643386,,,,,,,,0.58984375,-0.5546875,0.453125,0.591796875,-0.802734375,-0.013671875,0.34765625,-10.15234375,1.578125,1.0
643387,,,,,,,,0.0,-0.59375,0.93359375,0.51171875,-1.169921875,0.05078125,-0.2265625,-10.19140625,2.11328125,1.0
643388,,,,,,,,0.078125,-1.3671875,1.33984375,0.576171875,-1.2578125,0.169921875,-0.1484375,-10.95703125,2.61328125,1.0
643389,,,,,,,,0.19140625,-1.48828125,1.23828125,0.625,-1.22265625,0.1953125,-0.03515625,-11.0625,2.53515625,1.0
643390,36.013239,129.31927883333336,61.195885080834024,93.09501410829343,1.3,48.0,,0.62109375,-0.84765625,0.4453125,0.548828125,-1.00390625,0.345703125,0.38671875,-10.41796875,1.84375,1.0
643391,,,,,,,,0.34765625,0.33984375,-0.203125,0.220703125,-0.916015625,0.46875,0.08203125,-9.2265625,1.234375,1.0
643392,,,,,,,,0.29296875,0.6484375,-0.328125,0.08203125,-0.923828125,0.517578125,0.00390625,-8.92578125,1.1171875,1.0
643393,,,,,,,,0.40234375,1.4921875,-0.6484375,-0.02734375,-1.03125,0.568359375,0.08203125,-8.08203125,0.8125,1.0
643394,,,,,,,,0.5625,1.68359375,-0.6484375,0.041015625,-1.078125,0.58203125,0.1953125,-7.8828125,0.8125,1.0
643395,,,,,,,,0.96484375,2.1328125,-0.63671875,0.20703125,-0.9765625,0.541015625,0.54296875,-7.4296875,0.84765625,1.0
643396,,,,,,,,1.0859375,2.515625,-0.67578125,0.18359375,-0.900390625,0.50390625,0.6171875,-7.05078125,0.84765625,1.0
643397,,,,,,,,1.1796875,2.625,-0.796875,0.15234375,-0.939453125,0.4921875,0.6953125,-6.93359375,0.734375,1.0
643398,,,,,,,,1.36328125,3.3125,-0.93359375,0.080078125,-0.982421875,0.474609375,0.84765625,-6.24609375,0.62109375,1.0
643399,,,,,,,,1.42578125,3.46875,-0.90625,0.072265625,-0.9765625,0.4609375,0.88671875,-6.0859375,0.65625,1.0
643400,36.013239666666664,129.3192795,61.25598363884236,93.16898735733282,1.1,47.0,0.0,1.5625,3.734375,-1.03515625,0.548828125,-1.00390625,0.345703125,0.38671875,-10.41796875,1.84375,1.0
643401,,,,,,,,1.9375,3.7265625,-1.09765625,0.203125,-0.849609375,0.421875,1.34375,-5.82421875,0.50390625,1.0
643402,,,,,,,,2.0,3.453125,-1.08203125,0.2734375,-0.83203125,0.41015625,1.3828125,-6.0859375,0.54296875,1.0
643403,,,,,,,,2.25390625,3.09765625,-1.11328125,0.310546875,-0.8203125,0.388671875,1.61328125,-6.43359375,0.54296875,1.0
643404,,,,,,,,2.34765625,2.59375,-1.11328125,0.318359375,-0.80859375,0.361328125,1.69140625,-6.9296875,0.58203125,1.0
643405,,,,,,,,2.33984375,2.1953125,-0.9765625,0.3046875,-0.8125,0.322265625,1.65234375,-7.31640625,0.7734375,1.0
643406,,,,,,,,2.1640625,1.87890625,-1.09375,0.265625,-0.80078125,0.287109375,1.4609375,-7.62109375,0.6953125,1.0
643407,,,,,,,,1.98046875,1.48046875,-1.1328125,0.201171875,-0.755859375,0.244140625,1.26953125,-8.0,0.6953125,1.0
643408,,,,,,,,1.7578125,0.984375,-0.95703125,0.140625,-0.716796875,0.2109375,1.0390625,-8.5,0.88671875,1.0
643409,,,,,,,,1.65234375,0.41015625,-0.7890625,0.103515625,-0.671875,0.171875,0.92578125,-9.07421875,1.078125,1.0
643410,36.0132405,129.31928033333332,61.33110683899973,93.26145392028846,1.1,44.0,,1.64453125,0.0859375,-0.6796875,0.548828125,-1.00390625,0.345703125,0.38671875,-10.41796875,1.84375,1.0
643411,,,,,,,,1.6875,-0.37109375,-0.55078125,0.0703125,-0.466796875,0.125,0.9609375,-9.83984375,1.34765625,1.0
643412,,,,,,,,1.7265625,-0.44921875,-0.55078125,0.06640625,-0.4140625,0.123046875,1.0,-9.91796875,1.34765625,1.0
643413,,,,,,,,1.734375,-0.46484375,-0.7578125,0.08984375,-0.2421875,0.1171875,1.0,-9.9140625,1.15625,1.0
643414,,,,,,,,1.734375,-0.38671875,-0.859375,0.107421875,-0.1953125,0.123046875,1.0,-9.8359375,1.078125,1.0
643415,,,,,,,,1.78125,-0.203125,-1.01953125,0.13671875,-0.15234375,0.125,1.0390625,-9.6484375,0.92578125,1.0
643416,,,,,,,,1.59765625,-0.2890625,-1.1484375,0.173828125,-0.091796875,0.138671875,0.84765625,-9.73046875,0.8125,1.0
643417,,,,,,,,1.484375,-0.51171875,-1.1953125,0.177734375,-0.0625,0.13671875,0.734375,-9.953125,0.7734375,1.0
643418,,,,,,,,1.30078125,-0.7890625,-1.203125,0.166015625,-0.01953125,0.140625,0.54296875,-10.2265625,0.7734375,1.0
643419,,,,,,,,1.11328125,-0.94140625,-1.25,0.15234375,-0.005859375,0.15234375,0.34765625,-10.37890625,0.734375,1.0
643420,36.01324150000001,129.319281,61.39120514071484,93.37241358646438,1.2000000000000002,37.0,,0.6640625,-1.33203125,-1.2265625,0.548828125,-1.00390625,0.345703125,0.38671875,-10.41796875,1.84375,1.0
643421,,,,,,,,-0.15625,-0.99609375,-0.8828125,-0.017578125,0.1171875,0.15625,-0.953125,-10.41796875,1.1171875,1.0
643422,,,,,,,,-0.4453125,-0.796875,-0.64453125,-0.095703125,0.162109375,0.16015625,-1.2578125,-10.23046875,1.34765625,1.0
643423,,,,,,,,-0.31640625,-0.41796875,-0.58984375,-0.169921875,0.224609375,0.14453125,-1.14453125,-9.8359375,1.38671875,1.0
643424,,,,,,,,0.234375,-0.15234375,-0.68359375,-0.24609375,0.234375,0.142578125,-0.609375,-9.5703125,1.26953125,1.0
643425,,,,,,,,0.6328125,-0.56640625,-0.890625,-0.3203125,0.2109375,0.134765625,-0.2265625,-9.9921875,1.0390625,1.0
643426,,,,,,,,0.796875,-1.4453125,-1.05859375,-0.33984375,0.203125,0.130859375,-0.0703125,-10.87890625,0.84765625,1.0
643427,,,,,,,,0.3046875,-2.39453125,-0.6796875,-0.333984375,0.158203125,0.138671875,-0.5703125,-11.828125,1.1953125,1.0
643428,,,,,,,,-0.33984375,-2.50390625,0.26953125,-0.333984375,0.05078125,0.1484375,-1.22265625,-11.9453125,2.11328125,1.0
643429,,,,,,,,-1.6640625,-3.0,2.0625,-0.369140625,-0.06640625,0.134765625,-2.5625,-12.4453125,3.875,1.0
643430,36.01324266666666,129.31928150000002,61.436278542711364,93.50186635452357,1.2000000000000002,30.0,,-2.23046875,-3.73046875,2.63671875,0.548828125,-1.00390625,0.345703125,-3.13671875,-13.171875,4.41015625,1.0
643431,,,,,,,,-2.8359375,-3.29296875,3.6875,-0.662109375,-0.123046875,0.154296875,-3.75,-12.75390625,5.40625,1.0
643432,,,,,,,,-2.75,-3.09375,3.7890625,-0.841796875,-0.068359375,0.138671875,-3.671875,-12.5625,5.4453125,1.0
643433,,,,,,,,-1.5859375,-2.08203125,3.1484375,-0.798828125,0.0390625,0.072265625,-2.5234375,-11.56640625,4.71875,1.0
643434,,,,,,,,-0.4375,-1.8359375,3.2578125,-0.666015625,0.001953125,0.052734375,-1.375,-11.3359375,4.7578125,1.0
643435,,,,,,,,-0.24609375,-1.75,3.3203125,-0.599609375,-0.400390625,0.046875,-1.06640625,-11.296875,4.7578125,1.0
643436,,,,,,,,-0.12109375,-1.78125,3.3515625,-0.474609375,-0.525390625,0.0234375,-0.9921875,-11.30078125,4.71875,1.0
643437,,,,,,,,0.17578125,-1.58203125,3.19140625,-0.11328125,-0.732421875,0.04296875,-0.76171875,-11.1015625,4.56640625,1.0
643438,,,,,,,,0.3203125,-0.96875,2.35546875,0.12109375,-0.72265625,0.0546875,-0.609375,-10.49609375,3.72265625,1.0
643439,,,,,,,,0.23828125,-0.81640625,2.03515625,0.1875,-0.66015625,0.072265625,-0.68359375,-10.296875,3.22265625,1.0
643440,36.01324366666667,129.31928216666665,61.49637683656614,93.61282602187079,1.3,28.0,,-2.23046875,-3.73046875,2.63671875,0.2578125,-0.466796875,0.0625,-0.953125,-10.26171875,3.1875,1.0
643441,,,,,,,,-0.26171875,-0.9296875,2.140625,0.291015625,-0.349609375,0.03515625,-1.22265625,-10.5703125,3.68359375,1.0
643442,,,,,,,,-0.453125,-1.046875,2.21484375,0.3125,-0.376953125,-0.01953125,-1.375,-10.4921875,3.453125,1.0
643443,,,,,,,,-0.4296875,-0.85546875,1.80078125,0.236328125,-0.431640625,-0.068359375,-1.22265625,-10.23046875,2.99609375,1.0
643444,,,,,,,,0.05078125,-0.2421875,0.8515625,0.037109375,-0.453125,-0.10546875,-0.83984375,-9.765625,2.3828125,1.0
643445,,,,,,,,0.48828125,0.1796875,0.3828125,-0.138671875,-0.4921875,-0.15234375,-0.37890625,-9.34375,1.921875,1.0
643446,,,,,,,,0.765625,0.4921875,0.15234375,-0.107421875,-0.51953125,-0.1796875,-0.0703125,-9.0390625,1.69140625,1.0
643447,,,,,,,,0.85546875,0.80859375,0.046875,-0.052734375,-0.5390625,-0.203125,0.04296875,-8.7265625,1.578125,1.0
643448,,,,,,,,0.83203125,1.15234375,0.0078125,-0.033203125,-0.5390625,-0.212890625,0.04296875,-8.3828125,1.5390625,1.0
643449,,,,,,,,0.76171875,1.8046875,-0.421875,-0.076171875,-0.546875,-0.224609375,0.00390625,-7.73828125,1.1171875,1.0
643450,36.013244500000006,129.31928266666668,61.54145049718544,93.70529237624957,1.1,27.0,,0.71484375,2.34765625,-0.52734375,0.2578125,-0.466796875,0.0625,-0.953125,-10.26171875,3.1875,1.0
643451,,,,,,,,0.609375,2.69921875,-0.59765625,-0.107421875,-0.509765625,-0.244140625,-0.0703125,-6.85546875,0.92578125,1.0
643452,,,,,,,,0.29296875,2.96875,-0.67578125,-0.072265625,-0.4921875,-0.2578125,-0.33984375,-6.5859375,0.84765625,1.0
643453,,,,,,,,-0.12890625,3.09375,-0.66796875,-0.05078125,-0.517578125,-0.2734375,-0.72265625,-6.46875,0.84765625,1.0
643454,,,,,,,,-0.3984375,2.9765625,-0.78125,-0.0625,-0.55078125,-0.2734375,-0.953125,-6.5859375,0.734375,1.0
643455,,,,,,,,-0.58984375,3.015625,-0.7421875,-0.087890625,-0.578125,-0.27734375,-1.10546875,-6.546875,0.7734375,1.0
643456,,,,,,,,-0.60546875,3.015625,-0.7421875,-0.087890625,-0.583984375,-0.27734375,-1.10546875,-6.546875,0.7734375,1.0
643457,,,,,,,,-0.68359375,2.6796875,-0.78125,-0.087890625,-0.576171875,-0.26953125,-1.14453125,-6.89453125,0.734375,1.0
643458,,,,,,,,-0.71484375,2.41015625,-0.88671875,-0.0625,-0.564453125,-0.251953125,-1.14453125,-7.15625,0.62109375,1.0
643459,,,,,,,,-0.6484375,2.10546875,-0.84375,-0.021484375,-0.560546875,-0.20703125,-1.03125,-7.46484375,0.65625,1.0
643460,36.01324533333333,129.31928283333335,61.5564746177041,93.79775851936498,1.0,23.0,,-0.5234375,1.8359375,-0.58203125,0.0,-0.578125,-0.177734375,-0.875,-7.73828125,0.92578125,1.0
643461,,,,,,,,-0.47265625,1.68359375,-0.54296875,0.0234375,-0.58984375,-0.14453125,-0.80078125,-7.8828125,0.96484375,1.0
643462,,,,,,,,-0.48828125,1.64453125,-0.46875,0.041015625,-0.587890625,-0.130859375,-0.80078125,-7.921875,1.0390625,1.0
643463,,,,,,,,-0.2890625,1.4921875,-0.55859375,0.029296875,-0.58984375,-0.078125,-0.5703125,-8.078125,0.96484375,1.0
643464,,,,,,,,-0.1796875,1.4140625,-0.59765625,0.017578125,-0.58984375,-0.05859375,-0.453125,-8.15625,0.92578125,1.0
643465,,,,,,,,-0.07421875,1.30078125,-0.67578125,0.01953125,-0.591796875,-0.0234375,-0.33984375,-8.26953125,0.84765625,1.0
643466,,,,,,,,-0.13671875,0.78515625,-0.65234375,0.0546875,-0.58203125,0.02734375,-0.37890625,-8.76953125,0.88671875,1.0
643467,,,,,,,,-0.13671875,0.6328125,-0.69140625,0.0625,-0.583984375,0.03515625,-0.37890625,-8.92578125,0.84765625,1.0
643468,,,,,,,,-0.06640625,0.48046875,-0.62890625,0.072265625,-0.572265625,0.033203125,-0.30078125,-9.0703125,0.92578125,1.0
643469,,,,,,,,-0.06640625,0.40234375,-0.58984375,0.068359375,-0.564453125,0.0390625,-0.30078125,-9.1484375,0.96484375,1.0
643470,36.0132465,129.31928366666668,61.63159754994409,93.92721150075215,1.2000000000000002,25.0,,0.0390625,0.05859375,-0.63671875,0.0,-0.578125,-0.177734375,-0.1875,-9.4921875,0.92578125,1.0
643471,,,,,,,,0.0703125,-0.21875,-0.63671875,0.015625,-0.52734375,0.03125,-0.1484375,-9.76953125,0.92578125,1.0
643472,,,,,,,,0.17578125,-0.33203125,-0.63671875,-0.021484375,-0.517578125,0.025390625,-0.03515625,-9.875,0.92578125,1.0
643473,,,,,,,,0.3671875,-0.29296875,-0.63671875,-0.041015625,-0.53125,0.015625,0.15625,-9.8359375,0.92578125,1.0
643474,,,,,,,,0.515625,-0.1875,-0.78125,-0.08984375,-0.517578125,0.001953125,0.3125,-9.7265625,0.7734375,1.0
643475,,,,,,,,0.5,-0.265625,-0.8515625,-0.14453125,-0.505859375,-0.009765625,0.3125,-9.8046875,0.6953125,1.0
643476,,,,,,,,0.453125,-0.6875,-0.8359375,-0.193359375,-0.49609375,-0.0234375,0.2734375,-10.2265625,0.6953125,1.0
643477,,,,,,,,0.51953125,-0.83203125,-0.8125,-0.232421875,-0.4921875,-0.046875,0.34765625,-10.375,0.6953125,1.0
643478,,,,,,,,0.4375,-0.5625,-0.84375,-0.23046875,-0.484375,-0.060546875,0.2734375,-10.109375,0.65625,1.0
643479,,,,,,,,0.14453125,-0.1015625,-1.00390625,-0.228515625,-0.431640625,-0.099609375,0.00390625,-9.6484375,0.46484375,1.0
643480,36.013247500000006,129.31928416666668,61.676671072818685,94.03817106321864,1.2000000000000002,24.0,,-0.59765625,0.73828125,-0.93359375,0.0,-0.578125,-0.177734375,-0.1875,-9.4921875,0.92578125,1.0
643481,,,,,,,,-1.08203125,1.0546875,-0.51953125,-0.380859375,-0.365234375,-0.09375,-1.18359375,-8.50390625,0.88671875,1.0
643482,,,,,,,,-1.89453125,0.5625,-0.171875,-0.416015625,-0.333984375,-0.068359375,-1.98828125,-9.00390625,1.1953125,1.0
643483,,,,,,,,-2.3984375,-0.73828125,-0.32421875,-0.388671875,-0.271484375,-0.0234375,-2.484375,-10.296875,1.00390625,1.0
643484,,,,,,,,-1.71875,-3.375,0.9296875,-0.3828125,-0.21875,0.017578125,-1.796875,-12.9453125,2.2265625,1.0
643485,,,,,,,,-0.76171875,-5.59765625,1.66015625,-0.40625,-0.232421875,0.0625,-0.83984375,-15.1640625,2.91796875,1.0
643486,,,,,,,,0.42578125,-8.35546875,1.953125,-0.4296875,-0.271484375,0.08984375,0.34765625,-17.92578125,3.1875,1.0
643487,,,,,,,,2.234375,-9.265625,2.3828125,-0.5546875,-0.40234375,0.130859375,2.1484375,-18.84375,3.5703125,1.0
643488,,,,,,,,3.2109375,-2.66015625,2.23046875,-1.04296875,-0.646484375,0.2109375,3.109375,-12.25390625,3.30078125,1.0
643489,,,,,,,,1.96875,-2.03125,1.75,-1.173828125,-0.7265625,0.24609375,1.84375,-11.64453125,2.7265625,1.0
643490,36.0132485,129.31928466666668,61.72174459579276,94.14913062516949,1.1,24.0,,-0.046875,-2.984375,3.31640625,-0.9921875,-0.751953125,0.283203125,-0.1875,-12.60546875,4.18359375,1.0
643491,,,,,,,,-0.65234375,-3.51171875,3.62109375,-0.796875,-0.76953125,0.27734375,-0.80078125,-13.1328125,4.44921875,1.0
643492,,,,,,,,-0.71875,-3.6171875,2.98828125,-0.3125,-0.875,0.18359375,-0.875,-13.25,3.76171875,1.0
643493,,,,,,,,-0.55859375,-3.42578125,2.44140625,0.380859375,-0.845703125,0.08203125,-0.72265625,-13.0546875,3.22265625,1.0
643494,,,,,,,,-0.09765625,-1.89453125,1.31640625,0.53515625,-0.8203125,-0.05859375,-0.26171875,-11.52734375,2.15234375,1.0
643495,,,,,,,,-0.0703125,-1.47265625,1.25390625,0.38671875,-0.927734375,-0.095703125,-0.2265625,-11.1015625,2.11328125,1.0
643496,,,,,,,,-0.0546875,-0.8671875,0.9609375,0.1484375,-1.248046875,-0.12109375,-0.1875,-10.4921875,1.84375,1.0
643497,,,,,,,,0.18359375,-0.515625,0.75390625,0.23828125,-1.470703125,-0.0703125,0.08203125,-10.15234375,1.65234375,1.0
643498,,,,,,,,0.2890625,-0.28515625,0.71484375,0.4453125,-1.4765625,0.0,0.1953125,-9.91796875,1.65234375,1.0
643499,,,,,,,,0.7421875,0.65625,-0.15234375,0.541015625,-1.22265625,0.287109375,0.65625,-8.96484375,0.92578125,1.0
643500,36.01324966666667,129.319285,61.75179322238999,94.27858329106999,1.2000000000000002,20.0,0.0,1.01953125,1.1171875,-0.40625,0.458984375,-1.21484375,0.333984375,0.92578125,-8.5,0.6953125,1.0
643501,,,,,,,,1.1953125,1.61328125,-0.56640625,0.271484375,-1.20703125,0.390625,1.078125,-8.0,0.58203125,1.0
643502,,,,,,,,1.31640625,2.12109375,-0.4609375,0.20703125,-1.216796875,0.408203125,1.19140625,-7.5,0.6953125,1.0
643503,,,,,,,,1.4921875,2.5703125,-0.28515625,0.17578125,-1.263671875,0.421875,1.34375,-7.05078125,0.88671875,1.0
643504,,,,,,,,1.91796875,2.87890625,-0.31640625,0.19140625,-1.337890625,0.4375,1.73046875,-6.734375,0.88671875,1.0
643505,,,,,,,,2.28515625,2.91015625,-0.64453125,0.177734375,-1.3203125,0.4453125,2.07421875,-6.69921875,0.58203125,1.0
643506,,,,,,,,2.3671875,2.87109375,-0.73828125,0.15625,-1.29296875,0.447265625,2.1484375,-6.734375,0.50390625,1.0
643507,,,,,,,,2.4921875,2.79296875,-0.9140625,0.125,-1.193359375,0.44921875,2.2265625,-6.8125,0.3515625,1.0
643508,,,,,,,,2.4375,2.6328125,-1.04296875,0.1640625,-1.13671875,0.443359375,2.1484375,-6.97265625,0.23828125,1.0
643509,,,,,,,,2.38671875,2.671875,-1.03125,0.205078125,-1.07421875,0.439453125,2.07421875,-6.93359375,0.2734375,1.0
643510,36.013250500000005,129.31928533333334,61.78184210557549,94.37104954155242,1.1,18.0,,2.30078125,2.6640625,-1.015625,0.2109375,-1.041015625,0.44921875,0.92578125,-8.5,0.6953125,1.0
643511,,,,,,,,2.2890625,2.47265625,-1.11328125,0.18359375,-1.0,0.451171875,1.921875,-7.1171875,0.23828125,1.0
643512,,,,,,,,2.265625,2.39453125,-1.0859375,0.1796875,-0.97265625,0.44921875,1.8828125,-7.19921875,0.2734375,1.0
643513,,,,,,,,2.05078125,1.69921875,-0.93359375,0.1484375,-0.84765625,0.404296875,1.61328125,-7.88671875,0.46484375,1.0
643514,,,,,,,,1.76953125,1.19140625,-0.734375,0.150390625,-0.75390625,0.35546875,1.30859375,-8.3828125,0.6953125,1.0
643515,,,,,,,,1.4453125,0.9921875,-0.51953125,0.103515625,-0.697265625,0.318359375,0.9609375,-8.58203125,0.92578125,1.0
643516,,,,,,,,1.34765625,0.9921875,-0.52734375,0.068359375,-0.669921875,0.302734375,0.84765625,-8.578125,0.92578125,1.0
643517,,,,,,,,1.203125,0.83984375,-0.45703125,0.01171875,-0.611328125,0.265625,0.6953125,-8.73046875,1.00390625,1.0
643518,,,,,,,,1.1640625,0.5234375,-0.44921875,-0.015625,-0.580078125,0.248046875,0.65625,-9.0390625,1.00390625,1.0
643519,,,,,,,,1.33203125,0.2578125,-0.45703125,-0.017578125,-0.517578125,0.216796875,0.80859375,-9.30859375,1.00390625,1.0
643520,36.0132515,129.31928566666664,61.811890855864235,94.48200899847305,1.1,16.0,,1.45703125,-0.01171875,-0.53515625,0.2109375,-1.041015625,0.44921875,0.92578125,-9.57421875,0.92578125,1.0
643521,,,,,,,,1.578125,-0.36328125,-0.54296875,0.0703125,-0.42578125,0.181640625,1.0390625,-9.9140625,0.92578125,1.0
643522,,,,,,,,1.5859375,-0.640625,-0.47265625,0.123046875,-0.400390625,0.16796875,1.0390625,-10.1875,1.00390625,1.0
643523,,,,,,,,1.48046875,-0.75390625,-0.421875,0.126953125,-0.41015625,0.15234375,0.92578125,-10.30078125,1.078125,1.0
643524,,,,,,,,1.48046875,-0.79296875,-0.4609375,0.12109375,-0.44140625,0.14453125,0.92578125,-10.3359375,1.0390625,1.0
643525,,,,,,,,1.5546875,-0.640625,-0.4765625,0.109375,-0.44921875,0.140625,1.0,-10.19140625,1.0390625,1.0
643526,,,,,,,,1.6796875,-0.6484375,-0.55859375,0.119140625,-0.4453125,0.1328125,1.1171875,-10.1875,0.96484375,1.0
643527,,,,,,,,1.75390625,-0.5703125,-0.69140625,0.119140625,-0.43359375,0.12890625,1.19140625,-10.109375,0.84765625,1.0
643528,,,,,,,,1.71484375,-0.73046875,-0.96484375,0.10546875,-0.4296875,0.125,1.15234375,-10.26171875,0.58203125,1.0
643529,,,,,,,,1.640625,-0.80859375,-1.05859375,0.087890625,-0.458984375,0.126953125,1.078125,-10.33984375,0.50390625,1.0
643530,36.013252666666666,129.3192855,61.79686518117599,94.61146134592138,1.2000000000000002,6.0,,1.41796875,-0.80859375,-1.1328125,0.2109375,-1.041015625,0.44921875,0.84765625,-10.33984375,0.4296875,1.0
643531,,,,,,,,0.94921875,-0.1953125,-1.07421875,0.0078125,-0.548828125,0.12890625,0.38671875,-9.73046875,0.50390625,1.0
643532,,,,,,,,0.91015625,0.140625,-1.03515625,-0.033203125,-0.51953125,0.123046875,0.34765625,-9.38671875,0.54296875,1.0
643533,,,,,,,,1.33203125,-0.2421875,-0.7578125,-0.109375,-0.48828125,0.130859375,0.76953125,-9.76953125,0.8125,1.0
643534,,,,,,,,1.21875,-1.19140625,-0.3984375,-0.224609375,-0.435546875,0.14453125,0.65625,-10.71875,1.15625,1.0
643535,,,,,,,,0.53515625,-3.26171875,-0.10546875,-0.287109375,-0.44140625,0.166015625,-0.03515625,-12.79296875,1.42578125,1.0
643536,,,,,,,,0.0,-4.44921875,0.55859375,-0.302734375,-0.431640625,0.1796875,-0.5703125,-13.9765625,2.07421875,1.0
643537,,,,,,,,-0.64453125,-4.83203125,1.46484375,-0.328125,-0.39453125,0.203125,-1.22265625,-14.359375,2.95703125,1.0
643538,,,,,,,,-2.8046875,-2.78515625,3.9765625,-0.51171875,-0.267578125,0.2421875,-3.40625,-12.33203125,5.40625,1.0
643539,,,,,,,,-2.56640625,-1.359375,3.98828125,-0.62109375,-0.1015625,0.236328125,-3.17578125,-10.91796875,5.37109375,1.0
643540,36.01325383333334,129.31928516666667,61.76681473842051,94.74091358948289,1.2000000000000002,359.0,,-1.77734375,-0.8828125,3.4453125,0.2109375,-1.041015625,0.44921875,0.84765625,-10.33984375,0.4296875,1.0
643541,,,,,,,,-0.19140625,-1.18359375,2.81640625,-0.640625,-0.078125,0.177734375,-0.83984375,-10.7578125,4.06640625,1.0
643542,,,,,,,,0.69140625,-1.56640625,2.6953125,-0.595703125,-0.08203125,0.17578125,0.04296875,-11.14453125,3.9140625,1.0
643543,,,,,,,,0.859375,-1.44140625,2.91015625,-0.2734375,-0.42578125,0.14453125,0.1953125,-11.0234375,4.06640625,1.0
643544,,,,,,,,0.71484375,-1.21484375,2.91796875,-0.103515625,-0.607421875,0.138671875,0.04296875,-10.796875,4.06640625,1.0
643545,,,,,,,,0.2109375,-0.171875,2.296875,0.140625,-0.85546875,0.16015625,-0.453125,-9.765625,3.453125,1.0
643546,,,,,,,,0.1015625,-0.25390625,2.05078125,0.1640625,-0.8671875,0.16796875,-0.5703125,-9.8359375,3.22265625,1.0
643547,,,,,,,,-0.42578125,-0.984375,2.2578125,-0.017578125,-0.412109375,0.06640625,-1.10546875,-10.5703125,3.453125,1.0
643548,,,,,,,,-0.50390625,-1.015625,2.12890625,0.08984375,-0.318359375,0.001953125,-1.18359375,-10.61328125,3.33984375,1.0
643549,,,,,,,,-0.296875,-0.78515625,1.69921875,0.080078125,-0.451171875,-0.064453125,-0.953125,-10.37890625,2.91796875,1.0
643550,36.013254833333335,129.31928483333334,61.73676442620469,94.8518726250363,1.2000000000000002,352.0,,0.01171875,-0.4765625,1.39453125,0.2109375,-1.041015625,0.44921875,-0.64453125,-10.0703125,2.61328125,1.0
643551,,,,,,,,0.36328125,-0.171875,1.1640625,-0.240234375,-0.609375,-0.154296875,-0.26171875,-9.765625,2.3828125,1.0
643552,,,,,,,,0.796875,0.1796875,0.8125,-0.376953125,-0.6484375,-0.1953125,0.1953125,-9.42578125,2.0,1.0
643553,,,,,,,,0.94140625,0.265625,0.703125,-0.3828125,-0.6796875,-0.208984375,0.34765625,-9.34375,1.8828125,1.0
643554,,,,,,,,1.00390625,0.65625,0.3203125,-0.27734375,-0.77734375,-0.23046875,0.46484375,-8.9609375,1.4609375,1.0
643555,,,,,,,,0.97265625,1.1640625,0.03125,-0.228515625,-0.84765625,-0.2421875,0.46484375,-8.4609375,1.15625,1.0
643556,,,,,,,,0.97265625,1.546875,-0.03125,-0.19140625,-0.875,-0.244140625,0.50390625,-8.078125,1.078125,1.0
643557,,,,,,,,0.94140625,2.16796875,-0.25390625,-0.158203125,-0.86328125,-0.24609375,0.50390625,-7.4609375,0.84765625,1.0
643558,,,,,,,,0.96484375,2.51171875,-0.20703125,-0.1328125,-0.845703125,-0.244140625,0.54296875,-7.1171875,0.88671875,1.0
643559,,,,,,,,0.87109375,2.7109375,-0.2734375,-0.078125,-0.791015625,-0.232421875,0.50390625,-6.9296875,0.8125,1.0
643560,36.0132555,129.31928449999998,61.7067143703439,94.92584524444993,0.9,350.0,,0.6484375,2.82421875,-0.2734375,-0.056640625,-0.7734375,-0.21484375,-0.64453125,-10.0703125,2.61328125,1.0
643561,,,,,,,,0.30078125,2.40234375,-0.19921875,-0.048828125,-0.78515625,-0.19140625,0.00390625,-7.234375,0.88671875,1.0
643562,,,,,,,,0.0234375,2.44921875,-0.23046875,-0.04296875,-0.791015625,-0.173828125,-0.2265625,-7.1953125,0.84765625,1.0
643563,,,,,,,,-0.17578125,2.44140625,-0.19140625,-0.02734375,-0.775390625,-0.169921875,-0.41796875,-7.1953125,0.88671875,1.0
643564,,,,,,,,-0.3515625,2.44921875,-0.15234375,-0.001953125,-0.759765625,-0.150390625,-0.5703125,-7.19921875,0.92578125,1.0
643565,,,,,,,,-0.53515625,2.2578125,-0.3125,0.021484375,-0.734375,-0.134765625,-0.72265625,-7.390625,0.7734375,1.0
643566,,,,,,,,-0.67578125,1.8359375,-0.359375,0.04296875,-0.728515625,-0.115234375,-0.83984375,-7.81640625,0.734375,1.0
643567,,,,,,,,-0.7265625,1.5625,-0.40625,0.064453125,-0.73828125,-0.09375,-0.875,-8.08203125,0.6953125,1.0
643568,,,,,,,,-0.71484375,1.484375,-0.3359375,0.095703125,-0.74609375,-0.046875,-0.83984375,-8.16015625,0.7734375,1.0
643569,,,,,,,,-0.64453125,1.33203125,-0.49609375,0.11328125,-0.7578125,-0.017578125,-0.76171875,-8.30859375,0.62109375,1.0
643570,36.013256500000004,129.31928383333334,61.64661453047832,95.03680406946826,1.0,343.0,,-0.58203125,1.37109375,-0.62890625,-0.056640625,-0.7734375,-0.21484375,-0.64453125,-10.0703125,2.61328125,1.0
643571,,,,,,,,-0.24609375,1.70703125,-0.68359375,0.08203125,-0.77734375,0.0703125,-0.33984375,-7.921875,0.46484375,1.0
643572,,,,,,,,-0.1328125,1.78125,-0.7578125,0.080078125,-0.779296875,0.0859375,-0.2265625,-7.85546875,0.390625,1.0
643573,,,,,,,,0.48828125,1.46875,-1.125,0.1640625,-0.802734375,0.162109375,0.38671875,-8.15625,0.046875,1.0
643574,,,,,,,,0.52734375,1.31640625,-1.171875,0.173828125,-0.796875,0.17578125,0.42578125,-8.30859375,0.0078125,1.0
643575,,,,,,,,0.45703125,1.046875,-1.05078125,0.177734375,-0.8203125,0.224609375,0.34765625,-8.58203125,0.16015625,1.0
643576,,,,,,,,0.47265625,0.47265625,-0.98828125,0.1640625,-0.8125,0.23046875,0.34765625,-9.1484375,0.23828125,1.0
643577,,,,,,,,0.48046875,0.11328125,-0.76953125,0.099609375,-0.78125,0.236328125,0.34765625,-9.4921875,0.46484375,1.0
643578,,,,,,,,0.52734375,-0.38671875,-0.890625,0.013671875,-0.734375,0.228515625,0.38671875,-9.9921875,0.3515625,1.0
643579,,,,,,,,0.56640625,-0.42578125,-0.77734375,-0.044921875,-0.716796875,0.21484375,0.42578125,-10.03515625,0.46484375,1.0
643580,36.0132575,129.3192835,61.616564220983214,95.14776310503602,1.1,342.0,,0.66015625,-0.5,-0.65234375,-0.056640625,-0.7734375,-0.21484375,-0.64453125,-10.0703125,2.61328125,1.0
643581,,,,,,,,0.8203125,-0.84375,-0.64453125,-0.130859375,-0.693359375,0.1640625,0.65625,-10.45703125,0.58203125,1.0
643582,,,,,,,,1.08984375,-1.16015625,-0.36328125,-0.09765625,-0.693359375,0.12109375,0.92578125,-10.76171875,0.84765625,1.0
643583,,,,,,,,1.01171875,-1.12109375,-0.1640625,-0.099609375,-0.662109375,0.09375,0.84765625,-10.72265625,1.0390625,1.0
643584,,,,,,,,0.7421875,-1.0,-0.15625,-0.0859375,-0.615234375,0.083984375,0.578125,-10.609375,1.0390625,1.0
643585,,,,,,,,0.0546875,-0.578125,-0.26171875,-0.08203125,-0.572265625,0.078125,-0.109375,-10.1875,0.92578125,1.0
643586,,,,,,,,-0.18359375,-0.4609375,-0.29296875,-0.095703125,-0.55078125,0.076171875,-0.33984375,-10.0703125,0.88671875,1.0
643587,,,,,,,,-0.7578125,0.02734375,-0.31640625,-0.126953125,-0.509765625,0.09375,-0.9140625,-9.57421875,0.84765625,1.0
643588,,,,,,,,-1.28515625,0.37890625,-0.421875,-0.12109375,-0.408203125,0.083984375,-1.44921875,-9.23046875,0.734375,1.0
643589,,,,,,,,-1.59375,0.6875,-0.56640625,-0.08203125,-0.283203125,0.087890625,-1.7578125,-8.921875,0.58203125,1.0
643590,36.0132585,129.31928316666665,61.58651390831104,95.25872213989649,1.1,340.0,,-1.74609375,0.6484375,-0.51953125,-0.056640625,-0.7734375,-0.21484375,-1.91015625,-8.96484375,0.62109375,1.0
643591,,,,,,,,-2.19921875,0.11328125,-0.09375,-0.11328125,-0.17578125,0.09765625,-2.37109375,-9.49609375,1.0390625,1.0
643592,,,,,,,,-2.265625,-0.69921875,0.046875,-0.1796875,-0.185546875,0.109375,-2.4453125,-10.296875,1.15625,1.0
643593,,,,,,,,-2.11328125,-1.8125,0.27734375,-0.22265625,-0.20703125,0.11328125,-2.29296875,-11.4140625,1.38671875,1.0
643594,,,,,,,,-1.640625,-3.07421875,0.875,-0.3515625,-0.279296875,0.125,-1.8359375,-12.67578125,1.9609375,1.0
643595,,,,,,,,-0.21484375,-5.09765625,0.953125,-0.462890625,-0.37109375,0.123046875,-0.41796875,-14.703125,2.0,1.0
643596,,,,,,,,1.9765625,-7.2734375,0.69140625,-0.626953125,-0.55078125,0.119140625,1.765625,-16.890625,1.65234375,1.0
643597,,,,,,,,3.86328125,-4.0859375,2.9375,-0.734375,-0.71875,0.126953125,3.64453125,-13.71484375,3.8359375,1.0
643598,,,,,,,,3.28125,-2.35546875,3.1328125,-0.740234375,-0.791015625,0.1328125,3.0703125,-11.984375,3.9921875,1.0
643599,,,,,,,,1.6484375,-2.0,3.33984375,-0.626953125,-1.076171875,0.1796875,1.421875,-11.640625,4.10546875,1.0
643600,36.013259500000004,129.3192825,61.52641407238069,95.36968096639941,1.1,336.0,0.0,-1.32421875,-3.02734375,3.5703125,-0.611328125,-1.208984375,0.244140625,-1.56640625,-12.67578125,4.2578125,1.0
643601,,,,,,,,-1.26953125,-2.59765625,1.98828125,0.310546875,-0.859375,0.041015625,-1.52734375,-12.25,2.61328125,1.0
643602,,,,,,,,-0.96484375,-1.6796875,1.42578125,0.408203125,-0.853515625,-0.00390625,-1.22265625,-11.33984375,2.07421875,1.0
643603,,,,,,,,-0.78125,-0.8359375,1.2265625,0.3515625,-1.130859375,-0.037109375,-1.03125,-10.4921875,1.921875,1.0
643604,,,,,,,,-0.51953125,-0.29296875,0.9140625,0.322265625,-1.314453125,-0.029296875,-0.76171875,-9.953125,1.6171875,1.0
643605,,,,,,,,0.0078125,-0.03125,0.71875,0.376953125,-1.60546875,0.041015625,-0.2265625,-9.69140625,1.4609375,1.0
643606,,,,,,,,0.19921875,-0.0234375,0.734375,0.45703125,-1.671875,0.0859375,-0.03515625,-9.69140625,1.5,1.0
643607,,,,,,,,0.62109375,-0.33984375,0.59765625,0.646484375,-1.650390625,0.173828125,0.38671875,-9.99609375,1.42578125,1.0
643608,,,,,,,,1.01171875,-0.4609375,0.5625,0.751953125,-1.525390625,0.26953125,0.76953125,-10.109375,1.4609375,1.0
643609,,,,,,,,1.328125,0.0,0.29296875,0.662109375,-1.439453125,0.388671875,1.078125,-9.6484375,1.26953125,1.0
643610,36.0132605,129.31928183333332,61.46631423143772,95.48063979093278,1.2000000000000002,335.0,,1.3046875,0.265625,0.109375,0.54296875,-1.43359375,0.43359375,-1.56640625,-12.67578125,4.2578125,1.0
643611,,,,,,,,1.18359375,1.29296875,-0.234375,0.24609375,-1.46484375,0.505859375,0.88671875,-8.34765625,0.8125,1.0
643612,,,,,,,,1.17578125,1.9453125,-0.44921875,0.05859375,-1.548828125,0.556640625,0.84765625,-7.69921875,0.62109375,1.0
643613,,,,,,,,1.484375,2.55859375,-0.53515625,0.013671875,-1.556640625,0.568359375,1.1171875,-7.08203125,0.54296875,1.0
643614,,,,,,,,1.8671875,2.82421875,-0.58984375,0.04296875,-1.498046875,0.541015625,1.4609375,-6.8125,0.50390625,1.0
643615,,,,,,,,2.16015625,2.96875,-0.828125,0.078125,-1.40625,0.484375,1.73046875,-6.6640625,0.2734375,1.0
643616,,,,,,,,2.17578125,2.94140625,-0.87109375,0.0703125,-1.384765625,0.46875,1.73046875,-6.69921875,0.23828125,1.0
643617,,,,,,,,2.2734375,2.86328125,-1.00390625,0.029296875,-1.390625,0.43359375,1.8046875,-6.7734375,0.12109375,1.0
643618,,,,,,,,2.3359375,2.89453125,-1.01171875,-0.00390625,-1.40234375,0.404296875,1.84375,-6.73828125,0.12109375,1.0
643619,,,,,,,,2.48046875,2.81640625,-1.171875,0.0234375,-1.30859375,0.39453125,1.95703125,-6.8125,-0.03125,1.0
643620,36.013261166666666,129.31928116666668,61.40621465756462,95.55461220204349,1.1,332.0,,2.50390625,2.734375,-1.1875,0.083984375,-1.23046875,0.39453125,1.95703125,-6.89453125,-0.03125,1.0
643621,,,,,,,,2.68359375,2.49609375,-1.09765625,0.11328125,-1.158203125,0.38671875,2.11328125,-7.12109375,0.08203125,1.0
643622,,,,,,,,2.56640625,2.07421875,-0.78125,0.1328125,-1.123046875,0.3515625,1.95703125,-7.5390625,0.4296875,1.0
643623,,,,,,,,2.31640625,1.53125,-0.578125,0.1328125,-1.01953125,0.310546875,1.69140625,-8.078125,0.65625,1.0
643624,,,,,,,,2.20703125,1.1484375,-0.5078125,0.107421875,-0.9765625,0.28515625,1.57421875,-8.4609375,0.734375,1.0
643625,,,,,,,,2.21484375,0.79296875,-0.4453125,0.060546875,-0.884765625,0.248046875,1.57421875,-8.8046875,0.8125,1.0
643626,,,,,,,,2.25390625,0.5625,-0.33984375,0.041015625,-0.845703125,0.224609375,1.61328125,-9.04296875,0.92578125,1.0
643627,,,,,,,,2.421875,-0.125,-0.1953125,0.0234375,-0.759765625,0.19140625,1.765625,-9.7265625,1.078125,1.0
643628,,,,,,,,2.61328125,-0.6328125,-0.1640625,0.0546875,-0.669921875,0.1640625,1.95703125,-10.23046875,1.1171875,1.0
643629,,,,,,,,2.61328125,-1.12890625,-0.1015625,0.099609375,-0.5703125,0.14453125,1.95703125,-10.72265625,1.1953125,1.0
643630,36.013262000000005,129.31928000000002,61.301040656456905,95.64707750649308,1.2000000000000002,325.0,,2.34765625,-1.17578125,0.00390625,0.1328125,-0.51171875,0.1328125,1.69140625,-10.76171875,1.30859375,1.0
643631,,,,,,,,1.81640625,-0.53125,0.44921875,0.205078125,-0.345703125,0.109375,1.15234375,-10.109375,1.76953125,1.0
643632,,,,,,,,1.46484375,-0.1484375,0.546875,0.240234375,-0.2734375,0.099609375,0.80859375,-9.73046875,1.8828125,1.0
643633,,,,,,,,1.3984375,0.08203125,0.1796875,0.314453125,-0.16015625,0.0859375,0.734375,-9.4921875,1.5390625,1.0
643634,,,,,,,,1.12109375,0.37109375,-0.1640625,0.361328125,-0.087890625,0.0625,0.46484375,-9.1875,1.234375,1.0
643635,,,,,,,,1.01171875,0.5234375,-0.3515625,0.369140625,-0.03515625,0.03515625,0.34765625,-9.0390625,1.078125,1.0
643636,,,,,,,,0.96875,0.48046875,-0.44140625,0.3515625,-0.046875,0.02734375,0.3125,-9.07421875,1.00390625,1.0
643637,,,,,,,,1.11328125,0.171875,-0.65234375,0.33984375,-0.05078125,0.0,0.46484375,-9.38671875,0.84765625,1.0
643638,,,,,,,,1.2265625,-0.49609375,-0.60546875,0.28125,-0.1171875,0.015625,0.578125,-10.03125,0.92578125,1.0
643639,,,,,,,,1.2265625,-0.5703125,-0.57421875,0.212890625,-0.140625,0.025390625,0.578125,-10.11328125,0.96484375,1.0
643640,36.0132625,129.3192786666667,61.18084215173057,95.70255629272646,1.1,317.0,,1.06640625,-0.53125,-0.515625,0.1328125,-0.51171875,0.1328125,0.42578125,-10.07421875,1.0390625,1.0
643641,,,,,,,,0.8828125,-0.2265625,-0.55859375,-0.06640625,-0.1328125,0.12109375,0.234375,-9.76953125,1.00390625,1.0
643642,,,,,,,,0.921875,0.30859375,-0.5078125,-0.22265625,-0.17578125,0.146484375,0.2734375,-9.23046875,1.0390625,1.0
643643,,,,,,,,1.00390625,0.234375,-0.4453125,-0.34375,-0.201171875,0.169921875,0.34765625,-9.30859375,1.078125,1.0
643644,,,,,,,,1.12890625,-0.984375,-0.13671875,-0.4140625,-0.216796875,0.17578125,0.46484375,-10.53125,1.34765625,1.0
643645,,,,,,,,1.06640625,-2.171875,0.20703125,-0.427734375,-0.23046875,0.158203125,0.38671875,-11.72265625,1.65234375,1.0
643646,,,,,,,,-0.3125,-4.00390625,1.015625,-0.419921875,-0.259765625,0.158203125,-0.9921875,-13.5546875,2.421875,1.0
643647,,,,,,,,-1.60546875,-5.02734375,2.8515625,-0.443359375,-0.27734375,0.15625,-2.29296875,-14.5859375,4.21875,1.0
643648,,,,,,,,-2.10546875,-4.9453125,3.48828125,-0.484375,-0.28125,0.15234375,-2.79296875,-14.515625,4.83203125,1.0
643649,,,,,,,,-2.85546875,-3.7578125,4.38671875,-0.669921875,-0.28125,0.166015625,-3.55859375,-13.33203125,5.67578125,1.0
643650,36.013263,129.31927750000003,61.07566841248453,95.75803518369302,1.1,309.0,,-2.88671875,-2.515625,4.41796875,-0.923828125,-0.283203125,0.189453125,-3.59765625,-12.1015625,5.63671875,1.0
643651,,,,,,,,-2.3046875,-1.51171875,4.12109375,-0.880859375,-0.1953125,0.12109375,-3.0234375,-11.10546875,5.25390625,1.0
643652,,,,,,,,-1.56640625,-1.42578125,4.27734375,-0.8046875,-0.20703125,0.103515625,-2.29296875,-11.02734375,5.37109375,1.0
643653,,,,,,,,-0.08203125,-1.11328125,4.515625,-0.58203125,-0.4765625,0.05078125,-0.80078125,-10.72265625,5.5234375,1.0
643654,,,,,,,,0.76171875,-0.9140625,3.88671875,-0.48828125,-0.611328125,0.048828125,0.04296875,-10.53125,4.87109375,1.0
643655,,,,,,,,1.18359375,-0.4921875,3.265625,-0.1953125,-0.8046875,0.0390625,0.46484375,-10.109375,4.21875,1.0
643656,,,,,,,,1.6640625,0.703125,2.9921875,0.10546875,-0.953125,0.06640625,0.9609375,-8.92578125,3.953125,1.0
643657,,,,,,,,1.12890625,1.046875,2.02734375,0.162109375,-0.9921875,0.099609375,0.42578125,-8.58203125,2.99609375,1.0
643658,,,,,,,,0.74609375,-0.21484375,1.62109375,0.232421875,-0.896484375,0.126953125,0.04296875,-9.83984375,2.61328125,1.0
643659,,,,,,,,0.66796875,-0.6015625,2.0390625,0.34375,-0.5546875,0.08984375,-0.03515625,-10.23046875,3.0703125,1.0
643660,36.0132635,129.3192765,60.98551943694845,95.81351418000526,1.1,304.0,,-0.51953125,-0.953125,2.55078125,0.15625,-0.130859375,0.029296875,-1.22265625,-10.5703125,3.64453125,1.0
643661,,,,,,,,-0.21875,-0.37890625,2.046875,-0.19140625,-0.3515625,-0.029296875,-0.9140625,-9.9921875,3.1484375,1.0
643662,,,,,,,,0.15625,0.203125,1.328125,-0.353515625,-0.4296875,-0.072265625,-0.53125,-9.421875,2.421875,1.0
643663,,,,,,,,0.4921875,0.48828125,1.06640625,-0.5625,-0.55078125,-0.21484375,-0.1484375,-9.1484375,2.07421875,1.0
643664,,,,,,,,0.63671875,0.640625,0.859375,-0.5078125,-0.57421875,-0.24609375,0.00390625,-9.0,1.84375,1.0
643665,,,,,,,,0.8359375,1.26953125,0.40234375,-0.37890625,-0.638671875,-0.279296875,0.234375,-8.3828125,1.34765625,1.0
643666,,,,,,,,0.96484375,1.578125,0.3203125,-0.267578125,-0.732421875,-0.28515625,0.42578125,-8.08203125,1.234375,1.0
643667,,,,,,,,1.01953125,1.73828125,0.2890625,-0.259765625,-0.716796875,-0.248046875,0.50390625,-7.92578125,1.1953125,1.0
643668,,,,,,,,1.03515625,2.234375,0.15625,-0.255859375,-0.607421875,-0.193359375,0.54296875,-7.43359375,1.0390625,1.0
643669,,,,,,,,1.02734375,2.42578125,0.05078125,-0.251953125,-0.5625,-0.177734375,0.54296875,-7.23828125,0.92578125,1.0
643670,36.013264166666666,129.31927583333334,60.92541986681498,95.88748659450977,1.0,301.0,,0.83984375,2.78125,-0.0859375,-0.236328125,-0.533203125,-0.138671875,0.38671875,-6.89453125,0.7734375,1.0
643671,,,,,,,,0.42578125,2.86328125,-0.09375,-0.228515625,-0.53125,-0.123046875,0.00390625,-6.8125,0.734375,1.0
643672,,,,,,,,0.09765625,2.7890625,0.06640625,-0.189453125,-0.533203125,-0.125,-0.30078125,-6.890625,0.88671875,1.0
643673,,,,,,,,-0.26171875,2.6328125,0.12109375,-0.13671875,-0.546875,-0.126953125,-0.64453125,-7.05078125,0.92578125,1.0
643674,,,,,,,,-0.546875,2.51953125,0.12890625,-0.1015625,-0.572265625,-0.126953125,-0.9140625,-7.16015625,0.92578125,1.0
643675,,,,,,,,-0.6875,2.2890625,-0.0546875,-0.087890625,-0.591796875,-0.12109375,-1.03125,-7.39453125,0.734375,1.0
643676,,,,,,,,-0.78515625,2.06640625,-0.0546875,-0.07421875,-0.611328125,-0.08984375,-1.10546875,-7.6171875,0.734375,1.0
643677,,,,,,,,-0.79296875,1.71484375,-0.1328125,-0.044921875,-0.609375,-0.064453125,-1.10546875,-7.9609375,0.65625,1.0
643678,,,,,,,,-0.6953125,1.4453125,-0.09375,0.001953125,-0.615234375,-0.03125,-0.9921875,-8.23828125,0.6953125,1.0
643679,,,,,,,,-0.55078125,1.4765625,-0.1484375,0.06640625,-0.65234375,0.0390625,-0.83984375,-8.1953125,0.65625,1.0
643680,36.0132645,129.31927466666667,60.82024625954963,95.92447228091767,1.0,297.0,,-0.2421875,1.74609375,-0.26953125,0.08984375,-0.689453125,0.087890625,-0.53125,-7.92578125,0.54296875,1.0
643681,,,,,,,,-0.05078125,2.015625,-0.36328125,0.1015625,-0.701171875,0.134765625,-0.33984375,-7.66015625,0.46484375,1.0
643682,,,,,,,,0.1015625,2.05859375,-0.5703125,0.103515625,-0.71875,0.177734375,-0.1875,-7.6171875,0.2734375,1.0
643683,,,,,,,,0.109375,1.8984375,-0.68359375,0.1171875,-0.716796875,0.201171875,-0.1875,-7.77734375,0.16015625,1.0
643684,,,,,,,,0.125,1.62109375,-0.74609375,0.138671875,-0.724609375,0.228515625,-0.1875,-8.0390625,0.12109375,1.0
643685,,,,,,,,0.09375,1.31640625,-0.79296875,0.16015625,-0.7265625,0.24609375,-0.2265625,-8.34375,0.08203125,1.0
643686,,,,,,,,0.140625,1.0859375,-0.76171875,0.171875,-0.7265625,0.248046875,-0.1875,-8.578125,0.12109375,1.0
643687,,,,,,,,0.31640625,0.54296875,-0.76171875,0.185546875,-0.69921875,0.263671875,-0.03515625,-9.11328125,0.16015625,1.0
643688,,,,,,,,0.40234375,0.3515625,-0.76953125,0.1640625,-0.68359375,0.263671875,0.04296875,-9.3046875,0.16015625,1.0
643689,,,,,,,,0.6640625,-0.69140625,-0.41015625,-0.01953125,-0.623046875,0.23046875,0.2734375,-10.33984375,0.54296875,1.0
643690,36.01326516666666,129.31927333333334,60.700047633008346,95.9984442793954,1.0,296.0,,0.87109375,-1.04296875,-0.5234375,-0.123046875,-0.638671875,0.1796875,0.46484375,-10.6796875,0.4296875,1.0
643691,,,,,,,,1.22265625,-1.00390625,-0.5,-0.177734375,-0.654296875,0.146484375,0.80859375,-10.64453125,0.4296875,1.0
643692,,,,,,,,1.4921875,-0.9296875,-0.5703125,-0.193359375,-0.65625,0.12890625,1.078125,-10.5703125,0.3515625,1.0
643693,,,,,,,,1.4140625,-0.8515625,-0.5859375,-0.205078125,-0.625,0.083984375,1.0,-10.49609375,0.3125,1.0
643694,,,,,,,,0.96484375,-0.9296875,-0.609375,-0.201171875,-0.578125,0.048828125,0.54296875,-10.5703125,0.2734375,1.0
643695,,,,,,,,0.7265625,-0.96875,-0.5546875,-0.1953125,-0.529296875,0.03125,0.3125,-10.609375,0.3125,1.0
643696,,,,,,,,0.52734375,-0.8125,-0.546875,-0.189453125,-0.498046875,0.025390625,0.12109375,-10.453125,0.3125,1.0
643697,,,,,,,,0.21875,-0.5078125,-0.5703125,-0.173828125,-0.41015625,0.009765625,-0.1875,-10.1484375,0.2734375,1.0
643698,,,,,,,,-0.36328125,0.03515625,-0.66015625,-0.197265625,-0.1796875,0.00390625,-0.76171875,-9.61328125,0.16015625,1.0
643699,,,,,,,,-0.78515625,0.375,-0.61328125,-0.216796875,-0.1171875,0.005859375,-1.18359375,-9.26953125,0.19921875,1.0
643700,36.0132655,129.31927233333332,60.609898790077324,96.0354300744556,1.0,293.0,0.0,-1.20703125,0.6796875,-0.4375,-0.123046875,-0.638671875,0.1796875,0.46484375,-10.6796875,0.4296875,1.0
643701,,,,,,,,-1.671875,1.140625,-0.29296875,-0.275390625,0.0703125,0.015625,-2.0625,-8.50390625,0.46484375,1.0
643702,,,,,,,,-2.01171875,1.37890625,-0.49609375,-0.275390625,0.11328125,0.025390625,-2.41015625,-8.265625,0.23828125,1.0
643703,,,,,,,,-2.4296875,1.1875,-0.8046875,-0.314453125,0.09765625,0.03515625,-2.828125,-8.4609375,-0.109375,1.0
643704,,,,,,,,-2.73828125,0.87890625,-1.078125,-0.396484375,0.001953125,0.041015625,-3.13671875,-8.765625,-0.4140625,1.0
643705,,,,,,,,-2.69140625,0.57421875,-0.7734375,-0.466796875,-0.126953125,0.0546875,-3.09765625,-9.07421875,-0.1484375,1.0
643706,,,,,,,,-2.4921875,0.07421875,-0.06640625,-0.533203125,-0.232421875,0.0546875,-2.90625,-9.5703125,0.50390625,1.0
643707,,,,,,,,-1.53515625,-2.3671875,0.78515625,-0.603515625,-0.25390625,0.05859375,-1.94921875,-12.02734375,1.30859375,1.0
643708,,,,,,,,0.53515625,-7.00390625,0.734375,-0.69921875,-0.25390625,0.072265625,0.12109375,-16.66015625,1.1953125,1.0
643709,,,,,,,,2.83203125,-9.30078125,2.07421875,-0.796875,-0.337890625,0.11328125,2.41796875,-18.953125,2.45703125,1.0
643710,36.013265833333335,129.31927083333332,60.47467565808524,96.0724155580995,1.1,289.0,,4.9921875,-8.11328125,5.29296875,-0.865234375,-0.51953125,0.171875,4.5625,-17.765625,5.59765625,1.0
643711,,,,,,,,1.890625,-3.81640625,3.859375,-1.091796875,-1.28125,0.255859375,1.421875,-13.48046875,3.9921875,1.0
643712,,,,,,,,0.52734375,-4.0078125,3.64453125,-1.140625,-1.48046875,0.275390625,0.04296875,-13.67578125,3.72265625,1.0
643713,,,,,,,,-0.53125,-4.0859375,3.46875,-1.048828125,-1.654296875,0.248046875,-1.03125,-13.75390625,3.453125,1.0
643714,,,,,,,,-1.46484375,-3.546875,3.203125,-0.681640625,-1.3984375,0.162109375,-1.98828125,-13.21484375,3.109375,1.0
643715,,,,,,,,-1.109375,-2.16015625,1.7265625,0.2109375,-0.953125,-0.013671875,-1.640625,-11.83203125,1.6171875,1.0
643716,,,,,,,,-1.03515625,-1.77734375,1.39453125,0.5,-0.87890625,-0.09765625,-1.56640625,-11.4453125,1.30859375,1.0
643717,,,,,,,,-0.859375,-0.9375,1.2578125,0.603515625,-1.08984375,-0.201171875,-1.375,-10.61328125,1.234375,1.0
643718,,,,,,,,-0.73046875,-0.46875,1.15625,0.560546875,-1.41796875,-0.216796875,-1.22265625,-10.15234375,1.1953125,1.0
643719,,,,,,,,-0.390625,-0.19921875,1.046875,0.603515625,-1.484375,-0.1953125,-0.875,-9.87890625,1.1171875,1.0
643720,36.013266333333334,129.3192695,60.354477164279416,96.12789435380127,1.2000000000000002,290.0,,0.16015625,0.23046875,0.73828125,0.84375,-1.359375,-0.0234375,-0.30078125,-9.45703125,0.92578125,1.0
643721,,,,,,,,0.7265625,0.71875,0.1015625,0.8203125,-1.1796875,0.181640625,0.2734375,-8.96484375,0.4296875,1.0
643722,,,,,,,,1.02734375,1.6015625,-0.24609375,0.515625,-1.15625,0.37890625,0.54296875,-8.078125,0.19921875,1.0
643723,,,,,,,,1.125,2.21484375,-0.4609375,0.396484375,-1.181640625,0.41015625,0.6171875,-7.46484375,0.0078125,1.0
643724,,,,,,,,1.43359375,2.93359375,-0.5,0.23828125,-1.2265625,0.44140625,0.88671875,-6.734375,0.0078125,1.0
643725,,,,,,,,1.5390625,3.171875,-0.4921875,0.17578125,-1.25390625,0.455078125,0.9609375,-6.51171875,0.046875,1.0
643726,,,,,,,,1.734375,3.31640625,-0.40234375,0.1484375,-1.263671875,0.439453125,1.1171875,-6.3515625,0.16015625,1.0
643727,,,,,,,,2.03125,3.203125,-0.234375,0.103515625,-1.302734375,0.427734375,1.3828125,-6.46875,0.3515625,1.0
643728,,,,,,,,2.0859375,3.0078125,-0.28125,0.064453125,-1.314453125,0.4140625,1.421875,-6.66796875,0.3125,1.0
643729,,,,,,,,2.37890625,2.3984375,-0.44921875,-0.02734375,-1.3203125,0.40625,1.69140625,-7.2734375,0.16015625,1.0
643730,36.01326666666667,129.31926866666666,60.2793530896798,96.16488025359176,1.2000000000000002,288.0,,2.44921875,2.19921875,-0.37109375,-0.078125,-1.28125,0.380859375,1.73046875,-7.4609375,0.23828125,1.0
643731,,,,,,,,2.6640625,1.96875,-0.296875,-0.087890625,-1.20703125,0.3671875,1.921875,-7.69921875,0.3125,1.0
643732,,,,,,,,2.79296875,1.890625,-0.296875,-0.07421875,-1.16015625,0.36328125,2.03515625,-7.77734375,0.3125,1.0
643733,,,,,,,,2.9609375,1.73828125,-0.265625,-0.017578125,-1.0703125,0.3515625,2.1875,-7.921875,0.3515625,1.0
643734,,,,,,,,2.9765625,1.69921875,-0.2734375,-0.009765625,-1.03515625,0.3515625,2.1875,-7.96484375,0.3515625,1.0
643735,,,,,,,,2.7421875,1.76953125,-0.1953125,-0.0078125,-0.958984375,0.3203125,1.921875,-7.88671875,0.4296875,1.0
643736,,,,,,,,2.640625,1.76171875,-0.25,-0.015625,-0.904296875,0.28125,1.8046875,-7.88671875,0.390625,1.0
643737,,,,,,,,2.2421875,1.60546875,-0.234375,0.078125,-0.759765625,0.181640625,1.3828125,-8.04296875,0.4296875,1.0
643738,,,,,,,,2.01953125,1.33984375,-0.13671875,0.17578125,-0.634765625,0.1171875,1.15234375,-8.30859375,0.54296875,1.0
643739,,,,,,,,1.9375,1.0234375,0.03125,0.2734375,-0.53515625,0.0546875,1.078125,-8.62109375,0.734375,1.0
643740,36.013267000000006,129.3192675,60.174179488089095,96.2018659479068,1.2000000000000002,283.0,,1.9375,0.71875,0.09375,-0.078125,-1.28125,0.380859375,1.078125,-8.92578125,0.8125,1.0
643741,,,,,,,,2.00390625,0.40234375,0.08984375,0.365234375,-0.41015625,-0.017578125,1.15234375,-9.2265625,0.84765625,1.0
643742,,,,,,,,1.99609375,0.25,0.04296875,0.365234375,-0.349609375,-0.04296875,1.15234375,-9.3828125,0.84765625,1.0
643743,,,,,,,,1.9609375,0.09765625,0.02734375,0.3515625,-0.326171875,-0.046875,1.1171875,-9.53515625,0.84765625,1.0
643744,,,,,,,,1.7890625,-0.1015625,0.02734375,0.330078125,-0.236328125,-0.048828125,0.9609375,-9.7265625,0.88671875,1.0
643745,,,,,,,,1.62109375,-0.30078125,-0.1328125,0.328125,-0.1015625,-0.044921875,0.80859375,-9.9140625,0.7734375,1.0
643746,,,,,,,,1.4140625,-0.1484375,0.21875,0.32421875,-0.03515625,-0.0390625,0.6171875,-9.765625,1.15625,1.0
643747,,,,,,,,1.67578125,-0.1484375,0.2109375,0.2734375,0.033203125,-0.017578125,0.88671875,-9.765625,1.1953125,1.0
643748,,,,,,,,1.75,-0.23046875,0.1171875,0.25,0.05078125,-0.009765625,0.9609375,-9.8359375,1.1171875,1.0
643749,,,,,,,,1.92578125,-0.81640625,-0.51953125,0.14453125,0.044921875,0.025390625,1.15234375,-10.41796875,0.50390625,1.0
643750,36.013267000000006,129.31926633333333,60.06900614088752,96.2018652282271,1.1,276.0,,1.78125,-1.08203125,-0.7578125,0.0859375,0.048828125,0.03515625,1.078125,-8.92578125,0.8125,1.0
643751,,,,,,,,1.23828125,-1.12109375,-0.92578125,0.0546875,0.044921875,0.05078125,0.46484375,-10.71875,0.12109375,1.0
643752,,,,,,,,0.74609375,-0.890625,-0.734375,0.005859375,0.009765625,0.05859375,-0.03515625,-10.49609375,0.3125,1.0
643753,,,,,,,,0.28125,-0.6328125,-0.54296875,-0.015625,0.005859375,0.064453125,-0.4921875,-10.23046875,0.50390625,1.0
643754,,,,,,,,0.1796875,-0.2109375,-0.3046875,-0.11328125,-0.0078125,0.087890625,-0.609375,-9.80859375,0.734375,1.0
643755,,,,,,,,0.71875,0.2578125,-0.41015625,-0.205078125,-0.009765625,0.109375,-0.0703125,-9.34375,0.62109375,1.0
643756,,,,,,,,1.4140625,-0.01171875,-0.5703125,-0.267578125,0.005859375,0.13671875,0.6171875,-9.609375,0.4296875,1.0
643757,,,,,,,,1.4609375,-1.234375,-0.96875,-0.29296875,0.017578125,0.16015625,0.65625,-10.83984375,0.0078125,1.0
643758,,,,,,,,1.27734375,-1.54296875,-0.87890625,-0.294921875,0.005859375,0.171875,0.46484375,-11.14453125,0.08203125,1.0
643759,,,,,,,,0.55078125,-1.65625,-0.08203125,-0.2890625,-0.048828125,0.21484375,-0.26171875,-11.26171875,0.84765625,1.0
643760,36.01326683333333,129.31926483333334,59.933783392318006,96.18337109697408,1.3,268.0,,-0.69140625,-0.9609375,1.8203125,0.0859375,0.048828125,0.03515625,-1.52734375,-10.5703125,2.7265625,1.0
643761,,,,,,,,-1.09765625,-1.58203125,2.54296875,-0.439453125,-0.15234375,0.265625,-1.94921875,-11.18359375,3.41796875,1.0
643762,,,,,,,,-1.2578125,-3.265625,3.09375,-0.67578125,-0.1640625,0.30078125,-2.140625,-12.8671875,3.9140625,1.0
643763,,,,,,,,-1.5625,-3.78515625,3.4765625,-0.83203125,-0.158203125,0.30859375,-2.4453125,-13.3984375,4.2578125,1.0
643764,,,,,,,,-2.63671875,-4.97265625,4.4453125,-0.935546875,-0.01953125,0.26171875,-3.55859375,-14.58984375,5.1015625,1.0
643765,,,,,,,,-3.1875,-3.97265625,5.14453125,-0.701171875,-0.015625,0.248046875,-4.1328125,-13.59375,5.71484375,1.0
643766,,,,,,,,-2.58984375,-2.4765625,4.625,-0.623046875,-0.259765625,0.2578125,-3.13671875,-11.4453125,4.7578125,1.0
643767,,,,,,,,-1.2265625,-1.01171875,3.74609375,-0.6328125,-0.27734375,0.298828125,-1.56640625,-10.2265625,3.53125,1.0
643768,,,,,,,,-0.55859375,-0.6015625,3.125,-0.521484375,-0.248046875,0.30859375,-1.296875,-10.15234375,3.109375,1.0
643769,,,,,,,,-0.265625,-0.4765625,2.55859375,-0.203125,-0.3046875,0.310546875,-1.44921875,-10.37890625,2.8046875,1.0
643770,36.0132665,129.3192635,59.813585533177715,96.14638386282195,1.3,260.0,,-0.69140625,-0.9609375,1.8203125,0.26953125,-0.4609375,0.314453125,-1.796875,-10.80078125,3.1875,1.0
643771,,,,,,,,-0.984375,-1.48046875,2.99609375,0.54296875,-0.515625,0.279296875,-2.0625,-11.10546875,3.37890625,1.0
643772,,,,,,,,-0.87890625,-1.48046875,2.86328125,0.490234375,-0.45703125,0.22265625,-1.8359375,-10.87890625,2.95703125,1.0
643773,,,,,,,,-0.71875,-1.25,2.48828125,0.373046875,-0.451171875,0.185546875,-1.6796875,-10.68359375,2.7265625,1.0
643774,,,,,,,,-0.31640625,-0.63671875,1.7890625,0.08984375,-0.443359375,0.111328125,-1.296875,-10.07421875,2.2265625,1.0
643775,,,,,,,,0.06640625,-0.1015625,1.3515625,-0.119140625,-0.44921875,0.060546875,-0.9140625,-9.53515625,1.80859375,1.0
643776,,,,,,,,0.33203125,0.203125,1.19921875,-0.19921875,-0.5859375,0.013671875,-0.64453125,-9.2265625,1.578125,1.0
643777,,,,,,,,0.75390625,0.703125,0.82421875,-0.169921875,-0.69140625,-0.03125,-0.30078125,-8.76953125,1.26953125,1.0
643778,,,,,,,,0.83203125,0.85546875,0.74609375,-0.13671875,-0.71484375,-0.05859375,-0.2265625,-8.54296875,1.234375,1.0
643779,,,,,,,,1.0390625,1.4375,0.5234375,-0.056640625,-0.744140625,-0.099609375,-0.03515625,-8.04296875,0.92578125,1.0
643780,36.013266333333334,129.31926233333334,59.70841231300939,96.12788993886545,1.1,262.0,,-0.69140625,-0.9609375,1.8203125,-0.044921875,-0.751953125,-0.12890625,-1.796875,-10.80078125,3.1875,1.0
643781,,,,,,,,1.04296875,2.51953125,0.234375,-0.033203125,-0.7421875,-0.146484375,-0.03515625,-7.1171875,0.7734375,1.0
643782,,,,,,,,0.921875,2.7109375,0.2734375,-0.029296875,-0.73828125,-0.154296875,-0.1484375,-6.9296875,0.8125,1.0
643783,,,,,,,,0.66796875,2.87109375,0.2265625,-0.0234375,-0.72265625,-0.1640625,-0.37890625,-6.7734375,0.7734375,1.0
643784,,,,,,,,0.37890625,3.0234375,0.1796875,-0.015625,-0.712890625,-0.171875,-0.64453125,-6.625,0.734375,1.0
643785,,,,,,,,0.14453125,3.1484375,0.09375,-0.021484375,-0.708984375,-0.181640625,-0.83984375,-6.51171875,0.65625,1.0
643786,,,,,,,,-0.09765625,3.0625,-0.03515625,-0.015625,-0.712890625,-0.17578125,-1.06640625,-6.5859375,0.54296875,1.0
643787,,,,,,,,-0.4765625,2.95703125,-0.1953125,0.01953125,-0.697265625,-0.1640625,-1.4140625,-6.6953125,0.390625,1.0
643788,,,,,,,,-0.765625,2.87890625,-0.25,0.076171875,-0.681640625,-0.15234375,-1.6796875,-6.77734375,0.3515625,1.0
643789,,,,,,,,-0.9453125,2.83984375,-0.3046875,0.12109375,-0.658203125,-0.134765625,-1.8359375,-6.81640625,0.3125,1.0
643790,36.013266,129.31926133333334,59.61826397918931,96.0909029114156,1.0,260.0,,-0.9375,2.6875,-0.51171875,0.21875,-0.609375,-0.08984375,-1.796875,-6.96875,0.16015625,1.0
643791,,,,,,,,-0.75390625,2.375,-0.58203125,0.23828125,-0.615234375,-0.048828125,-1.60546875,-7.27734375,0.12109375,1.0
643792,,,,,,,,-0.65234375,2.296875,-0.48828125,0.244140625,-0.677734375,-0.01953125,-1.48828125,-7.35546875,0.23828125,1.0
643793,,,,,,,,-0.421875,2.17578125,-0.453125,0.255859375,-0.759765625,0.013671875,-1.2578125,-7.4609375,0.3125,1.0
643794,,,,,,,,-0.2109375,2.08984375,-0.546875,0.26171875,-0.88671875,0.04296875,-1.03125,-7.54296875,0.2734375,1.0
643795,,,,,,,,-0.09375,1.859375,-0.69140625,0.2578125,-0.966796875,0.064453125,-0.9140625,-7.7734375,0.16015625,1.0
643796,,,,,,,,-0.01953125,1.390625,-0.8359375,0.23828125,-1.03515625,0.087890625,-0.83984375,-8.23828125,0.046875,1.0
643797,,,,,,,,0.08984375,0.96484375,-0.80078125,0.23828125,-1.060546875,0.103515625,-0.72265625,-8.65234375,0.12109375,1.0
643798,,,,,,,,0.12890625,0.38671875,-0.71484375,0.24609375,-1.0703125,0.12109375,-0.68359375,-9.23046875,0.23828125,1.0
643799,,,,,,,,0.12890625,-0.15625,-0.40234375,0.236328125,-1.052734375,0.1328125,-0.68359375,-9.765625,0.58203125,1.0
643800,36.01326566666667,129.31925983333335,59.48304135300406,96.05391557951738,1.2000000000000002,257.0,0.0,0.08984375,-0.42578125,-0.3203125,0.1875,-1.013671875,0.154296875,-0.72265625,-10.03515625,0.6953125,1.0
643801,,,,,,,,0.2890625,-0.96875,-0.49609375,0.130859375,-0.966796875,0.158203125,-0.53125,-10.57421875,0.54296875,1.0
643802,,,,,,,,0.3203125,-1.16015625,-0.42578125,0.099609375,-0.943359375,0.15625,-0.4921875,-10.7578125,0.62109375,1.0
643803,,,,,,,,0.48046875,-0.9765625,-0.22265625,0.056640625,-0.92578125,0.158203125,-0.33984375,-10.5703125,0.84765625,1.0
643804,,,,,,,,0.44921875,-0.78515625,-0.23046875,0.0546875,-0.91015625,0.154296875,-0.37890625,-10.37890625,0.84765625,1.0
643805,,,,,,,,0.48046875,-0.67578125,-0.2890625,0.048828125,-0.87109375,0.12109375,-0.33984375,-10.26171875,0.8125,1.0
643806,,,,,,,,0.44921875,-0.71484375,-0.3671875,0.0390625,-0.861328125,0.1015625,-0.37890625,-10.30078125,0.734375,1.0
643807,,,,,,,,0.3671875,-0.75390625,-0.53515625,0.009765625,-0.775390625,0.0625,-0.453125,-10.3359375,0.58203125,1.0
643808,,,,,,,,0.40234375,-0.71484375,-0.65234375,0.005859375,-0.751953125,0.05078125,-0.41796875,-10.296875,0.46484375,1.0
643809,,,,,,,,0.359375,-0.5703125,-0.734375,-0.017578125,-0.712890625,0.015625,-0.453125,-10.15234375,0.390625,1.0
643810,36.0132655,129.31925850000002,59.362843364840415,96.03542155907128,1.2000000000000002,256.0,,0.00390625,0.2734375,-0.66015625,-0.06640625,-0.658203125,-0.013671875,-0.80078125,-9.3046875,0.46484375,1.0
643811,,,,,,,,-1.08984375,1.0390625,-0.23046875,-0.193359375,-0.513671875,-0.060546875,-1.87109375,-8.54296875,0.88671875,1.0
643812,,,,,,,,-1.65234375,1.19921875,0.109375,-0.310546875,-0.376953125,-0.09375,-2.41015625,-8.38671875,1.1953125,1.0
643813,,,,,,,,-1.7734375,1.125,0.1640625,-0.3359375,-0.333984375,-0.107421875,-2.5234375,-8.46484375,1.234375,1.0
643814,,,,,,,,-1.97265625,0.7421875,0.26171875,-0.369140625,-0.25390625,-0.126953125,-2.71484375,-8.84375,1.30859375,1.0
643815,,,,,,,,-1.61328125,-0.79296875,0.03125,-0.390625,-0.203125,-0.158203125,-2.33203125,-10.37890625,1.0390625,1.0
643816,,,,,,,,-0.78515625,-3.88671875,0.53125,-0.439453125,-0.205078125,-0.173828125,-1.48828125,-13.4765625,1.5,1.0
643817,,,,,,,,-0.07421875,-5.34375,1.65234375,-0.525390625,-0.2578125,-0.177734375,-0.76171875,-14.9375,2.57421875,1.0
643818,,,,,,,,0.609375,-6.22265625,1.859375,-0.5703125,-0.283203125,-0.18359375,-0.0703125,-15.81640625,2.765625,1.0
643819,,,,,,,,2.38671875,-8.32421875,2.37890625,-0.69140625,-0.318359375,-0.1875,1.73046875,-17.92578125,3.22265625,1.0
643820,36.01326516666666,129.31925683333333,59.21259596888952,95.99843412752925,1.3,256.0,,6.9140625,-6.62109375,6.58203125,-0.06640625,-0.658203125,-0.013671875,-0.80078125,-9.3046875,0.46484375,1.0
643821,,,,,,,,5.171875,-3.89453125,5.38671875,-0.779296875,-0.626953125,-0.0859375,4.5625,-13.51953125,6.05859375,1.0
643822,,,,,,,,1.77734375,-2.546875,4.38671875,-0.7734375,-1.03515625,-0.052734375,1.19140625,-12.18359375,4.98828125,1.0
643823,,,,,,,,-0.06640625,-2.77734375,4.828125,-0.771484375,-1.263671875,-0.048828125,-0.64453125,-12.40625,5.40625,1.0
643824,,,,,,,,-0.66015625,-2.84375,3.3671875,-0.73046875,-1.591796875,-0.150390625,-1.22265625,-12.484375,3.875,1.0
643825,,,,,,,,-0.734375,-1.91015625,2.2421875,-0.0390625,-0.791015625,-0.2578125,-1.2578125,-11.56640625,2.6875,1.0
643826,,,,,,,,-0.70703125,-1.37109375,2.34765625,0.685546875,-0.40234375,-0.462890625,-1.18359375,-11.0234375,2.83984375,1.0
643827,,,,,,,,-0.23828125,-0.109375,0.859375,0.646484375,-0.912109375,-0.46484375,-0.64453125,-9.76953125,1.4609375,1.0
643828,,,,,,,,-0.04296875,0.015625,0.70703125,0.634765625,-1.048828125,-0.412109375,-0.41796875,-9.65234375,1.34765625,1.0
643829,,,,,,,,0.33984375,-0.109375,1.5078125,0.67578125,-0.98046875,-0.318359375,0.00390625,-9.76953125,2.2265625,1.0
643830,36.01326483333333,129.31925533333333,59.07737334028538,95.96144680210439,1.3,256.0,,0.5234375,-0.109375,1.33984375,0.705078125,-0.71875,-0.1015625,0.234375,-9.765625,2.15234375,1.0
643831,,,,,,,,0.59375,0.2734375,0.87890625,0.599609375,-0.69921875,0.0390625,0.3125,-9.3828125,1.76953125,1.0
643832,,,,,,,,0.5546875,0.87890625,0.47265625,0.470703125,-0.69140625,0.111328125,0.2734375,-8.76953125,1.38671875,1.0
643833,,,,,,,,0.4609375,1.9921875,0.03515625,0.021484375,-0.73046875,0.30859375,0.15625,-7.66015625,1.00390625,1.0
643834,,,,,,,,0.44140625,2.375,-0.04296875,0.001953125,-0.728515625,0.328125,0.12109375,-7.27734375,0.92578125,1.0
643835,,,,,,,,0.82421875,2.640625,-0.2109375,0.0078125,-0.734375,0.33203125,0.46484375,-7.0078125,0.7734375,1.0
643836,,,,,,,,0.9453125,2.7578125,-0.328125,-0.009765625,-0.736328125,0.318359375,0.578125,-6.890625,0.65625,1.0
643837,,,,,,,,1.27734375,3.0234375,-0.40234375,-0.0390625,-0.74609375,0.291015625,0.88671875,-6.62890625,0.58203125,1.0
643838,,,,,,,,1.4453125,3.1015625,-0.36328125,-0.05859375,-0.765625,0.283203125,1.0390625,-6.55078125,0.62109375,1.0
643839,,,,,,,,1.69140625,3.1875,-0.3359375,-0.0546875,-0.736328125,0.251953125,1.26953125,-6.47265625,0.65625,1.0
643840,36.013264166666666,129.31925433333333,58.987225250276715,95.88747336646138,1.2000000000000002,253.0,,1.9375,3.22265625,-0.37109375,-0.025390625,-0.70703125,0.248046875,1.5,-6.43359375,0.62109375,1.0
643841,,,,,,,,2.2109375,3.09375,-0.296875,0.017578125,-0.625,0.244140625,1.765625,-6.546875,0.6953125,1.0
643842,,,,,,,,2.53515625,2.87109375,-0.2734375,0.056640625,-0.5546875,0.240234375,2.07421875,-6.77734375,0.734375,1.0
643843,,,,,,,,2.703125,2.6015625,-0.203125,0.080078125,-0.48828125,0.228515625,2.2265625,-7.05078125,0.8125,1.0
643844,,,,,,,,2.75,2.44140625,-0.25,0.099609375,-0.4296875,0.216796875,2.265625,-7.1953125,0.7734375,1.0
643845,,,,,,,,2.57421875,2.2890625,-0.3125,0.091796875,-0.390625,0.18359375,2.07421875,-7.3515625,0.734375,1.0
643846,,,,,,,,2.3046875,2.203125,-0.42578125,0.083984375,-0.37109375,0.166015625,1.8046875,-7.4296875,0.62109375,1.0
643847,,,,,,,,2.0078125,2.16796875,-0.40625,0.06640625,-0.359375,0.10546875,1.5,-7.4609375,0.65625,1.0
643848,,,,,,,,1.546875,1.8984375,-0.48828125,0.080078125,-0.302734375,0.03515625,1.0390625,-7.73828125,0.58203125,1.0
643849,,,,,,,,1.26953125,1.78125,-0.3515625,0.103515625,-0.236328125,-0.04296875,0.76953125,-7.85546875,0.734375,1.0
643850,36.01326383333333,129.31925283333334,58.852002618594966,95.8504860432036,1.2000000000000002,251.0,,1.09375,1.35546875,-0.22265625,0.166015625,-0.078125,-0.162109375,0.6171875,-8.26953125,0.88671875,1.0
643851,,,,,,,,1.140625,0.96484375,-0.16015625,0.185546875,0.05078125,-0.22265625,0.6953125,-8.6484375,0.96484375,1.0
643852,,,,,,,,1.23828125,0.50390625,-0.375,0.189453125,0.18359375,-0.251953125,0.80859375,-9.109375,0.7734375,1.0
643853,,,,,,,,1.26953125,0.3125,-0.421875,0.1796875,0.228515625,-0.259765625,0.84765625,-9.30859375,0.734375,1.0
643854,,,,,,,,1.03125,-0.0703125,-0.63671875,0.150390625,0.326171875,-0.263671875,0.65625,-9.6875,0.54296875,1.0
643855,,,,,,,,0.6171875,-0.1953125,-0.57421875,0.158203125,0.36328125,-0.26953125,0.2734375,-9.80859375,0.62109375,1.0
643856,,,,,,,,0.2578125,-0.23046875,-0.32421875,0.1640625,0.361328125,-0.271484375,-0.0703125,-9.83984375,0.88671875,1.0
643857,,,,,,,,0.140625,-0.125,0.07421875,0.1796875,0.39453125,-0.26953125,-0.1484375,-9.7265625,1.30859375,1.0
643858,,,,,,,,0.31640625,-0.046875,0.02734375,0.169921875,0.41015625,-0.271484375,0.04296875,-9.65234375,1.26953125,1.0
643859,,,,,,,,0.5625,-0.203125,-0.0234375,0.140625,0.44140625,-0.271484375,0.3125,-9.80859375,1.234375,1.0
643860,36.01326316666667,129.31925183333334,58.7618545277697,95.77651260892446,1.1,247.0,,0.8828125,-0.66796875,-0.33984375,0.0703125,0.4296875,-0.255859375,0.65625,-10.2578125,0.92578125,1.0
643861,,,,,,,,0.97265625,-1.19921875,-0.69140625,-0.009765625,0.361328125,-0.244140625,0.76953125,-10.796875,0.58203125,1.0
643862,,,,,,,,0.8359375,-1.359375,-0.69140625,-0.015625,0.27734375,-0.234375,0.65625,-10.95703125,0.58203125,1.0
643863,,,,,,,,0.7421875,-1.16796875,-0.578125,-0.02734375,0.20703125,-0.224609375,0.578125,-10.76171875,0.6953125,1.0
643864,,,,,,,,0.3828125,-0.74609375,-0.109375,-0.0703125,0.06640625,-0.19921875,0.234375,-10.3359375,1.15625,1.0
643865,,,,,,,,0.3203125,-0.40234375,-0.0625,-0.142578125,-0.02734375,-0.185546875,0.1953125,-9.9921875,1.1953125,1.0
643866,,,,,,,,0.43359375,-0.0546875,0.11328125,-0.18359375,-0.0703125,-0.173828125,0.34765625,-9.6484375,1.34765625,1.0
643867,,,,,,,,0.6484375,-1.3515625,-0.4921875,-0.216796875,-0.0859375,-0.146484375,0.578125,-10.953125,0.734375,1.0
643868,,,,,,,,0.71875,-1.78125,-0.171875,-0.244140625,-0.091796875,-0.1328125,0.65625,-11.375,1.0390625,1.0
643869,,,,,,,,0.3203125,-3.03515625,0.92578125,-0.26171875,-0.083984375,-0.1015625,0.2734375,-12.63671875,2.11328125,1.0
643870,36.01326233333334,129.3192505,58.64165702870081,95.68404576699982,1.2000000000000002,240.0,,-0.1171875,-2.0390625,1.69140625,-0.26171875,-0.08203125,-0.021484375,-0.1484375,-11.640625,2.83984375,1.0
643871,,,,,,,,-0.23828125,-2.109375,1.90625,-0.3515625,-0.0390625,0.05078125,-0.26171875,-11.72265625,3.03125,1.0
643872,,,,,,,,-0.5,-3.94921875,2.8828125,-0.705078125,-0.02734375,0.134765625,-0.53125,-13.5546875,3.953125,1.0
643873,,,,,,,,-1.14453125,-4.171875,4.0703125,-0.81640625,0.03125,0.130859375,-1.18359375,-13.79296875,5.1015625,1.0
643874,,,,,,,,-1.94140625,-3.77734375,4.66015625,-0.66796875,-0.009765625,0.0703125,-1.98828125,-13.3984375,5.59765625,1.0
643875,,,,,,,,-1.6328125,-2.9296875,4.640625,-0.443359375,-0.009765625,0.03515625,-1.6796875,-12.5625,5.5234375,1.0
643876,,,,,,,,-0.25390625,-1.609375,3.99609375,-0.515625,-0.064453125,0.064453125,-0.30078125,-11.2578125,4.83203125,1.0
643877,,,,,,,,0.40234375,-0.8828125,3.046875,-0.60546875,-0.076171875,0.064453125,0.34765625,-10.53125,3.8359375,1.0
643878,,,,,,,,0.75,-0.65234375,2.66015625,-0.5,-0.0546875,0.064453125,0.6953125,-10.296875,3.41796875,1.0
643879,,,,,,,,0.98046875,-0.4921875,2.71875,-0.078125,-0.01953125,0.0546875,0.92578125,-10.15234375,3.453125,1.0
643880,36.0132615,129.31924933333332,58.536484288785644,95.5915790268842,1.3,236.0,,0.2109375,-0.921875,2.24609375,0.279296875,-0.123046875,0.048828125,0.15625,-10.57421875,2.99609375,1.0
643881,,,,,,,,-0.4765625,-0.953125,2.28125,0.533203125,-0.111328125,0.046875,-0.53125,-10.61328125,3.0703125,1.0
643882,,,,,,,,-0.69921875,-0.921875,2.36328125,0.638671875,0.095703125,0.029296875,-0.76171875,-10.57421875,3.22265625,1.0
643883,,,,,,,,-0.66796875,-0.8828125,2.3046875,0.576171875,0.15625,0.025390625,-0.72265625,-10.53125,3.1875,1.0
643884,,,,,,,,-0.36328125,-0.65234375,1.875,0.35546875,0.169921875,-0.01953125,-0.41796875,-10.296875,2.8046875,1.0
643885,,,,,,,,-0.21484375,-0.35546875,1.55859375,0.1015625,0.1484375,-0.1171875,-0.26171875,-9.9921875,2.53515625,1.0
643886,,,,,,,,0.15234375,0.03515625,1.08984375,-0.01171875,0.0703125,-0.181640625,0.12109375,-9.609375,2.07421875,1.0
643887,,,,,,,,0.39453125,0.41796875,0.8984375,-0.060546875,-0.091796875,-0.2421875,0.38671875,-9.2265625,1.8828125,1.0
643888,,,,,,,,0.48828125,0.734375,0.78515625,-0.05859375,-0.19140625,-0.26953125,0.50390625,-8.92578125,1.76953125,1.0
643889,,,,,,,,0.5703125,1.00390625,0.5625,-0.044921875,-0.220703125,-0.279296875,0.6171875,-8.6484375,1.5390625,1.0
643890,36.01326066666666,129.3192485,58.46136107837992,95.49911248713836,1.2000000000000002,234.0,,0.5,1.61328125,0.25,-0.017578125,-0.208984375,-0.275390625,0.578125,-8.04296875,1.234375,1.0
643891,,,,,,,,0.42578125,1.8828125,0.171875,0.0,-0.173828125,-0.25,0.54296875,-7.77734375,1.15625,1.0
643892,,,,,,,,0.1640625,2.14453125,0.203125,0.033203125,-0.125,-0.22265625,0.3125,-7.5,1.1953125,1.0
643893,,,,,,,,-0.04296875,2.265625,0.1953125,0.056640625,-0.119140625,-0.21484375,0.12109375,-7.390625,1.1953125,1.0
643894,,,,,,,,-0.296875,2.41796875,0.2265625,0.072265625,-0.140625,-0.208984375,-0.109375,-7.23828125,1.234375,1.0
643895,,,,,,,,-0.62890625,2.57421875,0.21875,0.076171875,-0.1640625,-0.20703125,-0.41796875,-7.078125,1.234375,1.0
643896,,,,,,,,-0.8046875,2.71875,0.125,0.078125,-0.19140625,-0.203125,-0.5703125,-6.9296875,1.15625,1.0
643897,,,,,,,,-1.1796875,2.95703125,0.1171875,0.091796875,-0.216796875,-0.203125,-0.9140625,-6.6953125,1.15625,1.0
643898,,,,,,,,-1.37890625,2.984375,0.0625,0.107421875,-0.240234375,-0.203125,-1.10546875,-6.66796875,1.1171875,1.0
643899,,,,,,,,-1.37890625,2.984375,0.0625,0.107421875,-0.240234375,-0.203125,-1.10546875,-6.66796875,1.1171875,1.0
643900,36.013259999999995,129.31924766666668,58.386237746481854,95.42513915720913,1.1,234.0,0.0,-1.51171875,2.91015625,-0.25390625,0.21875,-0.314453125,-0.14453125,-1.18359375,-6.734375,0.84765625,1.0
643901,,,,,,,,-1.3671875,2.671875,-0.4609375,0.25390625,-0.314453125,-0.1015625,-1.03125,-6.96875,0.65625,1.0
643902,,,,,,,,-1.11328125,2.39453125,-0.57421875,0.294921875,-0.2890625,-0.046875,-0.76171875,-7.23828125,0.58203125,1.0
643903,,,,,,,,-1.00390625,2.2734375,-0.4453125,0.30859375,-0.271484375,0.005859375,-0.64453125,-7.3515625,0.734375,1.0
643904,,,,,,,,-0.78515625,2.1953125,-0.37109375,0.326171875,-0.2890625,0.05859375,-0.41796875,-7.43359375,0.84765625,1.0
643905,,,,,,,,-0.66015625,2.2265625,-0.40234375,0.318359375,-0.30859375,0.103515625,-0.30078125,-7.390625,0.84765625,1.0
643906,,,,,,,,-0.578125,2.15234375,-0.41796875,0.3046875,-0.322265625,0.123046875,-0.2265625,-7.46484375,0.84765625,1.0
643907,,,,,,,,-0.53125,1.98828125,-0.640625,0.267578125,-0.35546875,0.15625,-0.1875,-7.6171875,0.65625,1.0
643908,,,,,,,,-0.67578125,1.40625,-0.5859375,0.22265625,-0.3984375,0.181640625,-0.33984375,-8.1953125,0.734375,1.0
643909,,,,,,,,-0.65234375,0.671875,-0.38671875,0.201171875,-0.46484375,0.1953125,-0.33984375,-8.92578125,0.96484375,1.0
643910,36.01325933333333,129.31924666666666,58.29608964501372,95.35116572685685,1.2000000000000002,235.0,,-0.64453125,0.2109375,-0.2578125,0.21484375,-0.470703125,0.201171875,-1.18359375,-6.734375,0.84765625,1.0
643911,,,,,,,,-0.4765625,-0.37109375,0.02734375,0.19140625,-0.45703125,0.189453125,-0.1875,-9.953125,1.42578125,1.0
643912,,,,,,,,-0.4765625,-0.37109375,0.02734375,0.126953125,-0.408203125,0.177734375,-0.1875,-10.07421875,1.4609375,1.0
643913,,,,,,,,-0.5078125,-0.5,0.01171875,0.052734375,-0.38671875,0.166015625,-0.26171875,-10.19140625,1.234375,1.0
643914,,,,,,,,-0.52734375,-0.609375,-0.1875,-0.00390625,-0.40234375,0.14453125,-0.2265625,-10.2265625,1.1953125,1.0
643915,,,,,,,,-0.484375,-0.69140625,-0.2734375,-0.025390625,-0.43359375,0.119140625,-0.1484375,-10.2578125,1.1953125,1.0
643916,,,,,,,,-0.28515625,-0.6484375,-0.265625,-0.01171875,-0.421875,0.080078125,0.04296875,-10.2265625,1.1171875,1.0
643917,,,,,,,,-0.20703125,-0.6484375,-0.296875,-0.001953125,-0.41796875,0.0625,0.12109375,-10.296875,1.1171875,1.0
643918,,,,,,,,-0.13671875,-0.76953125,-0.34375,-0.015625,-0.38671875,0.0546875,0.1953125,-10.45703125,1.15625,1.0
643919,,,,,,,,-0.0625,-0.8828125,-0.265625,-0.03515625,-0.36328125,0.046875,0.34765625,-10.49609375,1.26953125,1.0
643920,36.013258666666665,129.31924566666666,58.20594154308921,95.27719229844831,1.2000000000000002,233.0,,-0.64453125,0.2109375,-0.2578125,-0.111328125,-0.31640625,0.0390625,0.08203125,-9.49609375,1.42578125,1.0
643921,,,,,,,,-0.3984375,0.76171875,-0.08203125,-0.203125,-0.12890625,0.046875,-0.53125,-8.50390625,1.38671875,1.0
643922,,,,,,,,-0.78125,1.0703125,0.00390625,-0.25,-0.064453125,0.052734375,-0.80078125,-8.5390625,1.42578125,1.0
643923,,,,,,,,-1.5078125,0.1484375,-0.08984375,-0.298828125,0.0546875,0.056640625,-1.4140625,-9.9921875,1.1953125,1.0
643924,,,,,,,,-1.76953125,-0.953125,-0.109375,-0.28125,0.140625,0.044921875,-1.48828125,-11.0234375,1.42578125,1.0
643925,,,,,,,,-1.53125,-2.41015625,0.265625,-0.271484375,0.185546875,0.015625,-1.10546875,-12.63671875,1.8828125,1.0
643926,,,,,,,,-1.33984375,-3.05859375,0.5859375,-0.2890625,0.1796875,0.001953125,-0.9140625,-12.91015625,2.07421875,1.0
643927,,,,,,,,-0.8359375,-3.671875,0.89453125,-0.458984375,0.103515625,-0.048828125,0.38671875,-14.36328125,2.11328125,1.0
643928,,,,,,,,0.765625,-5.234375,1.046875,-0.74609375,0.044921875,-0.068359375,1.65234375,-15.08984375,2.765625,1.0
643929,,,,,,,,2.10546875,-5.08203125,2.265625,-0.8828125,0.001953125,-0.05078125,2.33984375,-14.66796875,3.453125,1.0
