time,latitude,longitude,enu_x,enu_y,speed,course,ecg,accX,accY,accZ,gyrX,gyrY,gyrZ,eulR,eulP,eulY,validity
632520,36.01326516666666,129.31923666666668,57.394599495467375,95.99842206181476,1.2000000000000002,45.0,,0.03515625,-0.36328125,1.04296875,0.158203125,0.2421875,0.048828125,-1.06640625,-11.87109375,2.61328125,1.0
632521,,,,,,,,-0.37890625,-0.2578125,1.171875,0.322265625,0.41015625,0.029296875,-1.22265625,-9.76953125,2.765625,1.0
632522,,,,,,,,-0.25390625,-0.296875,1.25390625,0.40625,0.453125,-0.046875,-1.10546875,-9.8046875,2.87890625,1.0
632523,,,,,,,,-0.140625,-0.140625,0.7578125,0.40625,0.376953125,-0.158203125,-0.9921875,-9.6484375,2.421875,1.0
632524,,,,,,,,-0.1171875,0.125,0.45703125,0.33203125,0.30078125,-0.255859375,-0.953125,-9.3828125,2.15234375,1.0
632525,,,,,,,,0.05078125,0.69140625,0.1171875,0.23046875,0.2578125,-0.337890625,-0.76171875,-8.8046875,1.84375,1.0
632526,,,,,,,,0.28125,1.16015625,-0.125,0.12109375,0.1796875,-0.392578125,-0.4921875,-8.34375,1.6171875,1.0
632527,,,,,,,,0.39453125,1.58203125,-0.40234375,0.0546875,0.08203125,-0.42578125,-0.33984375,-7.921875,1.34765625,1.0
632528,,,,,,,,0.31640625,1.88671875,-0.44140625,0.05078125,0.0703125,-0.42578125,-0.37890625,-7.6171875,1.30859375,1.0
632529,,,,,,,,0.27734375,2.31640625,-0.49609375,0.060546875,0.083984375,-0.40625,-0.37890625,-7.19921875,1.26953125,1.0
632530,36.013266,129.31923733333332,57.45469794589941,96.09088849496413,1.2000000000000002,45.0,,0.32421875,2.625,-0.5390625,0.046875,0.107421875,-0.384765625,-0.30078125,-6.89453125,1.234375,1.0
632531,,,,,,,,0.16796875,2.66796875,-0.5390625,0.029296875,0.15234375,-0.361328125,-0.41796875,-6.85546875,1.234375,1.0
632532,,,,,,,,0.0,2.6015625,-0.50390625,0.0234375,0.173828125,-0.353515625,-0.5703125,-6.9296875,1.26953125,1.0
632533,,,,,,,,-0.3515625,2.484375,-0.5859375,0.0078125,0.181640625,-0.328125,-0.875,-7.046875,1.1953125,1.0
632534,,,,,,,,-0.5390625,2.41015625,-0.546875,0.017578125,0.166015625,-0.337890625,-1.03125,-7.12109375,1.234375,1.0
632535,,,,,,,,-0.8046875,2.2578125,-0.5859375,0.021484375,0.09375,-0.357421875,-1.2578125,-7.2734375,1.1953125,1.0
632536,,,,,,,,-0.921875,2.06640625,-0.6640625,0.029296875,0.056640625,-0.373046875,-1.3359375,-7.46484375,1.1171875,1.0
632537,,,,,,,,-0.9375,2.01953125,-0.6328125,0.041015625,0.046875,-0.373046875,-1.3359375,-7.50390625,1.15625,1.0
632538,,,,,,,,-0.9765625,1.91015625,-0.51953125,0.076171875,0.03515625,-0.373046875,-1.3359375,-7.62109375,1.26953125,1.0
632539,,,,,,,,-1.0390625,1.94140625,-0.5703125,0.099609375,0.0546875,-0.365234375,-1.375,-7.58203125,1.234375,1.0
632540,36.01326666666667,129.31923833333335,57.544846046839254,96.1648619157195,1.2000000000000002,45.0,,-1.03125,1.98046875,-0.6171875,0.046875,0.107421875,-0.384765625,-1.3359375,-7.5390625,1.1953125,1.0
632541,,,,,,,,-1.0234375,2.01953125,-0.75,0.154296875,0.0859375,-0.30859375,-1.296875,-7.5,1.078125,1.0
632542,,,,,,,,-0.93359375,1.94140625,-0.87890625,0.150390625,0.09375,-0.271484375,-1.18359375,-7.578125,0.96484375,1.0
632543,,,,,,,,-0.87890625,1.828125,-0.88671875,0.177734375,0.12109375,-0.20703125,-0.9921875,-7.9609375,0.96484375,1.0
632544,,,,,,,,-0.65625,1.390625,-0.91015625,0.19140625,0.125,-0.1875,-0.76171875,-8.38671875,1.0390625,1.0
632545,,,,,,,,-0.44140625,0.96875,-0.7734375,0.22265625,0.10546875,-0.173828125,-0.64453125,-8.8828125,1.15625,1.0
632546,,,,,,,,-0.44921875,0.625,-0.7421875,0.228515625,0.1015625,-0.177734375,-0.609375,-9.04296875,1.1953125,1.0
632547,,,,,,,,-0.47265625,0.34765625,-0.7265625,0.2109375,0.078125,-0.17578125,-0.72265625,-9.265625,1.30859375,1.0
632548,,,,,,,,-0.64453125,0.1484375,-0.55078125,0.162109375,0.05078125,-0.189453125,-0.9140625,-9.34765625,1.38671875,1.0
632549,,,,,,,,-0.8203125,0.21875,-0.54296875,0.072265625,0.01171875,-0.203125,-0.9921875,-9.23046875,1.34765625,1.0
632550,36.0132675,129.31923933333334,57.634994024320825,96.25732854579978,1.2000000000000002,47.0,,-1.03125,1.98046875,-0.6171875,0.03125,0.013671875,-0.228515625,-0.9921875,-9.0703125,1.30859375,1.0
632551,,,,,,,,-0.9375,0.4453125,-0.70703125,0.009765625,0.021484375,-0.234375,-1.03125,-9.07421875,1.1953125,1.0
632552,,,,,,,,-0.9140625,0.41015625,-0.8203125,0.00390625,0.03125,-0.25,-0.9140625,-9.23046875,1.1953125,1.0
632553,,,,,,,,-0.8515625,0.25390625,-0.78125,0.017578125,0.02734375,-0.255859375,-0.83984375,-9.4921875,1.26953125,1.0
632554,,,,,,,,-0.73828125,-0.13671875,-0.66796875,0.046875,0.03515625,-0.27734375,-0.5703125,-9.95703125,1.34765625,1.0
632555,,,,,,,,-0.5234375,-0.6796875,-0.67578125,0.05078125,0.03515625,-0.28515625,-0.453125,-10.2265625,1.26953125,1.0
632556,,,,,,,,-0.41015625,-0.984375,-0.72265625,0.01171875,0.029296875,-0.279296875,-0.33984375,-10.453125,1.26953125,1.0
632557,,,,,,,,-0.40234375,-1.0234375,-0.60546875,-0.044921875,0.0078125,-0.279296875,-0.33984375,-10.49609375,1.38671875,1.0
632558,,,,,,,,-0.44921875,-0.984375,-0.62890625,-0.080078125,-0.005859375,-0.279296875,-0.37890625,-10.45703125,1.34765625,1.0
632559,,,,,,,,-0.40234375,-0.79296875,-0.69921875,-0.140625,-0.04296875,-0.263671875,-0.30078125,-10.26171875,1.26953125,1.0
632560,36.013268000000004,129.3192405,57.74016700616749,96.31280885926643,1.2000000000000002,51.0,,-0.38671875,-0.171875,-0.64453125,0.03125,0.013671875,-0.228515625,-0.26171875,-9.6484375,1.30859375,1.0
632561,,,,,,,,-0.6328125,0.24609375,-0.58984375,-0.19921875,-0.01953125,-0.24609375,-0.4921875,-9.23046875,1.34765625,1.0
632562,,,,,,,,-1.078125,0.66796875,-0.60546875,-0.193359375,0.01953125,-0.234375,-0.9140625,-8.80859375,1.30859375,1.0
632563,,,,,,,,-1.5625,0.6015625,-0.62890625,-0.185546875,0.05859375,-0.21484375,-1.375,-8.8828125,1.26953125,1.0
632564,,,,,,,,-1.8515625,-0.08984375,-0.91015625,-0.17578125,0.09375,-0.203125,-1.640625,-9.5703125,0.96484375,1.0
632565,,,,,,,,-2.0234375,-0.51171875,-0.93359375,-0.15625,0.103515625,-0.21484375,-1.796875,-9.9921875,0.92578125,1.0
632566,,,,,,,,-1.9921875,-0.7421875,-0.54296875,-0.150390625,0.09375,-0.224609375,-1.7578125,-10.2265625,1.30859375,1.0
632567,,,,,,,,-1.5546875,-1.54296875,0.35546875,-0.1953125,0.025390625,-0.234375,-1.296875,-11.0234375,2.19140625,1.0
632568,,,,,,,,-0.765625,-2.6484375,0.34765625,-0.30078125,-0.091796875,-0.234375,-0.4921875,-12.140625,2.15234375,1.0
632569,,,,,,,,1.5078125,-5.359375,0.76953125,-0.486328125,-0.208984375,-0.220703125,1.8046875,-14.86328125,2.53515625,1.0
632570,36.01326866666667,129.31924166666667,57.84533986518029,96.38678238310459,1.2000000000000002,54.0,,3.74609375,-6.00390625,3.12109375,-0.689453125,-0.314453125,-0.17578125,4.06640625,-15.51171875,4.83203125,1.0
632571,,,,,,,,4.640625,-5.49609375,4.07421875,-0.7578125,-0.396484375,-0.056640625,4.984375,-15.01171875,5.71484375,1.0
632572,,,,,,,,3.4453125,-3.48046875,3.84765625,-0.875,-0.6875,0.0703125,3.796875,-13.01953125,5.37109375,1.0
632573,,,,,,,,2.296875,-2.8984375,3.77734375,-0.953125,-0.78125,0.099609375,2.6484375,-12.4453125,5.25390625,1.0
632574,,,,,,,,1.18359375,-2.5,3.10546875,-1.021484375,-0.83203125,0.123046875,1.53515625,-12.06640625,4.48828125,1.0
632575,,,,,,,,0.734375,-2.4453125,3.0078125,-0.859375,-0.662109375,0.1328125,1.078125,-12.02734375,4.296875,1.0
632576,,,,,,,,0.08984375,-2.01953125,2.57421875,0.03515625,-0.15625,0.025390625,0.42578125,-11.60546875,3.80078125,1.0
632577,,,,,,,,-0.1484375,-0.44921875,1.66015625,0.45703125,-0.0703125,-0.091796875,0.1953125,-10.03515625,2.91796875,1.0
632578,,,,,,,,-0.109375,0.01171875,1.40625,0.53515625,-0.140625,-0.1328125,0.234375,-9.57421875,2.6875,1.0
632579,,,,,,,,0.05078125,0.80859375,0.96875,0.533203125,-0.349609375,-0.173828125,0.42578125,-8.76953125,2.3046875,1.0
632580,36.013269,129.31924266666667,57.93548820344028,96.42376939176022,1.2000000000000002,57.0,,0.41796875,1.0,0.73046875,-0.689453125,-0.314453125,-0.17578125,0.80859375,-8.58203125,2.11328125,1.0
632581,,,,,,,,0.59375,0.48828125,0.5234375,0.619140625,-0.271484375,-0.068359375,1.0,-9.07421875,1.9609375,1.0
632582,,,,,,,,0.6640625,0.2578125,0.57421875,0.640625,-0.15234375,0.041015625,1.078125,-9.30859375,2.07421875,1.0
632583,,,,,,,,0.44921875,0.515625,0.47265625,0.568359375,-0.029296875,0.15625,0.84765625,-9.0390625,2.03515625,1.0
632584,,,,,,,,0.08203125,1.12109375,0.07421875,0.396484375,0.080078125,0.28515625,0.46484375,-8.421875,1.69140625,1.0
632585,,,,,,,,-0.00390625,1.61328125,-0.1796875,0.177734375,0.130859375,0.388671875,0.34765625,-7.921875,1.4609375,1.0
632586,,,,,,,,0.13671875,1.8125,-0.453125,0.068359375,0.134765625,0.416015625,0.46484375,-7.734375,1.1953125,1.0
632587,,,,,,,,0.3671875,1.8984375,-0.76171875,-0.06640625,0.158203125,0.447265625,0.65625,-7.66015625,0.88671875,1.0
632588,,,,,,,,0.56640625,1.8984375,-0.953125,-0.064453125,0.22265625,0.419921875,0.80859375,-7.66015625,0.6953125,1.0
632589,,,,,,,,0.56640625,1.93359375,-0.79296875,-0.025390625,0.26953125,0.373046875,0.76953125,-7.62109375,0.84765625,1.0
632590,36.013269666666666,129.31924366666667,58.02563629396712,96.49774281779288,1.1,55.0,,0.5703125,1.93359375,-0.63671875,-0.689453125,-0.314453125,-0.17578125,0.80859375,-8.58203125,2.11328125,1.0
632591,,,,,,,,0.65234375,1.94140625,-0.62890625,-0.126953125,0.16015625,0.267578125,0.76953125,-7.62109375,1.00390625,1.0
632592,,,,,,,,0.66796875,1.98046875,-0.69921875,-0.13671875,0.166015625,0.251953125,0.76953125,-7.578125,0.92578125,1.0
632593,,,,,,,,0.86328125,2.2109375,-0.72265625,-0.091796875,0.27734375,0.20703125,0.92578125,-7.3515625,0.88671875,1.0
632594,,,,,,,,1.0,2.171875,-1.10546875,-0.01171875,0.380859375,0.19140625,1.0390625,-7.39453125,0.50390625,1.0
632595,,,,,,,,1.17578125,2.09765625,-1.41015625,0.06640625,0.447265625,0.166015625,1.19140625,-7.46484375,0.19921875,1.0
632596,,,,,,,,1.14453125,1.98046875,-1.34375,0.10546875,0.466796875,0.15625,1.15234375,-7.578125,0.2734375,1.0
632597,,,,,,,,0.82421875,1.75,-1.3125,0.16015625,0.5078125,0.130859375,0.80859375,-7.8125,0.3125,1.0
632598,,,,,,,,0.38671875,1.51171875,-1.0,0.220703125,0.486328125,0.0703125,0.34765625,-8.0390625,0.65625,1.0
632599,,,,,,,,0.05078125,1.4765625,-0.77734375,0.22265625,0.47265625,0.05078125,0.00390625,-8.08203125,0.88671875,1.0
632600,36.013270166666665,129.3192445,58.10075974421474,96.55322293782125,1.0,55.0,0.0,-0.32421875,1.23828125,-0.76953125,0.17578125,0.478515625,-0.033203125,-0.37890625,-8.3046875,0.92578125,1.0
632601,,,,,,,,-0.32421875,0.84765625,-0.9375,0.150390625,0.513671875,-0.087890625,-0.37890625,-8.69140625,0.7734375,1.0
632602,,,,,,,,-0.0546875,0.5,-1.0234375,0.15234375,0.544921875,-0.1328125,-0.109375,-9.04296875,0.6953125,1.0
632603,,,,,,,,0.05859375,0.42578125,-1.0703125,0.173828125,0.560546875,-0.146484375,0.00390625,-9.11328125,0.65625,1.0
632604,,,,,,,,0.05078125,0.30078125,-1.0625,0.21484375,0.5625,-0.1796875,0.00390625,-9.23046875,0.6953125,1.0
632605,,,,,,,,0.1953125,0.265625,-1.0390625,0.236328125,0.54296875,-0.197265625,0.15625,-9.265625,0.734375,1.0
632606,,,,,,,,0.2578125,0.32421875,-0.83984375,0.197265625,0.501953125,-0.208984375,0.234375,-9.1875,0.96484375,1.0
632607,,,,,,,,0.34765625,0.4765625,-0.59375,0.15625,0.48828125,-0.22265625,0.34765625,-9.0390625,1.234375,1.0
632608,,,,,,,,0.50390625,0.5078125,-0.71875,0.15625,0.494140625,-0.236328125,0.50390625,-9.0,1.1171875,1.0
632609,,,,,,,,0.640625,0.5078125,-0.92578125,0.171875,0.50390625,-0.25,0.65625,-9.00390625,0.92578125,1.0
632610,36.01327083333333,129.3192455,58.19090783507092,96.6271963661954,1.1,54.0,,0.5390625,0.5,-1.28515625,0.197265625,0.525390625,-0.287109375,0.578125,-9.0,0.58203125,1.0
632611,,,,,,,,0.5234375,0.33984375,-1.30859375,0.216796875,0.548828125,-0.318359375,0.578125,-9.15234375,0.58203125,1.0
632612,,,,,,,,0.34765625,-0.15625,-1.2109375,0.23828125,0.552734375,-0.33203125,0.42578125,-9.65234375,0.6953125,1.0
632613,,,,,,,,0.23828125,-0.5859375,-1.125,0.224609375,0.53515625,-0.326171875,0.34765625,-10.07421875,0.8125,1.0
632614,,,,,,,,-0.01171875,-0.86328125,-1.02734375,0.19921875,0.546875,-0.3203125,0.12109375,-10.33984375,0.92578125,1.0
632615,,,,,,,,-0.6875,-0.984375,-0.62890625,0.1015625,0.609375,-0.3203125,-0.53125,-10.453125,1.34765625,1.0
632616,,,,,,,,-0.86328125,-0.87109375,-0.21484375,-0.021484375,0.59375,-0.33203125,-0.68359375,-10.33984375,1.76953125,1.0
632617,,,,,,,,-0.6953125,-0.640625,-0.09375,-0.12109375,0.525390625,-0.333984375,-0.4921875,-10.11328125,1.8828125,1.0
632618,,,,,,,,0.0859375,-0.265625,-0.53515625,-0.193359375,0.4609375,-0.345703125,0.3125,-9.7265625,1.42578125,1.0
632619,,,,,,,,0.63671875,-0.10546875,-0.67578125,-0.232421875,0.380859375,-0.359375,0.88671875,-9.5703125,1.26953125,1.0
632620,36.0132715,129.31924666666666,58.296080686422314,96.70116989431696,1.2000000000000002,54.0,,1.25390625,-0.48046875,-0.91796875,-0.27734375,0.29296875,-0.361328125,0.578125,-9.0,0.58203125,1.0
632621,,,,,,,,0.99609375,-1.66796875,-0.97265625,-0.25390625,0.197265625,-0.326171875,1.30859375,-11.14453125,0.92578125,1.0
632622,,,,,,,,0.7578125,-2.43359375,-1.03515625,-0.232421875,0.158203125,-0.302734375,1.078125,-11.90625,0.84765625,1.0
632623,,,,,,,,0.328125,-4.03515625,0.9765625,-0.3125,0.22265625,-0.125,0.6953125,-13.515625,2.8046875,1.0
632624,,,,,,,,-0.515625,-5.3671875,1.45703125,-0.396484375,0.26953125,-0.091796875,-0.1484375,-14.86328125,3.26171875,1.0
632625,,,,,,,,-1.58984375,-5.7421875,3.07421875,-0.59765625,0.373046875,-0.06640625,-1.22265625,-15.24609375,4.83203125,1.0
632626,,,,,,,,-1.89453125,-3.51171875,3.93359375,-0.681640625,0.357421875,-0.080078125,-1.52734375,-13.015625,5.63671875,1.0
632627,,,,,,,,-1.703125,-2.69921875,3.66796875,-0.673828125,0.353515625,-0.107421875,-1.3359375,-12.21484375,5.33203125,1.0
632628,,,,,,,,-0.15625,-1.8359375,2.53515625,-0.697265625,0.501953125,-0.1875,0.234375,-11.375,4.10546875,1.0
632629,,,,,,,,0.87890625,-2.1328125,2.375,-0.734375,0.51953125,-0.1953125,1.26953125,-11.6796875,3.9140625,1.0
632630,36.01327216666667,129.319248,58.41627829895853,96.77514352397725,1.3,55.0,,1.4375,-2.46875,2.8203125,-0.27734375,0.29296875,-0.361328125,0.578125,-9.0,0.58203125,1.0
632631,,,,,,,,0.89453125,-1.8125,2.98828125,-0.373046875,0.240234375,-0.177734375,1.30859375,-11.37890625,4.41015625,1.0
632632,,,,,,,,0.9140625,-1.15234375,2.578125,0.1875,0.162109375,-0.166015625,1.34375,-10.72265625,3.9921875,1.0
632633,,,,,,,,0.79296875,-0.46484375,1.7578125,0.326171875,0.181640625,-0.123046875,1.23046875,-10.03515625,3.1875,1.0
632634,,,,,,,,0.75390625,-0.05078125,0.65234375,0.3046875,0.47265625,-0.0703125,1.19140625,-9.61328125,2.11328125,1.0
632635,,,,,,,,0.79296875,0.02734375,-0.03125,0.26171875,0.9296875,-0.03515625,1.23046875,-9.53515625,1.4609375,1.0
632636,,,,,,,,0.2734375,0.1328125,0.10546875,0.462890625,1.220703125,-0.044921875,0.6953125,-9.42578125,1.65234375,1.0
632637,,,,,,,,-0.74609375,-0.02734375,0.93359375,0.625,1.14453125,-0.1015625,-0.33984375,-9.57421875,2.53515625,1.0
632638,,,,,,,,-0.9765625,0.05078125,0.93359375,0.654296875,1.06640625,-0.140625,-0.5703125,-9.49609375,2.57421875,1.0
632639,,,,,,,,-1.12890625,0.53125,0.5703125,0.462890625,0.833984375,-0.2578125,-0.72265625,-9.0,2.3046875,1.0
632640,36.013272666666666,129.319249,58.50642650744377,96.83062374694083,1.2000000000000002,54.0,,-0.578125,0.9921875,-0.1953125,0.224609375,0.8515625,-0.3515625,-0.1484375,-8.5390625,1.578125,1.0
632641,,,,,,,,-0.25,1.328125,-0.5546875,0.0703125,1.01171875,-0.404296875,0.1953125,-8.19921875,1.234375,1.0
632642,,,,,,,,-0.02734375,1.59765625,-0.71875,0.044921875,1.068359375,-0.40234375,0.42578125,-7.92578125,1.078125,1.0
632643,,,,,,,,-0.08984375,1.828125,-0.83984375,0.05078125,1.046875,-0.392578125,0.38671875,-7.69921875,0.96484375,1.0
632644,,,,,,,,-0.171875,1.98046875,-0.80859375,0.0625,0.931640625,-0.34765625,0.3125,-7.5390625,1.00390625,1.0
632645,,,,,,,,-0.41796875,2.28515625,-0.625,0.06640625,0.890625,-0.296875,0.08203125,-7.234375,1.1953125,1.0
632646,,,,,,,,-0.578125,2.36328125,-0.6328125,0.0625,0.8984375,-0.2734375,-0.0703125,-7.16015625,1.1953125,1.0
632647,,,,,,,,-0.90234375,2.515625,-0.58203125,0.005859375,0.9765625,-0.23046875,-0.37890625,-7.01171875,1.26953125,1.0
632648,,,,,,,,-1.140625,2.74609375,-0.65625,-0.0234375,0.98828125,-0.228515625,-0.609375,-6.7734375,1.1953125,1.0
632649,,,,,,,,-1.25390625,2.81640625,-0.65625,-0.025390625,0.982421875,-0.224609375,-0.72265625,-6.6953125,1.1953125,1.0
632650,36.0132735,129.31924966666665,58.56652494081697,96.92309018574906,1.1,49.0,,-1.72265625,2.69921875,-0.7421875,0.224609375,0.8515625,-0.3515625,-0.1484375,-8.5390625,1.578125,1.0
632651,,,,,,,,-1.9609375,2.2421875,-0.85546875,-0.0234375,0.783203125,-0.29296875,-1.4140625,-7.2734375,1.00390625,1.0
632652,,,,,,,,-1.984375,1.96484375,-0.75,-0.01171875,0.70703125,-0.30078125,-1.4140625,-7.54296875,1.1171875,1.0
632653,,,,,,,,-1.921875,1.6953125,-0.671875,-0.001953125,0.712890625,-0.296875,-1.3359375,-7.81640625,1.1953125,1.0
632654,,,,,,,,-1.81640625,1.65625,-0.640625,-0.01171875,0.720703125,-0.265625,-1.22265625,-7.85546875,1.234375,1.0
632655,,,,,,,,-1.67578125,1.46484375,-0.7578125,-0.041015625,0.716796875,-0.2421875,-1.06640625,-8.04296875,1.1171875,1.0
632656,,,,,,,,-1.6015625,1.3828125,-0.6796875,-0.052734375,0.716796875,-0.224609375,-0.9921875,-8.12109375,1.1953125,1.0
632657,,,,,,,,-1.45703125,1.03125,-0.7109375,-0.091796875,0.705078125,-0.203125,-0.83984375,-8.46484375,1.15625,1.0
632658,,,,,,,,-1.34765625,0.80859375,-0.78125,-0.107421875,0.68359375,-0.1640625,-0.72265625,-8.69140625,1.078125,1.0
632659,,,,,,,,-1.34765625,0.69140625,-0.7421875,-0.1015625,0.671875,-0.142578125,-0.72265625,-8.8046875,1.1171875,1.0
632660,36.013274,129.31925066666665,58.65667314674951,96.9785704120653,1.1,51.0,,-1.38671875,0.234375,-0.7421875,-0.072265625,0.599609375,-0.11328125,-0.76171875,-9.265625,1.1171875,1.0
632661,,,,,,,,-1.484375,0.03515625,-0.734375,-0.064453125,0.548828125,-0.08984375,-0.875,-9.45703125,1.1171875,1.0
632662,,,,,,,,-1.609375,-0.00390625,-0.8125,-0.08203125,0.51953125,-0.083984375,-0.9921875,-9.49609375,1.0390625,1.0
632663,,,,,,,,-1.67578125,-0.1484375,-0.7578125,-0.119140625,0.455078125,-0.068359375,-1.06640625,-9.6484375,1.078125,1.0
632664,,,,,,,,-1.74609375,-0.2734375,-0.7109375,-0.130859375,0.431640625,-0.060546875,-1.14453125,-9.76953125,1.1171875,1.0
632665,,,,,,,,-1.66015625,-0.33984375,-0.80859375,-0.12109375,0.3828125,-0.060546875,-1.06640625,-9.83984375,1.00390625,1.0
632666,,,,,,,,-1.66796875,-0.3046875,-0.84765625,-0.109375,0.361328125,-0.056640625,-1.06640625,-9.80859375,0.96484375,1.0
632667,,,,,,,,-1.69921875,-0.2734375,-0.94921875,-0.1015625,0.322265625,-0.068359375,-1.10546875,-9.76953125,0.84765625,1.0
632668,,,,,,,,-1.81640625,-0.41796875,-0.82421875,-0.107421875,0.291015625,-0.0703125,-1.22265625,-9.91796875,0.96484375,1.0
632669,,,,,,,,-1.77734375,-0.41796875,-0.82421875,-0.09375,0.27734375,-0.076171875,-1.18359375,-9.9140625,0.96484375,1.0
632670,36.013274333333335,129.31925183333334,58.76184623968227,97.01555753028194,1.0,60.0,,-1.65234375,-0.42578125,-0.93359375,-0.072265625,0.599609375,-0.11328125,-0.76171875,-9.265625,1.1171875,1.0
632671,,,,,,,,-1.26953125,-0.53515625,-1.19140625,-0.056640625,0.232421875,-0.068359375,-0.68359375,-10.03125,0.58203125,1.0
632672,,,,,,,,-1.078125,-0.5703125,-1.22265625,-0.08203125,0.23828125,-0.06640625,-0.4921875,-10.07421875,0.54296875,1.0
632673,,,,,,,,-0.8125,-0.609375,-1.3671875,-0.09765625,0.232421875,-0.05859375,-0.2265625,-10.109375,0.390625,1.0
632674,,,,,,,,-0.62109375,-0.53515625,-1.4375,-0.12890625,0.189453125,-0.064453125,-0.03515625,-10.03515625,0.3125,1.0
632675,,,,,,,,-0.65625,-0.07421875,-1.3828125,-0.15625,0.146484375,-0.064453125,-0.0703125,-9.5703125,0.3515625,1.0
632676,,,,,,,,-0.6953125,0.1953125,-1.3359375,-0.212890625,0.11328125,-0.06640625,-0.1875,-9.109375,0.4296875,1.0
632677,,,,,,,,-0.88671875,0.73046875,-1.08203125,-0.267578125,0.11328125,-0.056640625,-0.37890625,-8.8828125,0.62109375,1.0
632678,,,,,,,,-0.96484375,0.6171875,-1.06640625,-0.31640625,0.123046875,-0.06640625,-0.453125,-9.38671875,0.50390625,1.0
632679,,,,,,,,-0.703125,-1.55859375,-1.48828125,-0.375,0.14453125,-0.056640625,-0.109375,-11.0625,0.16015625,1.0
632680,36.0132745,129.319253,58.867019451355745,97.03405144193592,1.2000000000000002,68.0,,-1.65234375,-0.42578125,-0.93359375,-0.072265625,0.599609375,-0.11328125,0.54296875,-11.9453125,0.8125,1.0
632681,,,,,,,,0.8359375,-3.078125,0.6484375,-0.451171875,0.134765625,-0.08984375,1.8046875,-12.90625,2.83984375,1.0
632682,,,,,,,,1.2109375,-3.3828125,1.27734375,-0.494140625,0.125,-0.08984375,2.6484375,-13.71484375,3.30078125,1.0
632683,,,,,,,,2.4375,-4.71484375,1.82421875,-0.650390625,0.107421875,-0.072265625,3.3359375,-14.703125,3.30078125,1.0
632684,,,,,,,,2.7421875,-5.17578125,1.81640625,-0.94140625,-0.009765625,-0.01171875,3.8359375,-15.05078125,3.9140625,1.0
632685,,,,,,,,3.625,-5.03515625,3.23828125,-1.1640625,-0.087890625,0.03515625,4.10546875,-14.13671875,4.6796875,1.0
632686,,,,,,,,3.1640625,-4.140625,3.36328125,-1.09765625,-0.02734375,0.0546875,2.76171875,-12.75390625,4.06640625,1.0
632687,,,,,,,,2.16796875,-3.17578125,2.87890625,-1.01953125,0.0546875,0.05078125,2.33984375,-12.328125,3.875,1.0
632688,,,,,,,,0.30859375,-1.61328125,3.2890625,-0.828125,0.287109375,0.01171875,0.88671875,-11.22265625,4.296875,1.0
632689,,,,,,,,-0.83984375,-1.3359375,2.69921875,-0.5,0.361328125,-0.01953125,-0.26171875,-10.95703125,3.64453125,1.0
632690,36.01327466666667,129.3192545,59.002242191197155,97.05254555752802,1.2000000000000002,74.0,,-0.765625,-1.18359375,2.03515625,-0.072265625,0.599609375,-0.11328125,0.54296875,-11.9453125,0.8125,1.0
632691,,,,,,,,-0.49609375,-0.9140625,2.01171875,0.298828125,0.388671875,-0.197265625,0.08203125,-10.53515625,2.95703125,1.0
632692,,,,,,,,-0.359375,-0.41796875,1.6640625,0.4609375,0.373046875,-0.234375,0.234375,-10.03515625,2.6484375,1.0
632693,,,,,,,,-0.4140625,-0.26953125,1.44921875,0.509765625,0.349609375,-0.236328125,0.1953125,-9.87890625,2.45703125,1.0
632694,,,,,,,,-0.4609375,0.07421875,1.00390625,0.55078125,0.306640625,-0.138671875,0.15625,-9.53515625,2.07421875,1.0
632695,,,,,,,,-0.3515625,0.2578125,0.89453125,0.4453125,0.279296875,0.009765625,0.2734375,-9.34765625,2.03515625,1.0
632696,,,,,,,,-0.3046875,0.59375,0.55078125,0.33984375,0.27734375,0.1015625,0.3125,-9.00390625,1.73046875,1.0
632697,,,,,,,,-0.2734375,1.17578125,0.28125,0.16015625,0.275390625,0.201171875,0.3125,-8.42578125,1.5,1.0
632698,,,,,,,,-0.375,1.29296875,0.12109375,0.099609375,0.2734375,0.240234375,0.1953125,-8.3046875,1.34765625,1.0
632699,,,,,,,,-0.3828125,1.5234375,-0.078125,-0.009765625,0.271484375,0.30078125,0.15625,-8.08203125,1.15625,1.0
632700,36.013275,129.3192555,59.09239051583954,97.08953257828992,1.1,71.0,0.0,-0.34375,1.796875,-0.15625,-0.072265625,0.599609375,-0.11328125,0.54296875,-11.9453125,0.8125,1.0
632701,,,,,,,,-0.2265625,1.84375,-0.25390625,-0.154296875,0.248046875,0.33984375,0.234375,-7.77734375,0.96484375,1.0
632702,,,,,,,,-0.1015625,1.99609375,-0.34765625,-0.171875,0.244140625,0.3359375,0.3125,-7.6171875,0.84765625,1.0
632703,,,,,,,,0.06640625,2.15234375,-0.30078125,-0.16015625,0.24609375,0.333984375,0.46484375,-7.4609375,0.88671875,1.0
632704,,,,,,,,0.390625,2.08203125,-0.5234375,-0.095703125,0.263671875,0.330078125,0.734375,-7.5390625,0.65625,1.0
632705,,,,,,,,0.8125,2.01171875,-0.75,0.00390625,0.294921875,0.333984375,1.1171875,-7.6171875,0.4296875,1.0
632706,,,,,,,,1.04296875,1.9765625,-0.98046875,0.078125,0.345703125,0.33203125,1.30859375,-7.65625,0.19921875,1.0
632707,,,,,,,,1.1328125,1.8984375,-1.04296875,0.16015625,0.40625,0.349609375,1.34375,-7.73828125,0.16015625,1.0
632708,,,,,,,,1.12109375,1.78125,-1.05078125,0.1875,0.408203125,0.361328125,1.30859375,-7.8515625,0.16015625,1.0
632709,,,,,,,,1.04296875,1.73828125,-1.03515625,0.216796875,0.423828125,0.37109375,1.19140625,-7.88671875,0.19921875,1.0
632710,36.013275166666666,129.31925666666666,59.197563727876634,97.10802649366173,1.0,75.0,,0.81640625,1.4296875,-0.8203125,0.21875,0.455078125,0.361328125,0.92578125,-8.1953125,0.4296875,1.0
632711,,,,,,,,0.82421875,1.34765625,-0.65234375,0.208984375,0.484375,0.33203125,0.88671875,-8.265625,0.62109375,1.0
632712,,,,,,,,0.7109375,1.5,-0.66796875,0.19921875,0.529296875,0.2890625,0.734375,-8.1171875,0.62109375,1.0
632713,,,,,,,,0.1640625,1.69140625,-1.11328125,0.185546875,0.576171875,0.236328125,0.15625,-7.92578125,0.19921875,1.0
632714,,,,,,,,0.07421875,1.375,-1.24609375,0.173828125,0.615234375,0.17578125,0.04296875,-8.23828125,0.08203125,1.0
632715,,,,,,,,0.09765625,0.83203125,-1.19140625,0.21875,0.62109375,0.09375,0.04296875,-8.765625,0.16015625,1.0
632716,,,,,,,,0.03515625,0.5625,-1.0234375,0.275390625,0.595703125,0.0390625,-0.03515625,-9.0390625,0.3515625,1.0
632717,,,,,,,,0.09765625,0.43359375,-1.0234375,0.296875,0.58203125,0.01953125,0.00390625,-9.15234375,0.390625,1.0
632718,,,,,,,,0.11328125,0.43359375,-0.94140625,0.24609375,0.607421875,0.03125,0.00390625,-9.1484375,0.50390625,1.0
632719,,,,,,,,0.12109375,0.42578125,-0.87890625,0.171875,0.595703125,0.060546875,0.00390625,-9.1484375,0.58203125,1.0
632720,36.01327533333333,129.31925766666666,59.28771217719179,97.12652030995896,1.0,75.0,,0.17578125,0.3125,-0.7421875,0.126953125,0.591796875,0.0703125,0.04296875,-9.26953125,0.734375,1.0
632721,,,,,,,,0.11328125,0.2734375,-0.671875,0.13671875,0.57421875,0.078125,-0.03515625,-9.30859375,0.8125,1.0
632722,,,,,,,,0.046875,0.3125,-0.6796875,0.1484375,0.5703125,0.08203125,-0.109375,-9.265625,0.8125,1.0
632723,,,,,,,,-0.046875,0.2265625,-0.703125,0.17578125,0.548828125,0.08203125,-0.2265625,-9.34375,0.8125,1.0
632724,,,,,,,,-0.07421875,0.1796875,-0.66796875,0.18359375,0.546875,0.083984375,-0.26171875,-9.3828125,0.84765625,1.0
632725,,,,,,,,-0.09765625,0.05859375,-0.61328125,0.19140625,0.521484375,0.08984375,-0.30078125,-9.49609375,0.92578125,1.0
632726,,,,,,,,-0.12109375,-0.1328125,-0.58203125,0.1953125,0.51171875,0.107421875,-0.33984375,-9.6875,0.96484375,1.0
632727,,,,,,,,-0.10546875,-0.25,-0.63671875,0.201171875,0.501953125,0.119140625,-0.33984375,-9.8046875,0.92578125,1.0
632728,,,,,,,,-0.09765625,-0.37109375,-0.72265625,0.20703125,0.501953125,0.125,-0.33984375,-9.91796875,0.84765625,1.0
632729,,,,,,,,-0.40234375,-0.71484375,-0.71484375,0.140625,0.4765625,0.171875,-0.68359375,-10.2578125,0.88671875,1.0
632730,36.0132755,129.319259,59.40791015080825,97.14501432920234,1.2000000000000002,76.0,,-0.43359375,-0.72265625,-0.59765625,0.037109375,0.41796875,0.203125,-0.76171875,-10.26171875,1.00390625,1.0
632731,,,,,,,,-0.1015625,-0.50390625,-0.29296875,-0.044921875,0.34765625,0.205078125,-0.453125,-10.03515625,1.30859375,1.0
632732,,,,,,,,0.6484375,-0.80078125,-0.4375,-0.130859375,0.27734375,0.185546875,0.2734375,-10.3359375,1.15625,1.0
632733,,,,,,,,1.0078125,-1.3359375,-0.58203125,-0.16796875,0.24609375,0.166015625,0.6171875,-10.87890625,1.00390625,1.0
632734,,,,,,,,1.0234375,-1.94921875,-0.7578125,-0.2109375,0.1796875,0.14453125,0.6171875,-11.484375,0.8125,1.0
632735,,,,,,,,0.65625,-2.6015625,-0.46875,-0.236328125,0.134765625,0.12109375,0.234375,-12.14453125,1.078125,1.0
632736,,,,,,,,0.55859375,-2.78515625,0.30078125,-0.2421875,0.11328125,0.1015625,0.12109375,-12.328125,1.80859375,1.0
632737,,,,,,,,-0.1171875,-4.04296875,0.9453125,-0.337890625,0.1484375,0.12109375,-0.5703125,-13.59375,2.421875,1.0
632738,,,,,,,,-0.921875,-5.19140625,0.9609375,-0.4296875,0.169921875,0.12890625,-1.375,-14.7421875,2.421875,1.0
632739,,,,,,,,-1.51953125,-5.3359375,1.43359375,-0.595703125,0.244140625,0.138671875,-2.37109375,-13.82421875,3.609375,1.0
632740,36.013275666666665,129.31926033333332,59.52810812373847,97.16350835092237,1.2000000000000002,78.0,,-2.26171875,-1.99609375,2.79296875,-0.57421875,0.326171875,0.107421875,-2.1796875,-10.796875,3.875,1.0
632741,,,,,,,,-0.67578125,-1.3359375,2.07421875,-0.5625,0.4765625,0.076171875,-1.18359375,-10.91796875,3.33984375,1.0
632742,,,,,,,,0.453125,-2.0546875,1.8359375,-0.578125,0.51953125,0.076171875,-0.0703125,-11.64453125,3.0703125,1.0
632743,,,,,,,,1.43359375,-2.421875,2.06640625,-0.5,0.4921875,0.09375,0.88671875,-12.0234375,3.22265625,1.0
632744,,,,,,,,1.5078125,-2.26953125,2.015625,-0.359375,0.486328125,0.064453125,0.9609375,-11.8671875,3.1484375,1.0
632745,,,,,,,,1.02734375,-1.92578125,1.90625,0.234375,0.39453125,0.029296875,0.46484375,-11.52734375,3.03125,1.0
632746,,,,,,,,0.875,-1.734375,1.78515625,0.2734375,0.3984375,0.037109375,0.3125,-11.33984375,2.91796875,1.0
632747,,,,,,,,0.16015625,-1.265625,1.53125,0.099609375,0.5859375,0.021484375,-0.41796875,-10.875,2.6875,1.0
632748,,,,,,,,-0.18359375,-0.8828125,1.6015625,0.115234375,0.66015625,-0.005859375,-0.76171875,-10.49609375,2.765625,1.0
632749,,,,,,,,-0.63671875,-0.546875,1.8984375,0.236328125,0.810546875,-0.064453125,-1.22265625,-10.1484375,3.0703125,1.0
632750,36.01327583333333,129.31926149999998,59.63328133371691,97.18200227221739,1.1,77.0,,-0.7109375,-0.46875,1.890625,0.283203125,0.859375,-0.091796875,-1.296875,-10.07421875,3.0703125,1.0
632751,,,,,,,,-0.63671875,0.03515625,1.34765625,0.416015625,0.931640625,-0.1640625,-1.22265625,-9.5703125,2.57421875,1.0
632752,,,,,,,,-0.453125,0.44921875,0.65625,0.44921875,0.943359375,-0.21484375,-1.03125,-9.1484375,1.921875,1.0
632753,,,,,,,,-0.27734375,0.640625,0.50390625,0.431640625,0.951171875,-0.255859375,-0.83984375,-8.96484375,1.80859375,1.0
632754,,,,,,,,-0.12890625,1.015625,0.35546875,0.44921875,0.962890625,-0.2578125,-0.68359375,-8.58203125,1.69140625,1.0
632755,,,,,,,,-0.0625,1.32421875,0.125,0.462890625,0.931640625,-0.28125,-0.609375,-8.26953125,1.5,1.0
632756,,,,,,,,-0.23046875,1.7421875,-0.1875,0.435546875,0.89453125,-0.294921875,-0.76171875,-7.85546875,1.234375,1.0
632757,,,,,,,,-0.28515625,2.2421875,-0.45703125,0.37890625,0.86328125,-0.30859375,-0.80078125,-7.35546875,1.00390625,1.0
632758,,,,,,,,-0.375,2.578125,-0.4453125,0.33984375,0.84375,-0.30078125,-0.875,-7.0078125,1.0390625,1.0
632759,,,,,,,,-0.66796875,3.0390625,-0.4375,0.349609375,0.826171875,-0.314453125,-1.14453125,-6.55078125,1.078125,1.0
632760,36.013276166666664,129.31926266666667,59.73845442033654,97.21898940194502,1.1,76.0,,-0.9453125,3.19140625,-0.46875,0.283203125,0.859375,-0.091796875,-1.296875,-10.07421875,3.0703125,1.0
632761,,,,,,,,-1.16015625,3.03125,-0.60546875,0.3203125,0.810546875,-0.32421875,-1.60546875,-6.55078125,0.96484375,1.0
632762,,,,,,,,-1.2421875,2.9140625,-0.69921875,0.306640625,0.794921875,-0.32421875,-1.6796875,-6.6640625,0.88671875,1.0
632763,,,,,,,,-1.265625,2.6015625,-0.796875,0.26171875,0.755859375,-0.333984375,-1.6796875,-6.96875,0.8125,1.0
632764,,,,,,,,-1.40625,1.94140625,-0.68359375,0.23828125,0.708984375,-0.34375,-1.796875,-7.62109375,0.96484375,1.0
632765,,,,,,,,-1.64453125,1.4453125,-0.30078125,0.203125,0.65625,-0.3359375,-1.98828125,-8.12109375,1.38671875,1.0
632766,,,,,,,,-1.65234375,1.40625,-0.26953125,0.193359375,0.6484375,-0.337890625,-1.98828125,-8.15625,1.42578125,1.0
632767,,,,,,,,-1.59765625,1.51171875,-0.2578125,0.126953125,0.630859375,-0.30859375,-1.91015625,-8.0390625,1.4609375,1.0
632768,,,,,,,,-1.5390625,1.62890625,-0.33203125,0.087890625,0.646484375,-0.275390625,-1.8359375,-7.92578125,1.38671875,1.0
632769,,,,,,,,-1.4296875,1.7421875,-0.45703125,0.08203125,0.65234375,-0.255859375,-1.71875,-7.8125,1.26953125,1.0
632770,36.013276166666664,129.31926366666667,59.828602993833854,97.21899001509836,1.0,79.0,,-1.359375,1.7734375,-0.578125,0.09375,0.642578125,-0.22265625,-1.640625,-7.7734375,1.15625,1.0
632771,,,,,,,,-1.21484375,1.66015625,-0.703125,0.140625,0.6015625,-0.208984375,-1.48828125,-7.88671875,1.0390625,1.0
632772,,,,,,,,-1.18359375,1.54296875,-0.7109375,0.17578125,0.583984375,-0.197265625,-1.44921875,-8.00390625,1.0390625,1.0
632773,,,,,,,,-1.15625,1.4296875,-0.76953125,0.25,0.552734375,-0.19921875,-1.4140625,-8.12109375,1.00390625,1.0
632774,,,,,,,,-1.0859375,1.22265625,-0.87890625,0.30859375,0.5234375,-0.185546875,-1.3359375,-8.30859375,0.92578125,1.0
632775,,,,,,,,-1.046875,0.9921875,-0.98828125,0.298828125,0.490234375,-0.17578125,-1.296875,-8.5390625,0.84765625,1.0
632776,,,,,,,,-1.015625,0.83203125,-0.84765625,0.283203125,0.4765625,-0.169921875,-1.2578125,-8.69140625,1.00390625,1.0
632777,,,,,,,,-1.1328125,0.6328125,-0.7890625,0.236328125,0.4453125,-0.162109375,-1.375,-8.8828125,1.078125,1.0
632778,,,,,,,,-1.33203125,0.5078125,-0.6953125,0.19921875,0.43359375,-0.158203125,-1.56640625,-9.0,1.1953125,1.0
632779,,,,,,,,-1.5234375,0.35546875,-0.6640625,0.1640625,0.42578125,-0.1640625,-1.7578125,-9.15234375,1.234375,1.0
632780,36.013276166666664,129.31926466666667,59.91875156480942,97.21899062946608,1.0,82.0,,-1.64453125,0.0859375,-0.60546875,0.09375,0.642578125,-0.22265625,-1.640625,-7.7734375,1.15625,1.0
632781,,,,,,,,-1.69140625,-0.265625,-0.61328125,0.064453125,0.373046875,-0.169921875,-1.91015625,-9.76953125,1.30859375,1.0
632782,,,,,,,,-1.5859375,-0.53515625,-0.62109375,0.037109375,0.359375,-0.18359375,-1.796875,-10.03125,1.30859375,1.0
632783,,,,,,,,-1.40234375,-0.87890625,-0.53515625,0.021484375,0.3359375,-0.19140625,-1.60546875,-10.37890625,1.38671875,1.0
632784,,,,,,,,-1.2265625,-0.9921875,-0.65234375,0.009765625,0.306640625,-0.19140625,-1.4140625,-10.49609375,1.26953125,1.0
632785,,,,,,,,-1.15625,-0.76953125,-0.765625,-0.015625,0.255859375,-0.1953125,-1.3359375,-10.26171875,1.15625,1.0
632786,,,,,,,,-1.0859375,-0.6953125,-0.84375,-0.04296875,0.23046875,-0.193359375,-1.2578125,-10.1875,1.078125,1.0
632787,,,,,,,,-0.8671875,-0.578125,-1.21875,-0.078125,0.173828125,-0.177734375,-1.03125,-10.07421875,0.6953125,1.0
632788,,,,,,,,-0.61328125,-0.65625,-1.2109375,-0.091796875,0.15234375,-0.177734375,-0.76171875,-10.15234375,0.6953125,1.0
632789,,,,,,,,-0.4765625,-0.46484375,-1.1171875,-0.10546875,0.140625,-0.177734375,-0.609375,-9.95703125,0.7734375,1.0
632790,36.013276000000005,129.31926533333333,59.97885074087067,97.2004978335361,0.8,86.0,,-0.70703125,-0.03515625,-1.0625,-0.11328125,0.134765625,-0.1953125,-0.83984375,-9.53515625,0.8125,1.0
632791,,,,,,,,-0.98828125,0.04296875,-1.01171875,-0.15234375,0.12109375,-0.201171875,-1.10546875,-9.45703125,0.84765625,1.0
632792,,,,,,,,-1.1640625,-0.33203125,-1.22265625,-0.240234375,0.107421875,-0.203125,-1.2578125,-9.8359375,0.62109375,1.0
632793,,,,,,,,-0.90625,-0.75390625,-1.125,-0.328125,0.080078125,-0.197265625,-0.9921875,-10.2578125,0.6953125,1.0
632794,,,,,,,,-0.57421875,-0.86328125,-0.51953125,-0.359375,0.06640625,-0.19140625,-0.64453125,-10.37890625,1.26953125,1.0
632795,,,,,,,,0.10546875,-1.16796875,0.2109375,-0.369140625,0.07421875,-0.19140625,0.04296875,-10.6796875,1.9609375,1.0
632796,,,,,,,,0.3671875,-1.51171875,0.41796875,-0.376953125,0.078125,-0.19140625,0.3125,-11.0234375,2.15234375,1.0
632797,,,,,,,,1.8046875,-3.26171875,0.92578125,-0.447265625,0.078125,-0.173828125,1.765625,-12.7890625,2.61328125,1.0
632798,,,,,,,,2.52734375,-4.66796875,1.546875,-0.705078125,0.0234375,-0.1015625,2.49609375,-14.20703125,3.1484375,1.0
632799,,,,,,,,3.5078125,-5.34375,2.87890625,-0.76953125,-0.01953125,-0.052734375,3.4921875,-14.8984375,4.41015625,1.0
632800,36.013275666666665,129.31926616666667,60.05397480344148,97.16351193007392,0.8,92.0,0.0,3.27734375,-3.83984375,3.2578125,-0.734375,-0.025390625,-0.0078125,3.26171875,-13.40234375,4.71875,1.0
632801,,,,,,,,2.2890625,-2.2109375,3.26171875,-0.943359375,0.025390625,0.03515625,2.265625,-11.796875,4.60546875,1.0
632802,,,,,,,,1.9453125,-1.93359375,3.30859375,-1.025390625,0.06640625,0.041015625,1.921875,-11.5234375,4.60546875,1.0
632803,,,,,,,,0.57421875,-1.34375,2.86328125,-0.9609375,0.1875,0.041015625,0.54296875,-10.95703125,4.06640625,1.0
632804,,,,,,,,0.265625,-1.34375,2.87109375,-0.802734375,0.2578125,0.017578125,0.234375,-10.95703125,4.02734375,1.0
632805,,,,,,,,-0.25390625,-1.17578125,2.23828125,-0.328125,0.400390625,-0.048828125,-0.30078125,-10.796875,3.33984375,1.0
632806,,,,,,,,-0.26171875,-1.01953125,1.671875,0.125,0.474609375,-0.125,-0.30078125,-10.64453125,2.765625,1.0
632807,,,,,,,,-0.30078125,-0.8671875,1.42578125,0.30859375,0.501953125,-0.166015625,-0.33984375,-10.4921875,2.53515625,1.0
632808,,,,,,,,-0.31640625,-0.453125,1.234375,0.51953125,0.494140625,-0.228515625,-0.33984375,-10.07421875,2.3828125,1.0
632809,,,,,,,,-0.24609375,0.16015625,0.98046875,0.546875,0.478515625,-0.232421875,-0.26171875,-9.453125,2.15234375,1.0
632810,36.0132755,129.319267,60.12909874186779,97.14501923577659,0.9,95.0,,0.11328125,0.50390625,0.49609375,-0.734375,-0.025390625,-0.0078125,3.26171875,-13.40234375,4.71875,1.0
632811,,,,,,,,0.203125,0.71875,0.1796875,0.34375,0.552734375,0.080078125,0.1953125,-8.8828125,1.5390625,1.0
632812,,,,,,,,-0.046875,1.0234375,0.03515625,0.244140625,0.58203125,0.171875,-0.0703125,-8.58203125,1.42578125,1.0
632813,,,,,,,,-0.26171875,1.25390625,0.1328125,0.19921875,0.5859375,0.21484375,-0.30078125,-8.34375,1.5390625,1.0
632814,,,,,,,,-0.34765625,1.3671875,0.1640625,0.08203125,0.5859375,0.287109375,-0.41796875,-8.23828125,1.578125,1.0
632815,,,,,,,,-0.30859375,1.5234375,0.046875,-0.009765625,0.564453125,0.3125,-0.41796875,-8.08203125,1.4609375,1.0
632816,,,,,,,,-0.26171875,1.67578125,-0.11328125,-0.0625,0.564453125,0.333984375,-0.41796875,-7.92578125,1.30859375,1.0
632817,,,,,,,,-0.06640625,1.828125,-0.328125,-0.0625,0.58984375,0.3203125,-0.26171875,-7.7734375,1.078125,1.0
632818,,,,,,,,-0.015625,1.9453125,-0.40234375,-0.05078125,0.599609375,0.306640625,-0.2265625,-7.66015625,1.00390625,1.0
632819,,,,,,,,0.1015625,2.01953125,-0.55078125,-0.01953125,0.6015625,0.267578125,-0.1484375,-7.578125,0.84765625,1.0
632820,36.013275166666666,129.31926783333336,60.204222810075606,97.10803333495392,0.8,98.0,,0.36328125,2.09765625,-0.6640625,-0.734375,-0.025390625,-0.0078125,3.26171875,-13.40234375,4.71875,1.0
632821,,,,,,,,0.5859375,2.01953125,-0.6328125,0.103515625,0.544921875,0.228515625,0.2734375,-7.578125,0.7734375,1.0
632822,,,,,,,,0.5859375,1.97265625,-0.6484375,0.15234375,0.5546875,0.2265625,0.234375,-7.6171875,0.7734375,1.0
632823,,,,,,,,0.6875,1.9375,-0.58984375,0.19140625,0.583984375,0.2265625,0.3125,-7.65625,0.84765625,1.0
632824,,,,,,,,0.6796875,1.734375,-0.60546875,0.205078125,0.619140625,0.216796875,0.2734375,-7.8515625,0.84765625,1.0
632825,,,,,,,,0.53515625,1.4296875,-0.51171875,0.16796875,0.654296875,0.1953125,0.08203125,-8.16015625,0.96484375,1.0
632826,,,,,,,,0.50390625,1.34375,-0.48046875,0.15625,0.66015625,0.181640625,0.04296875,-8.23828125,1.00390625,1.0
632827,,,,,,,,0.3125,1.23046875,-0.3828125,0.109375,0.6640625,0.12109375,-0.1875,-8.34765625,1.1171875,1.0
632828,,,,,,,,0.0703125,1.15234375,-0.4296875,0.076171875,0.66015625,0.07421875,-0.453125,-8.42578125,1.078125,1.0
632829,,,,,,,,0.11328125,1.109375,-0.4296875,0.060546875,0.65234375,0.052734375,-0.41796875,-8.46484375,1.078125,1.0
632830,36.013275,129.31926866666666,60.2793467448994,97.08954064276809,0.8,101.0,,0.12109375,0.91796875,-0.50390625,-0.734375,-0.025390625,-0.0078125,3.26171875,-13.40234375,4.71875,1.0
632831,,,,,,,,0.09375,0.75390625,-0.62109375,0.025390625,0.626953125,-0.029296875,-0.453125,-8.8046875,0.88671875,1.0
632832,,,,,,,,0.1015625,0.5625,-0.7734375,0.046875,0.61328125,-0.05859375,-0.453125,-9.0,0.734375,1.0
632833,,,,,,,,0.109375,0.5625,-0.7421875,0.0703125,0.609375,-0.06640625,-0.453125,-9.0,0.7734375,1.0
632834,,,,,,,,-0.16015625,0.5546875,-0.8203125,0.095703125,0.609375,-0.078125,-0.72265625,-9.0,0.6953125,1.0
632835,,,,,,,,-0.23046875,0.515625,-0.7890625,0.099609375,0.6015625,-0.078125,-0.80078125,-9.0390625,0.734375,1.0
632836,,,,,,,,-0.34375,0.59375,-0.56640625,0.0859375,0.5703125,-0.072265625,-0.9140625,-8.96484375,0.96484375,1.0
632837,,,,,,,,-0.421875,0.6328125,-0.4921875,0.0703125,0.546875,-0.06640625,-0.9921875,-8.92578125,1.0390625,1.0
632838,,,,,,,,-0.3828125,0.671875,-0.52734375,0.064453125,0.541015625,-0.072265625,-0.953125,-8.88671875,1.00390625,1.0
632839,,,,,,,,-0.375,0.671875,-0.7265625,0.08203125,0.509765625,-0.064453125,-0.953125,-8.88671875,0.8125,1.0
632840,36.01327466666667,129.31926966666666,60.36949557377048,97.05255484694317,1.0,106.0,,-0.3671875,0.42578125,-0.62109375,0.08984375,0.484375,-0.03125,-0.953125,-9.11328125,0.92578125,1.0
632841,,,,,,,,-0.13671875,-0.109375,-0.4375,0.123046875,0.443359375,0.013671875,-0.72265625,-9.6484375,1.1171875,1.0
632842,,,,,,,,-0.12890625,-0.265625,-0.4453125,0.115234375,0.43359375,0.0234375,-0.72265625,-9.8046875,1.1171875,1.0
632843,,,,,,,,-0.03515625,-0.5703125,-0.453125,0.060546875,0.421875,0.0625,-0.64453125,-10.11328125,1.1171875,1.0
632844,,,,,,,,-0.10546875,-0.6171875,-0.4140625,0.037109375,0.40625,0.064453125,-0.72265625,-10.1484375,1.15625,1.0
632845,,,,,,,,-0.12890625,-0.65625,-0.55859375,-0.021484375,0.3671875,0.078125,-0.76171875,-10.1875,1.00390625,1.0
632846,,,,,,,,-0.11328125,-0.34765625,-0.71484375,-0.09765625,0.306640625,0.076171875,-0.76171875,-9.87890625,0.84765625,1.0
632847,,,,,,,,0.00390625,-0.234375,-0.8203125,-0.12890625,0.2734375,0.076171875,-0.64453125,-9.76953125,0.734375,1.0
632848,,,,,,,,0.515625,0.1484375,-0.91015625,-0.1875,0.1875,0.0703125,-0.1484375,-9.38671875,0.62109375,1.0
632849,,,,,,,,0.70703125,0.265625,-0.94140625,-0.20703125,0.15625,0.0546875,0.04296875,-9.265625,0.58203125,1.0
632850,36.01327416666666,129.31927083333332,60.47466929265753,96.99707594588148,1.1,110.0,,1.44921875,0.34765625,-0.7890625,0.08984375,0.484375,-0.03125,-0.953125,-9.11328125,0.92578125,1.0
632851,,,,,,,,2.0234375,-0.2265625,-0.62109375,-0.20703125,0.005859375,-0.009765625,1.34375,-9.76953125,0.84765625,1.0
632852,,,,,,,,1.94921875,-1.09765625,-0.6796875,-0.224609375,-0.0078125,-0.013671875,1.26953125,-10.64453125,0.7734375,1.0
632853,,,,,,,,2.015625,-2.21875,-0.52734375,-0.25390625,0.11328125,0.029296875,1.34375,-11.76171875,0.88671875,1.0
632854,,,,,,,,2.29296875,-3.78125,0.33984375,-0.306640625,0.263671875,0.05078125,1.61328125,-13.328125,1.73046875,1.0
632855,,,,,,,,-0.296875,-7.91015625,1.21484375,-0.498046875,0.552734375,0.0859375,-0.9921875,-17.4609375,2.53515625,1.0
632856,,,,,,,,-1.66015625,-7.47265625,2.265625,-0.61328125,0.607421875,0.1015625,-2.37109375,-17.04296875,3.53125,1.0
632857,,,,,,,,-1.56640625,-2.5703125,2.7109375,-0.611328125,0.603515625,0.076171875,-2.29296875,-12.14453125,3.9140625,1.0
632858,,,,,,,,-0.78515625,-1.98828125,1.43359375,-0.630859375,0.845703125,0.025390625,-1.52734375,-11.5625,2.57421875,1.0
632859,,,,,,,,-0.1171875,-1.828125,1.28125,-0.765625,1.076171875,0.0,-0.875,-11.41796875,2.34375,1.0
632860,36.01327366666667,129.31927183333335,60.56481825337552,96.94159694463723,1.1,114.0,,1.55078125,-1.88671875,2.09375,-0.69140625,0.92578125,0.107421875,0.76953125,-11.484375,3.03125,1.0
632861,,,,,,,,1.8671875,-1.765625,2.34765625,-0.505859375,0.91796875,0.125,1.078125,-11.375,3.26171875,1.0
632862,,,,,,,,1.73046875,-1.15234375,1.4140625,0.294921875,0.875,0.060546875,0.92578125,-10.76171875,2.3046875,1.0
632863,,,,,,,,1.58203125,-0.80859375,0.9765625,0.59765625,0.884765625,0.08984375,0.76953125,-10.4140625,1.8828125,1.0
632864,,,,,,,,1.29296875,-0.43359375,0.4921875,0.685546875,1.146484375,0.099609375,0.46484375,-10.03515625,1.4609375,1.0
632865,,,,,,,,0.625,0.51953125,0.26171875,0.505859375,1.451171875,0.07421875,-0.2265625,-9.07421875,1.26953125,1.0
632866,,,,,,,,0.05859375,0.7109375,0.62109375,0.45703125,1.546875,0.0390625,-0.80078125,-8.8828125,1.65234375,1.0
632867,,,,,,,,-0.5078125,0.59375,1.09765625,0.4765625,1.611328125,-0.00390625,-1.375,-9.0,2.15234375,1.0
632868,,,,,,,,-0.5,0.6015625,1.08984375,0.662109375,1.646484375,-0.091796875,-1.640625,-9.11328125,2.265625,1.0
632869,,,,,,,,-1.06640625,0.51171875,1.0859375,0.802734375,1.6171875,-0.17578125,-2.1015625,-8.80859375,2.15234375,1.0
632870,36.0132735,129.319273,60.669991719256004,96.92310446090087,1.1,110.0,,-1.3046875,1.19140625,0.6484375,-0.69140625,0.92578125,0.107421875,-2.1796875,-8.38671875,1.8828125,1.0
632871,,,,,,,,-1.05078125,2.1875,-0.2421875,0.2421875,1.462890625,-0.30859375,-1.91015625,-7.39453125,1.0390625,1.0
632872,,,,,,,,-0.875,2.33984375,-0.28515625,0.193359375,1.388671875,-0.3125,-1.71875,-7.234375,1.00390625,1.0
632873,,,,,,,,-0.69140625,2.5703125,-0.41796875,0.2421875,1.341796875,-0.30078125,-1.52734375,-7.01171875,0.88671875,1.0
632874,,,,,,,,-0.66015625,2.76171875,-0.2890625,0.294921875,1.31640625,-0.267578125,-1.48828125,-6.8125,1.0390625,1.0
632875,,,,,,,,-0.8984375,2.76171875,-0.41796875,0.294921875,1.326171875,-0.244140625,-1.71875,-6.8125,0.92578125,1.0
632876,,,,,,,,-0.9765625,2.6875,-0.34765625,0.263671875,1.3203125,-0.236328125,-1.796875,-6.89453125,1.00390625,1.0
632877,,,,,,,,-1.25,2.41796875,-0.3203125,0.21484375,1.314453125,-0.22265625,-2.0625,-7.16015625,1.0390625,1.0
632878,,,,,,,,-1.3671875,2.21875,-0.3359375,0.1796875,1.318359375,-0.212890625,-2.1796875,-7.35546875,1.0390625,1.0
632879,,,,,,,,-1.48828125,1.98828125,-0.265625,0.177734375,1.30859375,-0.22265625,-2.29296875,-7.58203125,1.1171875,1.0
632880,36.013273166666664,129.319274,60.76014054967096,96.88611866926435,1.0,109.0,,-1.640625,1.7578125,-0.3515625,0.171875,1.255859375,-0.228515625,-2.4453125,-7.8125,1.0390625,1.0
632881,,,,,,,,-1.6484375,1.71875,-0.3515625,0.154296875,1.1796875,-0.228515625,-2.4453125,-7.8515625,1.0390625,1.0
632882,,,,,,,,-1.6484375,1.71875,-0.359375,0.15234375,1.107421875,-0.228515625,-2.4453125,-7.8515625,1.0390625,1.0
632883,,,,,,,,-1.359375,1.60546875,-0.44921875,0.154296875,0.98046875,-0.234375,-2.140625,-7.96484375,0.96484375,1.0
632884,,,,,,,,-1.24609375,1.52734375,-0.48828125,0.16015625,0.966796875,-0.23046875,-2.02734375,-8.0390625,0.92578125,1.0
632885,,,,,,,,-1.09765625,1.328125,-0.49609375,0.169921875,0.9453125,-0.224609375,-1.87109375,-8.234375,0.92578125,1.0
632886,,,,,,,,-0.9453125,1.13671875,-0.50390625,0.18359375,0.9296875,-0.21484375,-1.71875,-8.42578125,0.92578125,1.0
632887,,,,,,,,-0.953125,1.0546875,-0.46484375,0.1953125,0.873046875,-0.205078125,-1.71875,-8.50390625,0.96484375,1.0
632888,,,,,,,,-0.83984375,0.82421875,-0.51953125,0.193359375,0.810546875,-0.1875,-1.60546875,-8.73046875,0.92578125,1.0
632889,,,,,,,,-0.875,0.7109375,-0.56640625,0.189453125,0.787109375,-0.177734375,-1.640625,-8.84375,0.88671875,1.0
632890,36.0132725,129.3192748333333,60.83526487390783,96.81214635799508,1.0,118.0,,-0.9609375,0.6328125,-0.58203125,0.171875,1.255859375,-0.228515625,-1.71875,-8.921875,0.88671875,1.0
632891,,,,,,,,-1.0859375,0.5546875,-0.8203125,0.130859375,0.69140625,-0.158203125,-1.8359375,-9.0,0.65625,1.0
632892,,,,,,,,-1.0078125,0.40234375,-1.01953125,0.08984375,0.654296875,-0.16015625,-1.7578125,-9.1484375,0.46484375,1.0
632893,,,,,,,,-0.9375,0.30859375,-1.0546875,0.076171875,0.623046875,-0.1640625,-1.6796875,-9.23046875,0.4296875,1.0
632894,,,,,,,,-0.953125,0.2734375,-0.94921875,0.08984375,0.58203125,-0.181640625,-1.6796875,-9.26953125,0.54296875,1.0
632895,,,,,,,,-1.03125,0.2734375,-0.8046875,0.087890625,0.552734375,-0.189453125,-1.7578125,-9.265625,0.6953125,1.0
632896,,,,,,,,-0.9609375,0.15625,-0.7265625,0.08203125,0.53515625,-0.189453125,-1.6796875,-9.38671875,0.7734375,1.0
632897,,,,,,,,-1.0390625,0.08203125,-0.6953125,0.0703125,0.513671875,-0.185546875,-1.7578125,-9.453125,0.8125,1.0
632898,,,,,,,,-1.015625,0.00390625,-0.61328125,0.048828125,0.4921875,-0.173828125,-1.71875,-9.53125,0.88671875,1.0
632899,,,,,,,,-0.78515625,-0.1484375,-0.57421875,0.037109375,0.482421875,-0.169921875,-1.48828125,-9.6875,0.92578125,1.0
632900,36.013272,129.31927566666667,60.910389076161735,96.75666725484976,1.0,124.0,0.0,-0.52734375,-0.1875,-0.65234375,0.171875,1.255859375,-0.228515625,-1.22265625,-9.7265625,0.84765625,1.0
632901,,,,,,,,-0.37890625,-0.109375,-0.7265625,0.05078125,0.458984375,-0.169921875,-1.06640625,-9.6484375,0.7734375,1.0
632902,,,,,,,,-0.2734375,0.00390625,-0.8046875,0.0390625,0.4453125,-0.173828125,-0.953125,-9.53125,0.6953125,1.0
632903,,,,,,,,-0.16015625,0.2265625,-0.87890625,0.017578125,0.431640625,-0.1640625,-0.83984375,-9.30859375,0.62109375,1.0
632904,,,,,,,,-0.08984375,0.34765625,-0.91015625,-0.00390625,0.400390625,-0.162109375,-0.76171875,-9.1875,0.58203125,1.0
632905,,,,,,,,-0.25,0.4921875,-0.71875,-0.029296875,0.384765625,-0.162109375,-0.9140625,-9.0390625,0.7734375,1.0
632906,,,,,,,,-0.296875,0.53125,-0.6796875,-0.05859375,0.388671875,-0.171875,-0.953125,-9.00390625,0.8125,1.0
632907,,,,,,,,-0.6875,0.53125,-0.20703125,-0.09765625,0.3984375,-0.173828125,-1.3359375,-9.0,1.26953125,1.0
632908,,,,,,,,-0.92578125,0.30078125,0.078125,-0.134765625,0.40234375,-0.1796875,-1.56640625,-9.23046875,1.5390625,1.0
632909,,,,,,,,-1.0,0.03515625,0.0078125,-0.154296875,0.40234375,-0.1796875,-1.640625,-9.4921875,1.4609375,1.0
632910,36.013271333333336,129.3192765,60.98551340298896,96.68269494511875,1.0,131.0,,-1.09375,-0.72265625,-0.2421875,0.171875,1.255859375,-0.228515625,-1.22265625,-9.7265625,0.84765625,1.0
632911,,,,,,,,-0.60546875,-1.0234375,0.203125,-0.31640625,0.34765625,-0.173828125,-1.22265625,-10.57421875,1.578125,1.0
632912,,,,,,,,0.18359375,-1.98046875,0.9453125,-0.337890625,0.322265625,-0.177734375,-0.41796875,-11.5234375,2.3046875,1.0
632913,,,,,,,,2.65234375,-5.87109375,1.60546875,-0.546875,0.193359375,-0.17578125,2.07421875,-15.4296875,2.87890625,1.0
632914,,,,,,,,2.99609375,-6.21875,2.12109375,-0.7421875,0.08203125,-0.09375,2.53125,-15.55078125,3.953125,1.0
632915,,,,,,,,3.02734375,-5.01171875,3.578125,-0.76171875,0.0390625,-0.041015625,2.1875,-14.09375,4.71875,1.0
632916,,,,,,,,2.75,-4.515625,3.6171875,-0.78125,0.00390625,-0.0234375,0.76953125,-13.37109375,4.56640625,1.0
632917,,,,,,,,0.375,-3.390625,3.54296875,-0.87890625,-0.052734375,0.00390625,-0.4921875,-12.7890625,4.56640625,1.0
632918,,,,,,,,-0.046875,-3.11328125,3.55078125,-0.912109375,-0.076171875,0.0,-0.76171875,-12.6328125,4.41015625,1.0
632919,,,,,,,,-0.19921875,-3.02734375,3.51171875,-0.841796875,-0.017578125,-0.005859375,-0.875,-12.37109375,3.609375,1.0
632920,36.01327033333334,129.31927716666667,61.045613227309204,96.57173611714951,1.1,137.0,,-1.09375,-0.72265625,-0.2421875,0.171875,1.255859375,-0.228515625,-0.9140625,-11.4140625,2.265625,1.0
632921,,,,,,,,-0.390625,-1.48046875,1.37109375,0.2890625,0.373046875,-0.146484375,-1.06640625,-10.53515625,2.07421875,1.0
632922,,,,,,,,-0.63671875,-0.71484375,1.23046875,0.51171875,0.193359375,-0.1953125,-1.22265625,-10.1484375,1.80859375,1.0
632923,,,,,,,,-0.67578125,-0.5234375,0.98046875,0.57421875,0.076171875,-0.19140625,-1.18359375,-10.2265625,1.76953125,1.0
632924,,,,,,,,-0.57421875,-0.63671875,0.85546875,0.673828125,-0.033203125,-0.158203125,-1.06640625,-10.26171875,1.69140625,1.0
632925,,,,,,,,-0.484375,-0.63671875,0.73828125,0.693359375,0.037109375,-0.083984375,-0.953125,-10.19140625,1.73046875,1.0
632926,,,,,,,,-0.40625,-0.22265625,0.5,0.544921875,0.158203125,0.072265625,-0.875,-9.61328125,1.42578125,1.0
632927,,,,,,,,-0.31640625,0.2265625,0.25390625,0.33203125,0.12890625,0.2265625,-0.76171875,-8.8046875,1.234375,1.0
632928,,,,,,,,-0.22265625,0.79296875,0.09375,0.25390625,0.099609375,0.275390625,-0.64453125,-8.30859375,1.078125,1.0
632929,,,,,,,,-0.046875,1.4921875,-0.1171875,0.15625,0.08203125,0.349609375,-0.41796875,-7.81640625,0.92578125,1.0
632930,36.0132695,129.31927766666666,61.09068815931821,96.47927039083055,0.9,139.0,,0.33984375,2.01953125,-0.28515625,0.142578125,0.087890625,0.37109375,-0.1875,-7.54296875,0.8125,1.0
632931,,,,,,,,0.66015625,2.171875,-0.5078125,0.150390625,0.09765625,0.369140625,0.04296875,-7.4296875,0.62109375,1.0
632932,,,,,,,,0.76953125,2.28125,-0.63671875,0.123046875,0.05078125,0.3359375,0.1953125,-7.19921875,0.46484375,1.0
632933,,,,,,,,0.9296875,2.39453125,-0.76171875,0.10546875,0.02734375,0.314453125,0.2734375,-7.16015625,0.58203125,1.0
632934,,,,,,,,1.22265625,2.42578125,-0.578125,0.0703125,-0.025390625,0.283203125,0.46484375,-7.16015625,0.65625,1.0
632935,,,,,,,,1.59765625,2.34765625,-0.39453125,0.056640625,-0.001953125,0.263671875,0.80859375,-7.23828125,0.84765625,1.0
632936,,,,,,,,1.8125,2.2734375,-0.24609375,0.056640625,0.064453125,0.2421875,1.0,-7.3125,1.00390625,1.0
632937,,,,,,,,1.8671875,2.1953125,-0.24609375,0.048828125,0.154296875,0.22265625,1.0390625,-7.39453125,1.00390625,1.0
632938,,,,,,,,1.8828125,2.1875,-0.25390625,0.0546875,0.201171875,0.21875,1.0390625,-7.39453125,1.00390625,1.0
632939,,,,,,,,1.71484375,2.1953125,-0.33984375,0.068359375,0.267578125,0.1953125,0.84765625,-7.39453125,0.92578125,1.0
632940,36.013269,129.3192785,61.1658123629513,96.42379128976123,0.9,138.0,,1.578125,2.1875,-0.42578125,0.142578125,0.087890625,0.37109375,-0.1875,-7.54296875,0.8125,1.0
632941,,,,,,,,1.37890625,2.06640625,-0.4765625,0.185546875,0.44140625,0.12890625,0.46484375,-7.5,0.8125,1.0
632942,,,,,,,,1.25,1.90625,-0.4921875,0.1953125,0.501953125,0.087890625,0.3125,-7.65625,0.8125,1.0
632943,,,,,,,,1.06640625,1.40625,-0.43359375,0.1796875,0.5234375,0.0390625,0.12109375,-8.16015625,0.88671875,1.0
632944,,,,,,,,0.8828125,1.0546875,-0.5546875,0.14453125,0.53125,0.00390625,-0.0703125,-8.50390625,0.7734375,1.0
632945,,,,,,,,0.8125,0.9765625,-0.640625,0.09375,0.53125,-0.029296875,-0.1484375,-8.58203125,0.6953125,1.0
632946,,,,,,,,0.734375,1.015625,-0.6796875,0.08203125,0.537109375,-0.037109375,-0.2265625,-8.54296875,0.65625,1.0
632947,,,,,,,,0.58984375,0.96875,-0.72265625,0.029296875,0.54296875,-0.046875,-0.37890625,-8.578125,0.62109375,1.0
632948,,,,,,,,0.62109375,0.85546875,-0.70703125,0.00390625,0.5546875,-0.04296875,-0.33984375,-8.6875,0.62109375,1.0
632949,,,,,,,,0.62890625,0.73828125,-0.73828125,-0.01171875,0.58984375,-0.037109375,-0.33984375,-8.80859375,0.58203125,1.0
632950,36.01326816666666,129.31927916666666,61.22591206044062,96.33132566930547,1.0,142.0,,0.58984375,0.43359375,-0.69140625,0.005859375,0.611328125,-0.025390625,-0.37890625,-9.11328125,0.62109375,1.0
632951,,,,,,,,0.59765625,0.35546875,-0.76171875,0.01953125,0.623046875,-0.009765625,-0.37890625,-9.1875,0.54296875,1.0
632952,,,,,,,,0.64453125,0.34765625,-0.76171875,0.021484375,0.62890625,0.0078125,-0.33984375,-9.1875,0.54296875,1.0
632953,,,,,,,,0.546875,0.1171875,-0.68359375,0.015625,0.638671875,0.052734375,-0.453125,-9.421875,0.62109375,1.0
632954,,,,,,,,0.40625,-0.2265625,-0.5625,0.0078125,0.662109375,0.083984375,-0.609375,-9.76953125,0.734375,1.0
632955,,,,,,,,0.26953125,-0.49609375,-0.36328125,0.021484375,0.68359375,0.10546875,-0.76171875,-10.03125,0.92578125,1.0
632956,,,,,,,,0.19921875,-0.609375,-0.32421875,0.021484375,0.68359375,0.119140625,-0.83984375,-10.15234375,0.96484375,1.0
632957,,,,,,,,-0.05078125,-0.84765625,0.07421875,0.021484375,0.689453125,0.119140625,-1.10546875,-10.37890625,1.34765625,1.0
632958,,,,,,,,-0.2265625,-0.9296875,0.265625,0.005859375,0.703125,0.123046875,-1.296875,-10.453125,1.5390625,1.0
632959,,,,,,,,-0.2421875,-0.89453125,0.234375,-0.02734375,0.69140625,0.103515625,-1.3359375,-10.41796875,1.5,1.0
632960,36.0132675,129.3192801666667,61.31606116133571,96.25735346755863,1.0,141.0,,0.0859375,-0.703125,0.3203125,-0.064453125,0.6328125,0.07421875,-0.37890625,-9.11328125,0.62109375,1.0
632961,,,,,,,,0.9375,-0.96875,0.21875,-0.064453125,0.5390625,0.037109375,-0.1875,-10.4921875,1.4609375,1.0
632962,,,,,,,,1.16796875,-1.19921875,0.2265625,-0.060546875,0.494140625,0.021484375,0.04296875,-10.72265625,1.4609375,1.0
632963,,,,,,,,1.48046875,-2.1171875,0.46484375,-0.048828125,0.41015625,-0.01953125,0.34765625,-11.64453125,1.69140625,1.0
632964,,,,,,,,0.79296875,-2.80859375,0.43359375,-0.041015625,0.359375,-0.048828125,-0.33984375,-12.33203125,1.65234375,1.0
632965,,,,,,,,0.25,-2.68359375,1.36328125,-0.052734375,0.33203125,-0.064453125,-0.875,-12.21484375,2.57421875,1.0
632966,,,,,,,,0.09375,-2.83984375,1.63671875,-0.048828125,0.341796875,-0.064453125,-1.03125,-12.3671875,2.83984375,1.0
632967,,,,,,,,-0.40234375,-4.71484375,1.5,-0.138671875,0.40625,-0.072265625,-1.52734375,-14.24609375,2.6875,1.0
632968,,,,,,,,-0.984375,-5.93359375,1.65625,-0.349609375,0.6015625,-0.080078125,-2.1015625,-15.46875,2.8046875,1.0
632969,,,,,,,,-1.51171875,-5.58984375,2.4453125,-0.359375,0.64453125,-0.07421875,-2.63671875,-15.12890625,3.5703125,1.0
632970,36.01326683333333,129.31928083333332,61.37616073045362,96.18338105582593,1.0,138.0,,-1.9140625,-2.82421875,2.65234375,-0.064453125,0.6328125,0.07421875,-0.37890625,-9.11328125,0.62109375,1.0
632971,,,,,,,,-0.12109375,-1.015625,2.125,-0.267578125,0.72265625,-0.123046875,-1.22265625,-10.5703125,3.1484375,1.0
632972,,,,,,,,0.02734375,-1.046875,2.046875,-0.23046875,0.619140625,-0.078125,-1.06640625,-10.61328125,3.03125,1.0
632973,,,,,,,,0.67578125,-0.69140625,1.94140625,0.10546875,0.572265625,-0.107421875,-0.41796875,-10.2578125,2.91796875,1.0
632974,,,,,,,,0.71484375,-0.6171875,1.765625,0.529296875,0.552734375,-0.10546875,-0.37890625,-10.1875,2.765625,1.0
632975,,,,,,,,0.28515625,-0.125,1.3359375,0.626953125,0.669921875,-0.099609375,-0.80078125,-9.6875,2.3828125,1.0
632976,,,,,,,,0.01953125,0.06640625,1.2265625,0.623046875,0.791015625,-0.109375,-1.06640625,-9.49609375,2.3046875,1.0
632977,,,,,,,,-0.51953125,0.5625,1.21875,0.578125,0.97265625,-0.13671875,-1.60546875,-9.00390625,2.34375,1.0
632978,,,,,,,,-0.75,0.79296875,1.30078125,0.56640625,0.9921875,-0.15234375,-1.8359375,-8.76953125,2.45703125,1.0
632979,,,,,,,,-0.95703125,0.90234375,1.21875,0.5703125,1.017578125,-0.203125,-2.02734375,-8.6484375,2.421875,1.0
632980,36.013265833333335,129.31928166666665,61.45128532684491,96.07242233522746,1.1,141.0,,-0.95703125,0.86328125,1.15625,-0.064453125,0.6328125,0.07421875,-0.37890625,-9.11328125,0.62109375,1.0
632981,,,,,,,,-0.97265625,1.015625,1.0703125,0.587890625,1.029296875,-0.26953125,-2.02734375,-8.5390625,2.34375,1.0
632982,,,,,,,,-0.94140625,1.23828125,0.87890625,0.529296875,1.009765625,-0.296875,-1.98828125,-8.3046875,2.19140625,1.0
632983,,,,,,,,-0.7421875,1.46875,0.515625,0.373046875,0.919921875,-0.328125,-1.7578125,-8.078125,1.8828125,1.0
632984,,,,,,,,-0.56640625,1.8515625,0.1484375,0.294921875,0.875,-0.3203125,-1.56640625,-7.69921875,1.5390625,1.0
632985,,,,,,,,-0.390625,2.1953125,-0.14453125,0.26953125,0.857421875,-0.31640625,-1.375,-7.3515625,1.26953125,1.0
632986,,,,,,,,-0.3203125,2.34765625,-0.15234375,0.28515625,0.845703125,-0.3046875,-1.296875,-7.19921875,1.26953125,1.0
632987,,,,,,,,-0.375,2.65625,-0.25,0.318359375,0.857421875,-0.271484375,-1.3359375,-6.890625,1.1953125,1.0
632988,,,,,,,,-0.4296875,2.73046875,-0.234375,0.330078125,0.85546875,-0.248046875,-1.375,-6.8125,1.234375,1.0
632989,,,,,,,,-0.66796875,2.73046875,-0.3046875,0.3125,0.869140625,-0.234375,-1.60546875,-6.8125,1.1953125,1.0
632990,36.01326533333334,129.31928266666668,61.54143430287501,96.01694334261578,1.0,142.0,,-0.90625,2.45703125,-0.296875,0.265625,0.869140625,-0.21484375,-1.8359375,-7.08203125,1.234375,1.0
632991,,,,,,,,-0.98828125,2.2578125,-0.3125,0.228515625,0.869140625,-0.21875,-1.91015625,-7.27734375,1.234375,1.0
632992,,,,,,,,-0.99609375,2.1796875,-0.359375,0.208984375,0.86328125,-0.21875,-1.91015625,-7.35546875,1.1953125,1.0
632993,,,,,,,,-1.04296875,1.91015625,-0.21484375,0.181640625,0.880859375,-0.23046875,-1.94921875,-7.62109375,1.34765625,1.0
632994,,,,,,,,-1.12890625,1.55859375,-0.23828125,0.17578125,0.8828125,-0.224609375,-2.02734375,-7.9609375,1.34765625,1.0
632995,,,,,,,,-1.09765625,1.40625,-0.21484375,0.166015625,0.83984375,-0.224609375,-1.98828125,-8.12109375,1.38671875,1.0
632996,,,,,,,,-1.06640625,1.40625,-0.21484375,0.162109375,0.841796875,-0.224609375,-1.94921875,-8.1171875,1.38671875,1.0
632997,,,,,,,,-0.99609375,1.40625,-0.30078125,0.13671875,0.84375,-0.212890625,-1.87109375,-8.1171875,1.30859375,1.0
632998,,,,,,,,-0.9296875,1.3984375,-0.30859375,0.115234375,0.8515625,-0.208984375,-1.796875,-8.12109375,1.30859375,1.0
632999,,,,,,,,-0.921875,1.28125,-0.3828125,0.08203125,0.84765625,-0.19140625,-1.796875,-8.23828125,1.234375,1.0
633000,36.01326483333333,129.31928316666665,61.58650898151723,95.96146403417232,0.9,145.0,0.0,-1.04296875,1.015625,-0.5,0.064453125,0.83984375,-0.17578125,-1.8359375,-7.08203125,1.234375,1.0
633001,,,,,,,,-1.12109375,0.59375,-0.5859375,0.0703125,0.828125,-0.171875,-1.98828125,-8.92578125,1.0390625,1.0
633002,,,,,,,,-1.16015625,0.40234375,-0.5859375,0.0859375,0.81640625,-0.177734375,-2.02734375,-9.11328125,1.0390625,1.0
633003,,,,,,,,-1.234375,0.2109375,-0.59375,0.09375,0.806640625,-0.18359375,-2.1015625,-9.30859375,1.0390625,1.0
633004,,,,,,,,-1.28125,0.2421875,-0.66796875,0.07421875,0.787109375,-0.189453125,-2.140625,-9.26953125,0.96484375,1.0
633005,,,,,,,,-1.2890625,0.31640625,-0.8203125,0.037109375,0.767578125,-0.19140625,-2.140625,-9.1875,0.8125,1.0
633006,,,,,,,,-1.28125,0.43359375,-0.890625,0.013671875,0.751953125,-0.189453125,-2.140625,-9.07421875,0.734375,1.0
633007,,,,,,,,-1.25,0.546875,-1.00390625,-0.00390625,0.734375,-0.1875,-2.1015625,-8.96484375,0.62109375,1.0
633008,,,,,,,,-1.2890625,0.46875,-1.11328125,-0.005859375,0.71484375,-0.185546875,-2.140625,-9.0390625,0.50390625,1.0
633009,,,,,,,,-1.3359375,0.39453125,-1.02734375,0.0078125,0.697265625,-0.1796875,-2.1796875,-9.11328125,0.58203125,1.0
633010,36.01326433333334,129.3192835,61.61655890293739,95.90598462303515,0.8,151.0,,-1.296875,0.2421875,-0.98046875,0.046875,0.66015625,-0.1796875,-2.140625,-9.26953125,0.62109375,1.0
633011,,,,,,,,-1.03515625,0.00390625,-0.796875,0.0625,0.642578125,-0.17578125,-1.87109375,-9.4921875,0.8125,1.0
633012,,,,,,,,-0.890625,-0.10546875,-0.72265625,0.044921875,0.625,-0.171875,-1.71875,-9.609375,0.88671875,1.0
633013,,,,,,,,-0.8515625,-0.21875,-0.7890625,0.01171875,0.595703125,-0.173828125,-1.6796875,-9.7265625,0.8125,1.0
633014,,,,,,,,-0.8671875,-0.3046875,-0.74609375,-0.03515625,0.55859375,-0.181640625,-1.6796875,-9.80859375,0.84765625,1.0
633015,,,,,,,,-0.9140625,-0.53515625,-0.7734375,-0.060546875,0.541015625,-0.18359375,-1.71875,-10.03125,0.8125,1.0
633016,,,,,,,,-0.953125,-0.52734375,-0.796875,-0.0859375,0.53125,-0.189453125,-1.7578125,-10.03515625,0.7734375,1.0
633017,,,,,,,,-1.0,-0.48828125,-0.8671875,-0.11328125,0.521484375,-0.19140625,-1.796875,-9.99609375,0.6953125,1.0
633018,,,,,,,,-1.16015625,-0.2578125,-0.890625,-0.154296875,0.505859375,-0.1953125,-1.94921875,-9.765625,0.65625,1.0
633019,,,,,,,,-1.3984375,0.05078125,-0.67578125,-0.189453125,0.49609375,-0.203125,-2.1796875,-9.45703125,0.84765625,1.0
633020,36.0132635,129.31928366666668,61.6315843159528,95.81351868917139,0.8,160.0,,-1.59765625,0.28515625,-0.53515625,-0.2265625,0.49609375,-0.203125,-2.37109375,-9.23046875,0.96484375,1.0
633021,,,,,,,,-1.64453125,0.140625,-0.3125,-0.25,0.490234375,-0.205078125,-2.41015625,-9.3828125,1.15625,1.0
633022,,,,,,,,-1.6875,-0.31640625,-0.2578125,-0.255859375,0.490234375,-0.203125,-2.4453125,-9.8359375,1.1953125,1.0
633023,,,,,,,,-1.3125,-1.23046875,-0.6953125,-0.263671875,0.478515625,-0.19921875,-2.0625,-10.76171875,0.734375,1.0
633024,,,,,,,,-1.0546875,-1.3125,-0.703125,-0.265625,0.4453125,-0.201171875,-1.796875,-10.83984375,0.6953125,1.0
633025,,,,,,,,-0.640625,-0.578125,-0.01953125,-0.287109375,0.384765625,-0.19921875,-1.375,-10.109375,1.34765625,1.0
633026,,,,,,,,0.07421875,-1.71875,0.47265625,-0.34375,0.326171875,-0.1953125,-0.64453125,-11.26171875,1.80859375,1.0
633027,,,,,,,,0.45703125,-2.484375,0.45703125,-0.392578125,0.29296875,-0.189453125,-0.26171875,-12.02734375,1.76953125,1.0
633028,,,,,,,,1.4375,-4.05078125,0.80859375,-0.517578125,0.21875,-0.181640625,0.734375,-13.59375,2.07421875,1.0
633029,,,,,,,,2.5703125,-4.9609375,1.859375,-0.634765625,0.12890625,-0.1484375,1.8828125,-14.515625,3.0703125,1.0
633030,36.01326233333334,129.3192835,61.61656045953994,95.6840661292634,0.9,170.0,,3.3359375,-4.41015625,3.484375,-0.591796875,0.126953125,-0.140625,2.6484375,-13.9765625,4.640625,1.0
633031,,,,,,,,2.79296875,-3.328125,3.2734375,-0.560546875,0.109375,-0.130859375,2.11328125,-12.90625,4.375,1.0
633032,,,,,,,,1.3203125,-2.1328125,2.953125,-0.787109375,0.041015625,-0.1171875,0.65625,-11.72265625,3.9921875,1.0
633033,,,,,,,,0.77734375,-1.78125,3.16015625,-1.072265625,0.037109375,-0.103515625,-0.109375,-11.296875,4.10546875,1.0
633034,,,,,,,,-0.11328125,-1.84765625,3.34765625,-1.029296875,0.16796875,-0.130859375,-0.76171875,-11.44921875,4.18359375,1.0
633035,,,,,,,,-0.7734375,-1.83203125,2.49609375,-0.51953125,0.408203125,-0.197265625,-1.4140625,-11.44921875,3.26171875,1.0
633036,,,,,,,,-0.94140625,-1.48828125,1.83203125,0.033203125,0.513671875,-0.2578125,-1.56640625,-11.10546875,2.57421875,1.0
633037,,,,,,,,-0.86328125,-0.6015625,1.1796875,0.404296875,0.376953125,-0.31640625,-1.44921875,-10.23046875,1.9609375,1.0
633038,,,,,,,,-0.7734375,-0.109375,0.94921875,0.48046875,0.3046875,-0.296875,-1.3359375,-9.7265625,1.76953125,1.0
633039,,,,,,,,-0.60546875,-0.1484375,0.75,0.546875,0.31640625,-0.21484375,-1.14453125,-9.76953125,1.6171875,1.0
633040,36.01326133333334,129.31928333333332,61.60153646885787,95.57310677811019,0.9,176.0,,-0.390625,-0.0703125,0.65625,-0.591796875,0.126953125,-0.140625,2.6484375,-13.9765625,4.640625,1.0
633041,,,,,,,,-0.5078125,0.11328125,0.4921875,0.421875,0.38671875,-0.013671875,-1.03125,-9.49609375,1.4609375,1.0
633042,,,,,,,,-0.57421875,0.2265625,0.40234375,0.361328125,0.396484375,0.0390625,-1.10546875,-9.3828125,1.38671875,1.0
633043,,,,,,,,-0.58984375,0.7265625,0.32421875,0.142578125,0.35546875,0.16015625,-1.14453125,-8.88671875,1.34765625,1.0
633044,,,,,,,,-0.453125,0.9921875,0.27734375,0.013671875,0.291015625,0.20703125,-1.03125,-8.6171875,1.30859375,1.0
633045,,,,,,,,-0.07421875,1.421875,0.0859375,-0.04296875,0.27734375,0.228515625,-0.68359375,-8.19921875,1.1171875,1.0
633046,,,,,,,,0.125,1.56640625,-0.13671875,-0.056640625,0.27734375,0.23046875,-0.4921875,-8.04296875,0.88671875,1.0
633047,,,,,,,,0.26953125,1.68359375,-0.3203125,-0.05859375,0.27734375,0.21484375,-0.37890625,-7.921875,0.6953125,1.0
633048,,,,,,,,0.41796875,1.84375,-0.43359375,-0.052734375,0.234375,0.177734375,-0.26171875,-7.77734375,0.58203125,1.0
633049,,,,,,,,0.5390625,1.8046875,-0.39453125,-0.03515625,0.22265625,0.1640625,-0.1484375,-7.81640625,0.62109375,1.0
633050,36.0132605,129.31928333333332,61.60153711701738,95.48064073792315,0.9,177.0,,0.71484375,1.73046875,-0.3515625,0.00390625,0.216796875,0.1484375,0.00390625,-7.88671875,0.65625,1.0
633051,,,,,,,,1.03125,1.64453125,-0.12109375,0.0390625,0.234375,0.134765625,0.3125,-7.9609375,0.88671875,1.0
633052,,,,,,,,1.27734375,1.68359375,0.03125,0.06640625,0.2734375,0.123046875,0.54296875,-7.921875,1.0390625,1.0
633053,,,,,,,,1.34375,1.61328125,-0.01171875,0.08203125,0.359375,0.10546875,0.6171875,-8.00390625,1.0390625,1.0
633054,,,,,,,,1.31640625,1.60546875,-0.01953125,0.091796875,0.416015625,0.095703125,0.54296875,-8.00390625,1.00390625,1.0
633055,,,,,,,,1.17578125,1.5234375,-0.14453125,0.091796875,0.466796875,0.068359375,0.3125,-8.19921875,0.7734375,1.0
633056,,,,,,,,0.92578125,1.29296875,-0.3046875,0.091796875,0.515625,0.03515625,0.00390625,-8.38671875,0.6953125,1.0
633057,,,,,,,,0.6640625,1.140625,-0.3828125,0.087890625,0.54296875,0.001953125,-0.26171875,-8.46484375,0.65625,1.0
633058,,,,,,,,0.25,1.1015625,-0.42578125,0.09375,0.5625,-0.033203125,-0.68359375,-8.5390625,0.65625,1.0
633059,,,,,,,,-0.171875,1.0625,-0.43359375,0.080078125,0.560546875,-0.068359375,-1.14453125,-8.46484375,0.62109375,1.0
633060,36.01325966666666,129.31928316666665,61.58651300061605,95.38817459426136,1.0,183.0,,0.71484375,1.73046875,-0.3515625,0.0546875,0.564453125,-0.109375,-1.18359375,-8.34765625,0.62109375,1.0
633061,,,,,,,,-0.29296875,1.20703125,-0.47265625,0.0546875,0.5859375,-0.13671875,-1.03125,-8.421875,0.54296875,1.0
633062,,,,,,,,0.01171875,1.0546875,-0.55859375,0.076171875,0.599609375,-0.138671875,-0.68359375,-8.73046875,0.50390625,1.0
633063,,,,,,,,0.12109375,0.86328125,-0.55859375,0.08203125,0.595703125,-0.150390625,-0.68359375,-8.84765625,0.58203125,1.0
633064,,,,,,,,0.15234375,0.6328125,-0.52734375,0.095703125,0.576171875,-0.146484375,-0.64453125,-9.07421875,0.50390625,1.0
633065,,,,,,,,0.06640625,0.5625,-0.56640625,0.103515625,0.54296875,-0.1484375,-0.76171875,-9.0,0.46484375,1.0
633066,,,,,,,,0.02734375,0.59375,-0.62109375,0.1015625,0.525390625,-0.146484375,-0.83984375,-8.9609375,0.46484375,1.0
633067,,,,,,,,-0.09375,0.671875,-0.58203125,0.1015625,0.51953125,-0.138671875,-0.875,-8.96484375,0.54296875,1.0
633068,,,,,,,,-0.1015625,0.6328125,-0.55078125,0.103515625,0.5234375,-0.13671875,-0.953125,-9.04296875,0.6953125,1.0
633069,,,,,,,,-0.2265625,0.51953125,-0.359375,0.11328125,0.537109375,-0.12109375,-1.03125,-9.15234375,0.7734375,1.0
633070,36.013258666666665,129.31928316666665,61.586513778495245,95.27721534768222,1.0,184.0,,0.71484375,1.73046875,-0.3515625,0.0546875,0.564453125,-0.109375,-1.06640625,-9.5703125,0.96484375,1.0
633071,,,,,,,,-0.28125,-0.1796875,-0.10546875,0.134765625,0.546875,-0.109375,-0.953125,-9.99609375,1.0390625,1.0
633072,,,,,,,,-0.2421875,-0.6484375,-0.0390625,0.10546875,0.546875,-0.103515625,-0.953125,-10.53515625,1.1171875,1.0
633073,,,,,,,,-0.171875,-1.18359375,0.03125,0.072265625,0.525390625,-0.103515625,-0.9140625,-10.76171875,1.15625,1.0
633074,,,,,,,,-0.10546875,-1.22265625,-0.09375,0.046875,0.46875,-0.10546875,-0.83984375,-10.80078125,1.0390625,1.0
633075,,,,,,,,0.203125,-0.83984375,-0.27734375,0.021484375,0.384765625,-0.109375,-0.53125,-10.4140625,0.84765625,1.0
633076,,,,,,,,0.5390625,-0.33984375,-0.3984375,0.015625,0.345703125,-0.10546875,-0.1875,-9.9140625,0.734375,1.0
633077,,,,,,,,0.83984375,-0.0703125,-0.58203125,-0.025390625,0.265625,-0.107421875,0.12109375,-9.6484375,0.54296875,1.0
633078,,,,,,,,1.14453125,0.03515625,-0.6953125,-0.052734375,0.208984375,-0.111328125,0.42578125,-9.53125,0.4296875,1.0
633079,,,,,,,,1.63671875,0.42578125,-0.94921875,-0.095703125,0.123046875,-0.103515625,0.92578125,-9.15234375,0.16015625,1.0
633080,36.013257833333334,129.31928299999998,61.57148966176795,95.18474920481691,1.0,186.0,,1.78125,0.38671875,-1.046875,-0.130859375,0.095703125,-0.091796875,-1.06640625,-9.5703125,0.96484375,1.0
633081,,,,,,,,1.88671875,-0.1015625,-1.15625,-0.16015625,0.10546875,-0.078125,1.19140625,-9.6875,-0.0703125,1.0
633082,,,,,,,,1.8046875,-0.83203125,-1.28515625,-0.19921875,0.140625,-0.060546875,1.1171875,-10.4140625,-0.22265625,1.0
633083,,,,,,,,1.421875,-1.828125,-1.453125,-0.24609375,0.201171875,-0.048828125,0.734375,-11.41796875,-0.4140625,1.0
633084,,,,,,,,1.6484375,-1.93359375,-0.3359375,-0.369140625,0.33984375,-0.037109375,0.9609375,-11.52734375,0.65625,1.0
633085,,,,,,,,1.23046875,-2.77734375,0.546875,-0.46875,0.4375,-0.025390625,0.54296875,-12.3671875,1.5,1.0
633086,,,,,,,,0.04296875,-4.453125,1.22265625,-0.525390625,0.49609375,-0.025390625,-0.64453125,-14.05859375,2.15234375,1.0
633087,,,,,,,,-1.4140625,-5.91015625,1.8203125,-0.611328125,0.583984375,-0.03125,-2.1015625,-15.51171875,2.6875,1.0
633088,,,,,,,,-2.2578125,-4.4453125,3.4921875,-0.65625,0.607421875,-0.025390625,-2.9453125,-14.05859375,4.296875,1.0
633089,,,,,,,,-1.98828125,-2.5234375,3.265625,-0.66796875,0.77734375,-0.00390625,-2.67578125,-12.140625,3.9921875,1.0
633090,36.01325683333334,129.31928266666668,61.54144091013094,95.07378974707203,1.1,189.0,,-1.0625,-1.40234375,2.03125,-0.703125,1.185546875,0.0234375,-1.7578125,-11.0234375,2.6875,1.0
633091,,,,,,,,0.28515625,-1.05078125,2.4453125,-0.763671875,1.365234375,0.0546875,-0.41796875,-10.6796875,3.03125,1.0
633092,,,,,,,,0.8671875,-0.8984375,2.87890625,-0.765625,1.275390625,0.064453125,0.15625,-10.53125,3.41796875,1.0
633093,,,,,,,,1.3046875,-0.8984375,3.17578125,-0.544921875,0.94921875,0.1015625,0.578125,-10.53515625,3.64453125,1.0
633094,,,,,,,,1.55078125,-0.546875,2.625,0.076171875,0.765625,0.083984375,0.80859375,-10.19140625,3.0703125,1.0
633095,,,,,,,,1.15234375,-0.0078125,1.390625,0.5625,0.826171875,0.154296875,0.38671875,-9.65234375,1.8828125,1.0
633096,,,,,,,,0.89453125,0.21875,1.0625,0.58203125,0.96484375,0.166015625,0.12109375,-9.42578125,1.578125,1.0
633097,,,,,,,,0.21875,0.3671875,0.86328125,0.57421875,1.259765625,0.109375,-0.5703125,-9.265625,1.42578125,1.0
633098,,,,,,,,-1.17578125,0.328125,1.625,0.638671875,1.322265625,-0.01171875,-1.98828125,-9.3046875,2.265625,1.0
633099,,,,,,,,-1.40625,0.328125,1.78515625,0.671875,1.2890625,-0.056640625,-2.21875,-9.30859375,2.45703125,1.0
633100,36.013255666666666,129.31928233333335,61.51139228585315,94.94433708199384,1.1,188.0,0.0,-1.6328125,0.43359375,1.81640625,0.662109375,1.14453125,-0.130859375,-1.7578125,-11.0234375,2.6875,1.0
633101,,,,,,,,-1.0,0.93359375,1.0546875,0.36328125,0.96875,-0.21875,-1.796875,-8.69140625,1.84375,1.0
633102,,,,,,,,-0.546875,1.0078125,0.58203125,0.115234375,0.8671875,-0.234375,-1.3359375,-8.62109375,1.38671875,1.0
633103,,,,,,,,0.01953125,1.0859375,0.08203125,0.033203125,0.806640625,-0.232421875,-0.76171875,-8.5390625,0.88671875,1.0
633104,,,,,,,,0.07421875,1.09375,0.04296875,0.029296875,0.685546875,-0.2265625,-0.4921875,-8.42578125,0.734375,1.0
633105,,,,,,,,0.1328125,1.36328125,0.0078125,0.134765625,0.630859375,-0.1875,-0.609375,-8.265625,0.8125,1.0
633106,,,,,,,,0.01171875,1.5546875,0.07421875,0.224609375,0.62109375,-0.146484375,-0.72265625,-8.078125,0.88671875,1.0
633107,,,,,,,,-0.265625,1.70703125,0.16796875,0.2265625,0.62890625,-0.103515625,-0.9921875,-7.92578125,1.00390625,1.0
633108,,,,,,,,-0.45703125,1.78125,0.3125,0.2109375,0.630859375,-0.0859375,-1.18359375,-7.8515625,1.15625,1.0
633109,,,,,,,,-0.76953125,1.8984375,0.21875,0.162109375,0.650390625,-0.05859375,-1.48828125,-7.73828125,1.078125,1.0
633110,36.013254833333335,129.31928216666665,61.49636816264132,94.8518709388612,0.9,189.0,,-0.85546875,1.8203125,0.1640625,0.13671875,0.646484375,-0.06640625,-1.7578125,-11.0234375,2.6875,1.0
633111,,,,,,,,-0.921875,1.8984375,0.15625,0.126953125,0.603515625,-0.08203125,-1.640625,-7.734375,1.0390625,1.0
633112,,,,,,,,-1.0390625,2.01171875,0.02734375,0.150390625,0.552734375,-0.099609375,-1.7578125,-7.62109375,0.92578125,1.0
633113,,,,,,,,-1.078125,2.12890625,0.10546875,0.17578125,0.529296875,-0.111328125,-1.796875,-7.50390625,1.00390625,1.0
633114,,,,,,,,-1.0859375,2.12109375,0.04296875,0.224609375,0.48046875,-0.11328125,-1.796875,-7.50390625,0.96484375,1.0
633115,,,,,,,,-1.16796875,2.1953125,-0.171875,0.2578125,0.44140625,-0.103515625,-1.87109375,-7.43359375,0.7734375,1.0
633116,,,,,,,,-1.1015625,2.04296875,-0.1953125,0.28515625,0.40625,-0.09375,-1.796875,-7.578125,0.7734375,1.0
633117,,,,,,,,-1.109375,1.921875,-0.3203125,0.30859375,0.3984375,-0.05859375,-1.796875,-7.6953125,0.6953125,1.0
633118,,,,,,,,-1.0234375,1.7578125,-0.3359375,0.310546875,0.400390625,-0.044921875,-1.71875,-7.85546875,0.6953125,1.0
633119,,,,,,,,-0.90234375,1.60546875,-0.375,0.296875,0.376953125,-0.01171875,-1.60546875,-8.0,0.6953125,1.0
633120,36.01325383333334,129.31928166666665,61.451294641300464,94.74091137719594,1.0,193.0,,-0.78515625,1.4140625,-0.4375,0.26171875,0.361328125,0.013671875,-1.48828125,-8.19921875,0.65625,1.0
633121,,,,,,,,-0.6640625,1.359375,-0.49609375,0.212890625,0.318359375,0.033203125,-1.375,-8.23828125,0.62109375,1.0
633122,,,,,,,,-0.45703125,1.16796875,-0.55859375,0.162109375,0.27734375,0.05078125,-1.18359375,-8.421875,0.58203125,1.0
633123,,,,,,,,-0.33203125,1.0859375,-0.765625,0.15234375,0.25390625,0.056640625,-1.06640625,-8.50390625,0.390625,1.0
633124,,,,,,,,-0.32421875,1.125,-0.8125,0.140625,0.24609375,0.052734375,-1.06640625,-8.4609375,0.3515625,1.0
633125,,,,,,,,-0.2421875,1.1171875,-0.97265625,0.119140625,0.236328125,0.060546875,-0.9921875,-8.4609375,0.19921875,1.0
633126,,,,,,,,-0.30859375,1.078125,-1.05859375,0.091796875,0.228515625,0.05859375,-1.06640625,-8.5,0.12109375,1.0
633127,,,,,,,,-0.41796875,0.87890625,-0.98828125,0.083984375,0.23046875,0.06640625,-1.18359375,-8.6875,0.19921875,1.0
633128,,,,,,,,-0.5546875,0.6484375,-0.921875,0.068359375,0.2734375,0.06640625,-1.3359375,-8.92578125,0.2734375,1.0
633129,,,,,,,,-0.70703125,0.3046875,-0.765625,0.0703125,0.265625,0.068359375,-1.48828125,-9.26953125,0.4296875,1.0
633130,36.013253,129.31928116666668,61.40622099197935,94.64844502307196,1.0,197.0,,-0.921875,-0.0859375,-0.58203125,0.26171875,0.361328125,0.013671875,-1.71875,-9.6484375,0.62109375,1.0
633131,,,,,,,,-0.953125,-0.31640625,-0.515625,0.064453125,0.322265625,0.052734375,-1.7578125,-9.875,0.6953125,1.0
633132,,,,,,,,-0.8671875,-0.5859375,-0.5546875,0.041015625,0.34765625,0.0390625,-1.6796875,-10.1484375,0.65625,1.0
633133,,,,,,,,-0.8515625,-0.6015625,-0.515625,0.0,0.359375,0.029296875,-1.6796875,-10.15234375,0.6953125,1.0
633134,,,,,,,,-0.65234375,-0.6328125,-0.73828125,-0.017578125,0.359375,0.0234375,-1.48828125,-10.19140625,0.46484375,1.0
633135,,,,,,,,-0.34765625,-0.78515625,-0.890625,-0.033203125,0.359375,0.0234375,-1.18359375,-10.3359375,0.3125,1.0
633136,,,,,,,,-0.26171875,-0.87109375,-0.921875,-0.03515625,0.34765625,0.017578125,-1.10546875,-10.4140625,0.2734375,1.0
633137,,,,,,,,0.12890625,-1.13671875,-0.99609375,-0.03515625,0.34375,0.013671875,-0.72265625,-10.68359375,0.19921875,1.0
633138,,,,,,,,0.2578125,-0.9453125,-0.7890625,-0.052734375,0.3515625,0.00390625,-0.609375,-10.49609375,0.390625,1.0
633139,,,,,,,,0.11328125,-0.71484375,-0.8203125,-0.07421875,0.361328125,-0.0078125,-0.76171875,-10.26171875,0.3515625,1.0
633140,36.013252333333334,129.3192801666667,61.31607290782071,94.5744715617924,1.0,206.0,,-0.19140625,-0.6796875,-0.8046875,0.26171875,0.361328125,0.013671875,-1.71875,-9.6484375,0.62109375,1.0
633141,,,,,,,,-0.453125,-0.87109375,-0.55859375,-0.16015625,0.375,-0.03125,-1.3359375,-10.4140625,0.58203125,1.0
633142,,,,,,,,-0.453125,-2.70703125,-0.6953125,-0.212890625,0.40625,-0.0546875,-1.3359375,-12.25,0.4296875,1.0
633143,,,,,,,,-0.375,-3.19921875,-0.7578125,-0.2265625,0.416015625,-0.072265625,-1.2578125,-12.75390625,0.3515625,1.0
633144,,,,,,,,0.19140625,-3.96484375,-0.796875,-0.2578125,0.47265625,-0.138671875,-0.68359375,-13.51953125,0.2734375,1.0
633145,,,,,,,,0.52734375,-3.46484375,-0.296875,-0.3046875,0.466796875,-0.1875,-0.33984375,-13.015625,0.734375,1.0
633146,,,,,,,,1.09375,-2.65234375,0.76953125,-0.392578125,0.408203125,-0.19921875,0.234375,-12.21484375,1.76953125,1.0
633147,,,,,,,,0.57421875,-2.33984375,1.95703125,-0.513671875,0.30859375,-0.16015625,-0.26171875,-11.91015625,2.87890625,1.0
633148,,,,,,,,0.44921875,-2.109375,2.2109375,-0.517578125,0.28515625,-0.12890625,-0.37890625,-11.6796875,3.109375,1.0
633149,,,,,,,,0.14453125,-1.55859375,2.3359375,-0.46875,0.28125,-0.0703125,-0.68359375,-11.140625,3.1875,1.0
633150,36.01325133333333,129.3192795,61.255974612092736,94.46351189657867,1.1,210.0,,-0.28515625,-1.51953125,2.34375,-0.451171875,0.34765625,-0.02734375,-1.10546875,-11.10546875,3.1484375,1.0
633151,,,,,,,,-0.890625,-1.51171875,2.8515625,-0.439453125,0.51171875,0.017578125,-1.71875,-11.1015625,3.609375,1.0
633152,,,,,,,,-1.3828125,-1.46484375,3.36328125,-0.248046875,0.744140625,0.029296875,-2.21875,-11.06640625,4.06640625,1.0
633153,,,,,,,,-1.14453125,-1.2265625,2.8046875,0.0546875,0.73828125,-0.00390625,-1.98828125,-10.8359375,3.4921875,1.0
633154,,,,,,,,-0.9453125,-0.9296875,2.14453125,0.25390625,0.662109375,-0.05859375,-1.796875,-10.53125,2.83984375,1.0
633155,,,,,,,,-0.71484375,-0.69921875,1.2421875,0.30859375,0.546875,-0.078125,-1.56640625,-10.30078125,1.9609375,1.0
633156,,,,,,,,-0.37890625,-0.9296875,1.40234375,0.3828125,0.34765625,-0.078125,-1.22265625,-10.53125,2.15234375,1.0
633157,,,,,,,,0.16015625,-0.9296875,1.70703125,0.521484375,0.193359375,-0.091796875,-0.68359375,-10.53515625,2.49609375,1.0
633158,,,,,,,,0.83203125,-0.8984375,2.00390625,0.5859375,0.115234375,-0.078125,0.00390625,-10.49609375,2.87890625,1.0
633159,,,,,,,,0.87890625,-0.78515625,1.53515625,0.47265625,0.109375,-0.001953125,0.04296875,-10.37890625,2.45703125,1.0
633160,36.013250666666664,129.3192786666667,61.1808512962003,94.38953854192137,1.1,215.0,,0.34375,-0.36328125,0.953125,-0.451171875,0.34765625,-0.02734375,-0.4921875,-9.953125,1.921875,1.0
633161,,,,,,,,-0.0625,-0.01953125,0.66015625,0.109375,-0.080078125,0.142578125,-0.9140625,-9.61328125,1.65234375,1.0
633162,,,,,,,,-0.1171875,0.25,0.5,0.068359375,-0.076171875,0.173828125,-0.9921875,-9.34375,1.5,1.0
633163,,,,,,,,-0.1015625,0.625,0.26171875,0.099609375,0.013671875,0.169921875,-0.9921875,-8.9609375,1.26953125,1.0
633164,,,,,,,,-0.125,1.125,0.09375,0.109375,0.078125,0.154296875,-1.03125,-8.4609375,1.1171875,1.0
633165,,,,,,,,-0.22265625,1.62109375,-0.10546875,0.130859375,0.087890625,0.126953125,-1.14453125,-7.96484375,0.92578125,1.0
633166,,,,,,,,-0.21484375,1.8515625,-0.11328125,0.150390625,0.068359375,0.099609375,-1.14453125,-7.73828125,0.92578125,1.0
633167,,,,,,,,0.03125,2.34765625,-0.2578125,0.220703125,0.041015625,0.076171875,-0.9140625,-7.234375,0.8125,1.0
633168,,,,,,,,0.4609375,2.6484375,-0.359375,0.275390625,0.0625,0.0625,-0.4921875,-6.93359375,0.734375,1.0
633169,,,,,,,,0.7265625,2.80078125,-0.57421875,0.330078125,0.12890625,0.072265625,-0.2265625,-6.77734375,0.54296875,1.0
633170,36.01324983333333,129.31927816666666,61.135777635316856,94.2970721897125,1.1,215.0,,1.1640625,2.83984375,-0.60546875,-0.451171875,0.34765625,-0.02734375,0.1953125,-6.734375,0.54296875,1.0
633171,,,,,,,,1.33203125,2.6796875,-0.59765625,0.349609375,0.2109375,0.12890625,0.34765625,-6.890625,0.58203125,1.0
633172,,,,,,,,1.42578125,2.37109375,-0.4453125,0.330078125,0.19921875,0.142578125,0.42578125,-7.19921875,0.7734375,1.0
633173,,,,,,,,1.40234375,2.05859375,-0.32421875,0.30859375,0.1796875,0.142578125,0.38671875,-7.50390625,0.92578125,1.0
633174,,,,,,,,1.2265625,1.8203125,-0.1953125,0.265625,0.169921875,0.1171875,0.1953125,-7.73828125,1.078125,1.0
633175,,,,,,,,1.05078125,1.703125,-0.2265625,0.171875,0.173828125,0.078125,0.00390625,-7.8515625,1.078125,1.0
633176,,,,,,,,1.01953125,1.734375,-0.234375,0.138671875,0.16015625,0.056640625,-0.03515625,-7.81640625,1.078125,1.0
633177,,,,,,,,0.875,1.8046875,-0.35546875,0.091796875,0.16796875,0.017578125,-0.1875,-7.73828125,0.96484375,1.0
633178,,,,,,,,0.80078125,1.91796875,-0.515625,0.06640625,0.177734375,-0.025390625,-0.26171875,-7.62109375,0.8125,1.0
633179,,,,,,,,0.72265625,1.765625,-0.640625,0.08984375,0.193359375,-0.072265625,-0.33984375,-7.77734375,0.6953125,1.0
633180,36.01324916666667,129.31927733333333,61.060654315166595,94.22309883599834,1.1,219.0,,0.5546875,1.61328125,-0.6953125,-0.451171875,0.34765625,-0.02734375,-0.4921875,-7.921875,0.65625,1.0
633181,,,,,,,,0.515625,1.4609375,-0.625,0.173828125,0.23046875,-0.134765625,-0.53125,-8.078125,0.734375,1.0
633182,,,,,,,,0.4296875,1.3828125,-0.6328125,0.189453125,0.240234375,-0.140625,-0.609375,-8.15625,0.734375,1.0
633183,,,,,,,,0.40625,0.6796875,-0.46484375,0.18359375,0.25,-0.16015625,-0.609375,-8.84375,0.92578125,1.0
633184,,,,,,,,0.46875,0.29296875,-0.328125,0.126953125,0.271484375,-0.17578125,-0.53125,-9.2265625,1.078125,1.0
633185,,,,,,,,0.453125,0.1796875,-0.41796875,0.076171875,0.27734375,-0.162109375,-0.53125,-9.34765625,1.00390625,1.0
633186,,,,,,,,0.4453125,0.1328125,-0.390625,0.064453125,0.2890625,-0.15234375,-0.53125,-9.3828125,1.0390625,1.0
633187,,,,,,,,0.4296875,0.01953125,-0.234375,0.04296875,0.28125,-0.11328125,-0.53125,-9.4921875,1.1953125,1.0
633188,,,,,,,,0.46875,-0.25,-0.12109375,0.044921875,0.29296875,-0.07421875,-0.4921875,-9.76953125,1.30859375,1.0
633189,,,,,,,,0.4609375,-0.40234375,-0.12109375,0.052734375,0.302734375,-0.0546875,-0.4921875,-9.91796875,1.30859375,1.0
633190,36.01324833333333,129.3192765,60.985531120248325,94.13063227548476,1.1,219.0,,0.3828125,-0.9375,-0.12109375,0.0625,0.314453125,-0.041015625,-0.5703125,-10.453125,1.30859375,1.0
633191,,,,,,,,0.3828125,-1.20703125,-0.28125,0.04296875,0.28515625,-0.017578125,-0.5703125,-10.71875,1.15625,1.0
633192,,,,,,,,0.390625,-1.17578125,-0.47265625,0.0078125,0.25,-0.013671875,-0.5703125,-10.6796875,0.96484375,1.0
633193,,,,,,,,0.390625,-1.13671875,-0.50390625,-0.015625,0.21875,-0.017578125,-0.5703125,-10.64453125,0.92578125,1.0
633194,,,,,,,,0.58203125,-0.71875,-0.50390625,-0.0625,0.146484375,-0.0234375,-0.37890625,-10.23046875,0.92578125,1.0
633195,,,,,,,,0.8125,-0.52734375,-0.57421875,-0.09765625,0.05078125,-0.033203125,-0.1484375,-10.03125,0.84765625,1.0
633196,,,,,,,,1.609375,-0.1796875,-0.83203125,-0.125,-0.0546875,-0.05078125,0.65625,-9.6875,0.58203125,1.0
633197,,,,,,,,1.9453125,-0.25,-0.75,-0.15625,-0.12890625,-0.0546875,1.0,-9.765625,0.65625,1.0
633198,,,,,,,,2.25390625,-0.671875,-0.7421875,-0.16796875,-0.1484375,-0.048828125,1.30859375,-10.19140625,0.65625,1.0
633199,,,,,,,,1.96875,-1.4765625,-0.78515625,-0.220703125,-0.126953125,-0.03125,1.0390625,-10.99609375,0.58203125,1.0
633200,36.013247666666665,129.31927566666667,60.91040779708567,94.05665892430572,1.2000000000000002,221.0,0.0,1.69140625,-1.93359375,-0.72265625,0.0625,0.314453125,-0.041015625,0.76953125,-11.44921875,0.62109375,1.0
633201,,,,,,,,1.6640625,-2.88671875,0.34765625,-0.333984375,0.02734375,0.0234375,0.734375,-12.41015625,1.65234375,1.0
633202,,,,,,,,-0.328125,-5.21484375,1.8359375,-0.4375,0.18359375,0.0234375,-1.2578125,-14.7421875,3.109375,1.0
633203,,,,,,,,-1.171875,-6.0546875,2.2421875,-0.4765625,0.271484375,0.0234375,-2.1015625,-15.5859375,3.4921875,1.0
633204,,,,,,,,-3.05078125,-4.9375,3.90625,-0.54296875,0.396484375,0.015625,-3.98046875,-14.48046875,5.1015625,1.0
633205,,,,,,,,-2.46875,-1.67578125,3.1640625,-0.544921875,0.4453125,0.0,-3.40625,-11.21875,4.296875,1.0
633206,,,,,,,,-1.1171875,-0.9296875,1.7109375,-0.642578125,0.802734375,-0.03515625,-2.0625,-10.4921875,2.765625,1.0
633207,,,,,,,,-0.078125,-1.3828125,2.1640625,-0.724609375,0.9375,-0.046875,-1.03125,-10.953125,3.1484375,1.0
633208,,,,,,,,0.57421875,-1.765625,2.85546875,-0.69921875,0.818359375,-0.025390625,-0.37890625,-11.33984375,3.80078125,1.0
633209,,,,,,,,1.1875,-1.87109375,3.60546875,-0.365234375,0.494140625,-0.025390625,0.234375,-11.44921875,4.48828125,1.0
633210,36.01324666666667,129.3192748333333,60.83528472471298,93.94569915760135,1.2000000000000002,219.0,,1.5703125,-1.03125,2.54296875,0.25,0.1953125,-0.00390625,0.6171875,-10.609375,3.41796875,1.0
633211,,,,,,,,1.234375,-0.45703125,1.55078125,0.361328125,0.13671875,0.072265625,0.2734375,-10.03125,2.45703125,1.0
633212,,,,,,,,0.4765625,-0.078125,0.984375,0.166015625,0.43359375,0.12890625,-0.4921875,-9.6484375,1.921875,1.0
633213,,,,,,,,0.12890625,-0.078125,1.0234375,0.115234375,0.60546875,0.1171875,-0.83984375,-9.6484375,1.9609375,1.0
633214,,,,,,,,-0.53515625,-0.1875,1.58984375,0.201171875,0.79296875,0.08203125,-1.52734375,-9.76953125,2.53515625,1.0
633215,,,,,,,,-1.02734375,-0.65625,2.171875,0.4140625,0.82421875,0.025390625,-2.02734375,-10.23046875,3.1484375,1.0
633216,,,,,,,,-0.75,-0.5390625,1.82421875,0.529296875,0.720703125,-0.041015625,-1.7578125,-10.11328125,2.83984375,1.0
633217,,,,,,,,-0.55859375,-0.05078125,1.2734375,0.34765625,0.578125,-0.115234375,-1.56640625,-9.609375,2.34375,1.0
633218,,,,,,,,-0.296875,0.41796875,0.67578125,0.234375,0.5390625,-0.154296875,-1.296875,-9.1484375,1.76953125,1.0
633219,,,,,,,,0.03125,1.22265625,0.28515625,0.044921875,0.455078125,-0.197265625,-0.953125,-8.34765625,1.38671875,1.0
633220,36.013245833333336,129.31927433333334,60.79021106429262,93.85323280708798,1.2000000000000002,217.0,,0.3515625,1.68359375,0.1015625,0.25,0.1953125,-0.00390625,-0.609375,-7.8828125,1.1953125,1.0
633221,,,,,,,,0.4921875,1.84375,0.19140625,0.189453125,0.232421875,-0.220703125,-0.453125,-7.73828125,1.30859375,1.0
633222,,,,,,,,0.58984375,2.07421875,0.0234375,0.2734375,0.21875,-0.19140625,-0.33984375,-7.5,1.15625,1.0
633223,,,,,,,,0.4609375,2.33984375,-0.1171875,0.2578125,0.244140625,-0.15625,-0.453125,-7.23828125,1.0390625,1.0
633224,,,,,,,,0.13671875,2.49609375,-0.15625,0.1640625,0.263671875,-0.12890625,-0.76171875,-7.078125,1.0390625,1.0
633225,,,,,,,,-0.26171875,2.45703125,-0.0859375,0.12890625,0.28125,-0.13671875,-1.14453125,-7.12109375,1.1171875,1.0
633226,,,,,,,,-0.5390625,2.49609375,-0.03125,0.1328125,0.25,-0.154296875,-1.4140625,-7.078125,1.1953125,1.0
633227,,,,,,,,-0.70703125,2.53125,-0.078125,0.126953125,0.21484375,-0.169921875,-1.56640625,-7.046875,1.15625,1.0
633228,,,,,,,,-0.796875,2.5703125,-0.203125,0.13671875,0.19140625,-0.177734375,-1.640625,-7.01171875,1.0390625,1.0
633229,,,,,,,,-0.73828125,2.41015625,-0.37890625,0.12109375,0.15234375,-0.173828125,-1.56640625,-7.16015625,0.88671875,1.0
633230,36.013245,129.31927366666665,60.730112628696105,93.76076635212713,1.1,218.0,,-0.828125,2.21875,-0.546875,0.25,0.1953125,-0.00390625,-0.609375,-7.8828125,1.1953125,1.0
633231,,,,,,,,-0.80859375,1.875,-0.5546875,0.140625,0.095703125,-0.1484375,-1.60546875,-7.69921875,0.734375,1.0
633232,,,,,,,,-0.77734375,1.796875,-0.484375,0.150390625,0.08203125,-0.130859375,-1.56640625,-7.77734375,0.8125,1.0
633233,,,,,,,,-0.44140625,1.7578125,-0.35546875,0.1640625,0.0546875,-0.10546875,-1.22265625,-7.8125,0.96484375,1.0
633234,,,,,,,,-0.37109375,1.7578125,-0.40234375,0.162109375,0.0546875,-0.08984375,-1.14453125,-7.8125,0.92578125,1.0
633235,,,,,,,,-0.1875,1.67578125,-0.46484375,0.158203125,0.091796875,-0.037109375,-0.953125,-7.8828125,0.88671875,1.0
633236,,,,,,,,-0.1015625,1.51171875,-0.625,0.140625,0.087890625,-0.0078125,-0.875,-8.0390625,0.734375,1.0
633237,,,,,,,,-0.109375,1.3984375,-0.6796875,0.126953125,0.068359375,0.001953125,-0.875,-8.16015625,0.6953125,1.0
633238,,,,,,,,-0.1015625,1.16015625,-0.80078125,0.126953125,0.0234375,0.015625,-0.875,-8.50390625,0.50390625,1.0
633239,,,,,,,,-0.1015625,1.0546875,-0.88671875,0.130859375,0.015625,0.017578125,-0.953125,-8.58203125,0.46484375,1.0
633240,36.01324433333333,129.31927283333334,60.65498930032861,93.68679300251905,1.1,219.0,,-0.828125,2.21875,-0.546875,0.150390625,0.017578125,0.017578125,-0.609375,-7.8828125,1.1953125,1.0
633241,,,,,,,,-0.2578125,0.5,-0.95703125,0.142578125,0.029296875,0.01171875,-1.03125,-9.04296875,0.46484375,1.0
633242,,,,,,,,-0.2578125,0.33984375,-0.84765625,0.130859375,0.029296875,0.01171875,-1.03125,-9.19140625,0.58203125,1.0
633243,,,,,,,,-0.21875,0.07421875,-0.71875,0.091796875,0.041015625,0.01171875,-0.9921875,-9.45703125,0.734375,1.0
633244,,,,,,,,-0.2109375,-0.125,-0.57421875,0.04296875,0.048828125,0.009765625,-0.9921875,-9.6484375,0.88671875,1.0
633245,,,,,,,,-0.1328125,-0.39453125,-0.6484375,0.01953125,0.0625,0.01171875,-0.9140625,-9.9140625,0.8125,1.0
633246,,,,,,,,-0.01171875,-0.625,-0.6875,0.009765625,0.072265625,0.0078125,-0.80078125,-10.15234375,0.7734375,1.0
633247,,,,,,,,0.06640625,-0.625,-0.61328125,0.013671875,0.078125,0.01171875,-0.72265625,-10.15234375,0.84765625,1.0
633248,,,,,,,,0.11328125,-0.671875,-0.58203125,0.029296875,0.0859375,0.00390625,-0.68359375,-10.19140625,0.88671875,1.0
633249,,,,,,,,0.15234375,-0.671875,-0.62109375,0.01953125,0.087890625,0.00390625,-0.64453125,-10.19140625,0.84765625,1.0
633250,36.01324366666667,129.31927183333335,60.56484120310819,93.61281955013304,1.1,224.0,,0.1875,-0.74609375,-0.734375,0.009765625,0.091796875,0.0,-0.609375,-10.26171875,0.734375,1.0
633251,,,,,,,,0.1796875,-0.79296875,-0.88671875,-0.013671875,0.12109375,-0.009765625,-0.609375,-10.30078125,0.58203125,1.0
633252,,,,,,,,0.1796875,-0.79296875,-0.88671875,-0.0234375,0.125,-0.013671875,-0.609375,-10.30078125,0.58203125,1.0
633253,,,,,,,,0.06640625,-0.41015625,-0.84765625,-0.03515625,0.154296875,-0.03125,-0.72265625,-9.91796875,0.62109375,1.0
633254,,,,,,,,-0.2421875,-0.140625,-0.87890625,-0.052734375,0.1875,-0.04296875,-1.03125,-9.6484375,0.58203125,1.0
633255,,,,,,,,-0.890625,0.31640625,-0.86328125,-0.111328125,0.234375,-0.060546875,-1.6796875,-9.1875,0.58203125,1.0
633256,,,,,,,,-1.3515625,0.43359375,-0.55078125,-0.15234375,0.244140625,-0.064453125,-2.140625,-9.0703125,0.88671875,1.0
633257,,,,,,,,-1.96484375,-0.06640625,0.0390625,-0.21875,0.263671875,-0.0703125,-2.75390625,-9.5703125,1.4609375,1.0
633258,,,,,,,,-1.8203125,-1.16796875,-0.359375,-0.216796875,0.287109375,-0.068359375,-2.6015625,-10.6796875,1.0390625,1.0
633259,,,,,,,,-1.3984375,-1.55078125,-0.6953125,-0.224609375,0.294921875,-0.072265625,-2.1796875,-11.06640625,0.6953125,1.0
633260,36.013243,129.31927083333332,60.474693099533596,93.53884609859244,1.2000000000000002,228.0,,-0.71484375,-1.92578125,-0.73046875,0.009765625,0.091796875,0.0,-0.609375,-10.26171875,0.734375,1.0
633261,,,,,,,,0.9296875,-2.1953125,1.13671875,-0.373046875,0.173828125,-0.046875,0.15625,-11.71875,2.45703125,1.0
633262,,,,,,,,2.1640625,-4.33203125,1.97265625,-0.564453125,0.005859375,-0.00390625,1.3828125,-13.859375,3.22265625,1.0
633263,,,,,,,,2.5390625,-5.13671875,2.3046875,-0.609375,-0.05859375,0.009765625,1.765625,-14.6640625,3.53125,1.0
633264,,,,,,,,2.5390625,-3.85546875,3.515625,-0.67578125,-0.181640625,0.06640625,1.765625,-13.40234375,4.6796875,1.0
633265,,,,,,,,2.05078125,-3.2734375,3.6953125,-0.640625,-0.19140625,0.08203125,1.26953125,-12.83203125,4.796875,1.0
633266,,,,,,,,1.17578125,-3.15234375,3.640625,-0.669921875,-0.193359375,0.10546875,0.38671875,-12.7109375,4.6796875,1.0
633267,,,,,,,,-0.53125,-2.76171875,4.27734375,-0.71484375,-0.09765625,0.1015625,-1.3359375,-12.33203125,5.25390625,1.0
633268,,,,,,,,-0.9140625,-2.64453125,4.26953125,-0.669921875,-0.05078125,0.072265625,-1.71875,-12.21484375,5.21484375,1.0
633269,,,,,,,,-1.03125,-1.91015625,2.5703125,-0.146484375,-0.029296875,-0.033203125,-1.8359375,-11.48828125,3.453125,1.0
633270,36.01324233333333,129.31926966666666,60.36952022881124,93.46487254404676,1.2000000000000002,231.0,,-1.0390625,-0.68359375,1.29296875,0.224609375,-0.0625,-0.12890625,-1.8359375,-10.2578125,2.19140625,1.0
633271,,,,,,,,-1.16796875,-0.21875,0.953125,0.388671875,-0.1484375,-0.17578125,-1.94921875,-9.8046875,1.8828125,1.0
633272,,,,,,,,-1.046875,-0.25390625,0.73046875,0.6171875,-0.39453125,-0.158203125,-1.796875,-9.83984375,1.73046875,1.0
633273,,,,,,,,-0.44921875,-0.578125,0.8828125,0.65625,-0.490234375,-0.11328125,-1.18359375,-10.15234375,1.9609375,1.0
633274,,,,,,,,-0.03515625,-0.578125,0.93359375,0.525390625,-0.419921875,-0.01953125,-0.76171875,-10.15234375,2.07421875,1.0
633275,,,,,,,,-0.03515625,-0.1953125,0.56640625,0.25390625,-0.373046875,0.13671875,-0.76171875,-9.765625,1.76953125,1.0
633276,,,,,,,,0.125,0.33984375,0.20703125,0.046875,-0.462890625,0.216796875,-0.609375,-9.2265625,1.42578125,1.0
633277,,,,,,,,0.44921875,0.91015625,-0.03125,-0.0859375,-0.552734375,0.287109375,-0.30078125,-8.6484375,1.1953125,1.0
633278,,,,,,,,0.81640625,1.21484375,-0.21484375,-0.10546875,-0.552734375,0.318359375,0.04296875,-8.34765625,1.00390625,1.0
633279,,,,,,,,1.03125,1.25390625,-0.40625,-0.076171875,-0.552734375,0.318359375,0.234375,-8.30859375,0.8125,1.0
