time,latitude,longitude,enu_x,enu_y,speed,course,ecg,accX,accY,accZ,gyrX,gyrY,gyrZ,eulR,eulP,eulY,validity
658190,36.0132335,129.3192155,55.4864766269242,92.48470033786569,1.1,215.0,,-0.55859375,-0.32421875,2.04296875,-0.330078125,-0.259765625,0.220703125,-0.83984375,-9.38671875,3.33984375,1.0
658191,,,,,,,,0.5,0.609375,1.62109375,-0.265625,-0.291015625,0.220703125,0.3125,-8.92578125,2.7265625,1.0
658192,,,,,,,,0.9296875,0.6484375,1.40625,-0.333984375,-0.314453125,0.23046875,0.734375,-9.109375,2.61328125,1.0
658193,,,,,,,,1.86328125,-0.1171875,1.5078125,-0.35546875,-0.357421875,0.197265625,1.1171875,-10.03125,2.99609375,1.0
658194,,,,,,,,1.7578125,-0.46484375,1.72265625,-0.22265625,-0.373046875,0.189453125,0.88671875,-10.0703125,3.0703125,1.0
658195,,,,,,,,1.234375,-0.45703125,1.69921875,0.162109375,-0.412109375,0.109375,0.15625,-10.03515625,2.765625,1.0
658196,,,,,,,,0.66796875,-0.4921875,1.4140625,0.1484375,-0.470703125,0.05078125,-0.109375,-10.1875,2.6875,1.0
658197,,,,,,,,0.5546875,-0.609375,1.3984375,0.0546875,-0.46484375,0.009765625,-0.1875,-10.2578125,2.6875,1.0
658198,,,,,,,,0.23828125,-0.9140625,1.5078125,-0.126953125,-0.244140625,-0.064453125,-0.5703125,-10.609375,2.91796875,1.0
658199,,,,,,,,0.0703125,-1.03125,1.62890625,-0.08984375,-0.16796875,-0.083984375,-0.875,-10.57421875,3.109375,1.0
658200,36.0132325,129.31921499999999,55.44140301503653,92.37374080720423,1.1,212.0,0.0,-0.55859375,-0.32421875,2.04296875,0.005859375,-0.083984375,-0.126953125,-0.9921875,-10.1875,3.0703125,1.0
658201,,,,,,,,-0.3515625,-0.25390625,1.3984375,-0.048828125,-0.08203125,-0.140625,-0.953125,-9.7265625,2.61328125,1.0
658202,,,,,,,,-0.3203125,-0.02734375,1.140625,-0.12109375,-0.041015625,-0.171875,-0.875,-9.609375,2.3046875,1.0
658203,,,,,,,,-0.22265625,0.01953125,0.91796875,-0.109375,-0.013671875,-0.2109375,-0.68359375,-9.61328125,2.11328125,1.0
658204,,,,,,,,-0.0546875,0.05859375,0.734375,-0.015625,-0.056640625,-0.2421875,-0.37890625,-9.265625,1.80859375,1.0
658205,,,,,,,,0.26171875,0.44921875,0.41796875,0.0546875,-0.119140625,-0.26171875,-0.1875,-9.04296875,1.6171875,1.0
658206,,,,,,,,0.3203125,0.5625,0.34375,0.0703125,-0.146484375,-0.26171875,-0.0703125,-8.921875,1.5390625,1.0
658207,,,,,,,,0.51171875,1.0703125,0.10546875,0.052734375,-0.18359375,-0.265625,0.08203125,-8.3828125,1.30859375,1.0
658208,,,,,,,,0.52734375,1.33203125,0.09765625,0.033203125,-0.224609375,-0.259765625,0.12109375,-8.12109375,1.38671875,1.0
658209,,,,,,,,0.53515625,1.68359375,0.05859375,0.03515625,-0.28125,-0.23828125,0.12109375,-7.92578125,1.34765625,1.0
658210,36.01323183333333,129.31921483333332,55.426378711604585,92.2997678811998,0.9,211.0,,0.50390625,1.953125,-0.03515625,0.005859375,-0.083984375,-0.126953125,-0.9921875,-10.1875,3.0703125,1.0
658211,,,,,,,,0.44140625,2.10546875,-0.00390625,0.064453125,-0.330078125,-0.212890625,0.08203125,-7.50390625,1.30859375,1.0
658212,,,,,,,,0.2265625,2.3359375,-0.1640625,0.078125,-0.33984375,-0.216796875,-0.109375,-7.27734375,1.15625,1.0
658213,,,,,,,,0.00390625,2.48828125,-0.171875,0.091796875,-0.349609375,-0.21875,-0.30078125,-7.12109375,1.15625,1.0
658214,,,,,,,,-0.3359375,2.41796875,-0.265625,0.09765625,-0.373046875,-0.22265625,-0.609375,-7.1953125,1.078125,1.0
658215,,,,,,,,-0.48046875,2.21875,-0.39453125,0.103515625,-0.40234375,-0.2265625,-0.72265625,-7.39453125,0.96484375,1.0
658216,,,,,,,,-0.56640625,2.14453125,-0.36328125,0.099609375,-0.40234375,-0.224609375,-0.80078125,-7.4609375,1.00390625,1.0
658217,,,,,,,,-0.703125,1.8359375,-0.296875,0.125,-0.41015625,-0.2109375,-0.9140625,-7.77734375,1.078125,1.0
658218,,,,,,,,-0.7734375,1.64453125,-0.265625,0.125,-0.396484375,-0.1953125,-0.953125,-7.96484375,1.1171875,1.0
658219,,,,,,,,-0.7734375,1.59765625,-0.2890625,0.15234375,-0.375,-0.138671875,-0.9140625,-8.0,1.1171875,1.0
658220,36.013231166666664,129.31921483333332,55.4263791780344,92.22579505080891,0.8,213.0,,-0.68359375,1.70703125,-0.51171875,0.1484375,-0.349609375,-0.072265625,-0.80078125,-7.88671875,0.92578125,1.0
658221,,,,,,,,-0.56640625,1.70703125,-0.6328125,0.140625,-0.349609375,-0.048828125,-0.68359375,-7.8828125,0.8125,1.0
658222,,,,,,,,-0.34375,1.0859375,-0.7890625,0.171875,-0.3515625,0.064453125,-0.453125,-8.50390625,0.6953125,1.0
658223,,,,,,,,-0.31640625,0.6953125,-0.8046875,0.201171875,-0.36328125,0.08984375,-0.41796875,-8.8828125,0.6953125,1.0
658224,,,,,,,,-0.15234375,0.2734375,-0.58984375,0.203125,-0.3984375,0.111328125,-0.26171875,-9.3046875,0.92578125,1.0
658225,,,,,,,,-0.15234375,0.1484375,-0.60546875,0.19140625,-0.421875,0.1171875,-0.26171875,-9.421875,0.92578125,1.0
658226,,,,,,,,-0.109375,-0.00390625,-0.57421875,0.17578125,-0.439453125,0.12109375,-0.2265625,-9.5703125,0.96484375,1.0
658227,,,,,,,,0.08984375,0.06640625,-0.60546875,0.095703125,-0.494140625,0.12890625,-0.03515625,-9.49609375,0.96484375,1.0
658228,,,,,,,,0.12890625,0.21875,-0.68359375,0.068359375,-0.513671875,0.12890625,0.00390625,-9.34765625,0.88671875,1.0
658229,,,,,,,,0.28125,0.296875,-0.796875,0.0078125,-0.541015625,0.12890625,0.15625,-9.265625,0.7734375,1.0
658230,36.013230666666665,129.3192145,55.396329985145705,92.17031523787654,0.7000000000000001,214.0,,0.28125,0.21875,-0.921875,0.1484375,-0.349609375,-0.072265625,0.15625,-9.34765625,0.65625,1.0
658231,,,,,,,,0.40625,0.25,-0.7578125,-0.015625,-0.544921875,0.107421875,0.2734375,-9.30859375,0.8125,1.0
658232,,,,,,,,0.703125,0.1328125,-0.796875,0.017578125,-0.513671875,0.09765625,0.578125,-9.421875,0.7734375,1.0
658233,,,,,,,,0.75,-0.05859375,-0.8828125,0.07421875,-0.470703125,0.078125,0.6171875,-9.61328125,0.6953125,1.0
658234,,,,,,,,0.55859375,-0.25,-0.9375,0.095703125,-0.44140625,0.064453125,0.42578125,-9.8046875,0.65625,1.0
658235,,,,,,,,0.12890625,-0.44921875,-0.74609375,0.056640625,-0.408203125,0.041015625,0.00390625,-9.9921875,0.84765625,1.0
658236,,,,,,,,-0.0234375,-0.5234375,-0.71484375,0.046875,-0.400390625,0.02734375,-0.1484375,-10.07421875,0.88671875,1.0
658237,,,,,,,,-0.453125,-0.5234375,-0.7890625,0.041015625,-0.376953125,-0.0078125,-0.5703125,-10.0703125,0.8125,1.0
658238,,,,,,,,-0.5,-0.41015625,-0.875,0.00390625,-0.345703125,-0.029296875,-0.609375,-9.95703125,0.734375,1.0
658239,,,,,,,,-0.54296875,-0.1875,-1.05859375,-0.060546875,-0.298828125,-0.052734375,-0.64453125,-9.73046875,0.54296875,1.0
658240,36.01322966666667,129.31921433333335,55.381305916487975,92.0593558981009,0.9,209.0,,-0.70703125,0.01171875,-1.08984375,0.1484375,-0.349609375,-0.072265625,0.15625,-9.34765625,0.65625,1.0
658241,,,,,,,,-1.06640625,0.15625,-0.99609375,-0.162109375,-0.216796875,-0.0546875,-1.14453125,-9.38671875,0.58203125,1.0
658242,,,,,,,,-1.37890625,0.1171875,-0.70703125,-0.216796875,-0.166015625,-0.0078125,-1.44921875,-9.42578125,0.84765625,1.0
658243,,,,,,,,-1.765625,0.01171875,-0.4140625,-0.248046875,-0.1171875,0.046875,-1.8359375,-9.53515625,1.1171875,1.0
658244,,,,,,,,-2.0234375,-0.5234375,-0.58203125,-0.287109375,-0.07421875,0.08203125,-2.1015625,-10.0703125,0.92578125,1.0
658245,,,,,,,,-1.86328125,-0.86328125,-0.703125,-0.330078125,-0.080078125,0.09765625,-1.94921875,-10.4140625,0.7734375,1.0
658246,,,,,,,,-1.78515625,-1.0546875,-0.7578125,-0.35546875,-0.099609375,0.09765625,-1.87109375,-10.609375,0.6953125,1.0
658247,,,,,,,,-1.47265625,-1.50390625,-0.14453125,-0.40234375,-0.20703125,0.087890625,-1.56640625,-11.0625,1.26953125,1.0
658248,,,,,,,,-0.66015625,-3.18359375,0.203125,-0.44921875,-0.359375,0.060546875,-0.76171875,-12.75390625,1.578125,1.0
658249,,,,,,,,0.296875,-5.01171875,0.171875,-0.50390625,-0.541015625,0.04296875,0.1953125,-14.58984375,1.5,1.0
658250,36.01322883333333,129.31921383333335,55.33623218703645,91.9668895751014,1.0,209.0,,2.05078125,-5.50390625,1.59765625,-0.595703125,-0.732421875,0.046875,1.95703125,-15.0859375,2.87890625,1.0
658251,,,,,,,,3.0390625,-3.7734375,2.57421875,-0.62890625,-0.900390625,0.107421875,2.953125,-13.3671875,3.76171875,1.0
658252,,,,,,,,2.390625,-2.38671875,2.09765625,-0.640625,-0.935546875,0.142578125,2.3046875,-11.984375,3.26171875,1.0
658253,,,,,,,,0.671875,-3.02734375,2.24609375,-0.693359375,-1.0546875,0.220703125,0.578125,-12.63671875,3.33984375,1.0
658254,,,,,,,,0.18359375,-3.44921875,2.58203125,-0.716796875,-1.111328125,0.251953125,0.08203125,-13.0546875,3.64453125,1.0
658255,,,,,,,,-0.55859375,-3.82421875,3.14453125,-0.705078125,-1.107421875,0.248046875,-0.68359375,-13.4375,4.10546875,1.0
658256,,,,,,,,-0.71484375,-3.625,3.17578125,-0.552734375,-1.072265625,0.263671875,-0.83984375,-13.25390625,4.10546875,1.0
658257,,,,,,,,-0.7421875,-2.546875,2.6640625,0.052734375,-0.90625,0.189453125,-0.875,-12.1796875,3.5703125,1.0
658258,,,,,,,,-0.49609375,-1.55078125,1.8359375,0.27734375,-0.875,0.083984375,-0.64453125,-11.18359375,2.765625,1.0
658259,,,,,,,,-0.46875,-0.20703125,0.73046875,0.20703125,-1.2890625,-0.015625,-0.609375,-9.8359375,1.69140625,1.0
658260,36.01322783333333,129.3192135,55.30618334114725,91.85593013993946,1.1,208.0,,-0.34375,0.328125,0.4375,0.59375,-1.6015625,-0.015625,-0.453125,-9.30859375,1.4609375,1.0
658261,,,,,,,,0.40625,0.51171875,0.25390625,0.814453125,-1.662109375,0.05859375,0.3125,-9.109375,1.34765625,1.0
658262,,,,,,,,1.2109375,0.50390625,0.08984375,0.896484375,-1.560546875,0.166015625,1.1171875,-9.109375,1.26953125,1.0
658263,,,,,,,,1.40234375,0.609375,0.00390625,0.822265625,-1.349609375,0.294921875,1.30859375,-9.00390625,1.26953125,1.0
658264,,,,,,,,1.37890625,0.86328125,-0.1875,0.650390625,-1.20703125,0.421875,1.26953125,-8.73046875,1.15625,1.0
658265,,,,,,,,1.1796875,1.66796875,-0.51171875,0.4375,-1.1953125,0.505859375,1.0390625,-7.921875,0.88671875,1.0
658266,,,,,,,,1.2265625,1.8203125,-0.56640625,0.337890625,-1.232421875,0.5390625,1.078125,-7.77734375,0.84765625,1.0
658267,,,,,,,,1.37890625,2.3125,-0.75,0.20703125,-1.2890625,0.5703125,1.19140625,-7.2734375,0.6953125,1.0
658268,,,,,,,,1.53515625,2.46484375,-0.8046875,0.1640625,-1.24609375,0.5546875,1.30859375,-7.1171875,0.65625,1.0
658269,,,,,,,,1.6015625,2.5703125,-0.90234375,0.1640625,-1.181640625,0.509765625,1.34375,-7.0078125,0.58203125,1.0
658270,36.01322716666667,129.31921316666666,55.27613426205861,91.78195712097549,0.9,208.0,,1.6796875,2.6484375,-0.97265625,0.177734375,-1.158203125,0.4375,1.3828125,-6.93359375,0.54296875,1.0
658271,,,,,,,,1.734375,2.44921875,-1.109375,0.15625,-1.1796875,0.3984375,1.421875,-7.12109375,0.4296875,1.0
658272,,,,,,,,1.89453125,2.2265625,-1.15625,0.138671875,-1.17578125,0.37890625,1.57421875,-7.3515625,0.390625,1.0
658273,,,,,,,,2.2265625,1.98828125,-1.2578125,0.1171875,-1.130859375,0.353515625,1.8828125,-7.58203125,0.3125,1.0
658274,,,,,,,,2.39453125,1.94921875,-1.3046875,0.1171875,-1.091796875,0.349609375,2.03515625,-7.6171875,0.2734375,1.0
658275,,,,,,,,2.5703125,1.484375,-1.44140625,0.126953125,-1.00390625,0.326171875,2.1875,-8.078125,0.16015625,1.0
658276,,,,,,,,2.5390625,1.24609375,-1.37109375,0.12109375,-0.958984375,0.318359375,2.1484375,-8.3046875,0.23828125,1.0
658277,,,,,,,,2.47265625,1.12890625,-1.34375,0.11328125,-0.94140625,0.3125,2.07421875,-8.42578125,0.2734375,1.0
658278,,,,,,,,2.25,0.86328125,-1.01171875,0.068359375,-0.8984375,0.26171875,1.65234375,-8.84765625,0.7734375,1.0
658279,,,,,,,,2.06640625,0.703125,-0.8671875,0.052734375,-0.873046875,0.234375,1.57421875,-8.92578125,0.92578125,1.0
658280,36.01322616666666,129.31921300000002,55.261110191928964,91.67099777988872,0.9,205.0,,1.6796875,2.6484375,-0.97265625,0.06640625,-0.724609375,0.162109375,1.5,-9.0703125,1.1953125,1.0
658281,,,,,,,,1.84375,0.30859375,-0.5078125,0.1015625,-0.591796875,0.1171875,1.4609375,-9.34765625,1.15625,1.0
658282,,,,,,,,1.9140625,0.07421875,-0.59375,0.146484375,-0.46484375,0.07421875,1.65234375,-9.6484375,1.078125,1.0
658283,,,,,,,,2.1796875,-0.2734375,-0.609375,0.1875,-0.357421875,0.048828125,1.8828125,-9.9921875,1.1171875,1.0
658284,,,,,,,,2.2578125,-0.46484375,-0.5078125,0.208984375,-0.298828125,0.0546875,1.69140625,-9.9140625,1.34765625,1.0
658285,,,,,,,,2.01953125,-0.30859375,-0.37109375,0.234375,-0.232421875,0.060546875,1.53515625,-9.8046875,1.42578125,1.0
658286,,,,,,,,1.94140625,-0.28125,-0.30859375,0.236328125,-0.19921875,0.05859375,1.53515625,-9.69140625,1.4609375,1.0
658287,,,,,,,,1.94140625,-0.08984375,-0.5234375,0.23828125,-0.1640625,0.06640625,1.57421875,-9.5703125,1.1171875,1.0
658288,,,,,,,,1.8984375,-0.01953125,-0.7421875,0.234375,-0.087890625,0.064453125,1.4609375,-9.53125,0.92578125,1.0
658289,,,,,,,,1.71484375,0.05078125,-0.87890625,0.2578125,0.03125,0.0625,1.19140625,-9.4921875,0.88671875,1.0
658290,36.013225166666665,129.31921300000002,55.26111088982556,91.56003853465991,0.9,195.0,,1.6796875,2.6484375,-0.97265625,0.27734375,0.134765625,0.064453125,0.84765625,-9.4921875,0.88671875,1.0
658291,,,,,,,,1.18359375,-0.03515625,-0.92578125,0.255859375,0.1640625,0.080078125,0.6171875,-9.53125,0.92578125,1.0
658292,,,,,,,,0.95703125,-0.12109375,-0.90234375,0.212890625,0.171875,0.099609375,0.2734375,-9.7265625,0.96484375,1.0
658293,,,,,,,,0.6953125,-0.234375,-0.91796875,0.16796875,0.1875,0.1015625,0.12109375,-9.8359375,0.96484375,1.0
658294,,,,,,,,0.3671875,-0.51171875,-0.96484375,0.03125,0.24609375,0.1171875,-0.30078125,-10.15234375,0.92578125,1.0
658295,,,,,,,,0.03515625,-0.7421875,-0.90234375,-0.025390625,0.3125,0.125,-0.53125,-10.1875,1.0390625,1.0
658296,,,,,,,,-0.22265625,-0.51171875,-0.62109375,-0.095703125,0.36328125,0.1328125,-0.72265625,-9.875,1.42578125,1.0
658297,,,,,,,,-0.23046875,-0.2421875,-0.3359375,-0.255859375,0.32421875,0.150390625,-0.609375,-9.42578125,1.80859375,1.0
658298,,,,,,,,-0.1171875,0.0625,-0.05078125,-0.3125,0.275390625,0.15234375,-0.53125,-9.3828125,1.8828125,1.0
658299,,,,,,,,0.2890625,-0.3203125,-0.2109375,-0.3984375,0.17578125,0.1484375,-0.1875,-10.2265625,1.38671875,1.0
658300,36.013224,129.31921333333332,55.29116124540408,91.43058626967903,1.1,185.0,0.0,1.6796875,2.6484375,-0.97265625,-0.431640625,0.119140625,0.146484375,-0.30078125,-11.06640625,1.078125,1.0
658301,,,,,,,,-0.13671875,-2.171875,-0.44921875,-0.41015625,0.08984375,0.15234375,-1.10546875,-11.68359375,1.578125,1.0
658302,,,,,,,,-1.1640625,-1.8984375,1.0078125,-0.373046875,0.041015625,0.1484375,-1.71875,-11.41796875,2.6875,1.0
658303,,,,,,,,-1.9140625,-2.2421875,2.1875,-0.390625,-0.041015625,0.15625,-2.484375,-11.76171875,3.8359375,1.0
658304,,,,,,,,-2.16796875,-3.11328125,2.6953125,-0.6171875,-0.15234375,0.1796875,-2.75390625,-12.6328125,4.296875,1.0
658305,,,,,,,,-2.3515625,-3.0625,3.42578125,-0.9296875,-0.248046875,0.185546875,-2.9453125,-12.60546875,4.94921875,1.0
658306,,,,,,,,-2.3515625,-2.9765625,3.5859375,-1.001953125,-0.240234375,0.166015625,-2.9453125,-12.52734375,5.0625,1.0
658307,,,,,,,,-1.8828125,-2.1171875,3.51953125,-0.77734375,-0.18359375,0.068359375,-2.484375,-11.6796875,4.87109375,1.0
658308,,,,,,,,-1.1171875,-1.6796875,3.70703125,-0.650390625,-0.3203125,0.103515625,-1.71875,-11.2578125,4.98828125,1.0
658309,,,,,,,,0.0,-1.0234375,3.4140625,-0.712890625,-0.548828125,0.09765625,-0.609375,-10.61328125,4.640625,1.0
658310,36.013223,129.31921383333335,55.33623626418753,91.31962730865689,1.0,179.0,,0.26953125,-0.5546875,3.01953125,-0.5,-0.662109375,0.072265625,-0.30078125,-11.06640625,1.078125,1.0
658311,,,,,,,,0.84375,0.01953125,2.58203125,-0.109375,-0.724609375,0.109375,0.234375,-9.57421875,3.72265625,1.0
658312,,,,,,,,0.73046875,-0.046875,1.80859375,0.1328125,-0.7109375,0.123046875,0.12109375,-9.65234375,2.95703125,1.0
658313,,,,,,,,0.1171875,-0.43359375,1.890625,0.28515625,-0.623046875,0.140625,-0.4921875,-10.03515625,3.0703125,1.0
658314,,,,,,,,-0.22265625,-0.44140625,2.234375,0.42578125,-0.45703125,0.1015625,-0.83984375,-10.03515625,3.453125,1.0
658315,,,,,,,,-0.2578125,-0.37109375,2.07421875,0.427734375,-0.388671875,0.0546875,-0.875,-9.95703125,3.33984375,1.0
658316,,,,,,,,-0.265625,-0.32421875,1.90625,0.380859375,-0.384765625,0.01171875,-0.875,-9.91796875,3.1875,1.0
658317,,,,,,,,-0.12109375,0.01171875,1.3359375,0.181640625,-0.416015625,-0.046875,-0.72265625,-9.5703125,2.6484375,1.0
658318,,,,,,,,0.0546875,0.203125,1.0234375,-0.060546875,-0.455078125,-0.09375,-0.53125,-9.3828125,2.34375,1.0
658319,,,,,,,,0.30859375,0.328125,0.6015625,-0.18359375,-0.50390625,-0.162109375,-0.26171875,-9.26953125,1.921875,1.0
658320,36.013222000000006,129.31921416666668,55.36628650705012,91.20866825232511,1.0,177.0,,0.4296875,0.52734375,0.2734375,-0.146484375,-0.603515625,-0.22265625,-0.109375,-9.0703125,1.578125,1.0
658321,,,,,,,,0.50390625,0.5703125,0.12890625,-0.119140625,-0.6328125,-0.23828125,0.00390625,-9.0390625,1.42578125,1.0
658322,,,,,,,,0.51953125,0.7265625,0.09765625,-0.1328125,-0.625,-0.25,0.04296875,-8.88671875,1.38671875,1.0
658323,,,,,,,,0.81640625,1.34765625,-0.34765625,-0.166015625,-0.595703125,-0.234375,0.38671875,-8.26953125,0.92578125,1.0
658324,,,,,,,,0.88671875,1.57421875,-0.4453125,-0.18359375,-0.5546875,-0.212890625,0.50390625,-8.04296875,0.8125,1.0
658325,,,,,,,,0.70703125,1.8125,-0.546875,-0.154296875,-0.548828125,-0.20703125,0.34765625,-7.81640625,0.6953125,1.0
658326,,,,,,,,0.5234375,1.96875,-0.4609375,-0.0859375,-0.5625,-0.21875,0.1953125,-7.66015625,0.7734375,1.0
658327,,,,,,,,0.2421875,2.08984375,-0.30859375,-0.05078125,-0.576171875,-0.224609375,-0.0703125,-7.5390625,0.92578125,1.0
658328,,,,,,,,-0.13671875,2.203125,-0.26953125,-0.001953125,-0.611328125,-0.232421875,-0.41796875,-7.43359375,0.96484375,1.0
658329,,,,,,,,-0.37890625,2.16796875,-0.1953125,0.00390625,-0.626953125,-0.234375,-0.64453125,-7.46484375,1.0390625,1.0
658330,36.013221333333334,129.31921416666668,55.36628697315735,91.13469542059528,0.8,177.0,,-0.41015625,2.12890625,-0.1640625,-0.146484375,-0.603515625,-0.22265625,-0.109375,-9.0703125,1.578125,1.0
658331,,,,,,,,-0.44921875,2.12890625,-0.32421875,0.0,-0.6640625,-0.22265625,-0.64453125,-7.50390625,0.92578125,1.0
658332,,,,,,,,-0.58984375,2.2421875,-0.40234375,0.04296875,-0.630859375,-0.21875,-0.76171875,-7.39453125,0.84765625,1.0
658333,,,,,,,,-0.66796875,2.08203125,-0.36328125,0.1015625,-0.615234375,-0.193359375,-0.80078125,-7.5390625,0.88671875,1.0
658334,,,,,,,,-0.73046875,1.96875,-0.41796875,0.158203125,-0.611328125,-0.154296875,-0.83984375,-7.66015625,0.84765625,1.0
658335,,,,,,,,-0.56640625,1.765625,-0.6484375,0.212890625,-0.64453125,-0.08203125,-0.64453125,-7.8515625,0.65625,1.0
658336,,,,,,,,-0.4609375,1.8046875,-0.6171875,0.212890625,-0.646484375,-0.05859375,-0.53125,-7.81640625,0.6953125,1.0
658337,,,,,,,,-0.27734375,1.9140625,-0.5625,0.20703125,-0.623046875,-0.013671875,-0.33984375,-7.69921875,0.7734375,1.0
658338,,,,,,,,-0.0546875,1.953125,-0.625,0.16796875,-0.623046875,0.060546875,-0.109375,-7.66015625,0.734375,1.0
658339,,,,,,,,0.08984375,1.63671875,-0.83984375,0.16796875,-0.650390625,0.103515625,0.04296875,-7.9609375,0.54296875,1.0
658340,36.01322066666667,129.31921433333335,55.38131221217303,91.06072268558022,0.8,172.0,,0.203125,1.21484375,-0.89453125,-0.146484375,-0.603515625,-0.22265625,-0.109375,-9.0703125,1.578125,1.0
658341,,,,,,,,0.2890625,0.7109375,-0.640625,0.123046875,-0.673828125,0.1640625,0.234375,-8.88671875,0.7734375,1.0
658342,,,,,,,,0.10546875,0.203125,-0.58203125,0.064453125,-0.67578125,0.16796875,0.04296875,-9.38671875,0.84765625,1.0
658343,,,,,,,,0.15234375,0.05078125,-0.47265625,0.048828125,-0.673828125,0.171875,0.08203125,-9.53125,0.96484375,1.0
658344,,,,,,,,0.03515625,-0.25390625,-0.2890625,-0.02734375,-0.65625,0.16015625,-0.03515625,-9.8359375,1.15625,1.0
658345,,,,,,,,0.11328125,-0.5625,-0.16015625,-0.087890625,-0.658203125,0.146484375,0.04296875,-10.15234375,1.26953125,1.0
658346,,,,,,,,0.3046875,-0.640625,-0.15234375,-0.138671875,-0.666015625,0.134765625,0.234375,-10.23046875,1.26953125,1.0
658347,,,,,,,,0.390625,-0.6484375,-0.25,-0.177734375,-0.650390625,0.11328125,0.3125,-10.2265625,1.15625,1.0
658348,,,,,,,,0.3984375,-0.609375,-0.2890625,-0.1953125,-0.646484375,0.10546875,0.3125,-10.1875,1.1171875,1.0
658349,,,,,,,,0.390625,-0.5234375,-0.37890625,-0.185546875,-0.634765625,0.09375,0.3125,-10.109375,1.00390625,1.0
658350,36.0132195,129.31921466666665,55.41136257113094,90.9312704211533,1.0,169.0,,0.2421875,-0.41015625,-0.5546875,-0.146484375,-0.603515625,-0.22265625,0.15625,-9.99609375,0.8125,1.0
658351,,,,,,,,0.19140625,-0.1796875,-0.6953125,-0.0859375,-0.580078125,0.05078125,0.12109375,-9.76953125,0.65625,1.0
658352,,,,,,,,0.02734375,0.05078125,-0.84765625,-0.0703125,-0.55859375,0.03125,-0.03515625,-9.53515625,0.50390625,1.0
658353,,,,,,,,-0.515625,0.2421875,-1.0625,-0.095703125,-0.458984375,0.001953125,-0.5703125,-9.34765625,0.2734375,1.0
658354,,,,,,,,-0.8671875,0.35546875,-0.96875,-0.166015625,-0.43359375,0.00390625,-0.9140625,-9.23046875,0.3515625,1.0
658355,,,,,,,,-1.2578125,0.203125,-0.83203125,-0.236328125,-0.390625,0.015625,-1.296875,-9.3828125,0.46484375,1.0
658356,,,,,,,,-1.375,-0.02734375,-0.74609375,-0.279296875,-0.375,0.02734375,-1.4140625,-9.609375,0.54296875,1.0
658357,,,,,,,,-1.6796875,-0.8984375,-0.67578125,-0.3515625,-0.349609375,0.046875,-1.71875,-10.4921875,0.58203125,1.0
658358,,,,,,,,-1.44921875,-1.6640625,-0.21484375,-0.466796875,-0.3671875,0.05859375,-1.48828125,-11.2578125,1.00390625,1.0
658359,,,,,,,,-1.3359375,-2.125,0.07421875,-0.513671875,-0.388671875,0.06640625,-1.375,-11.72265625,1.26953125,1.0
658360,36.01321866666667,129.31921466666665,55.41136315447943,90.83880438343593,1.0,169.0,,-0.484375,-4.03125,0.8828125,-0.62109375,-0.49609375,0.080078125,-0.53125,-13.6328125,2.0,1.0
658361,,,,,,,,0.85546875,-6.859375,1.21875,-0.732421875,-0.607421875,0.087890625,0.80859375,-16.47265625,2.265625,1.0
658362,,,,,,,,1.31640625,-7.42578125,1.328125,-0.80859375,-0.6640625,0.08984375,1.26953125,-17.04296875,2.34375,1.0
658363,,,,,,,,2.89453125,-4.30859375,2.45703125,-0.953125,-0.77734375,0.125,2.83984375,-13.94140625,3.37890625,1.0
658364,,,,,,,,2.625,-2.15625,1.9765625,-0.978515625,-0.875,0.162109375,2.5703125,-11.796875,2.8046875,1.0
658365,,,,,,,,0.51171875,-2.33203125,2.98828125,-0.869140625,-1.033203125,0.255859375,0.42578125,-11.984375,3.64453125,1.0
658366,,,,,,,,-0.62890625,-3.01953125,3.57421875,-0.78515625,-1.05078125,0.240234375,-0.72265625,-12.67578125,4.18359375,1.0
658367,,,,,,,,-1.234375,-3.48046875,3.97265625,-0.419921875,-1.009765625,0.193359375,-1.3359375,-13.13671875,4.52734375,1.0
658368,,,,,,,,-1.45703125,-2.8984375,2.9453125,0.2265625,-0.8671875,0.087890625,-1.56640625,-12.56640625,3.4921875,1.0
658369,,,,,,,,-1.3046875,-2.4765625,2.35546875,0.365234375,-0.857421875,0.03125,-1.4140625,-12.140625,2.91796875,1.0
658370,36.0132175,129.31921483333332,55.42638874597033,90.7093520253363,1.1,167.0,,-0.9296875,-0.90625,1.3203125,-0.62109375,-0.49609375,0.080078125,-1.03125,-10.57421875,1.921875,1.0
658371,,,,,,,,-0.8203125,0.08984375,1.42578125,0.310546875,-1.34765625,-0.0078125,-0.9140625,-9.57421875,2.07421875,1.0
658372,,,,,,,,-0.63671875,0.08984375,1.1796875,0.40234375,-1.416015625,0.02734375,-0.72265625,-9.57421875,1.84375,1.0
658373,,,,,,,,-0.30078125,0.05078125,1.05078125,0.673828125,-1.50390625,0.08984375,-0.37890625,-9.609375,1.76953125,1.0
658374,,,,,,,,0.0,0.2421875,0.97265625,0.78125,-1.505859375,0.123046875,-0.0703125,-9.42578125,1.73046875,1.0
658375,,,,,,,,0.2421875,0.3125,0.578125,0.859375,-1.345703125,0.27734375,0.15625,-9.34765625,1.4609375,1.0
658376,,,,,,,,0.53515625,0.6484375,0.1171875,0.6953125,-1.310546875,0.390625,0.42578125,-9.00390625,1.078125,1.0
658377,,,,,,,,0.65234375,1.37109375,0.03125,0.29296875,-1.369140625,0.48046875,0.50390625,-8.26953125,1.078125,1.0
658378,,,,,,,,0.78125,1.4453125,-0.0234375,0.197265625,-1.39453125,0.501953125,0.6171875,-8.1953125,1.0390625,1.0
658379,,,,,,,,1.02734375,1.75390625,-0.0078125,0.107421875,-1.486328125,0.525390625,0.80859375,-7.8828125,1.078125,1.0
658380,36.01321666666667,129.31921483333332,55.42638932948349,90.616885986718,1.0,167.0,,1.1953125,1.7890625,-0.08984375,0.087890625,-1.505859375,0.5234375,0.9609375,-7.8515625,1.00390625,1.0
658381,,,,,,,,1.57421875,2.05859375,-0.24609375,0.041015625,-1.49609375,0.505859375,1.30859375,-7.58203125,0.84765625,1.0
658382,,,,,,,,1.58984375,2.2109375,-0.2890625,0.0234375,-1.482421875,0.50390625,1.30859375,-7.43359375,0.8125,1.0
658383,,,,,,,,1.765625,2.40234375,-0.65234375,0.017578125,-1.462890625,0.4765625,1.4609375,-7.23828125,0.46484375,1.0
658384,,,,,,,,1.89453125,2.48046875,-0.65234375,0.029296875,-1.45703125,0.466796875,1.57421875,-7.15625,0.46484375,1.0
658385,,,,,,,,2.04296875,2.48046875,-0.7421875,0.0703125,-1.447265625,0.45703125,1.69140625,-7.16015625,0.390625,1.0
658386,,,,,,,,2.41015625,2.328125,-0.7890625,0.095703125,-1.408203125,0.455078125,2.03515625,-7.3125,0.3515625,1.0
658387,,,,,,,,2.578125,2.2109375,-0.8359375,0.11328125,-1.380859375,0.44921875,2.1875,-7.43359375,0.3125,1.0
658388,,,,,,,,2.71875,2.01171875,-0.8203125,0.1328125,-1.326171875,0.462890625,2.3046875,-7.6171875,0.3515625,1.0
658389,,,,,,,,2.6015625,1.8125,-0.73046875,0.10546875,-1.259765625,0.462890625,2.1484375,-7.81640625,0.46484375,1.0
658390,36.01321600000001,129.31921499999999,55.44141456958331,90.54291325168376,0.9,165.0,,2.19921875,1.84375,-0.5703125,0.056640625,-1.203125,0.392578125,1.69140625,-7.77734375,0.65625,1.0
658391,,,,,,,,2.05859375,1.72265625,-0.5078125,0.068359375,-1.13671875,0.35546875,1.53515625,-7.8828125,0.734375,1.0
658392,,,,,,,,2.10546875,1.53125,-0.4375,0.103515625,-1.037109375,0.30078125,1.57421875,-8.08203125,0.8125,1.0
658393,,,,,,,,2.12109375,1.29296875,-0.4609375,0.140625,-0.935546875,0.25390625,1.57421875,-8.3046875,0.8125,1.0
658394,,,,,,,,2.25390625,0.94921875,-0.515625,0.154296875,-0.841796875,0.205078125,1.69140625,-8.65234375,0.7734375,1.0
658395,,,,,,,,2.25390625,0.6796875,-0.65625,0.15625,-0.765625,0.171875,1.69140625,-8.92578125,0.65625,1.0
658396,,,,,,,,2.25390625,0.51953125,-0.69921875,0.14453125,-0.734375,0.15234375,1.69140625,-9.07421875,0.62109375,1.0
658397,,,,,,,,2.13671875,-0.01953125,-0.76171875,0.12109375,-0.638671875,0.1171875,1.57421875,-9.609375,0.58203125,1.0
658398,,,,,,,,1.90625,-0.37109375,-0.6640625,0.10546875,-0.546875,0.09765625,1.19140625,-10.11328125,0.92578125,1.0
658399,,,,,,,,1.74609375,-0.5234375,-0.43359375,0.109375,-0.5078125,0.083984375,1.19140625,-10.109375,1.00390625,1.0
658400,36.013214999999995,129.3192155,55.4864895927308,90.43195428907538,1.1,155.0,0.0,2.19921875,1.84375,-0.5703125,0.119140625,-0.421875,0.0625,1.0390625,-10.07421875,1.234375,1.0
658401,,,,,,,,1.59375,-0.45703125,-0.203125,0.130859375,-0.3359375,0.0390625,0.9609375,-9.953125,1.234375,1.0
658402,,,,,,,,1.5078125,-0.234375,-0.25,0.130859375,-0.234375,0.015625,0.9609375,-9.8046875,1.1171875,1.0
658403,,,,,,,,1.5390625,-0.38671875,-0.390625,0.1171875,-0.185546875,0.0078125,0.9609375,-10.0703125,1.00390625,1.0
658404,,,,,,,,1.37890625,-0.77734375,-0.671875,0.10546875,-0.16015625,0.001953125,0.84765625,-10.33984375,0.7734375,1.0
658405,,,,,,,,1.1796875,-0.9296875,-0.8046875,0.083984375,-0.19921875,-0.00390625,0.65625,-10.4921875,0.65625,1.0
658406,,,,,,,,0.8359375,-0.890625,-0.83203125,0.068359375,-0.228515625,-0.005859375,0.3125,-10.453125,0.62109375,1.0
658407,,,,,,,,0.4375,-0.69921875,-0.8046875,0.02734375,-0.279296875,-0.01171875,-0.0703125,-10.2578125,0.65625,1.0
658408,,,,,,,,0.23828125,-0.546875,-0.62109375,-0.01171875,-0.287109375,-0.01171875,-0.26171875,-10.11328125,0.84765625,1.0
658409,,,,,,,,0.11328125,-0.125,-0.390625,-0.05859375,-0.263671875,-0.017578125,-0.37890625,-9.69140625,1.078125,1.0
658410,36.01321433333333,129.31921633333334,55.56161393003284,90.35798193400694,1.1,148.0,,0.13671875,0.37109375,-0.375,0.119140625,-0.421875,0.0625,-0.33984375,-9.19140625,1.078125,1.0
658411,,,,,,,,0.328125,0.44921875,-0.359375,-0.18359375,-0.275390625,0.001953125,-0.1484375,-9.11328125,1.078125,1.0
658412,,,,,,,,0.6953125,-0.234375,-0.6484375,-0.232421875,-0.296875,0.0234375,0.234375,-9.8046875,0.7734375,1.0
658413,,,,,,,,0.734375,-0.6171875,-0.6796875,-0.23828125,-0.3046875,0.03515625,0.2734375,-10.19140625,0.734375,1.0
658414,,,,,,,,0.46484375,-1.45703125,0.03515625,-0.240234375,-0.31640625,0.0546875,0.00390625,-11.0234375,1.42578125,1.0
658415,,,,,,,,0.03515625,-1.84375,0.70703125,-0.234375,-0.333984375,0.091796875,-0.41796875,-11.41796875,2.07421875,1.0
658416,,,,,,,,-0.60546875,-2.0625,2.07421875,-0.283203125,-0.34765625,0.11328125,-1.06640625,-11.64453125,3.41796875,1.0
658417,,,,,,,,-1.06640625,-2.8984375,2.546875,-0.603515625,-0.3984375,0.15234375,-1.52734375,-12.48828125,3.8359375,1.0
658418,,,,,,,,-1.3671875,-3.7734375,2.76953125,-0.771484375,-0.416015625,0.16015625,-1.8359375,-13.37109375,4.02734375,1.0
658419,,,,,,,,-1.82421875,-4.03125,3.73828125,-0.9609375,-0.376953125,0.123046875,-2.29296875,-13.63671875,4.91015625,1.0
658420,36.013213666666665,129.319217,55.62171349262519,90.28400948384453,1.1,140.0,,-1.81640625,-3.56640625,4.0234375,0.119140625,-0.421875,0.0625,-0.33984375,-9.19140625,1.078125,1.0
658421,,,,,,,,-1.25,-2.3984375,3.90234375,-0.73828125,-0.509765625,0.05859375,-1.71875,-12.02734375,4.87109375,1.0
658422,,,,,,,,-0.1015625,-1.28125,3.57421875,-0.673828125,-0.73046875,0.0546875,-0.5703125,-10.9140625,4.44921875,1.0
658423,,,,,,,,0.84765625,-0.796875,2.53515625,-0.392578125,-0.8359375,0.07421875,0.38671875,-10.45703125,3.33984375,1.0
658424,,,,,,,,0.93359375,-0.72265625,2.3984375,-0.212890625,-0.8515625,0.080078125,0.46484375,-10.37890625,3.1875,1.0
658425,,,,,,,,0.93359375,-0.60546875,2.12890625,0.14453125,-0.845703125,0.087890625,0.46484375,-10.26171875,2.91796875,1.0
658426,,,,,,,,0.6171875,-0.578125,2.09765625,0.375,-0.755859375,0.078125,0.15625,-10.23046875,2.91796875,1.0
658427,,,,,,,,0.46484375,-0.5,2.11328125,0.42578125,-0.708984375,0.0625,0.00390625,-10.15234375,2.95703125,1.0
658428,,,,,,,,0.265625,-0.34765625,1.94921875,0.388671875,-0.654296875,0.046875,-0.1875,-9.9921875,2.83984375,1.0
658429,,,,,,,,0.3046875,-0.30859375,1.8125,0.322265625,-0.634765625,0.015625,-0.1484375,-9.95703125,2.7265625,1.0
658430,36.013213,129.3192175,55.666788285029796,90.21003693848837,1.0,137.0,,0.48828125,-0.0390625,1.484375,0.119140625,-0.421875,0.0625,-0.33984375,-9.19140625,1.078125,1.0
658431,,,,,,,,0.88671875,0.3828125,1.015625,-0.0234375,-0.7109375,-0.111328125,0.46484375,-9.26953125,1.9609375,1.0
658432,,,,,,,,0.94921875,0.53515625,0.890625,-0.115234375,-0.76953125,-0.1640625,0.54296875,-9.11328125,1.84375,1.0
658433,,,,,,,,1.0234375,0.7734375,0.48828125,-0.166015625,-0.84375,-0.203125,0.65625,-8.88671875,1.42578125,1.0
658434,,,,,,,,0.9140625,1.0390625,0.15625,-0.19140625,-0.89453125,-0.2265625,0.578125,-8.62109375,1.078125,1.0
658435,,,,,,,,0.71484375,1.39453125,0.08984375,-0.177734375,-0.927734375,-0.232421875,0.42578125,-8.26953125,1.00390625,1.0
658436,,,,,,,,0.66015625,1.62109375,-0.01953125,-0.171875,-0.92578125,-0.236328125,0.38671875,-8.04296875,0.88671875,1.0
658437,,,,,,,,0.57421875,1.9765625,-0.1171875,-0.150390625,-0.81640625,-0.19140625,0.34765625,-7.6953125,0.7734375,1.0
658438,,,,,,,,0.390625,2.05078125,-0.109375,-0.140625,-0.736328125,-0.1640625,0.1953125,-7.62109375,0.7734375,1.0
658439,,,,,,,,0.30859375,2.05859375,-0.1015625,-0.140625,-0.708984375,-0.142578125,0.12109375,-7.62109375,0.7734375,1.0
658440,36.013212833333334,129.319218,55.71186272381324,90.19154401749918,0.9,132.0,,0.0078125,1.8671875,0.03515625,-0.109375,-0.7109375,-0.107421875,-0.1484375,-7.81640625,0.88671875,1.0
658441,,,,,,,,-0.27734375,1.67578125,0.12109375,-0.0859375,-0.755859375,-0.099609375,-0.41796875,-8.0,0.96484375,1.0
658442,,,,,,,,-0.375,1.67578125,0.07421875,-0.05078125,-0.791015625,-0.099609375,-0.4921875,-8.0,0.92578125,1.0
658443,,,,,,,,-0.46875,1.68359375,0.07421875,-0.033203125,-0.802734375,-0.095703125,-0.5703125,-8.00390625,0.92578125,1.0
658444,,,,,,,,-0.56640625,1.8671875,-0.0390625,0.044921875,-0.826171875,-0.0859375,-0.64453125,-7.81640625,0.8125,1.0
658445,,,,,,,,-0.62109375,2.0234375,-0.0859375,0.103515625,-0.828125,-0.06640625,-0.68359375,-7.66015625,0.7734375,1.0
658446,,,,,,,,-0.67578125,2.0234375,-0.21875,0.1796875,-0.83984375,-0.041015625,-0.72265625,-7.65625,0.65625,1.0
658447,,,,,,,,-0.76171875,2.015625,-0.35546875,0.23828125,-0.833984375,0.013671875,-0.80078125,-7.65625,0.54296875,1.0
658448,,,,,,,,-0.69140625,2.015625,-0.30078125,0.310546875,-0.82421875,0.0703125,-0.72265625,-7.66015625,0.62109375,1.0
658449,,,,,,,,-0.5,2.08203125,-0.34765625,0.37109375,-0.798828125,0.123046875,-0.53125,-7.578125,0.62109375,1.0
658450,36.01321233333333,129.31921849999998,55.75693739550445,90.13606467984813,0.9,129.0,,-0.26171875,2.08203125,-0.65625,0.4140625,-0.775390625,0.181640625,-0.30078125,-7.578125,0.3515625,1.0
658451,,,,,,,,0.2421875,1.5390625,-0.7578125,0.4296875,-0.767578125,0.234375,0.1953125,-8.12109375,0.3125,1.0
658452,,,,,,,,0.3359375,1.21484375,-0.796875,0.400390625,-0.779296875,0.28125,0.2734375,-8.42578125,0.3125,1.0
658453,,,,,,,,0.54296875,0.6796875,-0.56640625,0.376953125,-0.78515625,0.291015625,0.46484375,-8.96484375,0.58203125,1.0
658454,,,,,,,,0.55078125,0.51953125,-0.5078125,0.373046875,-0.79296875,0.28515625,0.46484375,-9.11328125,0.65625,1.0
658455,,,,,,,,0.52734375,0.05859375,-0.23828125,0.31640625,-0.7890625,0.302734375,0.42578125,-9.5703125,0.96484375,1.0
658456,,,,,,,,0.58203125,-0.0234375,-0.0390625,0.21875,-0.767578125,0.294921875,0.46484375,-9.6484375,1.1953125,1.0
658457,,,,,,,,0.62890625,-0.1015625,-0.1640625,0.154296875,-0.779296875,0.28515625,0.50390625,-9.7265625,1.078125,1.0
658458,,,,,,,,0.7265625,-0.1484375,-0.2109375,0.037109375,-0.78515625,0.263671875,0.578125,-9.765625,1.0390625,1.0
658459,,,,,,,,0.7734375,-0.1796875,-0.2109375,-0.017578125,-0.78515625,0.255859375,0.6171875,-9.8046875,1.0390625,1.0
658460,36.01321166666666,129.31921933333334,55.832061739723216,90.06209232699749,1.1,128.0,,1.125,-0.4453125,-0.203125,0.4140625,-0.775390625,0.181640625,0.9609375,-10.07421875,1.0390625,1.0
658461,,,,,,,,1.33203125,-0.68359375,-0.0390625,-0.056640625,-0.67578125,0.154296875,1.15234375,-10.296875,1.1953125,1.0
658462,,,,,,,,1.2578125,-0.76171875,0.07421875,-0.046875,-0.650390625,0.1328125,1.078125,-10.375,1.30859375,1.0
658463,,,,,,,,0.8671875,-0.68359375,0.07421875,-0.052734375,-0.580078125,0.08984375,0.6953125,-10.296875,1.30859375,1.0
658464,,,,,,,,0.4921875,-0.53125,0.04296875,-0.072265625,-0.533203125,0.064453125,0.3125,-10.15234375,1.26953125,1.0
658465,,,,,,,,-0.015625,-0.0390625,-0.21484375,-0.083984375,-0.4765625,0.03125,-0.1875,-9.65234375,1.00390625,1.0
658466,,,,,,,,-0.17578125,0.15234375,-0.25390625,-0.091796875,-0.431640625,0.03515625,-0.33984375,-9.45703125,0.96484375,1.0
658467,,,,,,,,-0.75,0.6953125,-0.31640625,-0.15234375,-0.26953125,0.01171875,-0.9140625,-8.921875,0.88671875,1.0
658468,,,,,,,,-1.1328125,0.7734375,-0.30078125,-0.17578125,-0.169921875,-0.0078125,-1.296875,-8.84375,0.88671875,1.0
658469,,,,,,,,-1.29296875,0.7734375,-0.33203125,-0.17578125,-0.126953125,-0.015625,-1.44921875,-8.84375,0.84765625,1.0
658470,36.013211166666665,129.31922,55.89216118923939,90.00661308678767,1.1,127.0,,1.125,-0.4453125,-0.203125,-0.201171875,-0.05078125,-0.013671875,-2.140625,-8.58203125,1.1171875,1.0
658471,,,,,,,,-2.19140625,0.96484375,0.12890625,-0.267578125,-0.037109375,0.0,-2.37109375,-8.80859375,1.234375,1.0
658472,,,,,,,,-2.3359375,0.65625,-0.0703125,-0.349609375,-0.0390625,0.025390625,-2.5234375,-9.2265625,1.00390625,1.0
658473,,,,,,,,-2.3828125,-0.1015625,-0.265625,-0.43359375,-0.087890625,0.041015625,-2.484375,-10.03125,0.92578125,1.0
658474,,,,,,,,-2.22265625,-1.05859375,0.0234375,-0.54296875,-0.22265625,0.068359375,-2.1796875,-11.18359375,1.234375,1.0
658475,,,,,,,,-1.06640625,-3.6953125,0.41015625,-0.595703125,-0.38671875,0.06640625,-1.22265625,-13.328125,1.34765625,1.0
658476,,,,,,,,0.890625,-6.68359375,0.42578125,-0.658203125,-0.48828125,0.076171875,0.734375,-16.3125,1.30859375,1.0
658477,,,,,,,,2.34375,-6.8671875,1.79296875,-0.705078125,-0.611328125,0.109375,2.1875,-16.5078125,2.61328125,1.0
658478,,,,,,,,5.984375,-4.40625,4.0,-0.701171875,-0.845703125,0.166015625,5.828125,-14.05859375,4.7578125,1.0
658479,,,,,,,,5.46484375,-3.48046875,4.18359375,-0.734375,-1.2265625,0.21484375,5.29296875,-13.13671875,4.87109375,1.0
658480,36.013210666666666,129.31922066666667,55.952260641441995,89.95113384596918,1.0,125.0,,1.80078125,-3.546875,3.86328125,-0.201171875,-0.05078125,-0.013671875,1.61328125,-13.21484375,4.44921875,1.0
658481,,,,,,,,0.73828125,-3.546875,4.01171875,-0.84765625,-1.80078125,0.2265625,0.54296875,-13.2109375,4.56640625,1.0
658482,,,,,,,,-0.8359375,-2.0,2.390625,-0.365234375,-1.8984375,0.130859375,-1.03125,-11.68359375,2.8046875,1.0
658483,,,,,,,,-0.71875,-0.921875,1.64453125,0.35546875,-0.783203125,-0.1171875,-0.9140625,-10.609375,2.07421875,1.0
658484,,,,,,,,-0.51171875,0.15234375,1.484375,0.498046875,-0.810546875,-0.16796875,-0.68359375,-9.53515625,1.9609375,1.0
658485,,,,,,,,-0.18359375,0.45703125,1.26953125,0.625,-1.236328125,-0.142578125,-0.33984375,-9.23046875,1.80859375,1.0
658486,,,,,,,,0.3359375,0.48828125,1.16015625,0.703125,-1.376953125,-0.111328125,0.1953125,-9.19140625,1.73046875,1.0
658487,,,,,,,,0.7734375,0.296875,1.12890625,0.822265625,-1.341796875,-0.025390625,0.65625,-9.38671875,1.76953125,1.0
658488,,,,,,,,1.078125,0.06640625,1.15625,0.83203125,-1.24609375,0.02734375,0.9609375,-9.609375,1.84375,1.0
658489,,,,,,,,1.1953125,0.17578125,0.96484375,0.744140625,-1.060546875,0.162109375,1.078125,-9.49609375,1.73046875,1.0
658490,36.01321,129.3192215,56.027384986580216,89.87716149475364,0.9,127.0,,1.01171875,0.671875,0.65625,-0.201171875,-0.05078125,-0.013671875,0.88671875,-9.0,1.4609375,1.0
658491,,,,,,,,0.875,1.28515625,0.25,0.423828125,-0.919921875,0.36328125,0.734375,-8.38671875,1.1171875,1.0
658492,,,,,,,,0.8125,1.546875,0.12109375,0.287109375,-0.91796875,0.416015625,0.65625,-8.1171875,1.00390625,1.0
658493,,,,,,,,0.8125,2.19921875,-0.2421875,0.056640625,-0.990234375,0.490234375,0.6171875,-7.4609375,0.65625,1.0
658494,,,,,,,,1.01171875,2.43359375,-0.36328125,-0.021484375,-0.94921875,0.505859375,0.76953125,-7.23828125,0.54296875,1.0
658495,,,,,,,,1.43359375,2.47265625,-0.28515625,0.0234375,-0.875,0.46484375,1.15234375,-7.1953125,0.62109375,1.0
658496,,,,,,,,1.44921875,2.42578125,-0.33984375,0.048828125,-0.845703125,0.439453125,1.15234375,-7.23828125,0.58203125,1.0
658497,,,,,,,,1.51953125,2.2734375,-0.234375,0.029296875,-0.87109375,0.390625,1.19140625,-7.390625,0.6953125,1.0
658498,,,,,,,,1.7890625,2.0078125,-0.5,-0.076171875,-0.955078125,0.333984375,1.421875,-7.66015625,0.4296875,1.0
658499,,,,,,,,1.91015625,2.04296875,-0.6484375,-0.14453125,-0.970703125,0.3125,1.53515625,-7.6171875,0.2734375,1.0
658500,36.01320966666666,129.319222,56.07245954604613,89.84017536669096,0.8,124.0,0.0,2.12890625,2.08203125,-0.79296875,-0.201171875,-0.05078125,-0.013671875,1.73046875,-7.578125,0.12109375,1.0
658501,,,,,,,,2.3359375,2.04296875,-0.82421875,-0.095703125,-0.892578125,0.287109375,1.921875,-7.6171875,0.08203125,1.0
658502,,,,,,,,2.41796875,1.9296875,-0.8671875,-0.037109375,-0.88671875,0.287109375,1.99609375,-7.734375,0.046875,1.0
658503,,,,,,,,2.44140625,1.73828125,-0.79296875,0.01171875,-0.8828125,0.25390625,1.99609375,-7.921875,0.12109375,1.0
658504,,,,,,,,2.234375,1.4609375,-0.6484375,0.05078125,-0.830078125,0.21484375,1.765625,-8.19921875,0.2734375,1.0
658505,,,,,,,,2.04296875,1.26953125,-0.46484375,0.068359375,-0.7578125,0.18359375,1.57421875,-8.38671875,0.46484375,1.0
658506,,,,,,,,1.859375,1.1953125,-0.43359375,0.06640625,-0.71484375,0.15625,1.3828125,-8.4609375,0.50390625,1.0
658507,,,,,,,,1.515625,0.96484375,-0.296875,0.048828125,-0.619140625,0.12109375,1.0390625,-8.69140625,0.65625,1.0
658508,,,,,,,,1.515625,0.3828125,-0.2265625,0.044921875,-0.423828125,0.08203125,1.0390625,-9.265625,0.734375,1.0
658509,,,,,,,,1.515625,0.11328125,-0.15625,0.064453125,-0.326171875,0.046875,1.0390625,-9.53515625,0.8125,1.0
658510,36.01320916666667,129.31922266666666,56.13255899867757,89.784696129205,0.9,121.0,,1.35546875,-0.125,-0.08984375,0.0859375,-0.244140625,0.033203125,0.88671875,-9.765625,0.88671875,1.0
658511,,,,,,,,1.23828125,-0.19921875,0.01953125,0.126953125,-0.154296875,0.015625,0.76953125,-9.83984375,1.00390625,1.0
658512,,,,,,,,1.078125,-0.23046875,0.1875,0.15234375,-0.08984375,0.017578125,0.6171875,-9.87890625,1.1953125,1.0
658513,,,,,,,,1.078125,-0.23828125,0.25390625,0.15625,-0.056640625,0.009765625,0.6171875,-9.875,1.26953125,1.0
658514,,,,,,,,0.92578125,-0.046875,0.35546875,0.185546875,-0.02734375,0.00390625,0.46484375,-9.69140625,1.38671875,1.0
658515,,,,,,,,0.87890625,0.05859375,0.21484375,0.255859375,0.056640625,-0.00390625,0.42578125,-9.57421875,1.26953125,1.0
658516,,,,,,,,0.87890625,0.05078125,-0.08203125,0.29296875,0.103515625,0.0,0.42578125,-9.5703125,1.00390625,1.0
658517,,,,,,,,0.87109375,-0.140625,-0.26953125,0.302734375,0.09375,0.001953125,0.42578125,-9.76953125,0.84765625,1.0
658518,,,,,,,,0.83203125,-0.1796875,-0.24609375,0.30859375,0.087890625,-0.005859375,0.38671875,-9.8046875,0.88671875,1.0
658519,,,,,,,,0.7109375,-0.33984375,-0.27734375,0.30078125,0.0390625,-0.009765625,0.2734375,-9.95703125,0.88671875,1.0
658520,36.013208999999996,129.31922383333333,56.23773254174464,89.76620359251183,1.0,112.0,,0.47265625,-0.53125,-0.18359375,0.0859375,-0.244140625,0.033203125,0.04296875,-10.1484375,1.00390625,1.0
658521,,,,,,,,0.28125,-0.6171875,-0.0625,0.265625,-0.119140625,0.001953125,-0.1484375,-10.2265625,1.15625,1.0
658522,,,,,,,,0.265625,-0.203125,0.08984375,0.15625,-0.146484375,0.01171875,-0.1484375,-9.8046875,1.34765625,1.0
658523,,,,,,,,0.34375,0.14453125,0.08203125,0.068359375,-0.1328125,0.017578125,-0.0703125,-9.45703125,1.34765625,1.0
658524,,,,,,,,0.80078125,0.71875,0.04296875,-0.0234375,-0.15234375,0.0390625,0.38671875,-8.8828125,1.30859375,1.0
658525,,,,,,,,1.17578125,0.86328125,0.16015625,-0.09375,-0.193359375,0.048828125,0.76953125,-8.73046875,1.42578125,1.0
658526,,,,,,,,1.53125,0.2890625,0.01171875,-0.12109375,-0.220703125,0.0546875,1.1171875,-9.3046875,1.26953125,1.0
658527,,,,,,,,1.3671875,-0.77734375,-0.35546875,-0.13671875,-0.296875,0.07421875,0.9609375,-10.37890625,0.88671875,1.0
658528,,,,,,,,0.79296875,-1.84765625,0.296875,-0.1328125,-0.3515625,0.099609375,0.38671875,-11.44921875,1.5390625,1.0
658529,,,,,,,,0.14453125,-1.2734375,1.65234375,-0.1484375,-0.404296875,0.130859375,-0.26171875,-10.875,2.87890625,1.0
658530,36.01320916666667,129.31922466666668,56.31285630018926,89.78469728322605,1.0,104.0,,-0.23046875,-1.46484375,1.859375,-0.201171875,-0.39453125,0.158203125,-0.64453125,-11.06640625,3.0703125,1.0
658531,,,,,,,,-0.453125,-2.53125,2.3125,-0.365234375,-0.341796875,0.19140625,-0.875,-12.14453125,3.4921875,1.0
658532,,,,,,,,-1.625,-3.328125,3.15625,-0.701171875,-0.3046875,0.23046875,-2.0625,-12.94921875,4.296875,1.0
658533,,,,,,,,-1.92578125,-2.984375,3.91796875,-0.8828125,-0.19921875,0.212890625,-2.37109375,-12.6015625,4.98828125,1.0
658534,,,,,,,,-1.6796875,-2.20703125,3.734375,-0.72265625,-0.1015625,0.15625,-2.140625,-11.828125,4.71875,1.0
658535,,,,,,,,-1.13671875,-1.81640625,3.47265625,-0.49609375,-0.05078125,0.130859375,-1.60546875,-11.44921875,4.41015625,1.0
658536,,,,,,,,-0.27734375,-1.6171875,3.375,-0.599609375,-0.10546875,0.16796875,-0.76171875,-11.26171875,4.2578125,1.0
658537,,,,,,,,0.3828125,-1.41796875,3.27734375,-0.677734375,-0.181640625,0.125,-0.109375,-11.06640625,4.10546875,1.0
658538,,,,,,,,0.8046875,-1.6015625,2.8359375,-0.462890625,-0.306640625,0.14453125,0.3125,-11.2578125,3.609375,1.0
658539,,,,,,,,0.89453125,-1.7109375,2.3984375,-0.1171875,-0.431640625,0.16015625,0.38671875,-11.375,3.1484375,1.0
658540,36.01320916666667,129.31922566666665,56.40300494776804,89.78469786141261,1.0,100.0,,0.7890625,-1.44921875,2.23828125,-0.201171875,-0.39453125,0.158203125,-0.64453125,-11.06640625,3.0703125,1.0
658541,,,,,,,,0.61328125,-0.875,2.22265625,0.177734375,-0.369140625,0.16796875,0.08203125,-10.53515625,2.99609375,1.0
658542,,,,,,,,0.57421875,-0.72265625,2.20703125,0.189453125,-0.31640625,0.146484375,0.04296875,-10.37890625,2.99609375,1.0
658543,,,,,,,,0.54296875,-0.37890625,1.953125,0.17578125,-0.279296875,0.107421875,0.00390625,-10.03125,2.765625,1.0
658544,,,,,,,,0.4765625,-0.26171875,1.71484375,0.1484375,-0.2890625,0.0703125,-0.0703125,-9.9140625,2.53515625,1.0
658545,,,,,,,,0.54296875,-0.109375,1.421875,0.0546875,-0.353515625,-0.0546875,0.00390625,-9.765625,2.265625,1.0
658546,,,,,,,,0.87890625,0.390625,0.78515625,0.046875,-0.486328125,-0.208984375,0.38671875,-9.26953125,1.65234375,1.0
658547,,,,,,,,0.91015625,0.46484375,0.671875,0.037109375,-0.525390625,-0.2265625,0.42578125,-9.19140625,1.5390625,1.0
658548,,,,,,,,0.90234375,0.78125,0.359375,-0.046875,-0.56640625,-0.259765625,0.46484375,-8.8828125,1.234375,1.0
658549,,,,,,,,0.88671875,0.93359375,0.2734375,-0.072265625,-0.572265625,-0.255859375,0.46484375,-8.7265625,1.15625,1.0
658550,36.01320933333333,129.31922649999998,56.47812870175588,89.80319154958124,1.0,93.0,,1.0078125,1.40234375,0.05078125,-0.201171875,-0.39453125,0.158203125,0.6171875,-8.265625,0.92578125,1.0
658551,,,,,,,,0.9296875,1.75390625,0.10546875,-0.12890625,-0.5390625,-0.23046875,0.578125,-7.921875,0.96484375,1.0
658552,,,,,,,,0.6171875,1.9453125,0.10546875,-0.099609375,-0.505859375,-0.197265625,0.3125,-7.734375,0.96484375,1.0
658553,,,,,,,,0.4921875,1.8671875,0.11328125,-0.080078125,-0.509765625,-0.181640625,0.1953125,-7.81640625,0.96484375,1.0
658554,,,,,,,,0.1640625,1.9453125,0.2265625,-0.076171875,-0.5390625,-0.16015625,-0.109375,-7.73828125,1.078125,1.0
658555,,,,,,,,-0.16796875,1.9921875,0.1875,-0.078125,-0.5625,-0.140625,-0.41796875,-7.69921875,1.0390625,1.0
658556,,,,,,,,-0.34375,2.17578125,0.11328125,-0.052734375,-0.57421875,-0.119140625,-0.5703125,-7.50390625,0.96484375,1.0
658557,,,,,,,,-0.3984375,2.18359375,-0.0390625,0.029296875,-0.5625,-0.087890625,-0.609375,-7.5,0.8125,1.0
658558,,,,,,,,-0.4140625,2.2578125,-0.00390625,0.064453125,-0.556640625,-0.072265625,-0.609375,-7.4296875,0.84765625,1.0
658559,,,,,,,,-0.54296875,2.25,-0.0546875,0.126953125,-0.576171875,-0.037109375,-0.72265625,-7.43359375,0.8125,1.0
658560,36.01320966666666,129.31922733333334,56.55325234102759,89.84017844867432,1.0,88.0,,-0.4375,2.17578125,-0.0703125,0.2265625,-0.595703125,0.015625,-0.64453125,-7.62109375,0.7734375,1.0
658561,,,,,,,,-0.40625,2.16796875,-0.171875,0.263671875,-0.611328125,0.05859375,-0.5703125,-7.5,0.734375,1.0
658562,,,,,,,,-0.375,2.015625,-0.32421875,0.279296875,-0.62109375,0.099609375,-0.53125,-7.578125,0.58203125,1.0
658563,,,,,,,,-0.3671875,2.08984375,-0.37890625,0.294921875,-0.630859375,0.1171875,-0.41796875,-7.54296875,0.58203125,1.0
658564,,,,,,,,-0.0234375,2.19921875,-0.5625,0.30859375,-0.6328125,0.171875,-0.109375,-7.4296875,0.50390625,1.0
658565,,,,,,,,0.17578125,2.234375,-0.44140625,0.345703125,-0.6171875,0.212890625,0.00390625,-7.4296875,0.58203125,1.0
658566,,,,,,,,0.26953125,2.19140625,-0.48046875,0.357421875,-0.60546875,0.25,0.00390625,-7.65625,0.58203125,1.0
658567,,,,,,,,0.20703125,1.9140625,-0.55859375,0.3515625,-0.609375,0.283203125,0.00390625,-7.9609375,0.46484375,1.0
658568,,,,,,,,0.21484375,1.68359375,-0.65234375,0.322265625,-0.611328125,0.3203125,0.04296875,-8.08203125,0.46484375,1.0
658569,,,,,,,,0.20703125,1.20703125,-0.78125,0.271484375,-0.578125,0.337890625,0.00390625,-8.62109375,0.46484375,1.0
658570,36.013209833333335,129.31922816666665,56.62837609383857,89.858672141017,1.0,86.0,,-0.4375,2.17578125,-0.0703125,0.2265625,-0.595703125,0.015625,-0.109375,-9.109375,0.54296875,1.0
658571,,,,,,,,0.1015625,0.16796875,-0.4921875,0.19921875,-0.498046875,0.361328125,-0.2265625,-9.6875,0.88671875,1.0
658572,,,,,,,,0.0703125,-0.0703125,-0.35546875,0.17578125,-0.48046875,0.37109375,-0.2265625,-9.83984375,0.96484375,1.0
658573,,,,,,,,-0.05859375,-0.4921875,-0.09375,0.140625,-0.458984375,0.357421875,-0.33984375,-10.30078125,1.15625,1.0
658574,,,,,,,,0.01171875,-0.84375,-0.26171875,0.05859375,-0.44921875,0.34765625,-0.2265625,-10.53515625,0.96484375,1.0
658575,,,,,,,,0.6875,-0.84375,-0.15625,-0.021484375,-0.4609375,0.314453125,0.3125,-10.45703125,1.1171875,1.0
658576,,,,,,,,0.89453125,-0.76953125,-0.1640625,-0.05078125,-0.46484375,0.302734375,0.50390625,-10.37890625,1.1171875,1.0
658577,,,,,,,,1.4140625,-0.69921875,-0.1953125,-0.08984375,-0.466796875,0.265625,1.0,-10.30078125,1.078125,1.0
658578,,,,,,,,0.82421875,-0.890625,-0.41796875,-0.083984375,-0.458984375,0.212890625,0.38671875,-10.4921875,0.84765625,1.0
658579,,,,,,,,0.53515625,-1.04296875,-0.453125,-0.07421875,-0.41796875,0.15625,0.08203125,-10.64453125,0.8125,1.0
658580,36.01321,129.31922916666664,56.718524621918455,89.87716592988559,1.0,85.0,,0.08203125,-0.890625,-0.25390625,0.2265625,-0.595703125,0.015625,-0.37890625,-10.49609375,1.00390625,1.0
658581,,,,,,,,-0.5,-0.28515625,-0.28515625,-0.052734375,-0.22265625,0.076171875,-0.953125,-9.875,0.96484375,1.0
658582,,,,,,,,-0.875,0.10546875,-0.4375,-0.107421875,-0.076171875,0.04296875,-1.3359375,-9.4921875,0.8125,1.0
658583,,,,,,,,-1.296875,0.3359375,-0.69140625,-0.19921875,0.033203125,0.02734375,-1.7578125,-9.265625,0.54296875,1.0
658584,,,,,,,,-1.7578125,0.3359375,-0.7890625,-0.296875,0.123046875,-0.01171875,-2.37109375,-9.3046875,0.58203125,1.0
658585,,,,,,,,-2.21484375,0.2578125,-0.53125,-0.310546875,0.140625,-0.044921875,-2.828125,-9.42578125,0.58203125,1.0
658586,,,,,,,,-2.3671875,0.1796875,-0.58984375,-0.318359375,0.140625,-0.064453125,-3.0234375,-9.49609375,0.58203125,1.0
658587,,,,,,,,-2.64453125,0.07421875,-0.59765625,-0.396484375,0.078125,-0.095703125,-3.0234375,-9.6875,0.08203125,1.0
658588,,,,,,,,-2.5,-0.00390625,-1.25,-0.544921875,-0.01953125,-0.12890625,-2.90625,-9.49609375,-0.18359375,1.0
658589,,,,,,,,-2.46875,0.12109375,-1.26171875,-0.615234375,-0.076171875,-0.138671875,-2.41015625,-9.04296875,0.96484375,1.0
658590,36.01321016666667,129.31923033333334,56.82369792710281,89.89565981767237,1.1,83.0,,0.08203125,-0.890625,-0.25390625,-0.763671875,-0.162109375,-0.1875,-1.87109375,-9.4921875,0.96484375,1.0
658591,,,,,,,,-0.640625,-0.9453125,0.1640625,-0.84375,-0.208984375,-0.205078125,-0.53125,-11.484375,1.0390625,1.0
658592,,,,,,,,1.28515625,-4.22265625,0.28125,-0.892578125,-0.326171875,-0.21875,1.69140625,-15.16796875,1.30859375,1.0
658593,,,,,,,,3.40625,-7.625,2.0546875,-0.89453125,-0.458984375,-0.19921875,3.0703125,-17.2734375,2.765625,1.0
658594,,,,,,,,6.8671875,-7.80859375,6.66015625,-0.80078125,-0.7890625,-0.1640625,6.5546875,-17.4609375,7.28515625,1.0
658595,,,,,,,,5.37890625,-5.73046875,5.62109375,-0.828125,-1.08203125,-0.1953125,5.09765625,-15.390625,6.17578125,1.0
658596,,,,,,,,3.9921875,-4.66015625,4.9375,-0.896484375,-1.248046875,-0.19140625,3.71875,-14.32421875,5.4453125,1.0
658597,,,,,,,,0.79296875,-2.96484375,3.796875,-0.986328125,-1.478515625,-0.177734375,0.54296875,-12.63671875,4.21875,1.0
658598,,,,,,,,-0.734375,-2.421875,3.109375,-0.869140625,-1.595703125,-0.232421875,-0.953125,-12.1015625,3.453125,1.0
658599,,,,,,,,-1.4921875,-1.92578125,2.453125,-0.486328125,-1.43359375,-0.310546875,-1.6796875,-11.6015625,2.7265625,1.0
658600,36.01321016666667,129.3192315,56.9288713504136,89.8956604982237,1.1,83.0,0.0,-1.83984375,-0.73046875,1.80078125,-0.763671875,-0.162109375,-0.1875,-1.87109375,-9.4921875,0.96484375,1.0
658601,,,,,,,,-1.578125,0.6484375,1.40234375,0.763671875,-0.6328125,-0.458984375,-1.6796875,-9.0390625,1.73046875,1.0
658602,,,,,,,,-1.1796875,0.92578125,1.171875,0.86328125,-0.716796875,-0.478515625,-1.2578125,-8.76953125,1.5390625,1.0
658603,,,,,,,,-0.23046875,0.95703125,0.78125,0.853515625,-0.916015625,-0.435546875,-0.26171875,-8.73046875,1.234375,1.0
658604,,,,,,,,0.1796875,0.91796875,0.84765625,0.884765625,-0.859375,-0.341796875,0.1953125,-8.765625,1.38671875,1.0
658605,,,,,,,,0.07421875,0.91015625,0.62890625,0.884765625,-0.69140625,-0.078125,0.12109375,-8.76953125,1.30859375,1.0
658606,,,,,,,,0.02734375,0.98828125,0.5078125,0.791015625,-0.69921875,0.00390625,0.08203125,-8.6875,1.234375,1.0
658607,,,,,,,,-0.1640625,1.32421875,0.296875,0.52734375,-0.767578125,0.1796875,-0.109375,-8.34375,1.078125,1.0
658608,,,,,,,,-0.21875,1.8203125,-0.0234375,0.134765625,-0.771484375,0.349609375,-0.1875,-7.8515625,0.8125,1.0
658609,,,,,,,,0.04296875,2.05078125,-0.0703125,0.03125,-0.767578125,0.416015625,0.04296875,-7.62109375,0.7734375,1.0
658610,36.0132105,129.31923266666666,57.034044533182765,89.9326475959507,1.2000000000000002,77.0,,0.359375,2.08984375,-0.1875,-0.05078125,-0.7734375,0.439453125,0.3125,-7.58203125,0.65625,1.0
658611,,,,,,,,0.8125,2.2421875,-0.453125,-0.09765625,-0.8203125,0.44140625,0.734375,-7.4296875,0.390625,1.0
658612,,,,,,,,1.30859375,2.20703125,-0.515625,-0.1328125,-0.86328125,0.427734375,1.19140625,-7.4609375,0.3125,1.0
658613,,,,,,,,1.6328125,2.2421875,-0.5078125,-0.1328125,-0.884765625,0.419921875,1.5,-7.43359375,0.3125,1.0
658614,,,,,,,,2.0859375,2.09765625,-0.69921875,-0.1171875,-0.919921875,0.404296875,1.921875,-7.578125,0.12109375,1.0
658615,,,,,,,,2.30859375,1.9453125,-0.8046875,-0.09375,-0.9296875,0.388671875,2.11328125,-7.73828125,0.0078125,1.0
658616,,,,,,,,2.33203125,1.8203125,-0.8828125,-0.08203125,-0.921875,0.357421875,2.11328125,-7.85546875,-0.0703125,1.0
658617,,,,,,,,2.1640625,1.75390625,-0.8828125,-0.107421875,-0.9140625,0.337890625,1.921875,-7.921875,-0.0703125,1.0
658618,,,,,,,,2.1484375,1.70703125,-0.828125,-0.140625,-0.908203125,0.291015625,1.8828125,-7.96484375,-0.03125,1.0
658619,,,,,,,,2.01171875,1.9375,-0.8203125,-0.13671875,-0.875,0.251953125,1.73046875,-7.734375,-0.03125,1.0
658620,36.01321083333333,129.31923383333333,57.139217715166254,89.9696346936566,1.1,78.0,,1.796875,2.12890625,-0.734375,-0.05078125,-0.7734375,0.439453125,0.3125,-7.58203125,0.65625,1.0
658621,,,,,,,,1.640625,2.16796875,-0.8046875,-0.0234375,-0.6796875,0.130859375,1.34375,-7.50390625,-0.03125,1.0
658622,,,,,,,,1.3359375,1.8203125,-0.734375,0.05859375,-0.560546875,0.0546875,1.0390625,-7.85546875,0.046875,1.0
658623,,,,,,,,1.25,1.40234375,-0.66796875,0.123046875,-0.46484375,0.00390625,0.9609375,-8.26953125,0.12109375,1.0
658624,,,,,,,,1.20703125,0.8125,-0.5390625,0.171875,-0.32421875,-0.060546875,0.92578125,-8.84765625,0.2734375,1.0
658625,,,,,,,,1.19140625,0.43359375,-0.37109375,0.171875,-0.22265625,-0.078125,0.92578125,-9.2265625,0.46484375,1.0
658626,,,,,,,,1.02734375,-0.140625,-0.23046875,0.162109375,-0.1328125,-0.080078125,0.76953125,-9.80859375,0.62109375,1.0
658627,,,,,,,,0.8203125,-0.68359375,-0.1328125,0.16015625,-0.0390625,-0.076171875,0.578125,-10.3359375,0.734375,1.0
658628,,,,,,,,0.46875,-0.53125,-0.04296875,0.171875,0.0390625,-0.052734375,0.234375,-10.1875,0.84765625,1.0
658629,,,,,,,,0.453125,-0.38671875,0.05859375,0.197265625,0.1328125,-0.037109375,0.234375,-10.03515625,0.96484375,1.0
658630,36.013211166666665,129.319235,57.24439089610324,90.00662179401263,1.2000000000000002,74.0,,0.875,-0.26953125,0.2890625,0.26953125,0.2421875,-0.013671875,0.65625,-9.9140625,1.234375,1.0
658631,,,,,,,,1.05859375,-0.31640625,0.109375,0.30859375,0.26171875,0.0,0.84765625,-9.95703125,1.078125,1.0
658632,,,,,,,,0.875,-0.19921875,-0.37890625,0.31640625,0.23828125,-0.00390625,0.65625,-9.83984375,0.62109375,1.0
658633,,,,,,,,0.67578125,-0.24609375,-0.640625,0.25390625,0.12109375,0.005859375,0.46484375,-9.87890625,0.390625,1.0
658634,,,,,,,,0.484375,-0.33203125,-0.703125,0.150390625,-0.00390625,-0.005859375,0.2734375,-9.95703125,0.3515625,1.0
658635,,,,,,,,0.3671875,-0.25390625,-0.328125,0.087890625,-0.09765625,-0.01171875,0.15625,-9.875,0.734375,1.0
658636,,,,,,,,0.27734375,-0.0625,-0.17578125,0.04296875,-0.140625,-0.01171875,0.08203125,-9.69140625,0.88671875,1.0
658637,,,,,,,,0.3828125,-0.09375,0.1640625,-0.015625,-0.158203125,-0.001953125,0.1953125,-9.7265625,1.234375,1.0
658638,,,,,,,,0.4609375,-0.29296875,0.19921875,-0.064453125,-0.16015625,0.0078125,0.2734375,-9.9140625,1.26953125,1.0
658639,,,,,,,,0.26171875,-1.7890625,0.70703125,-0.169921875,-0.154296875,0.029296875,0.08203125,-11.41796875,1.76953125,1.0
658640,36.01321183333334,129.31923633333332,57.36458860901591,90.08059540944085,1.3,68.0,,-0.15234375,-3.16796875,0.76953125,0.26953125,0.2421875,-0.013671875,-0.33984375,-12.79296875,1.80859375,1.0
658641,,,,,,,,-0.95703125,-4.19140625,2.171875,-0.3203125,-0.13671875,0.076171875,-1.14453125,-13.8203125,3.1875,1.0
658642,,,,,,,,-2.51953125,-3.2734375,3.19921875,-0.357421875,-0.12109375,0.103515625,-2.71484375,-12.91015625,4.18359375,1.0
658643,,,,,,,,-2.828125,-3.04296875,3.47265625,-0.478515625,-0.0859375,0.1328125,-3.0234375,-12.67578125,4.41015625,1.0
658644,,,,,,,,-2.47265625,-2.5,3.63671875,-0.62109375,-0.009765625,0.1484375,-2.67578125,-12.140625,4.52734375,1.0
658645,,,,,,,,-1.65234375,-1.9921875,3.19921875,-0.65625,-0.044921875,0.16015625,-1.87109375,-11.64453125,4.02734375,1.0
658646,,,,,,,,-1.22265625,-1.91796875,3.15625,-0.634765625,-0.060546875,0.1484375,-1.44921875,-11.56640625,3.953125,1.0
658647,,,,,,,,-0.13671875,-2.140625,3.59375,-0.56640625,-0.1171875,0.10546875,-0.37890625,-11.796875,4.3359375,1.0
658648,,,,,,,,1.17578125,-2.4375,3.50390625,-0.4296875,-0.44140625,0.08203125,0.92578125,-12.10546875,4.18359375,1.0
658649,,,,,,,,1.51171875,-2.046875,2.9609375,-0.224609375,-0.60546875,0.04296875,1.26953125,-11.72265625,3.609375,1.0
658650,36.01321216666667,129.31923766666665,57.48478656178398,90.11758261017003,1.2000000000000002,67.0,,1.55078125,-1.39453125,2.46875,0.26953125,0.2421875,-0.013671875,1.30859375,-11.06640625,3.109375,1.0
658651,,,,,,,,1.203125,-0.97265625,2.15625,0.083984375,-0.4921875,0.033203125,0.9609375,-10.640625,2.8046875,1.0
658652,,,,,,,,0.9375,-0.8984375,2.03125,0.16015625,-0.412109375,0.015625,0.6953125,-10.5703125,2.6875,1.0
658653,,,,,,,,0.3828125,-0.4765625,2.11328125,0.404296875,-0.1640625,-0.11328125,0.15625,-10.1484375,2.83984375,1.0
658654,,,,,,,,0.4375,-0.4375,1.9609375,0.36328125,-0.17578125,-0.1953125,0.234375,-10.109375,2.7265625,1.0
658655,,,,,,,,0.68359375,0.17578125,1.34765625,0.267578125,-0.212890625,-0.2890625,0.50390625,-9.49609375,2.15234375,1.0
658656,,,,,,,,0.7578125,0.4140625,1.1015625,0.130859375,-0.212890625,-0.36328125,0.6171875,-9.26953125,1.921875,1.0
658657,,,,,,,,0.78125,0.44921875,0.98046875,0.060546875,-0.208984375,-0.396484375,0.65625,-9.23046875,1.80859375,1.0
658658,,,,,,,,0.88671875,0.640625,0.7734375,-0.001953125,-0.265625,-0.439453125,0.80859375,-9.04296875,1.6171875,1.0
658659,,,,,,,,0.87890625,0.7890625,0.7734375,0.001953125,-0.310546875,-0.453125,0.84765625,-8.8828125,1.6171875,1.0
658660,36.01321266666666,129.3192385,57.559910072584806,90.17306272339853,1.1,62.0,,0.59375,1.29296875,0.58203125,0.26953125,0.2421875,-0.013671875,0.6171875,-8.38671875,1.42578125,1.0
658661,,,,,,,,0.1640625,2.05859375,0.45703125,0.06640625,-0.279296875,-0.44921875,0.234375,-7.6171875,1.30859375,1.0
658662,,,,,,,,0.1015625,2.25,0.44140625,0.056640625,-0.287109375,-0.44140625,0.1953125,-7.43359375,1.30859375,1.0
658663,,,,,,,,0.0,2.59765625,0.43359375,0.01953125,-0.306640625,-0.404296875,0.15625,-7.078125,1.30859375,1.0
658664,,,,,,,,-0.16015625,3.0625,0.2421875,0.044921875,-0.279296875,-0.373046875,0.04296875,-6.625,1.1171875,1.0
658665,,,,,,,,-0.390625,3.0546875,0.1953125,0.078125,-0.255859375,-0.330078125,-0.1484375,-6.625,1.078125,1.0
658666,,,,,,,,-0.58203125,3.015625,0.21875,0.095703125,-0.2734375,-0.2890625,-0.30078125,-6.6640625,1.1171875,1.0
658667,,,,,,,,-0.875,2.93359375,0.2109375,0.08984375,-0.337890625,-0.2578125,-0.5703125,-6.734375,1.1171875,1.0
658668,,,,,,,,-1.25,2.85546875,-0.02734375,0.0859375,-0.419921875,-0.2265625,-0.9140625,-6.81640625,0.88671875,1.0
658669,,,,,,,,-1.34375,2.85546875,-0.109375,0.099609375,-0.4296875,-0.22265625,-0.9921875,-6.81640625,0.8125,1.0
658670,36.01321316666667,129.3192395,57.65005835230039,90.22854293814171,1.1,58.0,,-1.3828125,2.6171875,-0.32421875,0.154296875,-0.451171875,-0.171875,-0.9921875,-7.046875,0.62109375,1.0
658671,,,,,,,,-1.359375,2.54296875,-0.41796875,0.201171875,-0.435546875,-0.134765625,-0.953125,-7.1171875,0.54296875,1.0
658672,,,,,,,,-0.953125,2.3515625,-0.51953125,0.24609375,-0.453125,-0.087890625,-0.53125,-7.31640625,0.46484375,1.0
658673,,,,,,,,-0.84765625,2.3046875,-0.49609375,0.255859375,-0.455078125,-0.0546875,-0.41796875,-7.3515625,0.50390625,1.0
658674,,,,,,,,-0.6328125,2.19140625,-0.48828125,0.2734375,-0.431640625,0.0234375,-0.1875,-7.46484375,0.54296875,1.0
658675,,,,,,,,-0.5546875,2.0,-0.51171875,0.271484375,-0.423828125,0.083984375,-0.109375,-7.65625,0.54296875,1.0
658676,,,,,,,,-0.47265625,1.59765625,-0.49609375,0.251953125,-0.423828125,0.138671875,-0.03515625,-8.0390625,0.58203125,1.0
658677,,,,,,,,-0.44921875,1.25390625,-0.53515625,0.21875,-0.41796875,0.193359375,-0.03515625,-8.3828125,0.58203125,1.0
658678,,,,,,,,-0.41015625,0.7578125,-0.54296875,0.203125,-0.427734375,0.197265625,0.00390625,-8.88671875,0.58203125,1.0
658679,,,,,,,,-0.39453125,0.09765625,-0.3671875,0.1875,-0.453125,0.193359375,0.00390625,-9.53515625,0.7734375,1.0
