time,latitude,longitude,enu_x,enu_y,speed,course,ecg,accX,accY,accZ,gyrX,gyrY,gyrZ,eulR,eulP,eulY,validity
626270,36.01321316666667,129.31924083333334,57.77025654492722,90.22854372768649,1.2000000000000002,234.0,,-1.34375,-0.10546875,-0.97265625,-0.302734375,0.15234375,-0.17578125,-1.03125,-9.5703125,0.92578125,1.0
626271,,,,,,,,-1.203125,-0.83203125,-0.44140625,-0.390625,0.130859375,-0.169921875,-0.875,-10.296875,1.42578125,1.0
626272,,,,,,,,-0.8984375,-1.24609375,0.28515625,-0.46875,0.103515625,-0.169921875,-0.5703125,-10.71875,2.11328125,1.0
626273,,,,,,,,-0.33984375,-2.6953125,0.984375,-0.513671875,0.109375,-0.1640625,0.00390625,-12.18359375,2.765625,1.0
626274,,,,,,,,0.6015625,-4.2578125,1.26171875,-0.580078125,0.125,-0.158203125,0.9609375,-13.75390625,2.99609375,1.0
626275,,,,,,,,2.625,-5.96484375,2.2109375,-0.720703125,0.107421875,-0.130859375,2.9921875,-15.46875,3.875,1.0
626276,,,,,,,,3.95703125,-5.65234375,3.171875,-0.783203125,0.013671875,-0.072265625,4.33203125,-15.1640625,4.7578125,1.0
626277,,,,,,,,4.33984375,-4.4921875,3.5859375,-0.751953125,-0.041015625,-0.0546875,4.71484375,-14.01953125,5.140625,1.0
626278,,,,,,,,3.26171875,-3.17578125,3.6953125,-0.732421875,-0.1484375,-0.04296875,3.64453125,-12.7109375,5.1796875,1.0
626279,,,,,,,,1.99609375,-2.71484375,3.65625,-0.796875,-0.197265625,-0.041015625,2.37890625,-12.25,5.1015625,1.0
626280,36.013212833333334,129.31923966666668,57.66508336830987,90.19155662173407,1.1,239.0,,0.03515625,-2.69140625,3.4375,-0.939453125,-0.212890625,-0.033203125,0.42578125,-12.25390625,4.796875,1.0
626281,,,,,,,,-0.234375,-2.609375,2.51953125,-0.78125,-0.095703125,-0.05078125,0.15625,-12.1796875,3.80078125,1.0
626282,,,,,,,,-0.125,-2.29296875,1.99609375,-0.21875,0.1796875,-0.13671875,0.2734375,-11.87109375,3.22265625,1.0
626283,,,,,,,,-0.2265625,-1.57421875,1.90625,0.326171875,0.390625,-0.279296875,0.1953125,-11.14453125,3.1484375,1.0
626284,,,,,,,,-0.28125,-1.11328125,1.8984375,0.515625,0.375,-0.34765625,0.15625,-10.68359375,3.1875,1.0
626285,,,,,,,,-0.38671875,-0.546875,1.3125,0.513671875,0.201171875,-0.380859375,0.08203125,-10.109375,2.6484375,1.0
626286,,,,,,,,-0.51171875,-0.01953125,0.62109375,0.5078125,0.09765625,-0.298828125,0.00390625,-9.5703125,2.03515625,1.0
626287,,,,,,,,-0.45703125,-0.05859375,0.375,0.537109375,0.1796875,-0.224609375,0.08203125,-9.61328125,1.84375,1.0
626288,,,,,,,,-0.28125,0.203125,0.25390625,0.541015625,0.240234375,-0.130859375,0.2734375,-9.34765625,1.76953125,1.0
626289,,,,,,,,-0.2421875,0.6953125,-0.03125,0.45703125,0.267578125,-0.025390625,0.3125,-8.84375,1.5390625,1.0
626290,36.01321233333333,129.3192385,57.55991031466691,90.13607630802665,1.1,241.0,,-0.2734375,1.11328125,-0.18359375,-0.939453125,-0.212890625,-0.033203125,0.42578125,-12.25390625,4.796875,1.0
626291,,,,,,,,-0.44140625,1.64453125,-0.37109375,0.16015625,0.3125,0.154296875,0.08203125,-7.88671875,1.26953125,1.0
626292,,,,,,,,-0.49609375,1.91796875,-0.5390625,0.001953125,0.267578125,0.205078125,0.00390625,-7.62109375,1.1171875,1.0
626293,,,,,,,,-0.5546875,1.99609375,-0.6171875,-0.015625,0.265625,0.216796875,-0.0703125,-7.5390625,1.0390625,1.0
626294,,,,,,,,-0.37109375,2.2265625,-0.6171875,-0.021484375,0.28515625,0.224609375,0.08203125,-7.3125,1.0390625,1.0
626295,,,,,,,,-0.08203125,2.37890625,-0.69140625,-0.01171875,0.314453125,0.220703125,0.34765625,-7.15625,0.96484375,1.0
626296,,,,,,,,0.21875,2.46484375,-0.73046875,0.001953125,0.357421875,0.21875,0.6171875,-7.078125,0.92578125,1.0
626297,,,,,,,,0.51171875,2.5,-0.76953125,0.017578125,0.3984375,0.21484375,0.88671875,-7.046875,0.88671875,1.0
626298,,,,,,,,0.640625,2.5,-0.76953125,0.03515625,0.416015625,0.21875,1.0,-7.05078125,0.88671875,1.0
626299,,,,,,,,0.90234375,2.31640625,-0.8515625,0.078125,0.46875,0.228515625,1.23046875,-7.234375,0.8125,1.0
626300,36.01321166666666,129.31923749999999,57.4697621506212,90.0621028880071,1.1,239.0,0.0,0.98828125,2.1875,-0.90625,-0.939453125,-0.212890625,-0.033203125,0.42578125,-12.25390625,4.796875,1.0
626301,,,,,,,,1.01953125,1.99609375,-0.8984375,0.158203125,0.58203125,0.203125,1.26953125,-7.54296875,0.8125,1.0
626302,,,,,,,,0.95703125,1.84375,-0.87109375,0.16796875,0.595703125,0.197265625,1.19140625,-7.69921875,0.84765625,1.0
626303,,,,,,,,1.04296875,1.56640625,-0.73828125,0.162109375,0.611328125,0.16015625,1.23046875,-7.9609375,1.00390625,1.0
626304,,,,,,,,0.64453125,1.52734375,-0.91015625,0.1484375,0.611328125,0.109375,0.80859375,-8.0,0.84765625,1.0
626305,,,,,,,,0.39453125,1.14453125,-0.953125,0.12890625,0.619140625,0.060546875,0.54296875,-8.38671875,0.8125,1.0
626306,,,,,,,,0.36328125,0.9140625,-1.0390625,0.126953125,0.638671875,0.037109375,0.50390625,-8.6171875,0.734375,1.0
626307,,,,,,,,0.109375,0.37109375,-0.83203125,0.119140625,0.671875,-0.0625,0.234375,-9.15234375,0.96484375,1.0
626308,,,,,,,,0.0703125,0.31640625,-0.6953125,0.166015625,0.669921875,-0.16015625,0.1953125,-9.1875,1.1171875,1.0
626309,,,,,,,,0.0703125,0.2421875,-0.703125,0.1875,0.685546875,-0.169921875,0.1953125,-9.26953125,1.1171875,1.0
626310,36.01321133333333,129.3192365,57.379613745213874,90.02511588338915,1.0,241.0,,-0.00390625,0.31640625,-0.87890625,-0.939453125,-0.212890625,-0.033203125,0.12109375,-9.19140625,0.96484375,1.0
626311,,,,,,,,-0.05078125,0.38671875,-0.93359375,0.154296875,0.77734375,-0.16796875,0.08203125,-9.11328125,0.92578125,1.0
626312,,,,,,,,-0.203125,0.5,-0.8359375,0.119140625,0.763671875,-0.158203125,-0.0703125,-9.00390625,1.0390625,1.0
626313,,,,,,,,-0.359375,0.5703125,-0.84375,0.130859375,0.759765625,-0.16015625,-0.2265625,-8.921875,1.0390625,1.0
626314,,,,,,,,-0.43359375,0.609375,-0.96484375,0.150390625,0.736328125,-0.1640625,-0.30078125,-8.8828125,0.92578125,1.0
626315,,,,,,,,-0.51171875,0.609375,-1.01953125,0.16796875,0.6875,-0.1796875,-0.37890625,-8.8828125,0.88671875,1.0
626316,,,,,,,,-0.51953125,0.609375,-1.06640625,0.171875,0.66796875,-0.173828125,-0.37890625,-8.8828125,0.84765625,1.0
626317,,,,,,,,-0.40234375,0.29296875,-0.890625,0.162109375,0.630859375,-0.169921875,-0.26171875,-9.19140625,1.0390625,1.0
626318,,,,,,,,-0.2109375,-0.2890625,-0.7109375,0.173828125,0.595703125,-0.142578125,-0.0703125,-9.765625,1.234375,1.0
626319,,,,,,,,0.015625,-0.59375,-0.66796875,0.130859375,0.5546875,-0.087890625,0.15625,-10.07421875,1.30859375,1.0
626320,36.013210666666666,129.31923533333332,57.274440805998736,89.95114236670473,1.1,242.0,,0.015625,-0.6796875,-0.58984375,0.103515625,0.53125,-0.0703125,0.12109375,-9.19140625,0.96484375,1.0
626321,,,,,,,,-0.08984375,-0.7578125,-0.71484375,0.04296875,0.50390625,-0.033203125,0.04296875,-10.2265625,1.26953125,1.0
626322,,,,,,,,-0.08203125,-0.53515625,-0.67578125,-0.021484375,0.466796875,-0.001953125,0.04296875,-9.99609375,1.30859375,1.0
626323,,,,,,,,0.00390625,-0.34375,-0.75,-0.087890625,0.41015625,0.015625,0.12109375,-9.80859375,1.234375,1.0
626324,,,,,,,,0.35546875,-0.02734375,-0.890625,-0.134765625,0.357421875,0.025390625,0.46484375,-9.49609375,1.078125,1.0
626325,,,,,,,,1.12890625,-0.06640625,-0.875,-0.142578125,0.2890625,0.005859375,1.23046875,-9.53515625,1.078125,1.0
626326,,,,,,,,1.25,-0.79296875,-0.58203125,-0.14453125,0.2265625,-0.009765625,1.34375,-10.26171875,1.34765625,1.0
626327,,,,,,,,1.17578125,-1.5234375,-0.56640625,-0.16015625,0.1953125,-0.025390625,1.26953125,-10.99609375,1.34765625,1.0
626328,,,,,,,,0.6015625,-2.35546875,-0.62890625,-0.1875,0.216796875,-0.0390625,0.6953125,-11.828125,1.26953125,1.0
626329,,,,,,,,0.37109375,-2.3203125,-0.34375,-0.240234375,0.28515625,-0.03515625,0.46484375,-11.796875,1.5390625,1.0
626330,36.01321033333333,129.31923416666666,57.16926762476667,89.91415526651355,1.2000000000000002,244.0,,0.30078125,-2.08203125,0.22265625,0.103515625,0.53125,-0.0703125,0.12109375,-9.19140625,0.96484375,1.0
626331,,,,,,,,-0.2578125,-3.03125,1.05859375,-0.517578125,0.625,-0.017578125,-0.1875,-12.52734375,2.83984375,1.0
626332,,,,,,,,-0.86328125,-4.08984375,0.80078125,-0.55078125,0.685546875,-0.01953125,-0.80078125,-13.59375,2.53515625,1.0
626333,,,,,,,,-1.16796875,-3.8515625,1.24609375,-0.54296875,0.6640625,-0.029296875,-1.10546875,-13.37109375,2.95703125,1.0
626334,,,,,,,,-1.58203125,-2.578125,1.90625,-0.54296875,0.595703125,-0.05078125,-1.52734375,-12.10546875,3.5703125,1.0
626335,,,,,,,,-1.3046875,-1.94921875,1.5078125,-0.619140625,0.6015625,-0.087890625,-1.2578125,-11.48828125,3.109375,1.0
626336,,,,,,,,-0.80859375,-2.203125,1.75390625,-0.71484375,0.71484375,-0.078125,-0.76171875,-11.7578125,3.26171875,1.0
626337,,,,,,,,0.04296875,-2.69140625,1.97265625,-0.615234375,0.671875,-0.056640625,0.08203125,-12.25,3.41796875,1.0
626338,,,,,,,,0.1953125,-2.69140625,1.96484375,-0.5,0.646484375,-0.044921875,0.234375,-12.25390625,3.37890625,1.0
626339,,,,,,,,0.35546875,-2.609375,1.83203125,-0.1484375,0.71875,-0.068359375,0.38671875,-12.1796875,3.22265625,1.0
626340,36.013209833333335,129.31923283333333,57.04906978773704,89.85867486326066,1.2000000000000002,244.0,,-0.06640625,-2.1875,1.6875,0.103515625,0.53125,-0.0703125,-0.03515625,-11.7578125,3.0703125,1.0
626341,,,,,,,,-0.73828125,-1.296875,1.57421875,0.033203125,0.890625,-0.00390625,-0.72265625,-10.875,2.95703125,1.0
626342,,,,,,,,-0.9609375,-0.68359375,1.44921875,0.126953125,1.013671875,0.0078125,-0.953125,-10.26171875,2.83984375,1.0
626343,,,,,,,,-0.9453125,0.00390625,1.015625,0.228515625,1.091796875,-0.009765625,-0.953125,-9.57421875,2.421875,1.0
626344,,,,,,,,-1.08203125,0.46484375,0.5625,0.330078125,1.109375,-0.0546875,-1.10546875,-9.109375,2.0,1.0
626345,,,,,,,,-1.11328125,0.734375,0.4140625,0.4375,1.08203125,-0.123046875,-1.14453125,-8.84375,1.8828125,1.0
626346,,,,,,,,-1.07421875,0.80859375,0.27734375,0.474609375,1.04296875,-0.169921875,-1.10546875,-8.765625,1.76953125,1.0
626347,,,,,,,,-0.9296875,1.13671875,-0.109375,0.53125,0.9140625,-0.263671875,-0.953125,-8.42578125,1.4609375,1.0
626348,,,,,,,,-0.63671875,1.66796875,-0.5625,0.451171875,0.861328125,-0.28125,-0.64453125,-7.88671875,1.078125,1.0
626349,,,,,,,,-0.34765625,2.15625,-0.65625,0.3515625,0.8671875,-0.265625,-0.33984375,-7.390625,1.0390625,1.0
626350,36.01320933333333,129.31923183333336,56.95892150321117,89.80319465392796,1.1,244.0,,-0.31640625,2.34765625,-0.72265625,0.103515625,0.53125,-0.0703125,-0.30078125,-7.19921875,1.00390625,1.0
626351,,,,,,,,-0.5234375,2.5234375,-0.7265625,0.267578125,0.8203125,-0.232421875,-0.4921875,-7.0078125,1.0390625,1.0
626352,,,,,,,,-0.5625,2.484375,-0.77734375,0.251953125,0.82421875,-0.240234375,-0.53125,-7.046875,1.00390625,1.0
626353,,,,,,,,-0.87890625,2.28515625,-0.80859375,0.21875,0.814453125,-0.248046875,-0.83984375,-7.23828125,1.00390625,1.0
626354,,,,,,,,-1.0703125,2.1796875,-0.75,0.19921875,0.796875,-0.265625,-1.03125,-7.3515625,1.078125,1.0
626355,,,,,,,,-1.3515625,2.05859375,-0.6875,0.189453125,0.759765625,-0.29296875,-1.296875,-7.4609375,1.15625,1.0
626356,,,,,,,,-1.51953125,1.90234375,-0.7890625,0.19140625,0.7421875,-0.32421875,-1.44921875,-7.6171875,1.078125,1.0
626357,,,,,,,,-1.60546875,1.8203125,-0.71875,0.193359375,0.740234375,-0.330078125,-1.52734375,-7.6953125,1.15625,1.0
626358,,,,,,,,-1.62890625,1.58984375,-0.7734375,0.181640625,0.73046875,-0.353515625,-1.52734375,-7.921875,1.1171875,1.0
626359,,,,,,,,-1.67578125,1.51171875,-0.75,0.1640625,0.720703125,-0.357421875,-1.56640625,-8.00390625,1.15625,1.0
626360,36.01320883333334,129.31923083333334,56.86877321059509,89.74771444893614,1.0,246.0,,-1.73828125,1.46484375,-0.6875,0.103515625,0.53125,-0.0703125,-0.30078125,-7.19921875,1.00390625,1.0
626361,,,,,,,,-1.70703125,1.49609375,-0.6953125,0.17578125,0.689453125,-0.3359375,-1.56640625,-8.00390625,1.234375,1.0
626362,,,,,,,,-1.64453125,1.57421875,-0.796875,0.19140625,0.6953125,-0.306640625,-1.48828125,-7.921875,1.15625,1.0
626363,,,,,,,,-1.5078125,1.7578125,-0.890625,0.177734375,0.689453125,-0.267578125,-1.3359375,-7.73828125,1.078125,1.0
626364,,,,,,,,-1.35546875,1.86328125,-0.8671875,0.173828125,0.673828125,-0.236328125,-1.18359375,-7.62109375,1.1171875,1.0
626365,,,,,,,,-1.32421875,1.59765625,-1.11328125,0.1875,0.6484375,-0.2109375,-1.14453125,-7.8828125,0.88671875,1.0
626366,,,,,,,,-1.32421875,1.44140625,-1.12890625,0.203125,0.6328125,-0.201171875,-1.14453125,-8.04296875,0.88671875,1.0
626367,,,,,,,,-1.26171875,1.12890625,-1.2578125,0.216796875,0.583984375,-0.197265625,-1.06640625,-8.34765625,0.7734375,1.0
626368,,,,,,,,-1.2265625,0.546875,-1.42578125,0.2265625,0.541015625,-0.18359375,-1.03125,-8.921875,0.62109375,1.0
626369,,,,,,,,-1.1875,0.23046875,-1.44921875,0.22265625,0.5,-0.185546875,-0.9921875,-9.23046875,0.62109375,1.0
626370,36.013208666666664,129.3192293333333,56.73355035166155,89.72922036526056,1.1,252.0,,-1.04296875,-0.00390625,-1.24609375,0.103515625,0.53125,-0.0703125,-0.83984375,-9.45703125,0.84765625,1.0
626371,,,,,,,,-1.05078125,-0.50390625,-0.8828125,0.037109375,0.466796875,-0.189453125,-0.83984375,-9.953125,1.234375,1.0
626372,,,,,,,,-1.05859375,-0.58984375,-0.80078125,-0.015625,0.42578125,-0.185546875,-0.83984375,-10.03125,1.30859375,1.0
626373,,,,,,,,-1.2265625,-1.125,-0.6484375,-0.0703125,0.388671875,-0.201171875,-0.9921875,-10.5703125,1.4609375,1.0
626374,,,,,,,,-1.37890625,-1.32421875,-0.5234375,-0.0859375,0.3671875,-0.208984375,-1.14453125,-10.76171875,1.578125,1.0
626375,,,,,,,,-1.38671875,-1.390625,-0.44921875,-0.0859375,0.34765625,-0.232421875,-1.14453125,-10.83984375,1.65234375,1.0
626376,,,,,,,,-1.32421875,-1.0859375,-0.203125,-0.05859375,0.357421875,-0.267578125,-1.06640625,-10.53125,1.8828125,1.0
626377,,,,,,,,-1.21875,-0.93359375,-0.34765625,-0.0390625,0.3671875,-0.28125,-0.953125,-10.375,1.73046875,1.0
626378,,,,,,,,-1.12109375,-0.7421875,-0.5859375,-0.001953125,0.35546875,-0.302734375,-0.83984375,-10.19140625,1.5,1.0
626379,,,,,,,,-0.90625,-0.55859375,-0.921875,0.013671875,0.353515625,-0.310546875,-0.609375,-9.99609375,1.15625,1.0
626380,36.013208666666664,129.31922816666665,56.62837692831985,89.72921968684751,1.1,259.0,,-0.66015625,-0.3671875,-1.23828125,0.046875,0.29296875,-0.3203125,-0.33984375,-9.80859375,0.84765625,1.0
626381,,,,,,,,-0.421875,-0.13671875,-0.9375,0.099609375,0.244140625,-0.33203125,-0.0703125,-9.57421875,1.15625,1.0
626382,,,,,,,,-0.39453125,-0.09765625,-0.8671875,0.119140625,0.224609375,-0.333984375,-0.03515625,-9.53125,1.234375,1.0
626383,,,,,,,,-0.453125,0.0859375,-0.5703125,0.115234375,0.193359375,-0.341796875,-0.0703125,-9.34765625,1.5390625,1.0
626384,,,,,,,,-0.78515625,-0.21875,-0.1875,0.056640625,0.1875,-0.33203125,-0.37890625,-9.65234375,1.921875,1.0
626385,,,,,,,,-1.16796875,-1.22265625,-0.29296875,-0.1015625,0.234375,-0.302734375,-0.72265625,-10.64453125,1.80859375,1.0
626386,,,,,,,,-1.0625,-1.60546875,0.1328125,-0.154296875,0.251953125,-0.291015625,-0.609375,-11.0234375,2.2265625,1.0
626387,,,,,,,,-0.6171875,-1.828125,0.45703125,-0.26171875,0.251953125,-0.275390625,-0.1484375,-11.26171875,2.53515625,1.0
626388,,,,,,,,0.2109375,-2.55859375,1.17578125,-0.34765625,0.23046875,-0.2578125,0.6953125,-11.984375,3.22265625,1.0
626389,,,,,,,,0.69921875,-3.19921875,1.38671875,-0.39453125,0.2109375,-0.2421875,1.19140625,-12.6328125,3.41796875,1.0
626390,36.01320883333334,129.31922666666665,56.493153833040694,89.74771202556437,1.2000000000000002,267.0,,1.7890625,-4.5625,1.80859375,-0.6640625,0.16015625,-0.20703125,2.3046875,-14.01953125,3.76171875,1.0
626391,,,,,,,,3.7265625,-5.5078125,2.828125,-0.759765625,0.12890625,-0.146484375,4.2578125,-14.98046875,4.71875,1.0
626392,,,,,,,,4.25390625,-4.80859375,3.7109375,-0.72265625,0.111328125,-0.11328125,4.79296875,-14.28125,5.5625,1.0
626393,,,,,,,,3.44921875,-3.4140625,3.734375,-0.634765625,0.099609375,-0.04296875,3.98828125,-12.90625,5.5234375,1.0
626394,,,,,,,,1.6953125,-1.4921875,3.75,-0.646484375,0.048828125,-0.029296875,2.2265625,-10.9921875,5.484375,1.0
626395,,,,,,,,0.046875,-0.59375,3.890625,-0.6875,0.125,-0.01953125,0.578125,-10.109375,5.5234375,1.0
626396,,,,,,,,-0.2578125,-0.46484375,3.61328125,-0.6171875,0.23046875,-0.01953125,0.2734375,-9.99609375,5.21484375,1.0
626397,,,,,,,,-0.3359375,-0.33984375,2.58203125,-0.224609375,0.5234375,-0.068359375,0.1953125,-9.875,4.14453125,1.0
626398,,,,,,,,-0.52734375,0.30859375,1.30859375,0.248046875,0.7109375,-0.171875,0.00390625,-9.2265625,2.87890625,1.0
626399,,,,,,,,-0.53515625,0.484375,1.1171875,0.529296875,0.693359375,-0.23046875,0.00390625,-9.0390625,2.7265625,1.0
626400,36.013208999999996,129.31922533333332,56.37295551470133,89.76620445920366,1.2000000000000002,272.0,0.0,-0.6171875,1.0234375,0.79296875,-0.6640625,0.16015625,-0.20703125,2.3046875,-14.01953125,3.76171875,1.0
626401,,,,,,,,-0.55859375,0.82421875,0.546875,0.46875,0.29296875,-0.142578125,0.00390625,-8.69140625,2.3046875,1.0
626402,,,,,,,,-0.02734375,0.125,0.77734375,0.369140625,0.32421875,-0.046875,0.54296875,-9.38671875,2.57421875,1.0
626403,,,,,,,,0.09375,0.203125,0.70703125,0.248046875,0.3828125,0.0390625,0.65625,-9.3046875,2.53515625,1.0
626404,,,,,,,,0.03125,0.34765625,0.61328125,0.103515625,0.43359375,0.10546875,0.578125,-9.1484375,2.45703125,1.0
626405,,,,,,,,-0.17578125,0.65625,0.4140625,-0.09375,0.431640625,0.18359375,0.34765625,-8.84765625,2.265625,1.0
626406,,,,,,,,-0.1796875,0.890625,0.23828125,-0.28515625,0.416015625,0.26953125,0.3125,-8.62109375,2.07421875,1.0
626407,,,,,,,,-0.02734375,1.20703125,-0.12109375,-0.384765625,0.41796875,0.30859375,0.42578125,-8.30859375,1.69140625,1.0
626408,,,,,,,,0.1640625,1.52734375,-0.38671875,-0.373046875,0.447265625,0.306640625,0.578125,-8.0,1.38671875,1.0
626409,,,,,,,,0.18359375,1.6875,-0.45703125,-0.2734375,0.490234375,0.259765625,0.54296875,-7.8515625,1.26953125,1.0
626410,36.013208999999996,129.3192245,56.29783164186656,89.76620397748742,1.0,272.0,,0.25,1.92578125,-0.46875,-0.6640625,0.16015625,-0.20703125,2.3046875,-14.01953125,3.76171875,1.0
626411,,,,,,,,0.3984375,1.92578125,-0.5078125,-0.134765625,0.419921875,0.171875,0.6953125,-7.6171875,1.1953125,1.0
626412,,,,,,,,0.4453125,1.92578125,-0.5390625,-0.111328125,0.41796875,0.15625,0.734375,-7.6171875,1.15625,1.0
626413,,,,,,,,0.734375,1.92578125,-0.6484375,-0.064453125,0.44921875,0.14453125,1.0,-7.6171875,1.0390625,1.0
626414,,,,,,,,0.91015625,1.92578125,-0.71484375,-0.041015625,0.517578125,0.14453125,1.15234375,-7.62109375,0.96484375,1.0
626415,,,,,,,,0.859375,1.859375,-0.83203125,-0.021484375,0.5703125,0.146484375,1.078125,-7.6953125,0.84765625,1.0
626416,,,,,,,,0.828125,1.78125,-0.79296875,-0.015625,0.591796875,0.146484375,1.0390625,-7.77734375,0.88671875,1.0
626417,,,,,,,,0.63671875,1.7421875,-0.83203125,-0.001953125,0.63671875,0.134765625,0.80859375,-7.8125,0.84765625,1.0
626418,,,,,,,,0.26171875,1.62890625,-0.68359375,-0.017578125,0.650390625,0.095703125,0.38671875,-7.92578125,1.00390625,1.0
626419,,,,,,,,0.0859375,1.62890625,-0.72265625,-0.03515625,0.65625,0.076171875,0.1953125,-7.92578125,0.96484375,1.0
626420,36.01320916666667,129.31922316666666,56.177633324776,89.7846964173633,1.0,274.0,,0.0625,1.62890625,-0.79296875,-0.06640625,0.6484375,0.005859375,0.15625,-7.921875,0.88671875,1.0
626421,,,,,,,,0.078125,1.4765625,-0.9765625,-0.07421875,0.630859375,-0.046875,0.15625,-8.078125,0.6953125,1.0
626422,,,,,,,,0.0859375,1.28515625,-1.08203125,-0.072265625,0.599609375,-0.083984375,0.15625,-8.26953125,0.58203125,1.0
626423,,,,,,,,0.0859375,1.23828125,-1.08203125,-0.064453125,0.595703125,-0.091796875,0.15625,-8.30859375,0.58203125,1.0
626424,,,,,,,,0.05078125,1.0078125,-1.07421875,-0.02734375,0.576171875,-0.119140625,0.12109375,-8.54296875,0.58203125,1.0
626425,,,,,,,,0.00390625,0.9375,-1.11328125,-0.021484375,0.572265625,-0.12109375,0.08203125,-8.62109375,0.54296875,1.0
626426,,,,,,,,0.04296875,0.78515625,-0.9921875,-0.029296875,0.580078125,-0.1171875,0.12109375,-8.76953125,0.65625,1.0
626427,,,,,,,,0.125,0.546875,-0.9140625,-0.048828125,0.568359375,-0.107421875,0.1953125,-9.0,0.734375,1.0
626428,,,,,,,,0.078125,0.47265625,-0.90625,-0.06640625,0.55078125,-0.1015625,0.15625,-9.07421875,0.734375,1.0
626429,,,,,,,,-0.1484375,0.203125,-0.78515625,-0.06640625,0.54296875,-0.080078125,-0.0703125,-9.34375,0.84765625,1.0
626430,36.01320916666667,129.319222,56.072459900325995,89.78469574550027,1.0,276.0,,-0.3046875,0.01171875,-0.70703125,-0.064453125,0.517578125,-0.060546875,-0.2265625,-9.53125,0.92578125,1.0
626431,,,,,,,,-0.45703125,-0.06640625,-0.5859375,-0.0546875,0.509765625,-0.052734375,-0.37890625,-9.609375,1.0390625,1.0
626432,,,,,,,,-0.5234375,-0.2265625,-0.5,-0.05859375,0.501953125,-0.037109375,-0.453125,-9.76953125,1.1171875,1.0
626433,,,,,,,,-0.515625,-0.37890625,-0.4140625,-0.0703125,0.5,-0.005859375,-0.453125,-9.9140625,1.1953125,1.0
626434,,,,,,,,-0.5859375,-0.6484375,-0.40625,-0.08203125,0.470703125,0.001953125,-0.53125,-10.19140625,1.1953125,1.0
626435,,,,,,,,-0.73046875,-0.9453125,-0.4375,-0.08984375,0.4296875,0.0078125,-0.68359375,-10.49609375,1.15625,1.0
626436,,,,,,,,-0.71484375,-0.953125,-0.5078125,-0.09375,0.380859375,0.005859375,-0.68359375,-10.49609375,1.078125,1.0
626437,,,,,,,,-0.484375,-0.609375,-0.65234375,-0.115234375,0.302734375,0.01171875,-0.453125,-10.15234375,0.92578125,1.0
626438,,,,,,,,0.171875,-0.2265625,-0.8984375,-0.1640625,0.193359375,0.00390625,0.1953125,-9.76953125,0.65625,1.0
626439,,,,,,,,0.44921875,-0.1015625,-0.890625,-0.1796875,0.15625,0.00390625,0.46484375,-9.65234375,0.65625,1.0
626440,36.01320933333333,129.31922083333333,55.96728635833966,89.80318828016635,1.1,276.0,,0.83203125,-0.06640625,-0.7578125,-0.064453125,0.517578125,-0.060546875,0.84765625,-9.61328125,0.7734375,1.0
626441,,,,,,,,1.17578125,-0.75390625,-0.6953125,-0.169921875,-0.033203125,-0.0078125,1.19140625,-10.30078125,0.8125,1.0
626442,,,,,,,,1.13671875,-1.7109375,-0.52734375,-0.1796875,-0.107421875,-0.009765625,1.15234375,-11.26171875,0.96484375,1.0
626443,,,,,,,,1.1015625,-2.0859375,-0.51953125,-0.205078125,-0.125,-0.01171875,1.1171875,-11.640625,0.96484375,1.0
626444,,,,,,,,0.41015625,-2.30859375,-0.375,-0.265625,-0.115234375,-0.00390625,0.42578125,-11.87109375,1.078125,1.0
626445,,,,,,,,0.1328125,-2.73046875,0.38671875,-0.353515625,-0.02734375,0.017578125,0.15625,-12.29296875,1.80859375,1.0
626446,,,,,,,,-0.01953125,-3.98828125,0.5390625,-0.5078125,0.12109375,0.03515625,0.00390625,-13.5546875,1.921875,1.0
626447,,,,,,,,-0.66015625,-6.0078125,0.79296875,-0.7109375,0.287109375,0.037109375,-0.64453125,-15.58984375,2.11328125,1.0
626448,,,,,,,,-0.80859375,-6.15625,1.125,-0.76171875,0.34765625,0.0625,-0.80078125,-15.74609375,2.3828125,1.0
626449,,,,,,,,-1.10546875,-2.73828125,2.421875,-0.6875,0.32421875,0.015625,-1.10546875,-12.328125,3.609375,1.0
626450,36.0132095,129.31921966666667,55.86211281678217,89.82168082004824,1.0,279.0,,0.2109375,-1.41015625,1.3046875,-0.064453125,0.517578125,-0.060546875,0.1953125,-11.0234375,2.3828125,1.0
626451,,,,,,,,1.8203125,-2.1328125,1.52734375,-0.763671875,0.38671875,-0.03125,1.8046875,-11.76171875,2.53515625,1.0
626452,,,,,,,,2.203125,-2.5546875,1.75,-0.7265625,0.353515625,-0.025390625,2.1875,-12.18359375,2.7265625,1.0
626453,,,,,,,,2.08984375,-2.62109375,1.890625,-0.4609375,0.328125,-0.03125,2.07421875,-12.25390625,2.8046875,1.0
626454,,,,,,,,1.58203125,-2.4609375,1.8984375,0.11328125,0.369140625,-0.09375,1.57421875,-12.1015625,2.8046875,1.0
626455,,,,,,,,1.046875,-2.19921875,1.64453125,0.3125,0.46484375,-0.09375,1.0390625,-11.828125,2.57421875,1.0
626456,,,,,,,,0.5859375,-1.65625,1.55859375,0.24609375,0.587890625,-0.08984375,0.578125,-11.30078125,2.49609375,1.0
626457,,,,,,,,-0.140625,-0.046875,1.296875,0.083984375,1.142578125,-0.068359375,-0.1484375,-9.69140625,2.265625,1.0
626458,,,,,,,,-0.4453125,0.71875,0.66015625,0.361328125,1.25390625,-0.138671875,-0.453125,-8.92578125,1.65234375,1.0
626459,,,,,,,,-0.71484375,0.91015625,0.5625,0.470703125,1.240234375,-0.162109375,-0.72265625,-8.73046875,1.578125,1.0
626460,36.01320966666666,129.31921849999998,55.7569392734234,89.84017335853756,1.1,280.0,,-0.921875,1.28515625,0.4765625,0.615234375,1.181640625,-0.259765625,-0.9140625,-8.34375,1.578125,1.0
626461,,,,,,,,-0.9296875,1.5546875,0.3828125,0.623046875,1.1640625,-0.326171875,-0.9140625,-8.078125,1.5390625,1.0
626462,,,,,,,,-0.83984375,1.8125,0.12890625,0.599609375,1.169921875,-0.349609375,-0.80078125,-7.81640625,1.34765625,1.0
626463,,,,,,,,-0.76953125,2.00390625,-0.203125,0.552734375,1.17578125,-0.34765625,-0.72265625,-7.6171875,1.0390625,1.0
626464,,,,,,,,-0.82421875,2.2265625,-0.515625,0.400390625,1.171875,-0.330078125,-0.76171875,-7.390625,0.7734375,1.0
626465,,,,,,,,-0.80078125,2.41796875,-0.69921875,0.25,1.12109375,-0.30078125,-0.72265625,-7.1953125,0.62109375,1.0
626466,,,,,,,,-0.86328125,2.48828125,-0.6171875,0.19140625,1.05859375,-0.271484375,-0.76171875,-7.1171875,0.734375,1.0
626467,,,,,,,,-1.0234375,2.296875,-0.48828125,0.177734375,1.0390625,-0.26953125,-0.9140625,-7.31640625,0.88671875,1.0
626468,,,,,,,,-1.0703125,2.21875,-0.46484375,0.1796875,1.02734375,-0.263671875,-0.953125,-7.39453125,0.92578125,1.0
626469,,,,,,,,-1.19140625,2.06640625,-0.2890625,0.166015625,0.998046875,-0.275390625,-1.06640625,-7.5390625,1.1171875,1.0
626470,36.013209833333335,129.3192175,55.666790511721985,89.8586659952137,1.0,280.0,,-1.46875,1.98046875,-0.265625,0.142578125,0.95703125,-0.283203125,-1.3359375,-7.62109375,1.15625,1.0
626471,,,,,,,,-1.796875,1.8671875,-0.40625,0.126953125,0.888671875,-0.3203125,-1.640625,-7.734375,1.0390625,1.0
626472,,,,,,,,-1.8984375,1.859375,-0.49609375,0.107421875,0.83984375,-0.341796875,-1.71875,-7.734375,0.96484375,1.0
626473,,,,,,,,-1.890625,1.55078125,-0.6640625,0.10546875,0.763671875,-0.326171875,-1.6796875,-8.0390625,0.8125,1.0
626474,,,,,,,,-1.74609375,1.4375,-0.59765625,0.125,0.748046875,-0.310546875,-1.52734375,-8.16015625,0.88671875,1.0
626475,,,,,,,,-1.45703125,1.28515625,-0.421875,0.17578125,0.748046875,-0.279296875,-1.22265625,-8.3046875,1.078125,1.0
626476,,,,,,,,-1.2734375,1.30859375,-0.24609375,0.224609375,0.755859375,-0.23828125,-1.03125,-8.26953125,1.26953125,1.0
626477,,,,,,,,-1.1953125,1.34375,-0.22265625,0.234375,0.748046875,-0.21875,-0.953125,-8.234375,1.30859375,1.0
626478,,,,,,,,-1.05859375,1.4140625,-0.3671875,0.21484375,0.701171875,-0.15234375,-0.80078125,-8.16015625,1.1953125,1.0
626479,,,,,,,,-1.09765625,1.3359375,-0.4609375,0.201171875,0.68359375,-0.1328125,-0.83984375,-8.23828125,1.1171875,1.0
626480,36.01321033333333,129.31921633333334,55.561616736831255,89.91414495156292,1.1,286.0,,-1.25,1.14453125,-0.62890625,0.19140625,0.62109375,-0.10546875,-0.9921875,-8.421875,0.96484375,1.0
626481,,,,,,,,-1.43359375,0.71875,-0.61328125,0.220703125,0.56640625,-0.099609375,-1.18359375,-8.84765625,1.00390625,1.0
626482,,,,,,,,-1.5078125,0.48046875,-0.72265625,0.265625,0.521484375,-0.103515625,-1.2578125,-9.0703125,0.92578125,1.0
626483,,,,,,,,-1.47265625,0.31640625,-0.73828125,0.28515625,0.5234375,-0.111328125,-1.22265625,-9.23046875,0.92578125,1.0
626484,,,,,,,,-1.5078125,0.28125,-0.80859375,0.26171875,0.525390625,-0.1171875,-1.2578125,-9.265625,0.88671875,1.0
626485,,,,,,,,-1.625,0.234375,-0.75390625,0.203125,0.5078125,-0.11328125,-1.375,-9.3046875,0.96484375,1.0
626486,,,,,,,,-1.69921875,0.1875,-0.73046875,0.1484375,0.46484375,-0.10546875,-1.44921875,-9.34375,1.00390625,1.0
626487,,,,,,,,-1.6640625,0.03515625,-0.6328125,0.125,0.423828125,-0.107421875,-1.4140625,-9.49609375,1.1171875,1.0
626488,,,,,,,,-1.6640625,-0.1953125,-0.515625,0.109375,0.412109375,-0.11328125,-1.4140625,-9.7265625,1.234375,1.0
626489,,,,,,,,-1.74609375,-0.546875,-0.5703125,0.0703125,0.3828125,-0.10546875,-1.48828125,-10.07421875,1.1953125,1.0
626490,36.01321083333333,129.31921533333335,55.471467738225016,89.96962400430289,1.0,293.0,,-1.85546875,-0.546875,-0.49609375,0.19140625,0.62109375,-0.10546875,-0.9921875,-8.421875,0.96484375,1.0
626491,,,,,,,,-1.9375,-0.671875,-0.65625,0.041015625,0.326171875,-0.12109375,-1.6796875,-10.19140625,1.1171875,1.0
626492,,,,,,,,-1.671875,-0.671875,-0.80859375,0.025390625,0.2734375,-0.126953125,-1.4140625,-10.19140625,0.96484375,1.0
626493,,,,,,,,-1.515625,-0.6796875,-0.92578125,0.017578125,0.24609375,-0.125,-1.2578125,-10.19140625,0.84765625,1.0
626494,,,,,,,,-1.25,-0.59375,-1.0390625,-0.0078125,0.212890625,-0.126953125,-0.9921875,-10.11328125,0.734375,1.0
626495,,,,,,,,-0.91015625,-0.44140625,-1.19140625,-0.01953125,0.193359375,-0.12890625,-0.64453125,-9.953125,0.58203125,1.0
626496,,,,,,,,-0.69140625,-0.32421875,-1.18359375,-0.044921875,0.138671875,-0.119140625,-0.41796875,-9.83984375,0.58203125,1.0
626497,,,,,,,,-0.5078125,-0.2890625,-1.0625,-0.09765625,0.078125,-0.107421875,-0.2265625,-9.80859375,0.6953125,1.0
626498,,,,,,,,-0.515625,-0.2109375,-0.9453125,-0.12109375,0.056640625,-0.09765625,-0.2265625,-9.7265625,0.8125,1.0
626499,,,,,,,,-1.01171875,-0.85546875,-0.6171875,-0.201171875,0.04296875,-0.08203125,-0.72265625,-10.375,1.1171875,1.0
626500,36.013211500000004,129.31921433333335,55.381318624377705,90.04359626678173,1.1,303.0,0.0,-1.28125,-1.69921875,-0.27734375,0.19140625,0.62109375,-0.10546875,-0.9921875,-8.421875,0.96484375,1.0
626501,,,,,,,,-0.828125,-2.73046875,0.2890625,-0.3359375,0.12109375,-0.064453125,-0.53125,-12.25,1.9609375,1.0
626502,,,,,,,,-0.1015625,-3.14453125,0.7421875,-0.416015625,0.14453125,-0.052734375,0.1953125,-12.67578125,2.3828125,1.0
626503,,,,,,,,1.28515625,-3.25390625,1.4765625,-0.455078125,0.15234375,-0.056640625,1.57421875,-12.7890625,3.0703125,1.0
626504,,,,,,,,2.58203125,-4.125,1.984375,-0.572265625,0.169921875,-0.060546875,2.87890625,-13.67578125,3.53125,1.0
626505,,,,,,,,3.84375,-3.8046875,3.1953125,-0.828125,0.103515625,-0.01953125,4.140625,-13.37109375,4.640625,1.0
626506,,,,,,,,3.890625,-3.18359375,3.50390625,-0.80859375,0.0625,0.015625,4.1796875,-12.75,4.91015625,1.0
626507,,,,,,,,3.36328125,-2.59375,3.421875,-0.6796875,0.041015625,0.05859375,3.64453125,-12.18359375,4.7578125,1.0
626508,,,,,,,,1.83984375,-1.50390625,3.890625,-0.548828125,0.16796875,0.05859375,2.11328125,-11.1015625,5.140625,1.0
626509,,,,,,,,0.734375,-0.66015625,3.6015625,-0.45703125,0.3359375,0.025390625,1.0,-10.2578125,4.796875,1.0
626510,36.0132125,129.3192135,55.306194052922464,90.15455503955673,1.1,311.0,,0.20703125,-0.1953125,2.703125,-0.103515625,0.517578125,-0.001953125,0.46484375,-9.8046875,3.875,1.0
626511,,,,,,,,-0.09375,0.03515625,2.19140625,0.27734375,0.697265625,-0.12109375,0.15625,-9.57421875,3.37890625,1.0
626512,,,,,,,,-0.12890625,0.11328125,1.8984375,0.37890625,0.728515625,-0.171875,0.12109375,-9.4921875,3.109375,1.0
626513,,,,,,,,-0.0703125,0.41796875,1.09375,0.5703125,0.70703125,-0.248046875,0.1953125,-9.1875,2.34375,1.0
626514,,,,,,,,-0.3515625,0.06640625,0.9140625,0.65234375,0.517578125,-0.28125,-0.0703125,-9.53125,2.2265625,1.0
626515,,,,,,,,-0.1171875,-0.5234375,1.3671875,0.46484375,0.361328125,-0.150390625,0.1953125,-10.109375,2.8046875,1.0
626516,,,,,,,,0.11328125,-0.75390625,1.47265625,0.41015625,0.392578125,-0.115234375,0.42578125,-10.3359375,2.91796875,1.0
626517,,,,,,,,0.07421875,-0.68359375,1.203125,0.244140625,0.421875,-0.03125,0.38671875,-10.26171875,2.6875,1.0
626518,,,,,,,,-0.22265625,-0.41015625,1.02734375,-0.076171875,0.466796875,0.166015625,-0.03515625,-9.8359375,2.45703125,1.0
626519,,,,,,,,-0.33203125,-0.25390625,0.95703125,-0.177734375,0.498046875,0.236328125,-0.1484375,-9.69140625,2.421875,1.0
626520,36.01321316666667,129.3192125,55.216044942025746,90.22852730227036,1.1,310.0,,0.20703125,-0.1953125,2.703125,-0.2734375,0.54296875,0.337890625,-0.1484375,-9.19140625,2.265625,1.0
626521,,,,,,,,-0.2890625,0.59375,0.72265625,-0.255859375,0.611328125,0.376953125,0.04296875,-8.65234375,2.03515625,1.0
626522,,,,,,,,-0.0234375,1.0546875,0.4765625,-0.16796875,0.677734375,0.369140625,0.15625,-8.34375,1.69140625,1.0
626523,,,,,,,,0.0625,1.40625,0.140625,-0.0703125,0.685546875,0.328125,0.1953125,-7.8125,1.26953125,1.0
626524,,,,,,,,0.109375,1.98828125,-0.1953125,0.041015625,0.658203125,0.26953125,0.234375,-7.4296875,1.15625,1.0
626525,,,,,,,,0.1875,2.44140625,-0.28125,0.12109375,0.609375,0.220703125,0.2734375,-7.1171875,1.15625,1.0
626526,,,,,,,,0.2421875,2.48046875,-0.2890625,0.146484375,0.607421875,0.193359375,0.3125,-7.078125,1.1953125,1.0
626527,,,,,,,,0.3046875,2.48046875,-0.265625,0.181640625,0.625,0.1640625,0.3125,-7.1171875,1.1953125,1.0
626528,,,,,,,,0.40234375,2.328125,-0.359375,0.18359375,0.689453125,0.140625,0.38671875,-7.35546875,1.00390625,1.0
626529,,,,,,,,0.51171875,2.171875,-0.49609375,0.1484375,0.765625,0.134765625,0.578125,-7.5,0.92578125,1.0
626530,36.01321383333333,129.319212,55.17097015358728,90.3024998496095,0.9,311.0,,0.20703125,-0.1953125,2.703125,-0.2734375,0.54296875,0.337890625,0.65625,-7.58203125,0.88671875,1.0
626531,,,,,,,,0.796875,1.97265625,-0.63671875,0.126953125,0.83203125,0.099609375,0.734375,-7.69921875,0.92578125,1.0
626532,,,,,,,,0.859375,1.78125,-0.60546875,0.125,0.82421875,0.0703125,0.84765625,-7.92578125,1.00390625,1.0
626533,,,,,,,,1.02734375,1.62890625,-0.46875,0.08984375,0.796875,0.0390625,0.80859375,-7.92578125,1.078125,1.0
626534,,,,,,,,0.8125,1.734375,-0.484375,0.01953125,0.7578125,-0.025390625,0.46484375,-7.65625,0.88671875,1.0
626535,,,,,,,,0.55859375,1.890625,-0.828125,-0.021484375,0.771484375,-0.08203125,0.34765625,-7.73828125,0.65625,1.0
626536,,,,,,,,0.52734375,1.8515625,-0.90625,-0.033203125,0.78515625,-0.107421875,0.234375,-7.8515625,0.54296875,1.0
626537,,,,,,,,0.3359375,1.58203125,-1.203125,-0.03515625,0.8046875,-0.16015625,0.15625,-8.0,0.3515625,1.0
626538,,,,,,,,0.18359375,1.23828125,-1.05078125,0.005859375,0.775390625,-0.2265625,0.00390625,-8.34765625,0.50390625,1.0
626539,,,,,,,,0.0546875,0.89453125,-0.8984375,0.064453125,0.771484375,-0.251953125,-0.109375,-8.6875,0.65625,1.0
626540,36.013214833333336,129.31921116666666,55.095845589343796,90.41345862406075,1.1,317.0,,0.20703125,-0.1953125,2.703125,0.12890625,0.81640625,-0.263671875,0.65625,-7.58203125,0.88671875,1.0
626541,,,,,,,,0.14453125,0.6875,-0.796875,0.095703125,0.81640625,-0.2578125,0.00390625,-8.8828125,0.7734375,1.0
626542,,,,,,,,0.13671875,0.6875,-0.84375,0.056640625,0.833984375,-0.2578125,0.00390625,-8.8828125,0.734375,1.0
626543,,,,,,,,-0.0703125,0.5703125,-0.921875,0.015625,0.90234375,-0.232421875,-0.1875,-9.00390625,0.65625,1.0
626544,,,,,,,,-0.4296875,0.6484375,-0.921875,0.068359375,0.90234375,-0.212890625,-0.53125,-8.92578125,0.65625,1.0
626545,,,,,,,,-0.515625,0.5546875,-1.01171875,0.1015625,0.89453125,-0.19140625,-0.609375,-9.00390625,0.58203125,1.0
626546,,,,,,,,-0.58984375,0.32421875,-0.97265625,0.119140625,0.8984375,-0.181640625,-0.68359375,-9.23046875,0.62109375,1.0
626547,,,,,,,,-0.55078125,-0.36328125,-0.76171875,0.09375,0.884765625,-0.162109375,-0.64453125,-9.9140625,0.84765625,1.0
626548,,,,,,,,-0.484375,-0.86328125,-0.5390625,0.07421875,0.857421875,-0.15234375,-0.5703125,-10.4140625,1.078125,1.0
626549,,,,,,,,-0.3984375,-0.9765625,-0.3828125,0.0703125,0.84375,-0.13671875,-0.4921875,-10.53515625,1.234375,1.0
626550,36.01321566666666,129.31921033333336,55.02072114296263,90.50592419005645,1.1,318.0,,-0.0859375,-0.9765625,-0.125,0.12890625,0.81640625,-0.263671875,0.65625,-7.58203125,0.88671875,1.0
626551,,,,,,,,0.03125,-0.5625,-0.23046875,-0.03125,0.775390625,-0.08203125,-0.0703125,-10.11328125,1.38671875,1.0
626552,,,,,,,,0.45703125,0.01171875,-0.60546875,-0.158203125,0.69921875,-0.060546875,0.34765625,-9.53125,1.00390625,1.0
626553,,,,,,,,0.8125,0.203125,-0.7890625,-0.2109375,0.65625,-0.05078125,0.6953125,-9.34765625,0.8125,1.0
626554,,,,,,,,1.1953125,0.171875,-0.921875,-0.26171875,0.57421875,-0.041015625,1.078125,-9.38671875,0.65625,1.0
626555,,,,,,,,1.625,-0.1328125,-0.97265625,-0.220703125,0.50390625,-0.0390625,1.5,-9.6875,0.58203125,1.0
626556,,,,,,,,1.69921875,-1.16796875,-1.03515625,-0.134765625,0.451171875,-0.03125,1.57421875,-10.71875,0.50390625,1.0
626557,,,,,,,,1.09375,-2.77734375,-0.8203125,-0.126953125,0.41796875,-0.017578125,0.9609375,-12.328125,0.6953125,1.0
626558,,,,,,,,0.90234375,-3.2734375,-0.66015625,-0.181640625,0.431640625,-0.009765625,0.76953125,-12.828125,0.84765625,1.0
626559,,,,,,,,0.375,-4.26171875,0.32421875,-0.318359375,0.494140625,0.0234375,0.234375,-13.82421875,1.80859375,1.0
626560,36.01321666666667,129.31920966666667,54.96062135251279,90.61688306035123,1.2000000000000002,321.0,,-0.296875,-5.40625,1.7421875,0.12890625,0.81640625,-0.263671875,0.65625,-7.58203125,0.88671875,1.0
626561,,,,,,,,-1.69921875,-6.39453125,2.03515625,-0.6875,0.69140625,0.11328125,-1.87109375,-15.97265625,3.41796875,1.0
626562,,,,,,,,-2.06640625,-5.08984375,2.75390625,-0.787109375,0.755859375,0.12890625,-2.25390625,-14.66796875,4.10546875,1.0
626563,,,,,,,,-2.609375,-2.4609375,2.92578125,-0.888671875,0.892578125,0.125,-2.828125,-12.06640625,4.14453125,1.0
626564,,,,,,,,-2.41015625,-1.08203125,2.3515625,-0.849609375,0.9296875,0.109375,-2.63671875,-10.68359375,3.53125,1.0
626565,,,,,,,,-1.8515625,-0.37890625,2.12109375,-0.765625,1.07421875,0.0859375,-2.1015625,-9.99609375,3.22265625,1.0
626566,,,,,,,,1.71875,-2.19921875,2.80078125,-0.626953125,0.91796875,0.162109375,1.421875,-11.828125,3.76171875,1.0
626567,,,,,,,,1.78125,-1.96484375,2.609375,0.01171875,0.822265625,0.126953125,1.4609375,-11.60546875,3.53125,1.0
626568,,,,,,,,1.26171875,-1.50390625,1.66796875,0.369140625,0.759765625,0.162109375,0.92578125,-11.14453125,2.61328125,1.0
626569,,,,,,,,1.26953125,-1.50390625,1.65234375,0.283203125,0.875,0.169921875,0.6953125,-11.02734375,2.3046875,1.0
626570,36.0132175,129.31920866666667,54.87047213414599,90.70934853553524,1.2000000000000002,321.0,,-0.296875,-5.40625,1.7421875,0.138671875,1.119140625,0.142578125,0.65625,-7.58203125,0.88671875,1.0
626571,,,,,,,,0.01953125,-0.8203125,0.9609375,0.140625,1.24609375,0.09375,-0.64453125,-10.296875,2.2265625,1.0
626572,,,,,,,,-0.53125,-0.546875,1.6328125,0.3125,1.265625,0.02734375,-1.296875,-10.07421875,3.22265625,1.0
626573,,,,,,,,-0.9765625,-0.35546875,2.1484375,0.470703125,1.197265625,-0.0234375,-1.44921875,-9.83984375,3.03125,1.0
626574,,,,,,,,-0.96875,-0.1328125,1.6875,0.447265625,1.111328125,-0.091796875,-1.375,-9.4921875,2.265625,1.0
626575,,,,,,,,-0.8515625,0.2890625,0.95703125,0.318359375,1.11328125,-0.185546875,-1.22265625,-9.1484375,1.84375,1.0
626576,,,,,,,,-0.77734375,0.48046875,0.7109375,0.2578125,1.14453125,-0.21484375,-1.14453125,-9.04296875,1.73046875,1.0
626577,,,,,,,,-0.5546875,0.82421875,0.53515625,0.201171875,1.142578125,-0.236328125,-0.9140625,-8.73046875,1.73046875,1.0
626578,,,,,,,,-0.33203125,1.0859375,0.51953125,0.208984375,0.99609375,-0.24609375,-0.64453125,-8.42578125,1.65234375,1.0
626579,,,,,,,,-0.26953125,1.32421875,0.390625,0.212890625,0.935546875,-0.23828125,-0.5703125,-8.23828125,1.5,1.0
626580,36.013218333333334,129.31920783333334,54.79534769002917,90.80181410348904,1.1,321.0,,-0.296875,-5.40625,1.7421875,0.138671875,1.119140625,0.142578125,-0.68359375,-7.50390625,1.4609375,1.0
626581,,,,,,,,-0.44921875,2.359375,0.19140625,0.16796875,0.89453125,-0.1875,-0.875,-7.16015625,1.42578125,1.0
626582,,,,,,,,-0.484375,2.47265625,0.18359375,0.15234375,0.88671875,-0.177734375,-0.9921875,-7.078125,1.34765625,1.0
626583,,,,,,,,-0.6484375,2.55078125,0.08984375,0.1640625,0.869140625,-0.1953125,-1.18359375,-7.16015625,1.42578125,1.0
626584,,,,,,,,-0.80078125,2.47265625,0.16015625,0.17578125,0.849609375,-0.201171875,-1.3359375,-7.16015625,1.30859375,1.0
626585,,,,,,,,-0.921875,2.47265625,-0.01171875,0.185546875,0.814453125,-0.216796875,-1.4140625,-7.08203125,1.1171875,1.0
626586,,,,,,,,-1.046875,2.55078125,-0.171875,0.208984375,0.763671875,-0.244140625,-1.44921875,-7.1171875,1.0390625,1.0
626587,,,,,,,,-1.328125,2.38671875,-0.28125,0.236328125,0.681640625,-0.28515625,-1.71875,-7.23828125,1.0390625,1.0
626588,,,,,,,,-1.390625,2.38671875,-0.3125,0.234375,0.650390625,-0.296875,-1.796875,-7.31640625,1.15625,1.0
626589,,,,,,,,-1.4921875,2.34375,-0.25,0.26953125,0.6484375,-0.271484375,-1.796875,-7.35546875,1.15625,1.0
626590,36.013219166666666,129.31920733333334,54.75027279503671,90.89427986066568,1.0,323.0,,-1.5078125,2.265625,-0.234375,0.263671875,0.650390625,-0.26171875,-1.7578125,-7.50390625,1.078125,1.0
626591,,,,,,,,-1.3984375,2.10546875,-0.34375,0.25,0.66015625,-0.22265625,-1.640625,-7.6171875,1.0390625,1.0
626592,,,,,,,,-1.26171875,1.875,-0.40625,0.23046875,0.6484375,-0.18359375,-1.52734375,-7.77734375,1.078125,1.0
626593,,,,,,,,-1.26953125,1.75,-0.3828125,0.2265625,0.62890625,-0.134765625,-1.48828125,-7.921875,1.078125,1.0
626594,,,,,,,,-1.15625,1.58984375,-0.40625,0.234375,0.59765625,-0.11328125,-1.4140625,-8.1171875,1.0390625,1.0
626595,,,,,,,,-1.078125,1.390625,-0.4765625,0.216796875,0.515625,-0.078125,-1.18359375,-8.34375,1.078125,1.0
626596,,,,,,,,-0.91796875,1.23828125,-0.453125,0.208984375,0.48046875,-0.072265625,-1.10546875,-8.421875,1.0390625,1.0
626597,,,,,,,,-0.765625,0.96875,-0.46875,0.203125,0.423828125,-0.05859375,-1.03125,-8.6171875,1.078125,1.0
626598,,,,,,,,-0.609375,0.76953125,-0.53125,0.19140625,0.375,-0.052734375,-0.875,-8.80859375,1.0390625,1.0
626599,,,,,,,,-0.57421875,0.5703125,-0.3515625,0.173828125,0.3359375,-0.046875,-0.83984375,-9.00390625,1.234375,1.0
626600,36.013220000000004,129.31920683333334,54.705197901454355,90.98674561891004,1.1,330.0,0.0,-1.5078125,2.265625,-0.234375,0.154296875,0.3203125,-0.033203125,-1.7578125,-7.50390625,1.078125,1.0
626601,,,,,,,,-0.7109375,0.21875,-0.34765625,0.111328125,0.306640625,-0.033203125,-0.9921875,-9.34375,1.26953125,1.0
626602,,,,,,,,-0.78515625,0.02734375,-0.35546875,0.07421875,0.298828125,-0.0390625,-1.06640625,-9.53125,1.26953125,1.0
626603,,,,,,,,-0.86328125,-0.125,-0.36328125,0.048828125,0.291015625,-0.05078125,-1.14453125,-9.6875,1.26953125,1.0
626604,,,,,,,,-0.81640625,-0.36328125,-0.40625,0.033203125,0.279296875,-0.0703125,-1.10546875,-9.9140625,1.234375,1.0
626605,,,,,,,,-0.7421875,-0.48046875,-0.4140625,0.04296875,0.287109375,-0.091796875,-1.03125,-10.03515625,1.234375,1.0
626606,,,,,,,,-0.6640625,-0.5546875,-0.453125,0.041015625,0.279296875,-0.1015625,-0.953125,-10.109375,1.1953125,1.0
626607,,,,,,,,-0.51953125,-0.640625,-0.5625,0.021484375,0.283203125,-0.119140625,-0.80078125,-10.1875,1.078125,1.0
626608,,,,,,,,-0.36328125,-0.640625,-0.6015625,0.01171875,0.279296875,-0.134765625,-0.64453125,-10.1875,1.0390625,1.0
626609,,,,,,,,-0.37109375,-0.609375,-0.5703125,-0.005859375,0.251953125,-0.146484375,-0.64453125,-10.15234375,1.078125,1.0
626610,36.013221,129.31920649999998,54.6751476611478,91.09770467766377,1.1,336.0,,-0.3515625,-0.37109375,-0.6015625,-0.0546875,0.21875,-0.15625,-0.609375,-9.91796875,1.0390625,1.0
626611,,,,,,,,-0.51171875,0.125,-0.59375,-0.095703125,0.21484375,-0.162109375,-0.76171875,-9.421875,1.0390625,1.0
626612,,,,,,,,-0.6328125,0.31640625,-0.59375,-0.11328125,0.220703125,-0.158203125,-0.875,-9.2265625,1.0390625,1.0
626613,,,,,,,,-0.87109375,0.703125,-0.421875,-0.15234375,0.2578125,-0.16015625,-1.10546875,-8.84375,1.1953125,1.0
626614,,,,,,,,-1.30078125,0.203125,-0.359375,-0.20703125,0.30078125,-0.16015625,-1.52734375,-9.34375,1.234375,1.0
626615,,,,,,,,-1.34765625,-0.671875,-0.53125,-0.232421875,0.328125,-0.16015625,-1.56640625,-10.23046875,1.0390625,1.0
626616,,,,,,,,-1.01171875,-0.70703125,-0.67578125,-0.234375,0.345703125,-0.1640625,-1.22265625,-10.26171875,0.88671875,1.0
626617,,,,,,,,-0.86328125,-0.31640625,-0.10546875,-0.2421875,0.357421875,-0.169921875,-1.06640625,-9.875,1.42578125,1.0
626618,,,,,,,,-0.8359375,-0.05078125,0.375,-0.291015625,0.35546875,-0.18359375,-1.03125,-9.61328125,1.8828125,1.0
626619,,,,,,,,-0.91015625,-0.15625,0.5078125,-0.333984375,0.34765625,-0.1875,-1.10546875,-9.73046875,2.0,1.0
626620,36.01322183333333,129.3192063333333,54.66012231354364,91.19017062153206,1.1,343.0,,0.21484375,-2.72265625,1.17578125,-0.0546875,0.21875,-0.15625,-0.609375,-9.91796875,1.0390625,1.0
626621,,,,,,,,1.515625,-4.66796875,1.20703125,-0.703125,0.26171875,-0.11328125,1.34375,-14.24609375,2.57421875,1.0
626622,,,,,,,,2.58984375,-6.0390625,1.50390625,-0.6875,0.244140625,-0.068359375,2.41796875,-15.625,2.83984375,1.0
626623,,,,,,,,4.92578125,-5.10546875,3.5078125,-0.51953125,0.134765625,0.0,4.75390625,-14.703125,4.7578125,1.0
626624,,,,,,,,3.05078125,-2.80078125,4.4375,-0.841796875,-0.32421875,0.009765625,2.87890625,-12.40625,5.5625,1.0
626625,,,,,,,,0.328125,-2.62890625,3.79296875,-0.77734375,-0.4453125,0.001953125,0.15625,-12.25,4.83203125,1.0
626626,,,,,,,,-0.24609375,-2.4375,3.55859375,-0.69921875,-0.453125,-0.033203125,-0.41796875,-12.0625,4.56640625,1.0
626627,,,,,,,,-0.2890625,-1.97265625,2.921875,-0.43359375,-0.373046875,-0.08203125,-0.453125,-11.6015625,3.875,1.0
626628,,,,,,,,-0.23046875,-0.8125,1.484375,0.029296875,0.208984375,-0.181640625,-0.37890625,-10.45703125,2.421875,1.0
626629,,,,,,,,-0.27734375,-0.4296875,1.24609375,0.234375,0.494140625,-0.236328125,-0.41796875,-10.0703125,2.19140625,1.0
626630,36.01322283333333,129.3192063333333,54.66012162314714,91.30112986764638,1.1,350.0,,-0.4140625,0.375,1.05078125,-0.0546875,0.21875,-0.15625,-0.53125,-9.26953125,2.03515625,1.0
626631,,,,,,,,-0.24609375,0.7890625,1.01171875,0.458984375,0.46484375,-0.2734375,-0.33984375,-8.84765625,2.03515625,1.0
626632,,,,,,,,-0.22265625,0.7578125,0.8828125,0.521484375,0.322265625,-0.203125,-0.30078125,-8.8828125,1.9609375,1.0
626633,,,,,,,,-0.1171875,0.25,0.796875,0.576171875,0.43359375,-0.08984375,-0.1875,-9.3828125,1.921875,1.0
626634,,,,,,,,-0.21484375,0.203125,0.796875,0.416015625,0.736328125,0.09765625,-0.30078125,-9.42578125,2.0,1.0
626635,,,,,,,,-0.61328125,0.7421875,0.45703125,0.2109375,0.8203125,0.20703125,-0.72265625,-8.8828125,1.69140625,1.0
626636,,,,,,,,-0.75,1.125,0.2578125,0.11328125,0.833984375,0.25,-0.875,-8.5,1.5,1.0
626637,,,,,,,,-0.75,1.4609375,0.2109375,-0.09765625,0.8046875,0.298828125,-0.9140625,-8.15625,1.4609375,1.0
626638,,,,,,,,-0.42578125,1.890625,0.0078125,-0.26171875,0.763671875,0.314453125,-0.64453125,-7.73828125,1.234375,1.0
626639,,,,,,,,-0.17578125,2.00390625,-0.09375,-0.25,0.759765625,0.30078125,-0.41796875,-7.6171875,1.1171875,1.0
626640,36.01322366666667,129.319206,54.630071506274696,91.39359571908605,1.1,347.0,,0.1484375,2.16796875,-0.25390625,-0.177734375,0.771484375,0.248046875,-0.1484375,-7.46484375,0.92578125,1.0
626641,,,,,,,,0.37109375,2.12890625,-0.27734375,-0.158203125,0.759765625,0.2109375,0.04296875,-7.5,0.88671875,1.0
626642,,,,,,,,0.48046875,1.8984375,-0.3359375,-0.138671875,0.74609375,0.169921875,0.12109375,-7.734375,0.8125,1.0
626643,,,,,,,,0.76953125,1.74609375,-0.28515625,-0.12890625,0.744140625,0.150390625,0.38671875,-7.8828125,0.84765625,1.0
626644,,,,,,,,0.94921875,1.59765625,-0.27734375,-0.095703125,0.8046875,0.12109375,0.54296875,-8.04296875,0.84765625,1.0
626645,,,,,,,,1.0,1.484375,-0.26953125,-0.064453125,0.88671875,0.095703125,0.578125,-8.15625,0.84765625,1.0
626646,,,,,,,,1.0078125,1.4453125,-0.26171875,-0.03515625,0.921875,0.07421875,0.578125,-8.19921875,0.84765625,1.0
626647,,,,,,,,0.91796875,1.40625,-0.25390625,0.00390625,0.955078125,0.052734375,0.46484375,-8.23828125,0.84765625,1.0
626648,,,,,,,,0.703125,1.36328125,-0.14453125,0.01953125,0.97265625,0.0234375,0.234375,-8.26953125,0.96484375,1.0
626649,,,,,,,,0.48046875,1.20703125,-0.0625,0.033203125,0.9765625,-0.013671875,0.00390625,-8.42578125,1.0390625,1.0
626650,36.01322433333333,129.319206,54.63007104629513,91.4675685491213,0.9,350.0,,0.22265625,0.86328125,-0.0625,0.052734375,0.98828125,-0.07421875,-0.26171875,-8.765625,1.0390625,1.0
626651,,,,,,,,0.10546875,0.7109375,-0.10546875,0.078125,1.0078125,-0.123046875,-0.37890625,-8.92578125,1.00390625,1.0
626652,,,,,,,,0.03125,0.671875,-0.25390625,0.083984375,1.017578125,-0.154296875,-0.453125,-8.96484375,0.84765625,1.0
626653,,,,,,,,0.03125,0.55078125,-0.49609375,0.09375,1.021484375,-0.203125,-0.453125,-9.07421875,0.62109375,1.0
626654,,,,,,,,0.0234375,0.51953125,-0.58203125,0.11328125,1.017578125,-0.22265625,-0.453125,-9.109375,0.54296875,1.0
626655,,,,,,,,0.04296875,0.51953125,-0.62890625,0.1484375,0.98046875,-0.265625,-0.41796875,-9.11328125,0.50390625,1.0
626656,,,,,,,,-0.09375,0.671875,-0.61328125,0.20703125,0.91015625,-0.275390625,-0.53125,-8.96484375,0.54296875,1.0
626657,,,,,,,,-0.43359375,0.734375,-0.5390625,0.2890625,0.921875,-0.271484375,-0.83984375,-8.88671875,0.65625,1.0
626658,,,,,,,,-0.4765625,0.734375,-0.3984375,0.296875,0.916015625,-0.271484375,-0.875,-8.88671875,0.8125,1.0
626659,,,,,,,,-0.6484375,0.578125,-0.5390625,0.298828125,0.87109375,-0.267578125,-1.03125,-9.04296875,0.6953125,1.0
626660,36.01322533333334,129.31920583333334,54.61504558482909,91.57852770179107,1.1,354.0,,-0.6171875,0.6171875,-0.515625,0.052734375,0.98828125,-0.07421875,-0.9921875,-9.0,0.734375,1.0
626661,,,,,,,,-0.73828125,0.83984375,-0.39453125,0.294921875,0.783203125,-0.26171875,-1.10546875,-8.76953125,0.88671875,1.0
626662,,,,,,,,-0.71484375,0.79296875,-0.4921875,0.298828125,0.755859375,-0.244140625,-1.06640625,-8.80859375,0.8125,1.0
626663,,,,,,,,-0.72265625,0.79296875,-0.5,0.28125,0.708984375,-0.21484375,-0.9921875,-8.921875,0.8125,1.0
626664,,,,,,,,-0.42578125,0.25,-0.37109375,0.26953125,0.681640625,-0.171875,-0.76171875,-9.34375,0.96484375,1.0
626665,,,,,,,,-0.125,-0.36328125,-0.1640625,0.21875,0.62890625,-0.126953125,-0.453125,-9.953125,1.1953125,1.0
626666,,,,,,,,-0.05859375,-0.5625,-0.11328125,0.259765625,0.609375,-0.095703125,-0.37890625,-10.1484375,1.26953125,1.0
626667,,,,,,,,-0.171875,0.00390625,-0.1796875,0.201171875,0.546875,-0.068359375,-0.4921875,-9.5703125,1.234375,1.0
626668,,,,,,,,-0.25,0.15625,-0.2265625,0.150390625,0.48828125,-0.052734375,-0.5703125,-9.42578125,1.1953125,1.0
626669,,,,,,,,-0.125,0.38671875,-0.50390625,0.017578125,0.380859375,-0.044921875,-0.453125,-9.1875,0.92578125,1.0
626670,36.013226333333336,129.31920583333334,54.61504489528686,91.68948694728914,1.1,355.0,,0.06640625,0.5390625,-0.6875,-0.03515625,0.26953125,-0.056640625,-0.26171875,-9.04296875,0.734375,1.0
626671,,,,,,,,0.41015625,0.6875,-0.765625,-0.02734375,0.2109375,-0.046875,0.08203125,-8.8828125,0.65625,1.0
626672,,,,,,,,0.640625,0.80078125,-0.7265625,-0.01171875,0.158203125,-0.044921875,0.3125,-8.765625,0.6953125,1.0
626673,,,,,,,,1.08984375,0.1875,-0.609375,-0.046875,0.103515625,-0.03515625,0.76953125,-9.3828125,0.8125,1.0
626674,,,,,,,,1.2890625,-0.875,-0.6328125,-0.16015625,0.09765625,0.0078125,0.9609375,-10.453125,0.7734375,1.0
626675,,,,,,,,1.18359375,-1.7578125,-0.609375,-0.244140625,0.16015625,0.05078125,0.84765625,-11.33984375,0.7734375,1.0
626676,,,,,,,,1.0390625,-1.86328125,-0.1171875,-0.32421875,0.263671875,0.087890625,0.6953125,-11.44921875,1.234375,1.0
626677,,,,,,,,0.86328125,-1.8359375,0.79296875,-0.4375,0.380859375,0.12109375,0.50390625,-11.41796875,2.11328125,1.0
626678,,,,,,,,-0.15625,-3.7421875,1.19140625,-0.60546875,0.5234375,0.123046875,-0.53125,-13.328125,2.45703125,1.0
626679,,,,,,,,-1.16796875,-6.60546875,1.37109375,-0.6640625,0.60546875,0.1328125,-1.56640625,-16.19921875,2.57421875,1.0
626680,36.0132275,129.319206,54.63006886125052,91.818939494255,1.2000000000000002,0.0,,-2.5625,-4.64453125,3.73046875,-0.03515625,0.26953125,-0.056640625,-0.26171875,-9.04296875,0.734375,1.0
626681,,,,,,,,-2.66796875,-2.64453125,3.54296875,-0.681640625,0.626953125,0.052734375,-3.09765625,-12.25,4.60546875,1.0
626682,,,,,,,,-2.0859375,-2.109375,2.4140625,-0.712890625,0.69140625,0.0234375,-2.5234375,-11.72265625,3.453125,1.0
626683,,,,,,,,-1.04296875,-1.91015625,2.37890625,-0.77734375,0.8046875,-0.0078125,-1.48828125,-11.5234375,3.33984375,1.0
626684,,,,,,,,0.3828125,-2.24609375,2.72265625,-0.8046875,0.779296875,-0.00390625,-0.0703125,-11.8671875,3.64453125,1.0
626685,,,,,,,,1.15625,-2.4609375,3.0234375,-0.650390625,0.6875,0.02734375,0.6953125,-12.1015625,3.8359375,1.0
626686,,,,,,,,1.66015625,-2.23046875,2.93359375,-0.4375,0.724609375,-0.013671875,1.19140625,-11.8671875,3.72265625,1.0
626687,,,,,,,,1.5078125,-1.1953125,2.18359375,0.40234375,0.638671875,0.0,1.0390625,-10.8359375,2.99609375,1.0
626688,,,,,,,,1.24609375,-0.5078125,1.66796875,0.3984375,0.708984375,0.013671875,0.76953125,-10.1484375,2.49609375,1.0
626689,,,,,,,,0.06640625,0.41015625,1.0625,0.40625,1.009765625,0.013671875,-0.41796875,-9.2265625,1.921875,1.0
626690,36.01322833333334,129.319206,54.630068285968065,91.91140553340901,1.1,0.0,,-0.19140625,0.41015625,1.17578125,0.47265625,1.283203125,-0.02734375,-0.68359375,-9.23046875,2.07421875,1.0
626691,,,,,,,,-0.60546875,0.51953125,1.3984375,0.599609375,1.318359375,-0.12109375,-1.10546875,-9.109375,2.34375,1.0
626692,,,,,,,,-0.7578125,0.44140625,1.265625,0.72265625,1.240234375,-0.2265625,-1.2578125,-9.19140625,2.265625,1.0
626693,,,,,,,,-0.62109375,0.703125,0.8046875,0.728515625,1.146484375,-0.318359375,-1.10546875,-8.921875,1.8828125,1.0
626694,,,,,,,,-0.27734375,1.4296875,0.15234375,0.39453125,1.048828125,-0.39453125,-0.72265625,-8.1953125,1.30859375,1.0
626695,,,,,,,,-0.1484375,1.69921875,-0.0703125,0.1640625,0.974609375,-0.412109375,-0.5703125,-7.92578125,1.1171875,1.0
626696,,,,,,,,-0.125,1.8515625,-0.22265625,0.115234375,0.94921875,-0.41015625,-0.53125,-7.7734375,0.96484375,1.0
626697,,,,,,,,-0.03515625,1.96875,-0.19140625,0.095703125,0.943359375,-0.408203125,-0.41796875,-7.66015625,1.00390625,1.0
626698,,,,,,,,-0.1953125,2.38671875,-0.23828125,0.1640625,0.986328125,-0.390625,-0.53125,-7.234375,0.96484375,1.0
626699,,,,,,,,-0.1953125,2.38671875,-0.23828125,0.1640625,0.986328125,-0.390625,-0.53125,-7.234375,0.96484375,1.0
626700,36.013229333333335,129.319206,54.63006759619934,92.0223647791879,1.0,1.0,0.0,-0.51171875,2.359375,-0.26953125,0.47265625,1.283203125,-0.02734375,-0.80078125,-7.2734375,0.96484375,1.0
626701,,,,,,,,-0.83203125,2.16015625,-0.4296875,0.060546875,1.0546875,-0.400390625,-1.10546875,-7.46484375,0.8125,1.0
626702,,,,,,,,-1.0,1.96875,-0.40234375,0.0234375,1.037109375,-0.412109375,-1.2578125,-7.65625,0.84765625,1.0
626703,,,,,,,,-1.1640625,1.8515625,-0.40234375,-0.0078125,0.9609375,-0.462890625,-1.375,-7.7734375,0.84765625,1.0
626704,,,,,,,,-1.42578125,1.70703125,-0.40234375,0.001953125,0.91796875,-0.50390625,-1.60546875,-7.921875,0.84765625,1.0
626705,,,,,,,,-1.6484375,1.46875,-0.4453125,0.037109375,0.849609375,-0.5234375,-1.7578125,-8.16015625,0.8125,1.0
626706,,,,,,,,-1.54296875,1.35546875,-0.4453125,0.05078125,0.828125,-0.5,-1.60546875,-8.26953125,0.8125,1.0
626707,,,,,,,,-1.51953125,1.31640625,-0.4453125,0.068359375,0.822265625,-0.482421875,-1.56640625,-8.30859375,0.8125,1.0
626708,,,,,,,,-1.3203125,1.30859375,-0.26953125,0.0859375,0.791015625,-0.435546875,-1.3359375,-8.3046875,1.00390625,1.0
626709,,,,,,,,-1.25,1.3828125,-0.203125,0.1015625,0.779296875,-0.412109375,-1.2578125,-8.234375,1.078125,1.0
626710,36.01323,129.31920616666667,54.64509190726176,92.09633770267057,1.0,4.0,,-1.08984375,1.3828125,-0.2109375,0.47265625,1.283203125,-0.02734375,-1.06640625,-8.23828125,1.078125,1.0
626711,,,,,,,,-1.0,1.3828125,-0.30078125,0.16015625,0.6953125,-0.302734375,-0.953125,-8.23828125,1.00390625,1.0
626712,,,,,,,,-1.09375,1.1484375,-0.5546875,0.1953125,0.6015625,-0.23046875,-1.03125,-8.4609375,0.7734375,1.0
626713,,,,,,,,-1.21484375,1.0703125,-0.53125,0.203125,0.560546875,-0.216796875,-1.14453125,-8.54296875,0.8125,1.0
626714,,,,,,,,-1.30078125,0.6015625,-0.7109375,0.224609375,0.48046875,-0.189453125,-1.22265625,-9.00390625,0.65625,1.0
626715,,,,,,,,-1.34375,0.37109375,-0.734375,0.27734375,0.4296875,-0.1875,-1.2578125,-9.2265625,0.65625,1.0
626716,,,,,,,,-1.3984375,0.2109375,-0.6875,0.30078125,0.40625,-0.185546875,-1.296875,-9.38671875,0.734375,1.0
626717,,,,,,,,-1.453125,0.1640625,-0.50390625,0.2578125,0.365234375,-0.177734375,-1.3359375,-9.421875,0.96484375,1.0
626718,,,,,,,,-1.40625,0.05078125,-0.390625,0.234375,0.328125,-0.177734375,-1.296875,-9.53125,1.078125,1.0
626719,,,,,,,,-1.3828125,-0.2265625,-0.375,0.21875,0.2734375,-0.181640625,-1.2578125,-9.80859375,1.1171875,1.0
626720,36.013231000000005,129.31920666666667,54.69016552799105,92.20729723027257,1.0,13.0,,-1.23828125,-0.5390625,-0.24609375,0.47265625,1.283203125,-0.02734375,-1.10546875,-10.109375,1.26953125,1.0
626721,,,,,,,,-1.0625,-0.6171875,-0.11328125,0.185546875,0.169921875,-0.197265625,-0.9140625,-10.1875,1.42578125,1.0
626722,,,,,,,,-0.88671875,-0.69921875,-0.09375,0.197265625,0.13671875,-0.21875,-0.72265625,-10.2578125,1.4609375,1.0
626723,,,,,,,,-0.86328125,-0.78515625,-0.1171875,0.19140625,0.08984375,-0.21484375,-0.68359375,-10.33984375,1.4609375,1.0
626724,,,,,,,,-0.62109375,-0.78515625,-0.3984375,0.1796875,0.04296875,-0.21875,-0.41796875,-10.33984375,1.1953125,1.0
626725,,,,,,,,-0.3671875,-0.83203125,-0.84375,0.162109375,-0.00390625,-0.21484375,-0.1484375,-10.37890625,0.7734375,1.0
626726,,,,,,,,-0.22265625,-0.83203125,-1.00390625,0.158203125,-0.046875,-0.208984375,0.00390625,-10.375,0.62109375,1.0
626727,,,,,,,,0.0625,-0.83203125,-0.828125,0.173828125,-0.07421875,-0.21484375,0.3125,-10.375,0.8125,1.0
626728,,,,,,,,0.08203125,-0.80078125,-0.77734375,0.1484375,-0.087890625,-0.220703125,0.34765625,-10.3359375,0.88671875,1.0
626729,,,,,,,,0.09765625,-0.578125,-0.28515625,0.107421875,-0.091796875,-0.220703125,0.38671875,-10.109375,1.38671875,1.0
626730,36.01323166666667,129.3192075,54.765288921475275,92.28127052802998,1.2000000000000002,24.0,,-0.26953125,-0.84765625,-0.4453125,0.052734375,-0.0703125,-0.224609375,0.04296875,-10.37890625,1.234375,1.0
626731,,,,,,,,-0.74609375,-1.7265625,-0.24609375,-0.099609375,0.013671875,-0.197265625,-0.41796875,-11.2578125,1.42578125,1.0
626732,,,,,,,,-0.65234375,-2.03515625,0.3046875,-0.158203125,0.07421875,-0.17578125,-0.30078125,-11.56640625,1.9609375,1.0
626733,,,,,,,,-0.39453125,-1.95703125,0.54296875,-0.1875,0.109375,-0.173828125,-0.03515625,-11.484375,2.19140625,1.0
626734,,,,,,,,0.09765625,-1.91015625,0.75,-0.224609375,0.162109375,-0.193359375,0.46484375,-11.44921875,2.3828125,1.0
626735,,,,,,,,0.50390625,-2.6015625,1.0390625,-0.30859375,0.1953125,-0.21875,0.88671875,-12.14453125,2.6484375,1.0
626736,,,,,,,,2.125,-4.0859375,1.984375,-0.59375,0.1328125,-0.2109375,2.53125,-13.63671875,3.53125,1.0
626737,,,,,,,,3.375,-3.46484375,2.69921875,-0.57421875,0.076171875,-0.173828125,3.796875,-13.01953125,4.18359375,1.0
626738,,,,,,,,3.52734375,-2.68359375,3.09765625,-0.513671875,0.072265625,-0.134765625,3.94921875,-12.25390625,4.56640625,1.0
626739,,,,,,,,2.5625,-2.26171875,3.48828125,-0.482421875,0.103515625,-0.072265625,2.9921875,-11.83203125,4.91015625,1.0
626740,36.01323266666667,129.31920833333334,54.8404120822198,92.39223024280291,1.2000000000000002,28.0,,0.83203125,-1.48828125,3.96484375,0.052734375,-0.0703125,-0.224609375,1.26953125,-11.06640625,5.33203125,1.0
626741,,,,,,,,0.33984375,-0.5078125,4.08984375,-0.55859375,0.26171875,-0.017578125,0.76953125,-10.11328125,5.37109375,1.0
626742,,,,,,,,0.06640625,0.3359375,3.4921875,-0.353515625,0.34375,-0.009765625,0.50390625,-9.265625,4.7578125,1.0
626743,,,,,,,,-0.42578125,0.91015625,2.7421875,0.091796875,0.62890625,-0.06640625,0.00390625,-8.69140625,3.9921875,1.0
626744,,,,,,,,-0.53125,1.109375,2.1875,0.203125,0.7421875,-0.09375,-0.109375,-8.50390625,3.453125,1.0
626745,,,,,,,,-0.5,1.21484375,1.58984375,0.263671875,0.7578125,-0.1484375,-0.0703125,-8.38671875,2.87890625,1.0
626746,,,,,,,,-0.5078125,1.140625,1.23828125,0.443359375,0.6015625,-0.1796875,-0.0703125,-8.4609375,2.57421875,1.0
626747,,,,,,,,-0.48046875,0.94921875,1.14453125,0.625,0.41015625,-0.1640625,-0.03515625,-8.6484375,2.53515625,1.0
626748,,,,,,,,0.1640625,0.41796875,1.48046875,0.525390625,0.29296875,-0.033203125,0.6171875,-9.1484375,2.99609375,1.0
626749,,,,,,,,0.44140625,0.33984375,1.45703125,0.4453125,0.30078125,0.005859375,0.88671875,-9.2265625,2.99609375,1.0
626750,36.0132335,129.31920916666667,54.91553535473324,92.48469675030788,1.2000000000000002,30.0,,0.41015625,0.3046875,1.37890625,0.052734375,-0.0703125,-0.224609375,0.84765625,-9.26953125,2.95703125,1.0
626751,,,,,,,,0.04296875,0.41015625,1.23828125,0.099609375,0.380859375,0.17578125,0.46484375,-9.15234375,2.83984375,1.0
626752,,,,,,,,-0.140625,0.76171875,0.96484375,-0.095703125,0.375,0.3203125,0.234375,-8.80859375,2.57421875,1.0
626753,,,,,,,,-0.1171875,0.83984375,0.8203125,-0.125,0.376953125,0.345703125,0.234375,-8.7265625,2.421875,1.0
626754,,,,,,,,0.0,1.078125,0.59765625,-0.171875,0.400390625,0.3671875,0.3125,-8.50390625,2.19140625,1.0
626755,,,,,,,,-0.03125,1.34375,0.2578125,-0.162109375,0.458984375,0.35546875,0.234375,-8.23828125,1.84375,1.0
626756,,,,,,,,-0.14453125,1.66015625,-0.03125,-0.1484375,0.478515625,0.318359375,0.08203125,-7.921875,1.5390625,1.0
626757,,,,,,,,-0.05859375,1.8125,-0.17578125,-0.078125,0.41796875,0.236328125,0.12109375,-7.7734375,1.38671875,1.0
626758,,,,,,,,0.1171875,1.7734375,-0.20703125,-0.05859375,0.40234375,0.21484375,0.2734375,-7.8125,1.34765625,1.0
626759,,,,,,,,0.20703125,1.78125,-0.25390625,-0.03125,0.37890625,0.1796875,0.34765625,-7.8125,1.30859375,1.0
626760,36.01323416666666,129.3192095,54.94558443451147,92.55866976767314,1.0,29.0,,0.5078125,1.8203125,-0.328125,-0.02734375,0.416015625,0.166015625,0.6171875,-7.7734375,1.234375,1.0
626761,,,,,,,,0.6484375,1.7734375,-0.3671875,-0.017578125,0.44921875,0.169921875,0.734375,-7.8828125,1.15625,1.0
626762,,,,,,,,0.671875,1.7421875,-0.4453125,-0.02734375,0.455078125,0.1796875,0.80859375,-7.85546875,1.15625,1.0
626763,,,,,,,,0.72265625,1.7734375,-0.484375,-0.021484375,0.47265625,0.18359375,0.76953125,-7.81640625,1.078125,1.0
626764,,,,,,,,0.71875,1.734375,-0.484375,-0.021484375,0.482421875,0.181640625,0.80859375,-7.8828125,1.0390625,1.0
626765,,,,,,,,0.78515625,1.66015625,-0.484375,-0.01953125,0.4765625,0.177734375,0.734375,-7.96484375,1.00390625,1.0
626766,,,,,,,,0.765625,1.62109375,-0.55859375,-0.017578125,0.47265625,0.169921875,0.80859375,-8.078125,1.00390625,1.0
626767,,,,,,,,0.89453125,1.3515625,-0.55859375,-0.03125,0.48046875,0.140625,0.84765625,-8.234375,0.92578125,1.0
626768,,,,,,,,0.796875,1.3515625,-0.67578125,-0.037109375,0.48046875,0.111328125,0.38671875,-8.1171875,0.7734375,1.0
626769,,,,,,,,0.3984375,1.3515625,-0.859375,-0.044921875,0.4765625,0.07421875,0.15625,-8.50390625,0.65625,1.0
626770,36.01323466666667,129.31921,54.99065839650714,92.61414967368299,1.0,33.0,,0.19140625,0.9609375,-0.8984375,-0.037109375,0.478515625,0.03515625,0.00390625,-8.73046875,0.6953125,1.0
626771,,,,,,,,0.08203125,0.80859375,-0.70703125,-0.01171875,0.50390625,0.0078125,-0.0703125,-8.84375,0.88671875,1.0
626772,,,,,,,,0.046875,0.734375,-0.66796875,0.0,0.5078125,-0.01171875,-0.03515625,-8.8828125,0.88671875,1.0
626773,,,,,,,,0.16796875,0.65625,-0.66015625,0.01171875,0.509765625,-0.0546875,0.08203125,-8.9609375,0.92578125,1.0
626774,,,,,,,,0.359375,0.65625,-0.66796875,0.03125,0.607421875,-0.048828125,0.1953125,-8.88671875,0.84765625,1.0
626775,,,,,,,,0.3359375,0.76171875,-0.67578125,0.01953125,0.61328125,-0.048828125,0.12109375,-8.8046875,0.88671875,1.0
626776,,,,,,,,0.26171875,0.76171875,-0.67578125,0.013671875,0.611328125,-0.052734375,0.04296875,-8.84375,0.92578125,1.0
626777,,,,,,,,0.078125,0.609375,-0.63671875,0.033203125,0.5859375,-0.0390625,-0.0703125,-8.96484375,0.92578125,1.0
626778,,,,,,,,-0.10546875,0.6484375,-0.53125,0.072265625,0.5859375,-0.037109375,-0.26171875,-8.921875,1.0390625,1.0
626779,,,,,,,,-0.18359375,0.6484375,-0.56640625,0.08984375,0.591796875,-0.03515625,-0.33984375,-8.92578125,1.00390625,1.0
626780,36.0132355,129.31921066666666,55.05075689611551,92.7066160883645,1.1,35.0,,-0.2890625,0.32421875,-0.4765625,0.115234375,0.630859375,-0.03515625,0.00390625,-8.73046875,0.6953125,1.0
626781,,,,,,,,-0.12109375,-0.36328125,-0.40625,0.072265625,0.609375,-0.0234375,-0.30078125,-9.9140625,1.1953125,1.0
626782,,,,,,,,-0.046875,-0.74609375,-0.33203125,0.05859375,0.57421875,-0.015625,-0.2265625,-10.30078125,1.26953125,1.0
626783,,,,,,,,0.078125,-0.9375,-0.1484375,0.07421875,0.58203125,-0.017578125,-0.109375,-10.49609375,1.4609375,1.0
626784,,,,,,,,0.19921875,-0.74609375,-0.19140625,0.060546875,0.541015625,-0.005859375,0.00390625,-10.296875,1.42578125,1.0
626785,,,,,,,,0.18359375,-0.33203125,-0.4140625,-0.109375,0.376953125,0.03125,-0.03515625,-9.87890625,1.1953125,1.0
626786,,,,,,,,0.34765625,-0.21875,-0.70703125,-0.177734375,0.30078125,0.037109375,0.12109375,-9.765625,0.88671875,1.0
626787,,,,,,,,0.421875,-0.2109375,-0.73828125,-0.177734375,0.267578125,0.041015625,0.1953125,-9.765625,0.84765625,1.0
626788,,,,,,,,0.69921875,-0.36328125,-0.72265625,-0.15234375,0.21484375,0.041015625,0.46484375,-9.9140625,0.84765625,1.0
626789,,,,,,,,0.78515625,-0.59375,-0.8671875,-0.140625,0.181640625,0.046875,0.54296875,-10.1484375,0.6953125,1.0
626790,36.013236166666665,129.31921133333333,55.11085551230646,92.78058929538885,1.0,36.0,,0.8984375,-1.3984375,-1.00390625,0.115234375,0.630859375,-0.03515625,0.00390625,-8.73046875,0.6953125,1.0
626791,,,,,,,,0.59765625,-2.43359375,-0.71875,-0.150390625,0.080078125,0.0625,0.34765625,-11.98828125,0.8125,1.0
626792,,,,,,,,0.30078125,-3.0078125,-0.24609375,-0.2421875,0.06640625,0.087890625,0.04296875,-12.56640625,1.26953125,1.0
626793,,,,,,,,-0.02734375,-2.6171875,1.12109375,-0.34375,0.095703125,0.125,-0.30078125,-12.1796875,2.61328125,1.0
626794,,,,,,,,-0.44140625,-3.3046875,1.12109375,-0.462890625,0.16015625,0.171875,-0.72265625,-12.8671875,2.57421875,1.0
626795,,,,,,,,-0.6875,-4.1796875,0.9375,-0.708984375,0.208984375,0.224609375,-0.9921875,-13.75,2.34375,1.0
626796,,,,,,,,-1.078125,-1.86328125,2.05859375,-0.8828125,0.287109375,0.240234375,-1.4140625,-11.44921875,3.37890625,1.0
626797,,,,,,,,-1.359375,-0.859375,2.06640625,-0.853515625,0.3359375,0.23046875,-1.71875,-10.453125,3.30078125,1.0
626798,,,,,,,,-1.08984375,-0.73046875,1.78515625,-0.708984375,0.326171875,0.203125,-1.48828125,-10.33984375,2.91796875,1.0
626799,,,,,,,,0.3125,-2.25390625,1.93359375,-0.748046875,0.310546875,0.19921875,-0.109375,-11.8671875,2.99609375,1.0
