time,latitude,longitude,enu_x,enu_y,speed,course,ecg,accX,accY,accZ,gyrX,gyrY,gyrZ,eulR,eulP,eulY,validity
616060,36.01321533333333,129.319238,57.51483381090355,90.46895374991223,1.2000000000000002,234.0,,-0.07421875,-0.84765625,-0.63671875,0.2578125,0.55859375,-0.1953125,-0.109375,-8.96484375,0.46484375,1.0
616061,,,,,,,,-0.1875,-0.6171875,-0.66015625,0.220703125,0.39453125,-0.107421875,-0.4921875,-10.15234375,0.92578125,1.0
616062,,,,,,,,-0.234375,-0.125,-0.71484375,0.22265625,0.349609375,-0.10546875,-0.53125,-9.6484375,0.88671875,1.0
616063,,,,,,,,-0.01953125,0.5546875,-0.890625,0.19921875,0.2265625,-0.107421875,-0.30078125,-8.9609375,0.734375,1.0
616064,,,,,,,,0.62890625,0.78515625,-1.13671875,0.1484375,0.14453125,-0.12109375,0.34765625,-8.73046875,0.50390625,1.0
616065,,,,,,,,1.48828125,-0.36328125,-0.6171875,0.07421875,0.001953125,-0.1328125,1.23046875,-9.87890625,1.0390625,1.0
616066,,,,,,,,1.2421875,-1.859375,-0.8515625,0.001953125,-0.064453125,-0.142578125,1.0,-11.37890625,0.8125,1.0
616067,,,,,,,,0.76171875,-2.74609375,-0.80859375,-0.06640625,-0.064453125,-0.12890625,0.54296875,-12.25390625,0.84765625,1.0
616068,,,,,,,,0.25390625,-3.3203125,-0.1015625,-0.216796875,0.00390625,-0.107421875,0.04296875,-12.828125,1.5390625,1.0
616069,,,,,,,,0.015625,-3.50390625,0.57421875,-0.421875,0.162109375,-0.10546875,-0.1875,-13.01953125,2.19140625,1.0
616070,36.01321466666666,129.31923666666668,57.394636105556174,90.39498013347757,1.3,236.0,,-0.4140625,-4.2265625,1.43359375,-0.546875,0.314453125,-0.1015625,-0.609375,-13.75,2.99609375,1.0
616071,,,,,,,,-0.87890625,-4.79296875,1.984375,-0.58203125,0.392578125,-0.12890625,-1.06640625,-14.3203125,3.4921875,1.0
616072,,,,,,,,-1.1875,-3.7890625,2.66796875,-0.5859375,0.3984375,-0.142578125,-1.375,-13.33203125,4.14453125,1.0
616073,,,,,,,,-1.39453125,-3.08203125,2.59375,-0.646484375,0.34765625,-0.181640625,-1.56640625,-12.6328125,3.9921875,1.0
616074,,,,,,,,-1.171875,-2.5859375,2.46875,-0.685546875,0.337890625,-0.1875,-1.3359375,-12.14453125,3.8359375,1.0
616075,,,,,,,,-0.65234375,-2.578125,2.578125,-0.72265625,0.376953125,-0.189453125,-0.80078125,-12.14453125,3.875,1.0
616076,,,,,,,,0.03125,-2.71484375,2.6640625,-0.693359375,0.390625,-0.201171875,-0.109375,-12.29296875,3.9140625,1.0
616077,,,,,,,,0.55078125,-2.78515625,2.51953125,-0.53125,0.34375,-0.201171875,0.42578125,-12.37109375,3.72265625,1.0
616078,,,,,,,,0.66015625,-2.62890625,2.390625,-0.34765625,0.33984375,-0.22265625,0.54296875,-12.2109375,3.5703125,1.0
616079,,,,,,,,0.55859375,-1.93359375,2.24609375,0.20703125,0.396484375,-0.228515625,0.46484375,-11.5234375,3.41796875,1.0
616080,36.013214,129.31923550000002,57.28946317072923,90.32100661696273,1.3,235.0,,0.08984375,-1.3984375,2.15234375,-0.546875,0.314453125,-0.1015625,-0.609375,-13.75,2.99609375,1.0
616081,,,,,,,,-0.57421875,-0.82421875,1.73828125,0.3828125,0.56640625,-0.1953125,-0.64453125,-10.41796875,2.95703125,1.0
616082,,,,,,,,-0.62890625,-0.44140625,1.46875,0.4453125,0.708984375,-0.1875,-0.68359375,-10.03515625,2.7265625,1.0
616083,,,,,,,,-0.37890625,0.08984375,1.12890625,0.521484375,0.8203125,-0.22265625,-0.41796875,-9.4921875,2.45703125,1.0
616084,,,,,,,,-0.30859375,0.2734375,0.921875,0.6015625,0.83984375,-0.287109375,-0.33984375,-9.30859375,2.3046875,1.0
616085,,,,,,,,-0.40234375,0.609375,0.36328125,0.654296875,0.771484375,-0.34375,-0.41796875,-8.96484375,1.80859375,1.0
616086,,,,,,,,-0.30078125,0.87890625,0.0234375,0.63671875,0.708984375,-0.359375,-0.30078125,-8.6875,1.5,1.0
616087,,,,,,,,-0.00390625,1.25390625,-0.28515625,0.41796875,0.548828125,-0.396484375,0.04296875,-8.30859375,1.26953125,1.0
616088,,,,,,,,-0.00390625,1.4765625,-0.4140625,0.287109375,0.501953125,-0.376953125,0.08203125,-8.08203125,1.1953125,1.0
616089,,,,,,,,0.0390625,1.8984375,-0.59375,0.2734375,0.51953125,-0.359375,0.15625,-7.65625,1.0390625,1.0
616090,36.0132135,129.31923466666666,57.214339661568374,90.2655265050224,1.2000000000000002,235.0,,-0.05859375,2.1484375,-0.546875,-0.546875,0.314453125,-0.1015625,-0.609375,-13.75,2.99609375,1.0
616091,,,,,,,,-0.640625,2.6484375,-0.5546875,0.205078125,0.548828125,-0.3203125,-0.453125,-6.89453125,1.15625,1.0
616092,,,,,,,,-0.75,2.6015625,-0.5859375,0.20703125,0.552734375,-0.31640625,-0.53125,-6.93359375,1.15625,1.0
616093,,,,,,,,-0.95703125,2.5234375,-0.7265625,0.216796875,0.541015625,-0.330078125,-0.72265625,-7.01171875,1.0390625,1.0
616094,,,,,,,,-1.08203125,2.5234375,-0.76953125,0.224609375,0.537109375,-0.333984375,-0.83984375,-7.0078125,1.00390625,1.0
616095,,,,,,,,-1.21875,2.4765625,-0.80859375,0.248046875,0.517578125,-0.341796875,-0.953125,-7.046875,1.00390625,1.0
616096,,,,,,,,-1.43359375,2.44140625,-0.87109375,0.26953125,0.49609375,-0.357421875,-1.14453125,-7.078125,0.96484375,1.0
616097,,,,,,,,-1.48828125,2.43359375,-0.84765625,0.287109375,0.486328125,-0.349609375,-1.18359375,-7.078125,1.00390625,1.0
616098,,,,,,,,-1.55078125,2.38671875,-0.91015625,0.3046875,0.494140625,-0.34765625,-1.22265625,-7.12109375,0.96484375,1.0
616099,,,,,,,,-1.55859375,2.33984375,-0.92578125,0.298828125,0.513671875,-0.33984375,-1.22265625,-7.16015625,0.96484375,1.0
616100,36.013212833333334,129.31923366666666,57.124191497426565,90.19155308790309,1.1,235.0,0.0,-1.45703125,2.1796875,-0.95703125,-0.546875,0.314453125,-0.1015625,-1.10546875,-7.3125,0.96484375,1.0
616101,,,,,,,,-1.3984375,2.02734375,-0.8671875,0.271484375,0.58984375,-0.279296875,-1.03125,-7.46484375,1.078125,1.0
616102,,,,,,,,-1.2578125,1.94140625,-0.84375,0.2734375,0.609375,-0.263671875,-0.875,-7.54296875,1.1171875,1.0
616103,,,,,,,,-1.16015625,1.78125,-0.875,0.23046875,0.60546875,-0.21875,-0.72265625,-7.77734375,1.1953125,1.0
616104,,,,,,,,-1.08984375,1.46484375,-0.8203125,0.20703125,0.57421875,-0.18359375,-0.68359375,-8.12109375,1.1953125,1.0
616105,,,,,,,,-1.05078125,1.18359375,-0.8359375,0.16796875,0.53125,-0.162109375,-0.72265625,-8.58203125,1.26953125,1.0
616106,,,,,,,,-1.12890625,0.875,-0.77734375,0.16015625,0.501953125,-0.150390625,-0.72265625,-8.765625,1.234375,1.0
616107,,,,,,,,-1.12890625,0.4921875,-0.8359375,0.125,0.435546875,-0.130859375,-0.72265625,-9.109375,1.234375,1.0
616108,,,,,,,,-1.17578125,0.0234375,-0.81640625,0.1015625,0.39453125,-0.125,-0.76171875,-9.453125,1.26953125,1.0
616109,,,,,,,,-1.17578125,-0.01953125,-0.81640625,0.103515625,0.392578125,-0.119140625,-0.80078125,-9.4921875,1.34765625,1.0
616110,36.01321233333333,129.31923233333333,57.00399366449009,90.13607268310133,1.1,240.0,,-1.45703125,2.1796875,-0.95703125,-0.546875,0.314453125,-0.1015625,-1.03125,-9.53125,1.38671875,1.0
616111,,,,,,,,-1.48046875,-0.05859375,-0.72265625,0.02734375,0.369140625,-0.10546875,-1.18359375,-9.4921875,1.38671875,1.0
616112,,,,,,,,-1.59765625,-0.06640625,-0.76171875,0.009765625,0.3515625,-0.099609375,-1.2578125,-9.53515625,1.30859375,1.0
616113,,,,,,,,-1.6640625,-0.14453125,-0.80078125,0.0234375,0.33984375,-0.10546875,-1.296875,-9.6484375,1.234375,1.0
616114,,,,,,,,-1.7890625,-0.2578125,-0.8828125,0.048828125,0.3125,-0.107421875,-1.3359375,-9.6875,1.234375,1.0
616115,,,,,,,,-1.51953125,-0.34375,-0.9296875,0.05078125,0.279296875,-0.123046875,-0.9921875,-9.8046875,1.1953125,1.0
616116,,,,,,,,-1.22265625,-0.3828125,-0.9765625,0.021484375,0.24609375,-0.130859375,-0.80078125,-9.80859375,1.15625,1.0
616117,,,,,,,,-1.03125,-0.3515625,-1.20703125,-0.015625,0.216796875,-0.130859375,-0.609375,-9.76953125,0.92578125,1.0
616118,,,,,,,,-0.9296875,-0.46484375,-1.390625,-0.056640625,0.16796875,-0.12890625,-0.4921875,-9.87890625,0.734375,1.0
616119,,,,,,,,-0.5859375,-0.6640625,-1.078125,-0.1171875,0.099609375,-0.1171875,-0.1484375,-10.0703125,1.0390625,1.0
616120,36.013211999999996,129.319231,56.88379570966336,90.09908548942538,1.2000000000000002,248.0,,-0.25,-0.46484375,-0.640625,-0.546875,0.314453125,-0.1015625,0.1953125,-9.87890625,1.4609375,1.0
616121,,,,,,,,-0.44140625,-0.19140625,-0.203125,-0.228515625,0.0,-0.09765625,0.00390625,-9.61328125,1.8828125,1.0
616122,,,,,,,,-1.0625,-0.3828125,-0.02734375,-0.291015625,0.01171875,-0.09375,-0.609375,-9.80859375,2.03515625,1.0
616123,,,,,,,,-1.26171875,-1.29296875,-0.1796875,-0.404296875,0.03125,-0.076171875,-0.80078125,-10.72265625,1.84375,1.0
616124,,,,,,,,-0.578125,-2.65625,0.0,-0.478515625,0.01953125,-0.056640625,-0.109375,-12.10546875,1.9609375,1.0
616125,,,,,,,,0.83984375,-3.60546875,0.734375,-0.4375,0.02734375,-0.07421875,1.30859375,-13.05859375,2.6484375,1.0
616126,,,,,,,,0.83984375,-3.60546875,0.7578125,-0.3984375,0.04296875,-0.08984375,2.07421875,-13.55859375,2.91796875,1.0
616127,,,,,,,,3.20703125,-5.16796875,1.6796875,-0.51953125,0.01953125,-0.095703125,4.44921875,-15.08984375,3.9921875,1.0
616128,,,,,,,,4.61328125,-5.61328125,2.875,-0.75390625,-0.078125,-0.060546875,5.4453125,-14.8984375,5.29296875,1.0
616129,,,,,,,,4.60546875,-4.6875,3.90234375,-0.8046875,-0.158203125,-0.005859375,4.44921875,-13.515625,5.5234375,1.0
616130,36.01321166666666,129.3192295,56.74857298032249,90.06209819949953,1.3,253.0,,3.19140625,-3.3671875,3.71484375,-0.736328125,-0.216796875,0.037109375,2.1875,-11.828125,5.5625,1.0
616131,,,,,,,,0.2421875,-1.8984375,4.3203125,-0.71875,-0.0703125,0.03125,0.1953125,-11.3359375,5.71484375,1.0
616132,,,,,,,,-0.296875,-1.8125,4.19921875,-0.65234375,0.0859375,0.03125,-0.1484375,-11.21875,4.7578125,1.0
616133,,,,,,,,-0.48046875,-1.68359375,2.73046875,-0.259765625,0.48828125,0.017578125,0.3125,-11.02734375,3.609375,1.0
616134,,,,,,,,-0.15625,-1.48046875,2.1640625,0.01953125,0.66796875,-0.0234375,0.38671875,-10.796875,3.37890625,1.0
616135,,,,,,,,0.1875,-0.83203125,1.5625,0.494140625,0.8359375,-0.1328125,0.65625,-10.37890625,3.03125,1.0
616136,,,,,,,,-0.08984375,0.00390625,0.99609375,0.69140625,0.669921875,-0.177734375,0.38671875,-9.53515625,2.53515625,1.0
616137,,,,,,,,-0.35546875,0.1875,0.65625,0.703125,0.515625,-0.177734375,0.12109375,-9.34375,2.2265625,1.0
616138,,,,,,,,-0.36328125,-0.40234375,0.7421875,0.46484375,0.27734375,-0.06640625,0.12109375,-9.9140625,2.421875,1.0
616139,,,,,,,,-0.40234375,-0.36328125,0.71875,0.427734375,0.326171875,-0.03125,0.08203125,-9.875,2.421875,1.0
616140,36.01321133333333,129.31922816666665,56.62837502133741,90.02511100851108,1.2000000000000002,256.0,,-0.35546875,-0.140625,0.74609375,-0.736328125,-0.216796875,0.037109375,0.12109375,-9.65234375,2.49609375,1.0
616141,,,,,,,,-0.5234375,0.35546875,0.36328125,0.0859375,0.572265625,0.15625,-0.0703125,-9.1484375,2.15234375,1.0
616142,,,,,,,,-0.4921875,0.81640625,0.09375,-0.1015625,0.591796875,0.251953125,-0.0703125,-8.69140625,1.8828125,1.0
616143,,,,,,,,-0.43359375,0.8984375,0.1015625,-0.17578125,0.603515625,0.2890625,-0.03515625,-8.62109375,1.8828125,1.0
616144,,,,,,,,-0.31640625,1.28125,-0.1875,-0.21484375,0.642578125,0.314453125,0.04296875,-8.234375,1.578125,1.0
616145,,,,,,,,-0.19921875,1.94140625,-0.5625,-0.171875,0.697265625,0.30859375,0.12109375,-7.578125,1.1953125,1.0
616146,,,,,,,,-0.17578125,2.29296875,-0.73828125,-0.119140625,0.6953125,0.236328125,0.08203125,-7.234375,1.00390625,1.0
616147,,,,,,,,-0.0703125,2.6015625,-0.76171875,-0.099609375,0.6328125,0.185546875,0.15625,-6.93359375,0.96484375,1.0
616148,,,,,,,,0.0234375,2.640625,-0.83984375,-0.087890625,0.599609375,0.15625,0.234375,-6.89453125,0.88671875,1.0
616149,,,,,,,,0.16015625,2.6015625,-0.83203125,-0.037109375,0.58984375,0.119140625,0.34765625,-6.9296875,0.88671875,1.0
616150,36.013211,129.31922733333334,56.553251388749196,89.98812410940738,1.0,253.0,,0.37890625,2.4921875,-0.87109375,-0.736328125,-0.216796875,0.037109375,0.54296875,-7.046875,0.84765625,1.0
616151,,,,,,,,0.74609375,2.41796875,-0.921875,0.052734375,0.66796875,0.1015625,0.88671875,-7.1171875,0.8125,1.0
616152,,,,,,,,0.77734375,2.41015625,-1.0078125,0.07421875,0.7578125,0.09375,0.88671875,-7.12109375,0.734375,1.0
616153,,,,,,,,0.75390625,2.41015625,-1.015625,0.08203125,0.771484375,0.078125,0.84765625,-7.12109375,0.734375,1.0
616154,,,,,,,,0.546875,2.140625,-1.03125,0.083984375,0.796875,0.048828125,0.6171875,-7.390625,0.734375,1.0
616155,,,,,,,,0.33203125,1.98828125,-1.0,0.07421875,0.8046875,0.001953125,0.38671875,-7.54296875,0.7734375,1.0
616156,,,,,,,,0.00390625,1.671875,-0.89453125,0.060546875,0.796875,-0.056640625,0.04296875,-7.85546875,0.88671875,1.0
616157,,,,,,,,-0.02734375,1.55859375,-0.89453125,0.03515625,0.76171875,-0.12109375,0.00390625,-7.9609375,0.88671875,1.0
616158,,,,,,,,-0.06640625,1.3671875,-1.0078125,0.021484375,0.7421875,-0.1484375,-0.03515625,-8.16015625,0.7734375,1.0
616159,,,,,,,,0.01171875,1.09765625,-1.0078125,0.0,0.732421875,-0.1953125,0.04296875,-8.42578125,0.7734375,1.0
616160,36.013211,129.31922616666668,56.448077966392134,89.98812343299748,1.0,256.0,,-0.03515625,0.82421875,-1.0078125,-0.0078125,0.720703125,-0.21875,0.00390625,-8.6875,0.7734375,1.0
616161,,,,,,,,-0.1171875,0.640625,-0.93359375,0.001953125,0.703125,-0.240234375,-0.0703125,-8.8828125,0.84765625,1.0
616162,,,,,,,,-0.2421875,0.37109375,-0.85546875,0.01953125,0.69140625,-0.240234375,-0.1875,-9.1484375,0.92578125,1.0
616163,,,,,,,,-0.25,0.1015625,-0.78515625,0.048828125,0.6796875,-0.234375,-0.1875,-9.42578125,1.00390625,1.0
616164,,,,,,,,-0.296875,0.05859375,-0.7109375,0.048828125,0.671875,-0.228515625,-0.2265625,-9.453125,1.078125,1.0
616165,,,,,,,,-0.48828125,0.125,-0.48046875,0.037109375,0.642578125,-0.212890625,-0.41796875,-9.38671875,1.30859375,1.0
616166,,,,,,,,-0.65625,0.09375,-0.41015625,0.005859375,0.5859375,-0.1875,-0.5703125,-9.42578125,1.38671875,1.0
616167,,,,,,,,-0.6953125,0.1328125,-0.48046875,0.013671875,0.578125,-0.17578125,-0.609375,-9.3828125,1.30859375,1.0
616168,,,,,,,,-0.81640625,0.2421875,-0.5703125,0.029296875,0.58203125,-0.15234375,-0.72265625,-9.265625,1.234375,1.0
616169,,,,,,,,-0.703125,0.04296875,-0.53515625,0.068359375,0.470703125,-0.111328125,-0.609375,-9.45703125,1.26953125,1.0
616170,36.013210666666666,129.31922466666668,56.31285523348643,89.95113615045074,1.2000000000000002,258.0,,-0.43359375,-0.45703125,-0.39453125,0.14453125,0.388671875,-0.060546875,-0.33984375,-9.953125,1.42578125,1.0
616171,,,,,,,,-0.1640625,-0.6484375,-0.375,0.1640625,0.314453125,-0.037109375,-0.0703125,-10.1484375,1.4609375,1.0
616172,,,,,,,,0.03515625,-0.42578125,-0.58984375,0.1328125,0.205078125,0.0,0.12109375,-9.91796875,1.26953125,1.0
616173,,,,,,,,0.1875,-0.1640625,-0.78125,0.107421875,0.16796875,0.017578125,0.2734375,-9.6484375,1.078125,1.0
616174,,,,,,,,0.34765625,0.1015625,-0.98046875,0.03515625,0.1015625,0.046875,0.42578125,-9.3828125,0.88671875,1.0
616175,,,,,,,,0.73828125,0.33203125,-0.93359375,-0.03515625,0.041015625,0.0625,0.80859375,-9.1484375,0.92578125,1.0
616176,,,,,,,,1.16796875,0.29296875,-0.97265625,-0.072265625,0.0,0.076171875,1.23046875,-9.19140625,0.88671875,1.0
616177,,,,,,,,1.59765625,0.109375,-0.88671875,-0.109375,-0.056640625,0.072265625,1.65234375,-9.3828125,0.96484375,1.0
616178,,,,,,,,1.68359375,-0.05078125,-0.83203125,-0.16015625,-0.099609375,0.056640625,1.73046875,-9.53125,1.00390625,1.0
616179,,,,,,,,1.55859375,-1.16015625,-1.0859375,-0.2421875,-0.11328125,0.052734375,1.61328125,-10.64453125,0.734375,1.0
616180,36.013210666666666,129.31922333333333,56.19265703491345,89.95113538040273,1.2000000000000002,259.0,,1.22265625,-2.33984375,-1.16796875,-0.330078125,-0.05078125,0.048828125,1.26953125,-11.828125,0.62109375,1.0
616181,,,,,,,,1.0390625,-3.4140625,-0.5234375,-0.416015625,0.087890625,0.0625,1.078125,-12.91015625,1.234375,1.0
616182,,,,,,,,0.703125,-3.98046875,0.5546875,-0.5,0.26171875,0.080078125,0.734375,-13.4765625,2.265625,1.0
616183,,,,,,,,-0.81640625,-5.23046875,1.72265625,-0.595703125,0.447265625,0.095703125,-0.80078125,-14.74609375,3.37890625,1.0
616184,,,,,,,,-2.02734375,-5.63671875,2.51171875,-0.65625,0.580078125,0.083984375,-2.02734375,-15.16796875,4.10546875,1.0
616185,,,,,,,,-2.69921875,-4.171875,3.07421875,-0.646484375,0.607421875,0.03125,-2.71484375,-13.7109375,4.60546875,1.0
616186,,,,,,,,-2.76953125,-3.3984375,2.94921875,-0.646484375,0.6015625,0.0,-2.79296875,-12.94921875,4.44921875,1.0
616187,,,,,,,,-1.91796875,-2.05078125,2.24609375,-0.6875,0.63671875,-0.0546875,-1.94921875,-11.60546875,3.68359375,1.0
616188,,,,,,,,-0.1953125,-2.15625,2.515625,-0.7421875,0.7421875,-0.087890625,-0.2265625,-11.72265625,3.875,1.0
616189,,,,,,,,0.53515625,-2.33203125,2.578125,-0.6796875,0.703125,-0.05859375,0.50390625,-11.91015625,3.875,1.0
616190,36.01321033333333,129.319222,56.0724590739692,89.91414819745856,1.2000000000000002,261.0,,1.15625,-2.01171875,2.55859375,-0.330078125,-0.05078125,0.048828125,1.1171875,-11.60546875,3.80078125,1.0
616191,,,,,,,,1.1484375,-1.58984375,2.10546875,0.19140625,0.41796875,-0.08984375,1.1171875,-11.18359375,3.33984375,1.0
616192,,,,,,,,1.0703125,-1.13671875,1.34765625,0.42578125,0.439453125,-0.037109375,1.0390625,-10.71875,2.61328125,1.0
616193,,,,,,,,0.84765625,-0.79296875,0.88671875,0.423828125,0.783203125,0.005859375,0.80859375,-10.37890625,2.19140625,1.0
616194,,,,,,,,0.3359375,-0.484375,0.83984375,0.384765625,1.119140625,0.03125,0.2734375,-10.0703125,2.19140625,1.0
616195,,,,,,,,-0.71484375,-0.72265625,1.16796875,0.48046875,1.22265625,-0.048828125,-0.80078125,-10.30078125,2.57421875,1.0
616196,,,,,,,,-1.08984375,-0.01171875,0.69921875,0.5859375,1.025390625,-0.171875,-1.18359375,-9.57421875,2.19140625,1.0
616197,,,,,,,,-1.01953125,0.5234375,0.3046875,0.447265625,0.9296875,-0.28515625,-1.10546875,-9.04296875,1.84375,1.0
616198,,,,,,,,-0.9609375,0.79296875,-0.0234375,0.330078125,0.90234375,-0.326171875,-1.03125,-8.76953125,1.5390625,1.0
616199,,,,,,,,-0.69921875,1.59765625,-0.57421875,0.1484375,0.83984375,-0.384765625,-0.76171875,-7.96484375,1.00390625,1.0
616200,36.01321016666667,129.31922066666667,55.95226099503224,89.89565422374052,1.1,262.0,0.0,-0.5,1.98046875,-0.70703125,0.1171875,0.720703125,-0.3984375,1.1171875,-11.60546875,3.80078125,1.0
616201,,,,,,,,-0.29296875,2.44140625,-0.71484375,0.173828125,0.6484375,-0.380859375,-0.30078125,-7.1171875,0.88671875,1.0
616202,,,,,,,,-0.30078125,2.515625,-0.64453125,0.224609375,0.6328125,-0.35546875,-0.30078125,-7.046875,0.96484375,1.0
616203,,,,,,,,-0.2109375,2.546875,-0.5703125,0.279296875,0.693359375,-0.3125,-0.1875,-7.01171875,1.078125,1.0
616204,,,,,,,,-0.37890625,2.625,-0.515625,0.265625,0.79296875,-0.259765625,-0.33984375,-6.9296875,1.15625,1.0
616205,,,,,,,,-0.9296875,2.6171875,-0.6796875,0.18359375,0.9296875,-0.224609375,-0.875,-6.93359375,1.0390625,1.0
616206,,,,,,,,-1.27734375,2.5390625,-0.6484375,0.181640625,0.916015625,-0.23046875,-1.22265625,-7.01171875,1.078125,1.0
616207,,,,,,,,-1.66015625,2.5390625,-0.5078125,0.1953125,0.85546875,-0.23828125,-1.60546875,-7.01171875,1.234375,1.0
616208,,,,,,,,-1.859375,2.5390625,-0.5546875,0.197265625,0.83203125,-0.26953125,-1.796875,-7.0078125,1.1953125,1.0
616209,,,,,,,,-1.921875,2.53125,-0.6640625,0.234375,0.755859375,-0.3203125,-1.8359375,-7.0078125,1.1171875,1.0
616210,36.013209833333335,129.31921966666667,55.862112581513934,89.85866723501559,1.0,262.0,,-1.96484375,2.45703125,-0.79296875,0.1171875,0.720703125,-0.3984375,-1.87109375,-7.078125,1.00390625,1.0
616211,,,,,,,,-1.8671875,2.28515625,-0.98046875,0.240234375,0.759765625,-0.318359375,-1.7578125,-7.234375,0.84765625,1.0
616212,,,,,,,,-1.73046875,2.203125,-0.92578125,0.236328125,0.763671875,-0.29296875,-1.60546875,-7.31640625,0.92578125,1.0
616213,,,,,,,,-1.515625,2.05078125,-0.8359375,0.25390625,0.76171875,-0.25,-1.375,-7.46484375,1.0390625,1.0
616214,,,,,,,,-1.21484375,1.8125,-0.765625,0.248046875,0.76171875,-0.1875,-1.06640625,-7.69921875,1.15625,1.0
616215,,,,,,,,-1.09375,1.45703125,-0.703125,0.216796875,0.751953125,-0.142578125,-0.953125,-8.0390625,1.234375,1.0
616216,,,,,,,,-1.1328125,1.18359375,-0.75,0.203125,0.736328125,-0.123046875,-0.9921875,-8.3046875,1.1953125,1.0
616217,,,,,,,,-1.1640625,0.875,-0.69921875,0.173828125,0.6953125,-0.091796875,-1.03125,-8.6171875,1.26953125,1.0
616218,,,,,,,,-1.421875,0.640625,-0.796875,0.126953125,0.58984375,-0.083984375,-1.296875,-8.84375,1.1953125,1.0
616219,,,,,,,,-1.72265625,0.4375,-0.921875,0.10546875,0.54296875,-0.087890625,-1.60546875,-9.04296875,1.078125,1.0
616220,36.013209833333335,129.31921816666667,55.726889609514345,89.8586663763565,1.1,267.0,,-1.875,0.2109375,-1.08203125,0.0703125,0.537109375,-0.1015625,-1.7578125,-9.26953125,0.92578125,1.0
616221,,,,,,,,-1.90625,0.0859375,-1.05078125,0.033203125,0.541015625,-0.107421875,-1.796875,-9.3828125,0.96484375,1.0
616222,,,,,,,,-1.828125,-0.14453125,-1.01171875,0.021484375,0.5390625,-0.115234375,-1.71875,-9.609375,1.00390625,1.0
616223,,,,,,,,-1.71484375,-0.37109375,-0.9453125,0.015625,0.525390625,-0.1328125,-1.60546875,-9.8359375,1.078125,1.0
616224,,,,,,,,-1.67578125,-0.53515625,-0.8984375,0.005859375,0.490234375,-0.146484375,-1.56640625,-9.9921875,1.1171875,1.0
616225,,,,,,,,-1.55859375,-0.984375,-0.66796875,-0.01171875,0.4453125,-0.1640625,-1.44921875,-10.45703125,1.34765625,1.0
616226,,,,,,,,-1.5234375,-1.33984375,-0.46875,-0.052734375,0.40234375,-0.17578125,-1.4140625,-10.796875,1.5390625,1.0
616227,,,,,,,,-1.53125,-1.375,-0.390625,-0.076171875,0.384765625,-0.177734375,-1.4140625,-10.83984375,1.6171875,1.0
616228,,,,,,,,-1.5390625,-1.26171875,-0.5390625,-0.103515625,0.294921875,-0.19140625,-1.4140625,-10.72265625,1.4609375,1.0
616229,,,,,,,,-1.3984375,-1.1484375,-0.9453125,-0.11328125,0.240234375,-0.19921875,-1.2578125,-10.61328125,1.0390625,1.0
616230,36.01321,129.319217,55.62171606894148,89.87715891673488,1.1,275.0,,-1.22265625,-1.21484375,-1.2265625,0.0703125,0.537109375,-0.1015625,-1.7578125,-9.26953125,0.92578125,1.0
616231,,,,,,,,-0.7421875,-1.1015625,-1.01953125,-0.125,0.173828125,-0.228515625,-0.5703125,-10.57421875,0.92578125,1.0
616232,,,,,,,,-0.8046875,-0.83203125,-0.55078125,-0.125,0.1640625,-0.2578125,-0.609375,-10.30078125,1.38671875,1.0
616233,,,,,,,,-1.00390625,-0.86328125,-0.19921875,-0.140625,0.158203125,-0.26953125,-0.80078125,-10.3359375,1.73046875,1.0
616234,,,,,,,,-1.25,-1.4375,-0.2890625,-0.19921875,0.126953125,-0.26953125,-1.03125,-10.91796875,1.6171875,1.0
616235,,,,,,,,-1.2734375,-2.28125,-0.3828125,-0.287109375,0.109375,-0.26953125,-1.03125,-11.76171875,1.5,1.0
616236,,,,,,,,-0.15234375,-3.4609375,0.515625,-0.37109375,0.091796875,-0.265625,0.12109375,-12.94921875,2.34375,1.0
616237,,,,,,,,0.86328125,-3.64453125,0.81640625,-0.396484375,0.099609375,-0.271484375,1.15234375,-13.13671875,2.61328125,1.0
616238,,,,,,,,2.07421875,-3.55859375,0.90625,-0.41796875,0.109375,-0.28125,2.37890625,-13.0546875,2.6875,1.0
616239,,,,,,,,3.20703125,-3.20703125,1.3046875,-0.548828125,0.107421875,-0.27734375,3.52734375,-12.71484375,3.03125,1.0
616240,36.0132105,129.31921566666668,55.50151752081635,89.93263777980249,1.2000000000000002,285.0,,3.60546875,-2.65625,2.2890625,-0.7734375,0.06640625,-0.25,3.94921875,-12.1796875,3.953125,1.0
616241,,,,,,,,2.96875,-2.609375,3.046875,-0.841796875,0.005859375,-0.1875,3.3359375,-12.140625,4.640625,1.0
616242,,,,,,,,1.1171875,-2.59375,3.48046875,-0.734375,-0.01953125,-0.158203125,1.5,-12.140625,4.98828125,1.0
616243,,,,,,,,0.6171875,-2.39453125,3.5859375,-0.6796875,0.021484375,-0.1640625,1.0,-11.94921875,5.0625,1.0
616244,,,,,,,,0.296875,-1.62109375,3.21875,-0.56640625,0.193359375,-0.1796875,0.6953125,-11.1796875,4.640625,1.0
616245,,,,,,,,0.59375,-0.76953125,2.234375,-0.359375,0.486328125,-0.224609375,1.0,-10.33984375,3.609375,1.0
616246,,,,,,,,0.65625,-0.83984375,1.671875,-0.126953125,0.693359375,-0.296875,1.078125,-10.41796875,3.03125,1.0
616247,,,,,,,,0.44140625,-0.80078125,1.63671875,0.064453125,0.619140625,-0.349609375,0.88671875,-10.37890625,2.99609375,1.0
616248,,,,,,,,0.04296875,-0.42578125,1.75,0.173828125,0.490234375,-0.36328125,0.50390625,-9.9921875,3.109375,1.0
616249,,,,,,,,-0.2109375,0.265625,1.11328125,0.3828125,0.2109375,-0.345703125,0.2734375,-9.3046875,2.49609375,1.0
616250,36.013211,129.31921466666665,55.41136852040884,89.98811683265653,1.2000000000000002,290.0,,-0.203125,0.265625,0.40625,0.453125,0.17578125,-0.310546875,0.3125,-9.30859375,1.84375,1.0
616251,,,,,,,,-0.14453125,0.10546875,0.4765625,0.361328125,0.330078125,-0.23046875,0.38671875,-9.45703125,1.9609375,1.0
616252,,,,,,,,-0.15234375,0.2109375,0.8203125,0.244140625,0.478515625,-0.0546875,0.38671875,-9.34375,2.34375,1.0
616253,,,,,,,,-0.296875,0.40234375,0.71875,0.21484375,0.490234375,0.025390625,0.234375,-9.15234375,2.265625,1.0
616254,,,,,,,,-0.39453125,0.5546875,0.55078125,0.125,0.49609375,0.0859375,0.12109375,-9.0,2.11328125,1.0
616255,,,,,,,,-0.40234375,0.9765625,0.23828125,-0.091796875,0.51171875,0.158203125,0.08203125,-8.578125,1.80859375,1.0
616256,,,,,,,,-0.39453125,1.09375,0.23828125,-0.12890625,0.517578125,0.166015625,0.08203125,-8.4609375,1.80859375,1.0
616257,,,,,,,,-0.2890625,1.56640625,0.20703125,-0.1171875,0.505859375,0.173828125,0.15625,-8.00390625,1.76953125,1.0
616258,,,,,,,,-0.265625,2.140625,-0.015625,-0.07421875,0.482421875,0.171875,0.15625,-7.4296875,1.5390625,1.0
616259,,,,,,,,-0.15625,2.609375,-0.28515625,-0.0390625,0.451171875,0.171875,0.234375,-6.97265625,1.26953125,1.0
616260,36.013211166666665,129.3192135,55.30619498406628,90.00660937774467,1.1,290.0,,0.21875,2.83984375,-0.29296875,0.453125,0.17578125,-0.310546875,0.578125,-6.734375,1.26953125,1.0
616261,,,,,,,,0.51171875,2.6796875,-0.30078125,0.09375,0.50390625,0.142578125,0.84765625,-6.89453125,1.26953125,1.0
616262,,,,,,,,0.75,2.44921875,-0.375,0.125,0.52734375,0.13671875,1.078125,-7.12109375,1.1953125,1.0
616263,,,,,,,,0.84765625,2.37109375,-0.46875,0.1640625,0.6015625,0.130859375,1.15234375,-7.19921875,1.1171875,1.0
616264,,,,,,,,0.84375,2.21875,-0.53125,0.150390625,0.673828125,0.12890625,1.1171875,-7.35546875,1.078125,1.0
616265,,,,,,,,0.7890625,2.06640625,-0.5859375,0.13671875,0.748046875,0.109375,1.0390625,-7.5,1.0390625,1.0
616266,,,,,,,,0.68359375,2.01953125,-0.62890625,0.140625,0.765625,0.095703125,0.92578125,-7.54296875,1.00390625,1.0
616267,,,,,,,,0.58984375,1.7890625,-0.72265625,0.130859375,0.794921875,0.060546875,0.80859375,-7.7734375,0.92578125,1.0
616268,,,,,,,,0.34765625,1.7109375,-0.78515625,0.138671875,0.83203125,-0.025390625,0.54296875,-7.85546875,0.88671875,1.0
616269,,,,,,,,0.19921875,1.8203125,-0.875,0.154296875,0.8203125,-0.11328125,0.38671875,-7.734375,0.8125,1.0
616270,36.01321166666666,129.31921233333333,55.20102121380038,90.06208833925314,1.1,294.0,,-0.03125,1.8515625,-1.08203125,0.15234375,0.78125,-0.1640625,0.15625,-7.6953125,0.62109375,1.0
616271,,,,,,,,-0.06640625,1.62109375,-1.3359375,0.138671875,0.740234375,-0.2109375,0.12109375,-7.921875,0.390625,1.0
616272,,,,,,,,0.0078125,1.23046875,-1.27734375,0.150390625,0.7421875,-0.23828125,0.1953125,-8.3046875,0.46484375,1.0
616273,,,,,,,,-0.046875,0.9609375,-1.29296875,0.189453125,0.751953125,-0.2578125,0.15625,-8.578125,0.46484375,1.0
616274,,,,,,,,-0.08984375,0.79296875,-1.31640625,0.212890625,0.755859375,-0.26953125,0.12109375,-8.73046875,0.46484375,1.0
616275,,,,,,,,-0.14453125,0.6328125,-1.29296875,0.208984375,0.77734375,-0.248046875,0.08203125,-8.88671875,0.50390625,1.0
616276,,,,,,,,-0.15234375,0.59375,-1.31640625,0.16015625,0.783203125,-0.23828125,0.08203125,-8.921875,0.50390625,1.0
616277,,,,,,,,-0.0859375,0.36328125,-1.25390625,0.1171875,0.783203125,-0.22265625,0.15625,-9.15234375,0.58203125,1.0
616278,,,,,,,,-0.27734375,0.31640625,-1.37109375,0.1015625,0.78515625,-0.201171875,-0.03515625,-9.1875,0.46484375,1.0
616279,,,,,,,,-0.4765625,0.234375,-1.1953125,0.095703125,0.767578125,-0.1875,-0.2265625,-9.265625,0.65625,1.0
616280,36.01321216666667,129.319211,55.08082267118524,90.11756720849213,1.2000000000000002,296.0,,-0.7421875,0.34765625,-1.01953125,0.1015625,0.75390625,-0.177734375,-0.4921875,-9.1484375,0.84765625,1.0
616281,,,,,,,,-0.66796875,0.33984375,-0.94921875,0.076171875,0.748046875,-0.162109375,-0.41796875,-9.1484375,0.92578125,1.0
616282,,,,,,,,-0.58984375,0.30078125,-0.91796875,0.0546875,0.75,-0.1484375,-0.33984375,-9.1875,0.96484375,1.0
616283,,,,,,,,-0.24609375,-0.04296875,-0.6875,0.009765625,0.728515625,-0.111328125,0.00390625,-9.53125,1.1953125,1.0
616284,,,,,,,,-0.0078125,-0.234375,-0.65625,0.017578125,0.755859375,-0.087890625,0.234375,-9.73046875,1.234375,1.0
616285,,,,,,,,0.11328125,-0.12890625,-0.765625,0.033203125,0.72265625,-0.056640625,0.34765625,-9.61328125,1.1171875,1.0
616286,,,,,,,,0.0859375,0.1015625,-0.8515625,0.0,0.703125,-0.052734375,0.3125,-9.3828125,1.0390625,1.0
616287,,,,,,,,0.12890625,0.29296875,-0.8125,-0.072265625,0.65625,-0.03515625,0.34765625,-9.1875,1.078125,1.0
616288,,,,,,,,0.4453125,0.21875,-0.7578125,-0.162109375,0.607421875,-0.02734375,0.65625,-9.265625,1.1171875,1.0
616289,,,,,,,,0.64453125,0.0625,-0.59765625,-0.19140625,0.583984375,-0.0234375,0.84765625,-9.42578125,1.26953125,1.0
616290,36.0132125,129.31920983333333,54.97564901937512,90.15455296472999,1.1,298.0,,1.11328125,-0.96875,-0.49609375,0.1015625,0.75390625,-0.177734375,-0.4921875,-9.1484375,0.84765625,1.0
616291,,,,,,,,1.1953125,-2.83984375,-0.40234375,-0.236328125,0.49609375,-0.017578125,1.3828125,-12.33203125,1.42578125,1.0
616292,,,,,,,,1.08203125,-3.56640625,-0.2734375,-0.263671875,0.48828125,-0.021484375,1.26953125,-13.0546875,1.5390625,1.0
616293,,,,,,,,-0.09765625,-5.484375,0.984375,-0.353515625,0.474609375,-0.013671875,0.08203125,-14.98046875,2.765625,1.0
616294,,,,,,,,-0.96484375,-5.50390625,2.86328125,-0.498046875,0.5,0.005859375,-0.80078125,-15.01171875,4.60546875,1.0
616295,,,,,,,,-1.8671875,-6.2265625,2.52734375,-0.765625,0.642578125,0.052734375,-1.71875,-15.7421875,4.18359375,1.0
616296,,,,,,,,-2.00390625,-5.05859375,3.33203125,-0.9609375,0.765625,0.09375,-1.87109375,-14.5859375,4.91015625,1.0
616297,,,,,,,,-1.8984375,-2.2421875,3.77734375,-0.853515625,0.888671875,0.05078125,-1.796875,-11.796875,5.21484375,1.0
616298,,,,,,,,-0.234375,-2.5703125,3.4296875,-0.62890625,0.875,0.0390625,-0.1484375,-12.140625,4.796875,1.0
616299,,,,,,,,1.46484375,-3.22265625,3.19140625,-0.580078125,0.85546875,0.01953125,1.53515625,-12.7890625,4.52734375,1.0
616300,36.013213,129.31920866666667,54.87047525274939,90.21003192901792,1.2000000000000002,301.0,0.0,2.09375,-3.3203125,2.44921875,-0.423828125,0.6875,0.0859375,2.1484375,-12.90625,3.72265625,1.0
616301,,,,,,,,1.7734375,-2.82421875,2.2734375,0.060546875,0.80859375,0.08984375,1.8046875,-12.41015625,3.53125,1.0
616302,,,,,,,,1.03125,-2.1640625,1.7578125,0.380859375,0.822265625,0.09375,1.0390625,-11.76171875,3.03125,1.0
616303,,,,,,,,0.28125,-1.85546875,1.328125,0.40234375,0.9296875,0.060546875,0.2734375,-11.44921875,2.6484375,1.0
616304,,,,,,,,-0.69921875,-1.17578125,1.6796875,0.263671875,1.15234375,0.005859375,-0.72265625,-10.76171875,3.03125,1.0
616305,,,,,,,,-0.9140625,-0.83203125,1.88671875,0.185546875,1.28125,-0.05859375,-0.953125,-10.41796875,3.26171875,1.0
616306,,,,,,,,-0.953125,-0.6015625,1.296875,0.220703125,1.2890625,-0.09765625,-0.9921875,-10.1875,2.6875,1.0
616307,,,,,,,,-0.8671875,-0.1796875,0.69921875,0.341796875,1.236328125,-0.154296875,-0.9140625,-9.76953125,2.11328125,1.0
616308,,,,,,,,-0.5625,0.35546875,0.09375,0.353515625,1.1875,-0.208984375,-0.609375,-9.2265625,1.5390625,1.0
616309,,,,,,,,-0.32421875,0.703125,-0.08984375,0.21484375,1.23046875,-0.25390625,-0.37890625,-8.8828125,1.38671875,1.0
616310,36.0132135,129.31920766666664,54.780326259327175,90.26551098985576,1.2000000000000002,302.0,,-0.25390625,1.27734375,-0.3359375,-0.423828125,0.6875,0.0859375,-0.30078125,-8.30859375,1.15625,1.0
616311,,,,,,,,-0.26953125,1.7734375,-0.390625,0.16015625,1.203125,-0.27734375,-0.30078125,-7.8125,1.1171875,1.0
616312,,,,,,,,-0.4609375,2.15625,-0.4453125,0.189453125,1.18359375,-0.279296875,-0.4921875,-7.43359375,1.078125,1.0
616313,,,,,,,,-0.46875,2.5390625,-0.4921875,0.19921875,1.16015625,-0.27734375,-0.4921875,-7.05078125,1.0390625,1.0
616314,,,,,,,,-0.59375,2.6484375,-0.5078125,0.17578125,1.154296875,-0.26953125,-0.609375,-6.93359375,1.0390625,1.0
616315,,,,,,,,-0.71484375,3.109375,-0.328125,0.119140625,1.18359375,-0.265625,-0.72265625,-6.47265625,1.234375,1.0
616316,,,,,,,,-0.953125,3.22265625,-0.46875,0.0703125,1.173828125,-0.267578125,-0.953125,-6.3515625,1.1171875,1.0
616317,,,,,,,,-1.3046875,3.3359375,-0.74609375,0.0625,1.166015625,-0.28125,-1.296875,-6.2421875,0.84765625,1.0
616318,,,,,,,,-1.4375,3.3359375,-0.828125,0.0703125,1.08203125,-0.3046875,-1.4140625,-6.2421875,0.7734375,1.0
616319,,,,,,,,-1.62890625,3.30078125,-0.76171875,0.0859375,1.060546875,-0.314453125,-1.60546875,-6.27734375,0.84765625,1.0
616320,36.013214,129.31920683333334,54.70520204736334,90.32099014388501,1.1,304.0,,-1.8359375,2.9140625,-0.578125,-0.423828125,0.6875,0.0859375,-1.796875,-6.66796875,1.0390625,1.0
616321,,,,,,,,-1.8828125,2.640625,-0.4765625,0.177734375,0.970703125,-0.33984375,-1.8359375,-6.93359375,1.15625,1.0
616322,,,,,,,,-2.01953125,2.41015625,-0.35546875,0.22265625,0.908203125,-0.341796875,-1.94921875,-7.15625,1.30859375,1.0
616323,,,,,,,,-2.07421875,2.37109375,-0.4375,0.21484375,0.892578125,-0.337890625,-1.98828125,-7.1953125,1.234375,1.0
616324,,,,,,,,-2.08203125,2.25,-0.4609375,0.205078125,0.880859375,-0.3125,-1.98828125,-7.3125,1.234375,1.0
616325,,,,,,,,-2.09765625,2.125,-0.44921875,0.1796875,0.853515625,-0.296875,-1.98828125,-7.43359375,1.26953125,1.0
616326,,,,,,,,-2.06640625,1.97265625,-0.42578125,0.15234375,0.822265625,-0.267578125,-1.94921875,-7.578125,1.30859375,1.0
616327,,,,,,,,-1.9140625,1.703125,-0.48046875,0.158203125,0.7890625,-0.224609375,-1.796875,-7.85546875,1.26953125,1.0
616328,,,,,,,,-1.84375,1.53515625,-0.53125,0.173828125,0.751953125,-0.19140625,-1.71875,-8.0,1.234375,1.0
616329,,,,,,,,-1.66015625,1.26953125,-0.5859375,0.18359375,0.689453125,-0.158203125,-1.52734375,-8.265625,1.1953125,1.0
616330,36.013214999999995,129.31920583333334,54.61505271329576,90.43194882799035,1.2000000000000002,311.0,,-1.5390625,0.9921875,-0.609375,-0.423828125,0.6875,0.0859375,-1.796875,-6.66796875,1.0390625,1.0
616331,,,,,,,,-1.5,0.53125,-0.6640625,0.154296875,0.552734375,-0.125,-1.375,-9.0,1.15625,1.0
616332,,,,,,,,-1.4609375,0.2578125,-0.640625,0.1484375,0.513671875,-0.115234375,-1.3359375,-9.265625,1.1953125,1.0
616333,,,,,,,,-1.3828125,0.1328125,-0.609375,0.119140625,0.474609375,-0.111328125,-1.2578125,-9.3828125,1.234375,1.0
616334,,,,,,,,-1.3828125,-0.06640625,-0.55078125,0.0703125,0.431640625,-0.10546875,-1.2578125,-9.5703125,1.30859375,1.0
616335,,,,,,,,-1.4921875,-0.296875,-0.55078125,-0.01171875,0.373046875,-0.109375,-1.375,-9.80859375,1.30859375,1.0
616336,,,,,,,,-1.68359375,-0.6015625,-0.55078125,-0.033203125,0.34765625,-0.11328125,-1.56640625,-10.109375,1.30859375,1.0
616337,,,,,,,,-1.69140625,-0.87109375,-0.7265625,-0.08984375,0.259765625,-0.12890625,-1.56640625,-10.375,1.1171875,1.0
616338,,,,,,,,-1.30859375,-0.75390625,-0.91015625,-0.115234375,0.212890625,-0.16015625,-1.18359375,-10.26171875,0.92578125,1.0
616339,,,,,,,,-1.0546875,-0.52734375,-1.046875,-0.123046875,0.193359375,-0.169921875,-0.9140625,-10.03515625,0.7734375,1.0
616340,36.01321600000001,129.31920516666665,54.55495292602635,90.5429077017537,1.2000000000000002,319.0,,-0.6015625,-0.171875,-1.0,-0.14453125,0.18359375,-0.162109375,-0.453125,-9.69140625,0.8125,1.0
616341,,,,,,,,-0.41796875,0.05078125,-0.90234375,-0.193359375,0.169921875,-0.142578125,-0.2265625,-9.3046875,1.0390625,1.0
616342,,,,,,,,-0.3828125,0.2109375,-0.7421875,-0.21484375,0.171875,-0.138671875,-0.26171875,-8.9609375,1.34765625,1.0
616343,,,,,,,,-0.65625,0.70703125,0.01953125,-0.27734375,0.1875,-0.115234375,-0.64453125,-9.11328125,1.84375,1.0
616344,,,,,,,,-1.01953125,-0.703125,-0.1484375,-0.3359375,0.228515625,-0.109375,-0.68359375,-10.83984375,1.6171875,1.0
616345,,,,,,,,-0.328125,-2.265625,0.78515625,-0.384765625,0.23828125,-0.109375,0.34765625,-12.3671875,2.95703125,1.0
616346,,,,,,,,0.16796875,-2.83984375,1.30078125,-0.390625,0.244140625,-0.111328125,1.0,-12.91015625,3.37890625,1.0
616347,,,,,,,,1.48046875,-3.90234375,2.10546875,-0.404296875,0.255859375,-0.111328125,2.9921875,-14.5859375,4.21875,1.0
616348,,,,,,,,3.5390625,-5.6640625,2.60546875,-0.4609375,0.26171875,-0.087890625,4.1796875,-15.78515625,4.18359375,1.0
616349,,,,,,,,3.9921875,-6.234375,2.62109375,-0.58203125,0.25390625,-0.06640625,4.5234375,-16.6953125,4.56640625,1.0
616350,36.013217000000004,129.31920466666668,54.509877919625225,90.65386666677817,1.3,327.0,,-0.6015625,-0.171875,-1.0,-0.14453125,0.18359375,-0.162109375,4.41015625,-15.7421875,5.79296875,1.0
616351,,,,,,,,3.65625,-3.640625,4.67578125,-0.853515625,0.279296875,0.01953125,3.8359375,-13.21484375,6.09765625,1.0
616352,,,,,,,,2.27734375,-2.21875,4.1484375,-0.74609375,0.318359375,0.03515625,2.45703125,-11.80078125,5.5234375,1.0
616353,,,,,,,,0.953125,-1.703125,4.2734375,-0.533203125,0.560546875,0.041015625,1.1171875,-11.296875,5.5625,1.0
616354,,,,,,,,-1.0234375,-2.23828125,4.80859375,-0.361328125,0.857421875,-0.017578125,-0.875,-11.828125,6.05859375,1.0
616355,,,,,,,,-0.94140625,-1.92578125,2.6171875,-0.171875,0.99609375,-0.029296875,-0.80078125,-11.52734375,3.8359375,1.0
616356,,,,,,,,-0.703125,-1.58203125,2.3359375,0.24609375,1.021484375,-0.1171875,-0.5703125,-11.18359375,3.5703125,1.0
616357,,,,,,,,-0.3203125,-0.203125,1.421875,0.607421875,0.9140625,-0.248046875,-0.1875,-9.8046875,2.7265625,1.0
616358,,,,,,,,-0.52734375,-0.1328125,1.3984375,0.568359375,0.76171875,-0.220703125,-0.37890625,-9.7265625,2.765625,1.0
616359,,,,,,,,-0.56640625,-0.24609375,1.40625,0.5546875,0.69140625,-0.173828125,-0.41796875,-9.83984375,2.8046875,1.0
616360,36.013218,129.31920416666665,54.46480290801589,90.764825633249,1.3,331.0,,-0.609375,-0.5625,1.55078125,-0.14453125,0.18359375,-0.162109375,4.41015625,-15.7421875,5.79296875,1.0
616361,,,,,,,,-0.6015625,-0.41015625,1.34765625,0.36328125,0.68359375,0.013671875,-0.453125,-9.99609375,2.83984375,1.0
616362,,,,,,,,-0.703125,-0.1484375,1.06640625,0.298828125,0.736328125,0.046875,-0.5703125,-9.7265625,2.57421875,1.0
616363,,,,,,,,-0.640625,0.234375,0.8984375,0.138671875,0.822265625,0.109375,-0.53125,-9.34765625,2.421875,1.0
616364,,,,,,,,-0.703125,0.39453125,0.84375,-0.0390625,0.822265625,0.17578125,-0.609375,-9.1875,2.3828125,1.0
616365,,,,,,,,-0.5859375,0.85546875,0.50390625,-0.138671875,0.796875,0.228515625,-0.53125,-8.7265625,2.03515625,1.0
616366,,,,,,,,-0.43359375,1.24609375,0.24609375,-0.142578125,0.77734375,0.2421875,-0.41796875,-8.34765625,1.76953125,1.0
616367,,,,,,,,-0.26171875,1.859375,-0.16796875,-0.13671875,0.771484375,0.248046875,-0.26171875,-7.73828125,1.34765625,1.0
616368,,,,,,,,0.03515625,2.5546875,-0.3125,-0.044921875,0.73046875,0.203125,-0.03515625,-7.05078125,1.1953125,1.0
616369,,,,,,,,0.16015625,2.671875,-0.3046875,0.048828125,0.681640625,0.14453125,0.04296875,-6.9296875,1.1953125,1.0
616370,36.01321883333333,129.31920350000001,54.40470324572109,90.85729129924202,1.1,330.0,,0.26171875,2.73828125,-0.3203125,0.087890625,0.677734375,0.12890625,0.12109375,-6.85546875,1.1953125,1.0
616371,,,,,,,,0.4453125,2.625,-0.52734375,0.08203125,0.71875,0.1015625,0.2734375,-6.96875,1.00390625,1.0
616372,,,,,,,,0.53515625,2.625,-0.52734375,0.072265625,0.74609375,0.099609375,0.34765625,-6.97265625,1.00390625,1.0
616373,,,,,,,,0.70703125,2.43359375,-0.65234375,0.064453125,0.822265625,0.09375,0.50390625,-7.15625,0.88671875,1.0
616374,,,,,,,,0.69921875,2.39453125,-0.61328125,0.07421875,0.88671875,0.08203125,0.46484375,-7.1953125,0.92578125,1.0
616375,,,,,,,,0.68359375,2.234375,-0.55078125,0.115234375,0.927734375,0.06640625,0.42578125,-7.3515625,1.00390625,1.0
616376,,,,,,,,0.65234375,2.234375,-0.484375,0.12890625,0.931640625,0.046875,0.38671875,-7.3515625,1.078125,1.0
616377,,,,,,,,0.453125,2.12109375,-0.4609375,0.1484375,0.927734375,-0.001953125,0.15625,-7.4609375,1.1171875,1.0
616378,,,,,,,,0.26953125,2.15625,-0.66796875,0.126953125,0.93359375,-0.064453125,-0.03515625,-7.4296875,0.92578125,1.0
616379,,,,,,,,0.203125,2.12109375,-0.78125,0.119140625,0.927734375,-0.08984375,-0.109375,-7.4609375,0.8125,1.0
616380,36.01321966666667,129.31920316666668,54.374653128224246,90.94975715114174,1.0,334.0,,0.26171875,2.73828125,-0.3203125,0.09765625,0.91796875,-0.181640625,0.12109375,-6.85546875,1.1953125,1.0
616381,,,,,,,,0.01953125,2.1484375,-1.03515625,0.087890625,0.892578125,-0.2421875,-0.30078125,-7.4296875,0.58203125,1.0
616382,,,,,,,,-0.09765625,2.11328125,-1.03515625,0.08984375,0.873046875,-0.265625,-0.4921875,-7.5390625,0.58203125,1.0
616383,,,,,,,,-0.265625,1.875,-0.9296875,0.1015625,0.833984375,-0.30859375,-0.5703125,-7.6953125,0.6953125,1.0
616384,,,,,,,,-0.2734375,1.8359375,-0.9765625,0.10546875,0.81640625,-0.32421875,-0.5703125,-7.734375,0.65625,1.0
616385,,,,,,,,-0.3359375,1.484375,-0.828125,0.10546875,0.796875,-0.341796875,-0.609375,-8.08203125,0.8125,1.0
616386,,,,,,,,-0.328125,0.91015625,-0.72265625,0.08203125,0.80078125,-0.353515625,-0.5703125,-8.6484375,0.92578125,1.0
616387,,,,,,,,-0.3828125,0.44140625,-0.65234375,0.07421875,0.802734375,-0.34765625,-0.609375,-9.109375,1.00390625,1.0
616388,,,,,,,,-0.703125,-0.01953125,-0.6171875,0.015625,0.740234375,-0.318359375,-0.9140625,-9.5703125,1.0390625,1.0
616389,,,,,,,,-1.1328125,-0.01953125,-0.38671875,0.0078125,0.73046875,-0.306640625,-1.3359375,-9.5703125,1.26953125,1.0
616390,36.01322066666667,129.3192025,54.31455334708588,91.06071602521845,1.1,337.0,,-1.2421875,-0.28515625,-0.00390625,-0.056640625,0.712890625,-0.19140625,-1.4140625,-9.83984375,1.65234375,1.0
616391,,,,,,,,-0.89453125,-0.82421875,0.12890625,-0.0859375,0.70703125,-0.140625,-1.06640625,-10.375,1.76953125,1.0
616392,,,,,,,,-0.703125,-1.17578125,0.02734375,-0.078125,0.6328125,-0.099609375,-0.875,-10.72265625,1.65234375,1.0
616393,,,,,,,,-0.51171875,-1.08984375,-0.0859375,-0.064453125,0.591796875,-0.08203125,-0.68359375,-10.640625,1.5390625,1.0
616394,,,,,,,,-0.390625,-0.83203125,-0.23046875,-0.041015625,0.484375,-0.078125,-0.5703125,-10.37890625,1.38671875,1.0
616395,,,,,,,,-0.16015625,-0.21875,-0.421875,-0.037109375,0.36328125,-0.076171875,-0.33984375,-9.76953125,1.1953125,1.0
616396,,,,,,,,0.26171875,0.05078125,-0.53125,-0.064453125,0.240234375,-0.056640625,0.08203125,-9.49609375,1.078125,1.0
616397,,,,,,,,0.875,0.47265625,-0.71484375,-0.1015625,0.138671875,-0.046875,0.6953125,-9.07421875,0.88671875,1.0
616398,,,,,,,,1.06640625,0.5859375,-0.78125,-0.109375,0.08984375,-0.033203125,0.88671875,-8.96484375,0.8125,1.0
616399,,,,,,,,1.48828125,0.74609375,-0.96484375,-0.1171875,0.009765625,-0.01953125,1.30859375,-8.80859375,0.62109375,1.0
616400,36.01322166666667,129.31920216666668,54.28450311916501,91.17167508433246,1.2000000000000002,340.0,0.0,1.83203125,0.5078125,-0.94921875,-0.138671875,-0.046875,0.0,1.65234375,-9.0390625,0.62109375,1.0
616401,,,,,,,,1.984375,-0.48046875,-0.90625,-0.1796875,-0.02734375,0.015625,1.8046875,-10.03515625,0.65625,1.0
616402,,,,,,,,2.0625,-1.58984375,-0.890625,-0.205078125,0.001953125,0.03515625,1.8828125,-11.14453125,0.65625,1.0
616403,,,,,,,,1.6171875,-2.96875,-0.734375,-0.30859375,0.205078125,0.076171875,1.421875,-12.5234375,0.7734375,1.0
616404,,,,,,,,1.01953125,-4.30078125,0.18359375,-0.421875,0.373046875,0.09375,0.80859375,-13.859375,1.65234375,1.0
616405,,,,,,,,-0.62109375,-5.55859375,1.49609375,-0.58984375,0.560546875,0.087890625,-0.83984375,-15.125,2.91796875,1.0
616406,,,,,,,,-1.1796875,-5.98046875,1.91015625,-0.6875,0.642578125,0.08203125,-1.4140625,-15.55078125,3.30078125,1.0
616407,,,,,,,,-1.8125,-4.78515625,3.58984375,-0.779296875,0.74609375,0.05078125,-2.0625,-14.359375,4.91015625,1.0
616408,,,,,,,,-2.37890625,-2.39453125,3.0546875,-0.7578125,0.798828125,-0.03515625,-2.63671875,-11.984375,4.296875,1.0
616409,,,,,,,,-2.1796875,-2.1953125,3.046875,-0.74609375,0.81640625,-0.0625,-2.4453125,-11.80078125,4.2578125,1.0
616410,36.01322266666667,129.31920183333335,54.254452889542364,91.28263414492824,1.2000000000000002,345.0,,-0.2265625,-2.8671875,3.6640625,-0.138671875,-0.046875,0.0,1.65234375,-9.0390625,0.62109375,1.0
616411,,,,,,,,1.49609375,-3.28125,3.6640625,-0.771484375,1.162109375,-0.09765625,1.23046875,-12.90625,4.6796875,1.0
616412,,,,,,,,1.6875,-3.12890625,3.3984375,-0.642578125,1.087890625,-0.09765625,1.421875,-12.75390625,4.375,1.0
616413,,,,,,,,1.6875,-2.23828125,2.5390625,-0.00390625,0.974609375,-0.130859375,1.421875,-11.87109375,3.4921875,1.0
616414,,,,,,,,1.11328125,-1.39453125,1.78125,0.396484375,1.00390625,-0.078125,0.84765625,-11.02734375,2.765625,1.0
616415,,,,,,,,0.39453125,-1.01171875,1.55078125,0.390625,1.1953125,-0.056640625,0.12109375,-10.64453125,2.57421875,1.0
616416,,,,,,,,-0.41015625,-0.74609375,1.87890625,0.419921875,1.3046875,-0.0703125,-0.68359375,-10.37890625,2.91796875,1.0
616417,,,,,,,,-0.75,-0.63671875,2.25390625,0.529296875,1.435546875,-0.126953125,-1.03125,-10.26171875,3.33984375,1.0
616418,,,,,,,,-0.94140625,-0.67578125,2.046875,0.634765625,1.392578125,-0.208984375,-1.22265625,-10.30078125,3.1875,1.0
616419,,,,,,,,-1.0234375,-0.609375,1.5625,0.671875,1.28515625,-0.314453125,-1.296875,-10.2265625,2.765625,1.0
616420,36.01322366666667,129.3192015,54.224402655792275,91.39359320569656,1.3,345.0,,-0.61328125,0.53515625,0.5390625,0.337890625,1.138671875,-0.474609375,-0.83984375,-9.07421875,1.84375,1.0
616421,,,,,,,,-0.10546875,0.91796875,0.21875,0.11328125,0.970703125,-0.486328125,-0.30078125,-8.6875,1.5390625,1.0
616422,,,,,,,,0.09375,1.30859375,0.01171875,0.064453125,0.8984375,-0.478515625,-0.0703125,-8.30859375,1.34765625,1.0
616423,,,,,,,,0.0703125,1.65234375,0.01171875,0.076171875,0.892578125,-0.470703125,-0.0703125,-7.96484375,1.34765625,1.0
616424,,,,,,,,-0.0859375,1.890625,0.06640625,0.158203125,0.921875,-0.400390625,-0.1875,-7.734375,1.42578125,1.0
616425,,,,,,,,-0.26171875,2.2265625,0.1640625,0.1640625,0.990234375,-0.359375,-0.33984375,-7.390625,1.5390625,1.0
616426,,,,,,,,-0.58203125,2.37890625,0.1171875,0.109375,1.021484375,-0.33203125,-0.64453125,-7.23828125,1.5,1.0
616427,,,,,,,,-0.90625,2.41796875,0.1015625,0.0546875,1.037109375,-0.326171875,-0.953125,-7.1953125,1.5,1.0
616428,,,,,,,,-1.18359375,2.609375,-0.05859375,0.041015625,1.03515625,-0.330078125,-1.22265625,-7.0078125,1.34765625,1.0
616429,,,,,,,,-1.42578125,2.80078125,-0.01953125,0.046875,0.98046875,-0.349609375,-1.44921875,-6.8125,1.38671875,1.0
616430,36.013224666666666,129.31920116666666,54.194352427939975,91.50455226530322,1.1,346.0,,-1.71875,3.1015625,-0.1796875,0.337890625,1.138671875,-0.474609375,-0.83984375,-9.07421875,1.84375,1.0
616431,,,,,,,,-1.8515625,3.18359375,-0.3125,0.126953125,0.845703125,-0.400390625,-1.8359375,-6.43359375,1.1171875,1.0
616432,,,,,,,,-1.828125,3.18359375,-0.28125,0.15234375,0.82421875,-0.412109375,-1.796875,-6.4296875,1.15625,1.0
616433,,,,,,,,-1.8515625,3.21484375,-0.3359375,0.2265625,0.755859375,-0.38671875,-1.7578125,-6.39453125,1.1171875,1.0
616434,,,,,,,,-1.828125,3.21484375,-0.3515625,0.24609375,0.7578125,-0.375,-1.796875,-6.35546875,1.0390625,1.0
616435,,,,,,,,-1.8125,3.28515625,-0.48828125,0.291015625,0.783203125,-0.3203125,-1.71875,-6.3515625,1.0390625,1.0
616436,,,,,,,,-1.828125,3.24609375,-0.46875,0.302734375,0.78515625,-0.296875,-1.6796875,-6.39453125,1.00390625,1.0
616437,,,,,,,,-1.63671875,2.9296875,-0.61328125,0.302734375,0.7890625,-0.24609375,-1.48828125,-6.69921875,0.96484375,1.0
616438,,,,,,,,-1.60546875,2.88671875,-0.58203125,0.294921875,0.78515625,-0.19140625,-1.375,-6.890625,1.00390625,1.0
616439,,,,,,,,-1.30859375,2.33984375,-0.53125,0.21484375,0.6953125,-0.080078125,-1.10546875,-7.5,1.0390625,1.0
616440,36.0132255,129.319201,54.17932708600711,91.5970182109273,1.1,349.0,,-1.71875,3.1015625,-0.1796875,0.337890625,1.138671875,-0.474609375,-1.14453125,-7.92578125,0.96484375,1.0
616441,,,,,,,,-1.33203125,1.484375,-0.66796875,0.119140625,0.5546875,-0.048828125,-1.296875,-8.5,1.00390625,1.0
616442,,,,,,,,-1.40625,1.0625,-0.66796875,0.08984375,0.5,-0.046875,-1.18359375,-8.9609375,1.1171875,1.0
616443,,,,,,,,-1.16796875,0.39453125,-0.5703125,0.037109375,0.408203125,-0.037109375,-1.06640625,-9.3828125,1.1953125,1.0
616444,,,,,,,,-0.89453125,-0.171875,-0.30078125,-0.005859375,0.376953125,-0.021484375,-0.76171875,-9.875,1.42578125,1.0
616445,,,,,,,,-0.6953125,-0.640625,-0.0703125,-0.087890625,0.380859375,-0.013671875,-0.609375,-10.3359375,1.69140625,1.0
616446,,,,,,,,-0.6953125,-0.79296875,0.00390625,-0.11328125,0.376953125,-0.0078125,-0.68359375,-10.45703125,1.6171875,1.0
616447,,,,,,,,-0.83203125,-0.9453125,-0.140625,-0.142578125,0.328125,-0.0078125,-0.875,-10.41796875,1.4609375,1.0
616448,,,,,,,,-0.96875,-0.8984375,-0.23046875,-0.189453125,0.23828125,-0.01953125,-1.03125,-10.4140625,1.38671875,1.0
616449,,,,,,,,-1.0859375,-0.87109375,-0.26171875,-0.185546875,0.228515625,-0.02734375,-1.14453125,-10.45703125,1.26953125,1.0
616450,36.01322666666667,129.31920133333333,54.20937582995364,91.72647085041756,1.1,357.0,,-1.71875,3.1015625,-0.1796875,0.337890625,1.138671875,-0.474609375,-1.22265625,-10.4921875,1.1171875,1.0
616451,,,,,,,,-1.19140625,-0.9453125,-0.69140625,-0.0625,0.275390625,-0.080078125,-1.10546875,-10.45703125,0.8125,1.0
616452,,,,,,,,-0.921875,-0.9375,-0.9140625,-0.041015625,0.28125,-0.083984375,-0.76171875,-10.45703125,0.62109375,1.0
616453,,,,,,,,-0.6171875,-0.79296875,-0.953125,-0.05859375,0.279296875,-0.103515625,-0.5703125,-10.3359375,0.65625,1.0
616454,,,,,,,,-0.546875,-0.41015625,-0.484375,-0.08984375,0.275390625,-0.115234375,-0.4921875,-9.95703125,1.1171875,1.0
616455,,,,,,,,-0.96875,0.05859375,-0.16015625,-0.142578125,0.259765625,-0.115234375,-0.9140625,-9.49609375,1.42578125,1.0
616456,,,,,,,,-1.09375,0.171875,-0.0390625,-0.185546875,0.251953125,-0.111328125,-1.03125,-9.3828125,1.5390625,1.0
616457,,,,,,,,-1.4375,0.171875,0.015625,-0.26171875,0.25,-0.109375,-1.375,-9.3828125,1.578125,1.0
616458,,,,,,,,-1.63671875,-0.1328125,-0.703125,-0.353515625,0.267578125,-0.1015625,-1.56640625,-9.6875,0.8125,1.0
616459,,,,,,,,-1.4375,0.21875,-0.359375,-0.353515625,0.287109375,-0.11328125,-1.375,-9.34375,1.1171875,1.0
616460,36.013227666666666,129.31920166666666,54.23942468927163,91.83743028090501,1.2000000000000002,6.0,,-1.17578125,0.2578125,-0.2109375,-0.34765625,0.265625,-0.1328125,-1.22265625,-10.4921875,1.1171875,1.0
616461,,,,,,,,-0.49609375,-1.8046875,0.4765625,-0.40625,0.203125,-0.140625,-0.41796875,-11.375,1.8828125,1.0
616462,,,,,,,,0.6484375,-3.6796875,1.703125,-0.55078125,0.14453125,-0.146484375,0.734375,-13.25390625,3.0703125,1.0
616463,,,,,,,,2.75390625,-5.85546875,2.76953125,-0.654296875,0.126953125,-0.134765625,2.83984375,-15.43359375,4.10546875,1.0
616464,,,,,,,,4.77734375,-7.44921875,3.828125,-0.712890625,0.087890625,-0.07421875,4.87109375,-17.04296875,5.1015625,1.0
616465,,,,,,,,5.00390625,-6.1796875,4.6171875,-0.654296875,0.0390625,-0.03125,5.09765625,-15.78515625,5.828125,1.0
616466,,,,,,,,3.20703125,-2.4140625,3.625,-0.78125,-0.06640625,-0.0234375,3.30078125,-12.02734375,4.7578125,1.0
616467,,,,,,,,2.28515625,-1.6328125,3.35546875,-1.029296875,-0.31640625,0.0,2.37890625,-11.26171875,4.41015625,1.0
616468,,,,,,,,1.09765625,-1.7890625,3.7578125,-1.08203125,-0.39453125,0.015625,1.19140625,-11.4140625,4.7578125,1.0
616469,,,,,,,,-0.43359375,-2.0390625,3.69921875,-0.732421875,0.16796875,-0.013671875,-0.33984375,-11.68359375,4.56640625,1.0
616470,36.0132285,129.31920233333332,54.29952320250098,91.92989669113823,1.2000000000000002,14.0,,-0.546875,-1.37890625,2.3515625,-0.34765625,0.265625,-0.1328125,-1.22265625,-10.4921875,1.1171875,1.0
616471,,,,,,,,-0.51171875,-0.62109375,1.859375,0.662109375,0.80859375,-0.1796875,-0.41796875,-10.2578125,2.7265625,1.0
616472,,,,,,,,-0.2265625,0.10546875,0.9453125,0.611328125,0.60546875,-0.255859375,-0.109375,-9.53125,1.921875,1.0
616473,,,,,,,,-0.2109375,-0.171875,0.69921875,0.462890625,0.435546875,-0.255859375,-0.0703125,-9.80859375,1.73046875,1.0
616474,,,,,,,,-0.375,-0.62890625,0.94921875,0.509765625,0.400390625,-0.173828125,-0.2265625,-10.2578125,2.03515625,1.0
616475,,,,,,,,-0.6953125,-0.484375,1.05859375,0.5078125,0.4921875,-0.095703125,-0.53125,-10.109375,2.19140625,1.0
616476,,,,,,,,-0.80078125,-0.33203125,0.91796875,0.45703125,0.548828125,-0.044921875,-0.64453125,-9.953125,2.07421875,1.0
616477,,,,,,,,-0.91015625,0.42578125,0.6484375,0.1015625,0.658203125,0.119140625,-0.80078125,-8.96484375,1.69140625,1.0
616478,,,,,,,,-0.84765625,0.85546875,0.3203125,-0.09375,0.7265625,0.208984375,-0.64453125,-8.3828125,1.30859375,1.0
616479,,,,,,,,-0.6640625,1.546875,-0.0859375,-0.12109375,0.744140625,0.251953125,-0.5703125,-8.08203125,1.1171875,1.0
616480,36.0132295,129.31920266666665,54.32957205808606,92.04085612262443,1.2000000000000002,13.0,,-0.5546875,1.69921875,-0.1171875,-0.044921875,0.75,0.259765625,-0.4921875,-7.921875,1.078125,1.0
616481,,,,,,,,-0.44140625,1.8984375,-0.30859375,0.01953125,0.728515625,0.2421875,-0.41796875,-7.73828125,0.88671875,1.0
616482,,,,,,,,-0.42578125,1.9375,-0.26953125,0.02734375,0.689453125,0.224609375,-0.41796875,-7.69921875,0.92578125,1.0
616483,,,,,,,,-0.1875,2.203125,-0.36328125,0.0,0.603515625,0.1875,-0.2265625,-7.43359375,0.84765625,1.0
616484,,,,,,,,0.2578125,2.2421875,-0.35546875,-0.03515625,0.56640625,0.154296875,0.1953125,-7.390625,0.84765625,1.0
616485,,,,,,,,0.90234375,2.359375,-0.390625,-0.0234375,0.5859375,0.12109375,0.80859375,-7.27734375,0.8125,1.0
616486,,,,,,,,1.04296875,2.40234375,-0.46875,0.013671875,0.646484375,0.119140625,0.92578125,-7.234375,0.734375,1.0
616487,,,,,,,,1.1015625,2.43359375,-0.515625,0.06640625,0.705078125,0.095703125,0.9609375,-7.1953125,0.6953125,1.0
616488,,,,,,,,1.04296875,2.28125,-0.63671875,0.1484375,0.748046875,0.078125,0.88671875,-7.35546875,0.58203125,1.0
616489,,,,,,,,0.93359375,2.203125,-0.64453125,0.1953125,0.76953125,0.05859375,0.76953125,-7.43359375,0.58203125,1.0
616490,36.013230166666666,129.319203,54.3596211438891,92.1148291394395,1.0,14.0,,0.64453125,2.01171875,-0.4296875,-0.044921875,0.75,0.259765625,-0.4921875,-7.921875,1.078125,1.0
616491,,,,,,,,0.31640625,1.8828125,-0.234375,0.29296875,0.796875,-0.033203125,0.12109375,-7.73828125,1.0390625,1.0
616492,,,,,,,,-0.14453125,1.84375,-0.1875,0.29296875,0.794921875,-0.08984375,-0.33984375,-7.7734375,1.1171875,1.0
616493,,,,,,,,-0.375,1.64453125,-0.33203125,0.27734375,0.791015625,-0.16015625,-0.5703125,-7.96484375,1.00390625,1.0
616494,,,,,,,,-0.50390625,1.4453125,-0.59375,0.224609375,0.7890625,-0.26171875,-0.68359375,-8.15625,0.7734375,1.0
616495,,,,,,,,-0.453125,1.09375,-0.625,0.240234375,0.80859375,-0.31640625,-0.609375,-8.5,0.7734375,1.0
616496,,,,,,,,-0.34375,0.82421875,-0.56640625,0.2578125,0.802734375,-0.326171875,-0.4921875,-8.765625,0.84765625,1.0
616497,,,,,,,,-0.51171875,0.51171875,-0.47265625,0.294921875,0.806640625,-0.337890625,-0.64453125,-9.07421875,0.96484375,1.0
616498,,,,,,,,-0.8515625,0.47265625,-0.328125,0.294921875,0.775390625,-0.322265625,-0.953125,-9.11328125,1.15625,1.0
616499,,,,,,,,-1.14453125,0.15625,-0.4296875,0.2734375,0.755859375,-0.314453125,-1.22265625,-9.421875,1.078125,1.0
616500,36.013231000000005,129.31920366666665,54.419719653680616,92.20729555088325,1.2000000000000002,21.0,0.0,-1.3046875,0.1484375,-0.3828125,-0.044921875,0.75,0.259765625,-1.375,-9.42578125,1.15625,1.0
616501,,,,,,,,-1.3671875,0.33203125,-0.4140625,0.236328125,0.66015625,-0.265625,-1.4140625,-9.2265625,1.15625,1.0
616502,,,,,,,,-1.10546875,0.21875,-0.421875,0.234375,0.64453125,-0.24609375,-1.14453125,-9.34375,1.15625,1.0
616503,,,,,,,,-0.73828125,-0.29296875,-0.23046875,0.23828125,0.607421875,-0.1875,-0.76171875,-9.83984375,1.38671875,1.0
616504,,,,,,,,-0.62109375,-0.48828125,-0.19921875,0.224609375,0.5703125,-0.154296875,-0.64453125,-10.03515625,1.42578125,1.0
616505,,,,,,,,-0.35546875,-1.12890625,-0.078125,0.201171875,0.478515625,-0.111328125,-0.37890625,-10.68359375,1.578125,1.0
616506,,,,,,,,-0.26953125,-1.328125,-0.125,0.193359375,0.447265625,-0.08984375,-0.30078125,-10.87890625,1.5390625,1.0
616507,,,,,,,,-0.26953125,-1.453125,-0.29296875,0.169921875,0.357421875,-0.06640625,-0.30078125,-10.9921875,1.38671875,1.0
616508,,,,,,,,-0.26953125,-1.26171875,-0.26171875,0.140625,0.306640625,-0.0546875,-0.30078125,-10.796875,1.42578125,1.0
616509,,,,,,,,0.15234375,-0.41796875,-0.4609375,0.04296875,0.17578125,-0.044921875,0.12109375,-9.95703125,1.234375,1.0
616510,36.013232,129.31920416666665,54.46479327657141,92.31825507518435,1.2000000000000002,23.0,,0.37890625,-0.1171875,-0.65625,-0.03515625,0.08203125,-0.046875,0.34765625,-9.65234375,1.0390625,1.0
616511,,,,,,,,1.1484375,0.33984375,-0.80078125,-0.08203125,-0.037109375,-0.046875,1.1171875,-9.1875,0.88671875,1.0
616512,,,,,,,,1.484375,0.578125,-0.83203125,-0.09375,-0.09375,-0.029296875,1.4609375,-8.9609375,0.84765625,1.0
616513,,,,,,,,1.59765625,0.45703125,-0.8671875,-0.107421875,-0.123046875,-0.017578125,1.57421875,-9.07421875,0.8125,1.0
616514,,,,,,,,1.40625,-0.9921875,-1.15234375,-0.17578125,-0.119140625,0.017578125,1.3828125,-10.53515625,0.50390625,1.0
616515,,,,,,,,0.984375,-1.8359375,-1.25,-0.24609375,-0.01953125,0.0625,0.9609375,-11.375,0.390625,1.0
616516,,,,,,,,0.87890625,-2.01953125,-0.8359375,-0.3203125,0.134765625,0.08984375,0.84765625,-11.56640625,0.7734375,1.0
616517,,,,,,,,0.2109375,-1.58984375,0.8671875,-0.486328125,0.384765625,0.109375,0.15625,-11.140625,2.421875,1.0
616518,,,,,,,,-0.5078125,-2.73046875,1.9609375,-0.55078125,0.45703125,0.111328125,-0.5703125,-12.2890625,3.4921875,1.0
616519,,,,,,,,-1.14453125,-4.5703125,2.4375,-0.654296875,0.51953125,0.0859375,-1.22265625,-14.1328125,3.9140625,1.0
616520,36.01323283333333,129.31920483333334,54.52489178842832,92.41072148585079,1.3,28.0,,-1.7421875,-5.12890625,3.7734375,-0.03515625,0.08203125,-0.046875,-1.8359375,-14.70703125,5.1796875,1.0
616521,,,,,,,,-1.12109375,-3.43359375,3.875,-0.771484375,0.6796875,-0.046875,-1.22265625,-13.015625,5.1796875,1.0
616522,,,,,,,,-0.453125,-3.2265625,3.59765625,-0.802734375,0.76953125,-0.05859375,-0.5703125,-12.828125,4.87109375,1.0
616523,,,,,,,,1.00390625,-2.64453125,3.1875,-0.76953125,0.8359375,-0.064453125,0.88671875,-12.25390625,4.375,1.0
616524,,,,,,,,1.234375,-1.98828125,2.51953125,-0.626953125,0.740234375,-0.103515625,1.1171875,-11.60546875,3.64453125,1.0
616525,,,,,,,,1.30859375,-1.3203125,2.375,-0.25,0.64453125,-0.134765625,1.19140625,-10.953125,3.453125,1.0
616526,,,,,,,,1.34765625,-1.359375,2.109375,0.02734375,0.609375,-0.13671875,1.23046875,-10.99609375,3.1875,1.0
616527,,,,,,,,1.03515625,-1.44140625,1.671875,0.333984375,0.5859375,-0.099609375,0.92578125,-11.06640625,2.765625,1.0
616528,,,,,,,,0.19140625,-1.09765625,1.9375,0.43359375,0.77734375,-0.099609375,0.08203125,-10.72265625,3.0703125,1.0
616529,,,,,,,,-0.0390625,-0.9453125,2.06640625,0.48046875,0.9140625,-0.111328125,-0.1484375,-10.5703125,3.22265625,1.0
616530,36.01323383333333,129.3192055,54.5849901811809,92.52168110463542,1.4000000000000001,28.0,,-0.4296875,-0.453125,2.10546875,0.505859375,1.0390625,-0.173828125,-0.53125,-10.0703125,3.33984375,1.0
616531,,,,,,,,-0.31640625,0.08203125,1.25390625,0.50390625,0.99609375,-0.248046875,-0.41796875,-9.53125,2.53515625,1.0
616532,,,,,,,,-0.24609375,0.2734375,1.0,0.44921875,0.9609375,-0.2890625,-0.33984375,-9.34375,2.3046875,1.0
616533,,,,,,,,0.3515625,1.03125,0.1953125,0.302734375,0.974609375,-0.36328125,0.2734375,-8.58203125,1.5390625,1.0
616534,,,,,,,,0.48046875,1.22265625,0.05859375,0.228515625,0.98046875,-0.419921875,0.42578125,-8.38671875,1.42578125,1.0
616535,,,,,,,,0.80078125,1.60546875,-0.265625,0.21875,0.908203125,-0.439453125,0.76953125,-8.00390625,1.1171875,1.0
616536,,,,,,,,0.6875,2.13671875,-0.48828125,0.197265625,0.85546875,-0.443359375,0.6953125,-7.46484375,0.92578125,1.0
616537,,,,,,,,0.640625,2.25,-0.49609375,0.177734375,0.8515625,-0.44140625,0.65625,-7.35546875,0.92578125,1.0
616538,,,,,,,,0.37109375,2.48828125,-0.51953125,0.078125,0.8984375,-0.421875,0.42578125,-7.1171875,0.92578125,1.0
616539,,,,,,,,0.27734375,2.59375,-0.48828125,0.044921875,0.92578125,-0.4140625,0.34765625,-7.01171875,0.96484375,1.0
616540,36.013234499999996,129.319206,54.6300640309822,92.59565421545867,1.1,28.0,,-0.41796875,3.25390625,-0.91015625,-0.109375,1.04296875,-0.443359375,-0.26171875,-6.3515625,0.54296875,1.0
616541,,,,,,,,-1.09375,3.3671875,-0.82421875,-0.10546875,1.0390625,-0.46484375,-0.9140625,-6.24609375,0.62109375,1.0
616542,,,,,,,,-1.34765625,3.33203125,-0.625,-0.09765625,0.998046875,-0.490234375,-1.14453125,-6.2734375,0.8125,1.0
616543,,,,,,,,-1.40234375,2.91015625,-0.734375,-0.083984375,0.982421875,-0.505859375,-1.18359375,-6.69921875,0.6953125,1.0
616544,,,,,,,,-1.33984375,2.2890625,-0.78125,-0.041015625,0.953125,-0.49609375,-1.06640625,-7.31640625,0.65625,1.0
616545,,,,,,,,-1.2578125,2.01953125,-0.55078125,-0.021484375,0.98046875,-0.451171875,-0.953125,-7.578125,0.88671875,1.0
616546,,,,,,,,-1.328125,1.9453125,-0.359375,0.0078125,1.037109375,-0.412109375,-0.9921875,-7.66015625,1.078125,1.0
616547,,,,,,,,-1.41796875,1.8203125,-0.25,0.048828125,1.046875,-0.365234375,-1.06640625,-7.77734375,1.1953125,1.0
616548,,,,,,,,-1.50390625,1.7421875,-0.2578125,0.060546875,1.03125,-0.333984375,-1.14453125,-7.85546875,1.1953125,1.0
616549,,,,,,,,-1.6328125,1.62890625,-0.2265625,0.04296875,0.984375,-0.294921875,-1.2578125,-7.96484375,1.234375,1.0
616550,36.0132355,129.31920666666667,54.69016241941174,92.70661383557176,1.2000000000000002,32.0,,-1.6875,1.55078125,-0.46484375,-0.109375,1.04296875,-0.443359375,-1.296875,-8.0390625,1.00390625,1.0
616551,,,,,,,,-1.6875,1.16015625,-0.7421875,0.09375,0.916015625,-0.1875,-1.296875,-8.421875,0.734375,1.0
616552,,,,,,,,-1.92578125,0.12109375,-0.4140625,0.140625,0.845703125,-0.162109375,-1.52734375,-9.45703125,1.078125,1.0
616553,,,,,,,,-1.91796875,-0.1875,-0.265625,0.16015625,0.794921875,-0.1484375,-1.52734375,-9.76953125,1.234375,1.0
616554,,,,,,,,-2.03125,-0.65625,-0.17578125,0.1953125,0.69140625,-0.1328125,-1.640625,-10.2265625,1.34765625,1.0
616555,,,,,,,,-1.88671875,-0.80859375,0.0234375,0.2109375,0.5859375,-0.111328125,-1.48828125,-10.37890625,1.578125,1.0
616556,,,,,,,,-1.6484375,-0.546875,0.08203125,0.1640625,0.5,-0.08203125,-1.2578125,-10.11328125,1.65234375,1.0
616557,,,,,,,,-1.57421875,-0.2109375,-0.046875,0.078125,0.421875,-0.0546875,-1.18359375,-9.76953125,1.5390625,1.0
616558,,,,,,,,-1.57421875,0.1328125,-0.24609375,0.04296875,0.376953125,-0.04296875,-1.18359375,-9.421875,1.34765625,1.0
616559,,,,,,,,-1.48046875,0.25,-0.33203125,0.05078125,0.236328125,-0.00390625,-1.10546875,-9.3046875,1.26953125,1.0
616560,36.01323633333333,129.31920766666664,54.780310460376846,92.79908043649255,1.3,38.0,,-1.3203125,0.5078125,-0.53125,0.099609375,0.1640625,0.01953125,-0.953125,-9.0390625,1.078125,1.0
616561,,,,,,,,-1.234375,0.5859375,-0.76953125,0.158203125,0.119140625,0.0390625,-0.875,-8.96484375,0.84765625,1.0
616562,,,,,,,,-1.16015625,0.578125,-0.8671875,0.1953125,0.09375,0.05859375,-0.80078125,-8.9609375,0.7734375,1.0
616563,,,,,,,,-0.98828125,0.5703125,-1.07421875,0.177734375,0.0625,0.0859375,-0.64453125,-8.96484375,0.58203125,1.0
616564,,,,,,,,-0.9375,0.6484375,-1.2421875,0.103515625,0.01953125,0.099609375,-0.609375,-8.8828125,0.4296875,1.0
616565,,,,,,,,-0.890625,0.6796875,-1.28125,0.005859375,-0.03125,0.125,-0.5703125,-8.84765625,0.390625,1.0
616566,,,,,,,,-0.796875,0.79296875,-1.234375,-0.130859375,-0.0703125,0.13671875,-0.4921875,-8.7265625,0.4296875,1.0
616567,,,,,,,,-0.8515625,0.6875,-0.6015625,-0.27734375,-0.12109375,0.140625,-0.5703125,-8.84765625,1.0390625,1.0
616568,,,,,,,,-0.99609375,-0.1953125,-0.109375,-0.421875,-0.146484375,0.13671875,-0.72265625,-9.73046875,1.5,1.0
616569,,,,,,,,-0.94140625,-3.17578125,0.390625,-0.5546875,-0.1328125,0.1484375,-0.68359375,-12.7109375,1.9609375,1.0
616570,36.013237000000004,129.31920883333333,54.88548338840734,92.87305392403172,1.2000000000000002,43.0,,-0.27734375,-5.6953125,2.29296875,0.099609375,0.1640625,0.01953125,-0.953125,-9.0390625,1.078125,1.0
616571,,,,,,,,3.03515625,-8.62890625,4.35546875,-0.78125,-0.09765625,0.1875,3.26171875,-18.1875,5.79296875,1.0
616572,,,,,,,,3.5859375,-8.46875,3.93359375,-0.833984375,-0.09765625,0.2109375,3.796875,-18.0390625,5.33203125,1.0
616573,,,,,,,,4.26171875,-6.23828125,4.44140625,-0.923828125,-0.091796875,0.251953125,4.44921875,-15.81640625,5.75390625,1.0
616574,,,,,,,,4.3984375,-5.15234375,4.84765625,-1.19140625,-0.125,0.296875,4.5625,-14.74609375,6.05859375,1.0
616575,,,,,,,,3.01171875,-2.76171875,4.734375,-1.349609375,-0.14453125,0.302734375,3.14453125,-12.3671875,5.828125,1.0
616576,,,,,,,,1.08984375,-1.98046875,5.265625,-0.94140625,-0.1875,0.283203125,1.19140625,-11.60546875,6.25,1.0
616577,,,,,,,,-0.39453125,-1.93359375,5.296875,-0.642578125,-0.119140625,0.255859375,-0.30078125,-11.56640625,6.25,1.0
616578,,,,,,,,-0.6015625,-1.84765625,4.02734375,-0.126953125,0.142578125,0.16796875,-0.53125,-11.484375,4.94921875,1.0
616579,,,,,,,,-0.35546875,-1.58984375,3.21484375,0.31640625,0.326171875,0.060546875,-0.30078125,-11.21875,4.14453125,1.0
616580,36.01323766666667,129.31921016666666,55.005681081942285,92.94702750600655,1.4000000000000001,50.0,,0.5859375,-0.90625,2.25390625,0.6484375,-0.21484375,-0.111328125,0.65625,-10.53125,3.37890625,1.0
616581,,,,,,,,0.4921875,-1.3359375,2.265625,0.458984375,-0.41015625,-0.091796875,0.578125,-10.95703125,3.453125,1.0
616582,,,,,,,,0.5234375,-1.296875,2.09765625,0.3671875,-0.37890625,-0.060546875,0.6171875,-10.91796875,3.30078125,1.0
616583,,,,,,,,0.640625,-0.9140625,1.4921875,0.248046875,-0.2578125,0.009765625,0.734375,-10.53125,2.7265625,1.0
616584,,,,,,,,0.37109375,-0.1875,0.92578125,0.095703125,-0.19140625,0.03515625,0.46484375,-9.8046875,2.19140625,1.0
616585,,,,,,,,0.1796875,0.42578125,0.55078125,-0.1328125,-0.162109375,0.109375,0.2734375,-9.19140625,1.80859375,1.0
616586,,,,,,,,0.15625,0.5859375,0.44140625,-0.232421875,-0.177734375,0.146484375,0.234375,-9.0390625,1.69140625,1.0
616587,,,,,,,,0.01171875,1.046875,0.03515625,-0.26171875,-0.1953125,0.1875,0.08203125,-8.578125,1.26953125,1.0
616588,,,,,,,,0.06640625,1.31640625,-0.20703125,-0.197265625,-0.18359375,0.224609375,0.12109375,-8.3046875,1.00390625,1.0
616589,,,,,,,,0.08203125,1.5234375,-0.19921875,-0.171875,-0.16015625,0.2421875,0.12109375,-8.12109375,1.00390625,1.0
