time,latitude,longitude,enu_x,enu_y,speed,course,ecg,accX,accY,accZ,gyrX,gyrY,gyrZ,eulR,eulP,eulY,validity
652080,36.013236666666664,129.3192785,61.16583734345217,92.8361089913618,1.3,40.0,,-0.22265625,-0.01171875,1.15234375,0.248046875,-0.138671875,-0.18359375,-1.14453125,-9.5703125,2.45703125,1.0
652081,,,,,,,,0.05859375,0.10546875,0.74609375,0.103515625,-0.12109375,-0.24609375,-0.83984375,-9.45703125,2.07421875,1.0
652082,,,,,,,,0.54296875,0.265625,0.32421875,0.01953125,-0.087890625,-0.28515625,-0.33984375,-9.3046875,1.65234375,1.0
652083,,,,,,,,0.71875,0.45703125,0.08984375,0.017578125,-0.083984375,-0.291015625,-0.1484375,-9.11328125,1.42578125,1.0
652084,,,,,,,,0.81640625,0.6953125,0.00390625,0.03515625,-0.1484375,-0.32421875,0.00390625,-8.88671875,1.34765625,1.0
652085,,,,,,,,0.9375,1.078125,-0.00390625,0.005859375,-0.20703125,-0.33203125,0.15625,-8.5,1.34765625,1.0
652086,,,,,,,,0.82421875,1.66015625,-0.08203125,-0.044921875,-0.232421875,-0.341796875,0.08203125,-7.921875,1.26953125,1.0
652087,,,,,,,,0.71484375,1.9296875,-0.109375,-0.087890625,-0.240234375,-0.349609375,0.00390625,-7.66015625,1.234375,1.0
652088,,,,,,,,0.578125,2.15625,-0.1953125,-0.107421875,-0.23046875,-0.345703125,-0.109375,-7.43359375,1.15625,1.0
652089,,,,,,,,0.30859375,2.43359375,-0.21875,-0.1171875,-0.22265625,-0.35546875,-0.33984375,-7.15625,1.1171875,1.0
652090,36.013237499999995,129.31927933333333,61.24096054550691,92.92857555280978,1.1,40.0,,0.078125,2.44140625,-0.2890625,0.248046875,-0.138671875,-0.18359375,-0.53125,-7.16015625,1.0390625,1.0
652091,,,,,,,,-0.20703125,2.48046875,-0.5078125,-0.056640625,-0.248046875,-0.390625,-0.76171875,-7.12109375,0.8125,1.0
652092,,,,,,,,-0.3671875,2.51953125,-0.59375,-0.04296875,-0.30859375,-0.38671875,-0.875,-7.08203125,0.734375,1.0
652093,,,,,,,,-0.3828125,2.52734375,-0.59375,-0.052734375,-0.3359375,-0.384765625,-0.875,-7.08203125,0.734375,1.0
652094,,,,,,,,-0.546875,2.48828125,-0.73828125,-0.05859375,-0.359375,-0.357421875,-0.9921875,-7.1171875,0.58203125,1.0
652095,,,,,,,,-0.5390625,2.37109375,-0.73828125,-0.03125,-0.3828125,-0.32421875,-0.953125,-7.234375,0.58203125,1.0
652096,,,,,,,,-0.46484375,2.15234375,-0.81640625,0.00390625,-0.3828125,-0.271484375,-0.83984375,-7.46484375,0.50390625,1.0
652097,,,,,,,,-0.41015625,2.07421875,-0.81640625,0.037109375,-0.380859375,-0.22265625,-0.76171875,-7.54296875,0.50390625,1.0
652098,,,,,,,,-0.38671875,1.99609375,-0.78515625,0.064453125,-0.373046875,-0.1953125,-0.72265625,-7.62109375,0.54296875,1.0
652099,,,,,,,,-0.32421875,1.9140625,-0.80078125,0.142578125,-0.369140625,-0.11328125,-0.64453125,-7.69921875,0.58203125,1.0
652100,36.01323816666666,129.31927983333333,61.28603433951022,93.0025486974217,1.0,40.0,0.0,0.078125,2.44140625,-0.2890625,0.17578125,-0.373046875,-0.068359375,-0.64453125,-7.734375,0.50390625,1.0
652101,,,,,,,,-0.3203125,1.7890625,-0.9453125,0.1953125,-0.369140625,-0.029296875,-0.5703125,-8.0390625,0.23828125,1.0
652102,,,,,,,,-0.2890625,1.55078125,-1.14453125,0.19140625,-0.375,-0.01171875,-0.64453125,-8.12109375,0.23828125,1.0
652103,,,,,,,,-0.3359375,1.3984375,-1.17578125,0.20703125,-0.36328125,0.0390625,-0.609375,-8.38671875,0.23828125,1.0
652104,,,,,,,,-0.3359375,0.96875,-1.1640625,0.203125,-0.375,0.06640625,-0.609375,-8.6171875,0.2734375,1.0
652105,,,,,,,,-0.296875,0.51171875,-1.0234375,0.181640625,-0.390625,0.083984375,-0.5703125,-9.07421875,0.4296875,1.0
652106,,,,,,,,-0.25,0.2421875,-0.7734375,0.169921875,-0.39453125,0.087890625,-0.53125,-9.34765625,0.6953125,1.0
652107,,,,,,,,-0.3359375,-0.03515625,-0.63671875,0.11328125,-0.3984375,0.09765625,-0.609375,-9.609375,0.84765625,1.0
652108,,,,,,,,-0.39453125,-0.1171875,-0.60546875,0.021484375,-0.39453125,0.103515625,-0.72265625,-9.6875,0.88671875,1.0
652109,,,,,,,,-0.43359375,-0.1171875,-0.61328125,0.001953125,-0.390625,0.10546875,-0.72265625,-9.6875,0.88671875,1.0
652110,36.013239,129.3192805,61.34613277019024,93.09501515617612,1.1,39.0,,0.078125,2.44140625,-0.2890625,0.17578125,-0.373046875,-0.068359375,-0.68359375,-9.6484375,0.6953125,1.0
652111,,,,,,,,-0.38671875,-0.078125,-0.796875,-0.048828125,-0.40625,0.080078125,-0.609375,-9.65234375,0.65625,1.0
652112,,,,,,,,-0.203125,-0.1640625,-0.828125,-0.029296875,-0.435546875,0.0546875,-0.453125,-9.765625,0.62109375,1.0
652113,,,,,,,,-0.04296875,-0.28515625,-0.90234375,-0.013671875,-0.470703125,0.025390625,-0.33984375,-9.83984375,0.58203125,1.0
652114,,,,,,,,0.140625,-0.6328125,-0.94140625,-0.013671875,-0.501953125,-0.005859375,-0.1484375,-10.19140625,0.54296875,1.0
652115,,,,,,,,0.32421875,-0.69921875,-0.828125,-0.03515625,-0.515625,-0.03125,0.04296875,-10.26171875,0.65625,1.0
652116,,,,,,,,0.35546875,-0.5078125,-0.7109375,-0.046875,-0.53125,-0.0390625,0.08203125,-10.0703125,0.7734375,1.0
652117,,,,,,,,0.30078125,-0.0859375,-0.78125,-0.076171875,-0.513671875,-0.056640625,0.04296875,-9.6484375,0.6953125,1.0
652118,,,,,,,,-0.40234375,0.984375,-1.00390625,-0.123046875,-0.48046875,-0.04296875,-0.64453125,-8.58203125,0.46484375,1.0
652119,,,,,,,,-0.95703125,1.25390625,-0.91015625,-0.189453125,-0.43359375,-0.01953125,-1.18359375,-8.3046875,0.54296875,1.0
652120,36.01323983333334,129.31928150000002,61.43628074169142,93.1874818239636,1.1,41.0,,-1.53125,0.86328125,-0.81640625,-0.234375,-0.396484375,0.0,-1.7578125,-8.69140625,0.62109375,1.0
652121,,,,,,,,-1.609375,-1.8125,-0.328125,-0.1953125,-0.3359375,0.04296875,-1.8359375,-11.37890625,1.078125,1.0
652122,,,,,,,,-0.57421875,-3.765625,0.9296875,-0.2265625,-0.333984375,0.087890625,-0.80078125,-13.33203125,2.3046875,1.0
652123,,,,,,,,0.390625,-6.2109375,1.52734375,-0.330078125,-0.390625,0.109375,0.15625,-15.78125,2.87890625,1.0
652124,,,,,,,,1.3515625,-8.19140625,1.34375,-0.53515625,-0.5078125,0.130859375,1.1171875,-17.76953125,2.6484375,1.0
652125,,,,,,,,2.31640625,-5.16015625,2.3671875,-0.814453125,-0.69140625,0.173828125,2.07421875,-14.7421875,3.609375,1.0
652126,,,,,,,,2.66796875,-3.20703125,2.17578125,-0.908203125,-0.779296875,0.203125,2.41796875,-12.79296875,3.37890625,1.0
652127,,,,,,,,2.0234375,-0.77734375,1.45703125,-0.884765625,-0.87109375,0.24609375,1.765625,-10.375,2.57421875,1.0
652128,,,,,,,,1.234375,-1.265625,2.109375,-0.734375,-0.8671875,0.291015625,0.9609375,-10.87890625,3.1484375,1.0
652129,,,,,,,,-0.37109375,-2.90625,3.4140625,-0.38671875,-0.857421875,0.287109375,-0.68359375,-12.52734375,4.375,1.0
652130,36.01324066666667,129.31928233333335,61.511403940342575,93.27994838799847,1.1,41.0,,-0.85546875,-3.44140625,3.3515625,-0.234375,-0.396484375,0.0,-1.7578125,-8.69140625,0.62109375,1.0
652131,,,,,,,,-0.81640625,-2.9375,2.2109375,0.50390625,-0.84765625,0.109375,-1.14453125,-12.56640625,3.1875,1.0
652132,,,,,,,,-0.35546875,-1.91015625,1.375,0.5234375,-0.8671875,0.06640625,-0.68359375,-11.5234375,2.3828125,1.0
652133,,,,,,,,0.09375,-0.5703125,1.12109375,0.1953125,-1.1953125,0.005859375,-0.2265625,-10.1875,2.19140625,1.0
652134,,,,,,,,0.28515625,-0.109375,1.11328125,0.1640625,-1.314453125,0.017578125,-0.03515625,-9.7265625,2.19140625,1.0
652135,,,,,,,,0.38671875,0.08203125,0.890625,0.337890625,-1.44140625,0.0859375,0.08203125,-9.53515625,2.0,1.0
652136,,,,,,,,0.5390625,0.2265625,0.61328125,0.552734375,-1.48828125,0.134765625,0.234375,-9.38671875,1.76953125,1.0
652137,,,,,,,,0.68359375,0.2578125,0.3125,0.61328125,-1.4921875,0.181640625,0.38671875,-9.34375,1.5,1.0
652138,,,,,,,,1.0,0.49609375,-0.1328125,0.62890625,-1.431640625,0.275390625,0.6953125,-9.11328125,1.1171875,1.0
652139,,,,,,,,1.0390625,0.640625,-0.203125,0.591796875,-1.380859375,0.326171875,0.734375,-8.96484375,1.078125,1.0
652140,36.01324150000001,129.31928316666665,61.586527132704795,93.37241495362346,1.2000000000000002,40.0,,0.984375,0.94140625,-0.41015625,-0.234375,-0.396484375,0.0,-1.7578125,-8.69140625,0.62109375,1.0
652141,,,,,,,,0.9375,1.46875,-0.51171875,0.21484375,-1.271484375,0.474609375,0.578125,-8.1171875,0.88671875,1.0
652142,,,,,,,,1.16796875,1.99609375,-0.57421875,0.08203125,-1.33203125,0.478515625,0.76953125,-7.58203125,0.84765625,1.0
652143,,,,,,,,1.4609375,2.3125,-0.88671875,0.03515625,-1.3046875,0.46484375,1.0390625,-7.27734375,0.54296875,1.0
652144,,,,,,,,1.59765625,2.46484375,-0.97265625,0.013671875,-1.255859375,0.447265625,1.15234375,-7.12109375,0.46484375,1.0
652145,,,,,,,,1.77734375,2.6484375,-0.90234375,0.001953125,-1.19921875,0.42578125,1.30859375,-6.93359375,0.54296875,1.0
652146,,,,,,,,1.8671875,2.6484375,-0.94921875,0.01171875,-1.189453125,0.41796875,1.3828125,-6.93359375,0.50390625,1.0
652147,,,,,,,,2.05078125,2.49609375,-1.03125,0.044921875,-1.125,0.404296875,1.53515625,-7.078125,0.4296875,1.0
652148,,,,,,,,2.26953125,2.48828125,-1.2109375,0.056640625,-1.0625,0.400390625,1.73046875,-7.08203125,0.2734375,1.0
652149,,,,,,,,2.375,2.32421875,-1.30078125,0.0625,-0.955078125,0.404296875,1.8046875,-7.23828125,0.19921875,1.0
652150,36.01324216666667,129.31928383333334,61.646625691536485,93.44638820569152,1.0,37.0,,2.32421875,2.01953125,-1.26953125,-0.234375,-0.396484375,0.0,1.73046875,-7.5390625,0.23828125,1.0
652151,,,,,,,,2.26953125,1.828125,-1.1640625,0.06640625,-0.873046875,0.3671875,1.65234375,-7.73828125,0.3515625,1.0
652152,,,,,,,,2.15234375,1.66796875,-0.98046875,0.060546875,-0.84765625,0.34765625,1.53515625,-7.88671875,0.54296875,1.0
652153,,,,,,,,2.0625,1.51171875,-0.875,0.05859375,-0.783203125,0.302734375,1.421875,-8.0390625,0.65625,1.0
652154,,,,,,,,1.96484375,1.3203125,-0.765625,0.052734375,-0.708984375,0.251953125,1.30859375,-8.23828125,0.7734375,1.0
652155,,,,,,,,2.0078125,0.81640625,-0.890625,0.025390625,-0.623046875,0.201171875,1.34375,-8.73046875,0.65625,1.0
652156,,,,,,,,1.96484375,0.625,-0.93359375,0.029296875,-0.572265625,0.185546875,1.30859375,-8.92578125,0.62109375,1.0
652157,,,,,,,,1.93359375,0.28125,-0.98046875,0.025390625,-0.4765625,0.140625,1.26953125,-9.26953125,0.58203125,1.0
652158,,,,,,,,1.98046875,-0.30078125,-0.98828125,0.068359375,-0.390625,0.10546875,1.30859375,-9.83984375,0.58203125,1.0
652159,,,,,,,,1.97265625,-0.49609375,-0.99609375,0.103515625,-0.328125,0.078125,1.30859375,-10.03515625,0.58203125,1.0
652160,36.013243333333335,129.31928449999998,61.70672385351007,93.57584108160178,1.1,30.0,,1.78125,-0.76953125,-0.828125,0.154296875,-0.21875,0.0390625,1.1171875,-10.30078125,0.7734375,1.0
652161,,,,,,,,1.359375,-0.35546875,-0.76953125,0.173828125,-0.154296875,0.013671875,0.6953125,-9.875,0.84765625,1.0
652162,,,,,,,,1.00390625,-0.203125,-0.8203125,0.197265625,-0.09375,0.001953125,0.34765625,-9.73046875,0.8125,1.0
652163,,,,,,,,0.9609375,-0.2421875,-0.90625,0.203125,-0.068359375,-0.0078125,0.3125,-9.76953125,0.734375,1.0
652164,,,,,,,,0.9609375,-0.36328125,-0.9296875,0.23046875,-0.0234375,-0.017578125,0.3125,-9.87890625,0.734375,1.0
652165,,,,,,,,0.953125,-0.5625,-1.11328125,0.23046875,0.025390625,-0.021484375,0.3125,-10.07421875,0.58203125,1.0
652166,,,,,,,,0.75390625,-0.9921875,-1.0234375,0.224609375,0.05859375,-0.025390625,0.12109375,-10.4921875,0.6953125,1.0
652167,,,,,,,,0.66796875,-1.30078125,-1.0,0.193359375,0.029296875,0.0,0.04296875,-10.796875,0.734375,1.0
652168,,,,,,,,0.66796875,-1.453125,-1.0078125,0.154296875,0.001953125,0.015625,0.04296875,-10.95703125,0.734375,1.0
652169,,,,,,,,0.67578125,-1.5,-0.83203125,0.083984375,-0.033203125,0.05078125,0.04296875,-10.99609375,0.92578125,1.0
652170,36.01324416666667,129.31928516666667,61.76682228010029,93.66830754127636,1.1,26.0,,0.5546875,-0.92578125,-0.41015625,0.021484375,-0.009765625,0.076171875,-0.0703125,-10.41796875,1.34765625,1.0
652171,,,,,,,,0.67578125,0.03515625,-0.48828125,-0.037109375,0.01171875,0.099609375,0.04296875,-9.45703125,1.26953125,1.0
652172,,,,,,,,0.76171875,0.26171875,-0.6015625,-0.056640625,0.00390625,0.103515625,0.12109375,-9.2265625,1.15625,1.0
652173,,,,,,,,1.19140625,0.1171875,-0.84765625,-0.1484375,-0.078125,0.123046875,0.54296875,-9.38671875,0.88671875,1.0
652174,,,,,,,,1.2734375,-1.109375,-1.21484375,-0.197265625,-0.111328125,0.142578125,0.6171875,-10.61328125,0.50390625,1.0
652175,,,,,,,,0.59375,-2.02734375,-0.72265625,-0.169921875,-0.14453125,0.15625,-0.0703125,-11.5234375,0.96484375,1.0
652176,,,,,,,,0.37109375,-2.05859375,-0.5234375,-0.16796875,-0.166015625,0.16796875,-0.30078125,-11.56640625,1.15625,1.0
652177,,,,,,,,-0.41796875,-0.71875,0.44921875,-0.236328125,-0.18359375,0.203125,-1.10546875,-10.23046875,2.11328125,1.0
652178,,,,,,,,-0.71875,-0.71875,1.4375,-0.412109375,-0.171875,0.244140625,-1.4140625,-10.2265625,3.0703125,1.0
652179,,,,,,,,-0.7109375,-1.24609375,1.421875,-0.560546875,-0.138671875,0.259765625,-1.4140625,-10.7578125,3.03125,1.0
652180,36.01324533333333,129.31928533333334,61.781846137282,93.79776010133574,1.2000000000000002,18.0,,-0.9140625,-2.9609375,2.0703125,0.021484375,-0.009765625,0.076171875,-1.640625,-12.484375,3.609375,1.0
652181,,,,,,,,-1.6953125,-4.2109375,3.3046875,-0.892578125,0.07421875,0.220703125,-2.4453125,-13.75390625,4.7578125,1.0
652182,,,,,,,,-2.4765625,-4.125,4.1796875,-0.619140625,0.1953125,0.146484375,-3.25,-13.671875,5.5234375,1.0
652183,,,,,,,,-2.5859375,-3.62890625,4.171875,-0.53125,0.197265625,0.15625,-3.3671875,-13.171875,5.484375,1.0
652184,,,,,,,,-1.83984375,-2.078125,3.61328125,-0.626953125,0.0546875,0.177734375,-2.63671875,-11.64453125,4.87109375,1.0
652185,,,,,,,,-0.1484375,-1.265625,2.95703125,-0.919921875,-0.140625,0.17578125,-0.953125,-10.8359375,4.14453125,1.0
652186,,,,,,,,0.55859375,-1.296875,2.4296875,-0.86328125,-0.197265625,0.16796875,-0.26171875,-10.87890625,3.53125,1.0
652187,,,,,,,,0.48828125,-1.20703125,2.109375,-0.46484375,-0.2578125,0.15234375,-0.33984375,-10.796875,3.1484375,1.0
652188,,,,,,,,0.45703125,-1.20703125,2.1640625,-0.228515625,-0.318359375,0.1484375,-0.37890625,-10.80078125,3.1875,1.0
652189,,,,,,,,0.28125,-1.015625,2.31640625,0.1328125,-0.505859375,0.134765625,-0.5703125,-10.609375,3.33984375,1.0
652190,36.0132465,129.3192855,61.79686999472784,93.9272126614852,1.2000000000000002,12.0,,-0.03125,-0.515625,1.91796875,0.021484375,-0.009765625,0.076171875,-0.875,-10.11328125,2.99609375,1.0
652191,,,,,,,,0.01171875,-0.09375,1.49609375,0.361328125,-0.396484375,0.046875,-0.83984375,-9.69140625,2.61328125,1.0
652192,,,,,,,,0.3203125,0.203125,0.96484375,0.23046875,-0.375,-0.0234375,-0.53125,-9.3828125,2.11328125,1.0
652193,,,,,,,,0.55859375,0.6328125,0.51953125,0.060546875,-0.54296875,-0.166015625,-0.26171875,-8.9609375,1.69140625,1.0
652194,,,,,,,,0.640625,0.94140625,0.3203125,0.0078125,-0.708984375,-0.2265625,-0.1484375,-8.65234375,1.5,1.0
652195,,,,,,,,0.80078125,1.24609375,0.16015625,-0.033203125,-0.82421875,-0.271484375,0.04296875,-8.34765625,1.34765625,1.0
652196,,,,,,,,0.81640625,1.3671875,0.12109375,-0.04296875,-0.869140625,-0.279296875,0.08203125,-8.234375,1.30859375,1.0
652197,,,,,,,,0.96875,1.68359375,-0.078125,-0.06640625,-0.8828125,-0.271484375,0.2734375,-7.92578125,1.1171875,1.0
652198,,,,,,,,1.04296875,2.02734375,-0.421875,-0.076171875,-0.84765625,-0.255859375,0.38671875,-7.58203125,0.7734375,1.0
652199,,,,,,,,0.9375,2.37109375,-0.60546875,-0.072265625,-0.79296875,-0.248046875,0.3125,-7.234375,0.58203125,1.0
652200,36.013247166666666,129.3192858333333,61.826919006319045,94.00118570311423,1.0,12.0,0.0,0.78125,2.53515625,-0.65234375,-0.060546875,-0.75390625,-0.2265625,0.1953125,-7.078125,0.54296875,1.0
652201,,,,,,,,0.40625,2.49609375,-0.65234375,-0.037109375,-0.75390625,-0.224609375,-0.1484375,-7.1171875,0.54296875,1.0
652202,,,,,,,,0.18359375,2.42578125,-0.5390625,-0.00390625,-0.7578125,-0.224609375,-0.33984375,-7.19921875,0.65625,1.0
652203,,,,,,,,-0.0625,2.3125,-0.421875,0.013671875,-0.7734375,-0.21484375,-0.5703125,-7.31640625,0.7734375,1.0
652204,,,,,,,,-0.29296875,2.1953125,-0.4765625,0.037109375,-0.79296875,-0.203125,-0.76171875,-7.4296875,0.734375,1.0
652205,,,,,,,,-0.31640625,2.12109375,-0.484375,0.041015625,-0.796875,-0.1875,-0.76171875,-7.5,0.734375,1.0
652206,,,,,,,,-0.27734375,2.08203125,-0.72265625,0.064453125,-0.771484375,-0.154296875,-0.68359375,-7.5390625,0.50390625,1.0
652207,,,,,,,,-0.30859375,1.890625,-0.76953125,0.1015625,-0.76171875,-0.12890625,-0.68359375,-7.734375,0.46484375,1.0
652208,,,,,,,,-0.32421875,1.8515625,-0.66796875,0.134765625,-0.755859375,-0.119140625,-0.68359375,-7.7734375,0.58203125,1.0
652209,,,,,,,,-0.234375,1.73046875,-0.6171875,0.234375,-0.740234375,-0.056640625,-0.5703125,-7.8828125,0.65625,1.0
652210,36.013248,129.319286,61.841943125300574,94.0936518475638,1.0,9.0,,-0.09765625,1.69140625,-0.6484375,0.2734375,-0.751953125,-0.0078125,-0.41796875,-7.92578125,0.65625,1.0
652211,,,,,,,,0.01171875,1.64453125,-0.80078125,0.265625,-0.755859375,0.078125,-0.30078125,-7.9609375,0.54296875,1.0
652212,,,,,,,,0.01171875,1.4921875,-0.85546875,0.25,-0.75,0.115234375,-0.30078125,-8.12109375,0.50390625,1.0
652213,,,,,,,,-0.07421875,1.16796875,-0.89453125,0.236328125,-0.763671875,0.181640625,-0.37890625,-8.42578125,0.50390625,1.0
652214,,,,,,,,0.0859375,0.82421875,-0.92578125,0.265625,-0.7421875,0.21875,-0.2265625,-8.76953125,0.50390625,1.0
652215,,,,,,,,0.32421875,0.47265625,-0.95703125,0.267578125,-0.72265625,0.22265625,0.00390625,-9.109375,0.50390625,1.0
652216,,,,,,,,0.41796875,0.39453125,-0.92578125,0.2578125,-0.712890625,0.224609375,0.08203125,-9.19140625,0.54296875,1.0
652217,,,,,,,,0.5703125,0.38671875,-0.8359375,0.203125,-0.6796875,0.228515625,0.234375,-9.19140625,0.65625,1.0
652218,,,,,,,,0.5390625,0.265625,-0.66015625,0.13671875,-0.6796875,0.220703125,0.1953125,-9.3046875,0.84765625,1.0
652219,,,,,,,,0.546875,0.11328125,-0.58984375,0.109375,-0.685546875,0.21484375,0.1953125,-9.45703125,0.92578125,1.0
652220,36.01324916666667,129.319286,61.841942214188535,94.22310430138046,1.1,7.0,,0.6015625,-0.34765625,-0.796875,0.2734375,-0.751953125,-0.0078125,0.234375,-9.9140625,0.734375,1.0
652221,,,,,,,,0.74609375,-0.5859375,-0.65234375,0.064453125,-0.6796875,0.1796875,0.38671875,-10.1484375,0.88671875,1.0
652222,,,,,,,,0.9453125,-0.625,-0.58203125,0.05859375,-0.650390625,0.16796875,0.578125,-10.1875,0.96484375,1.0
652223,,,,,,,,1.1015625,-0.5859375,-0.54296875,0.044921875,-0.625,0.154296875,0.734375,-10.15234375,1.00390625,1.0
652224,,,,,,,,1.30078125,-0.44140625,-0.4765625,0.025390625,-0.560546875,0.130859375,0.92578125,-9.9921875,1.078125,1.0
652225,,,,,,,,0.9921875,-0.2109375,-0.20703125,-0.025390625,-0.521484375,0.08203125,0.6171875,-9.76953125,1.34765625,1.0
652226,,,,,,,,0.265625,-0.1328125,-0.4375,-0.05078125,-0.49609375,0.06640625,-0.109375,-9.6875,1.1171875,1.0
652227,,,,,,,,0.02734375,0.1328125,-0.58203125,-0.05859375,-0.50390625,0.041015625,-0.33984375,-9.42578125,0.96484375,1.0
652228,,,,,,,,-0.01171875,0.2421875,-0.62109375,-0.05859375,-0.494140625,0.03515625,-0.37890625,-9.3046875,0.92578125,1.0
652229,,,,,,,,-0.28515625,0.5546875,-0.5,-0.083984375,-0.318359375,0.017578125,-0.64453125,-9.0,1.0390625,1.0
652230,36.013250166666666,129.31928633333334,61.87199096919484,94.33406375892882,1.1,6.0,,-0.71484375,0.6328125,-0.26171875,0.2734375,-0.751953125,-0.0078125,0.234375,-9.9140625,0.734375,1.0
652231,,,,,,,,-0.984375,0.6640625,0.17578125,-0.177734375,-0.068359375,0.025390625,-1.3359375,-8.88671875,1.69140625,1.0
652232,,,,,,,,-1.40625,0.25,0.4375,-0.25390625,-0.00390625,0.05078125,-1.7578125,-9.3046875,1.921875,1.0
652233,,,,,,,,-1.51171875,-0.40234375,0.23046875,-0.310546875,0.041015625,0.072265625,-1.87109375,-9.953125,1.69140625,1.0
652234,,,,,,,,-1.50390625,-2.00390625,-0.3046875,-0.419921875,0.044921875,0.08203125,-1.87109375,-11.56640625,1.1171875,1.0
652235,,,,,,,,-1.62109375,-3.19140625,0.203125,-0.513671875,-0.029296875,0.076171875,-1.98828125,-12.75,1.578125,1.0
652236,,,,,,,,-1.265625,-4.64453125,0.38671875,-0.53515625,-0.08984375,0.076171875,-1.640625,-14.20703125,1.73046875,1.0
652237,,,,,,,,-0.5,-6.23828125,0.59375,-0.59375,-0.21875,0.0625,-0.875,-15.81640625,1.8828125,1.0
652238,,,,,,,,0.953125,-7.53515625,0.95703125,-0.669921875,-0.337890625,0.05859375,0.578125,-17.1171875,2.19140625,1.0
652239,,,,,,,,4.37109375,-3.96484375,3.546875,-0.669921875,-0.419921875,0.08984375,3.98828125,-13.5546875,4.71875,1.0
652240,36.01325133333333,129.31928616666667,61.856965290705126,94.46351610801327,1.2000000000000002,1.0,,3.91015625,-2.34765625,3.80078125,0.2734375,-0.751953125,-0.0078125,0.234375,-9.9140625,0.734375,1.0
652241,,,,,,,,-0.2109375,-2.53125,4.1328125,-0.6640625,-0.9453125,0.259765625,-0.609375,-12.140625,5.1796875,1.0
652242,,,,,,,,-1.54296875,-2.60546875,4.23828125,-0.703125,-1.12890625,0.291015625,-1.94921875,-12.2109375,5.25390625,1.0
652243,,,,,,,,-3.18359375,-2.66796875,2.80078125,-0.6875,-1.474609375,0.265625,-3.59765625,-12.2890625,3.72265625,1.0
652244,,,,,,,,-1.25,-1.78125,1.4921875,0.068359375,-0.80078125,0.119140625,-1.6796875,-11.4140625,2.3828125,1.0
652245,,,,,,,,-0.8203125,-0.8203125,1.19921875,0.291015625,-0.314453125,0.1171875,-1.2578125,-10.45703125,2.11328125,1.0
652246,,,,,,,,-0.73828125,-0.5625,1.0703125,0.328125,-0.37109375,0.142578125,-1.18359375,-10.1875,2.0,1.0
652247,,,,,,,,-0.65234375,-0.171875,0.8828125,0.330078125,-0.849609375,0.193359375,-1.10546875,-9.8046875,1.84375,1.0
652248,,,,,,,,-0.37890625,-0.4375,0.80859375,0.29296875,-1.25,0.275390625,-0.83984375,-10.07421875,1.80859375,1.0
652249,,,,,,,,-0.17578125,-0.5546875,0.70703125,0.287109375,-1.298828125,0.31640625,-0.64453125,-10.19140625,1.73046875,1.0
652250,36.013252333333334,129.31928616666667,61.85696450898681,94.57447535397426,1.2000000000000002,1.0,,0.3125,-0.22265625,0.34765625,0.2734375,-0.751953125,-0.0078125,0.234375,-9.9140625,0.734375,1.0
652251,,,,,,,,0.29296875,0.46484375,-0.1015625,0.18359375,-1.234375,0.583984375,-0.26171875,-9.1484375,1.0390625,1.0
652252,,,,,,,,0.31640625,0.6953125,-0.26171875,0.056640625,-1.26171875,0.6171875,-0.26171875,-8.92578125,0.88671875,1.0
652253,,,,,,,,0.3984375,1.64453125,-0.57421875,-0.123046875,-1.369140625,0.654296875,-0.2265625,-7.96484375,0.58203125,1.0
652254,,,,,,,,0.9609375,2.10546875,-0.56640625,-0.1640625,-1.427734375,0.65234375,0.2734375,-7.50390625,0.58203125,1.0
652255,,,,,,,,1.390625,2.265625,-0.52734375,-0.138671875,-1.369140625,0.623046875,0.65625,-7.3515625,0.62109375,1.0
652256,,,,,,,,1.796875,2.296875,-0.484375,-0.140625,-1.349609375,0.609375,1.0390625,-7.31640625,0.65625,1.0
652257,,,,,,,,2.06640625,2.44921875,-0.40625,-0.171875,-1.357421875,0.578125,1.26953125,-7.15625,0.734375,1.0
652258,,,,,,,,2.08984375,2.87109375,-0.4296875,-0.265625,-1.455078125,0.552734375,1.23046875,-6.734375,0.6953125,1.0
652259,,,,,,,,2.05859375,2.91015625,-0.390625,-0.271484375,-1.46875,0.5390625,1.19140625,-6.6953125,0.734375,1.0
652260,36.013253166666665,129.31928616666667,61.85696385800374,94.66694139340795,1.0,359.0,,2.2890625,2.7109375,-0.60546875,0.2734375,-0.751953125,-0.0078125,1.3828125,-6.89453125,0.50390625,1.0
652261,,,,,,,,2.8125,2.44140625,-0.98828125,-0.046875,-1.189453125,0.470703125,1.84375,-7.16015625,0.12109375,1.0
652262,,,,,,,,2.94921875,2.35546875,-0.96484375,0.056640625,-1.1328125,0.451171875,1.95703125,-7.23828125,0.16015625,1.0
652263,,,,,,,,2.8671875,2.35546875,-0.98828125,0.15234375,-1.08984375,0.431640625,1.84375,-7.23828125,0.16015625,1.0
652264,,,,,,,,2.77734375,2.265625,-0.93359375,0.20703125,-1.09375,0.384765625,1.73046875,-7.31640625,0.23828125,1.0
652265,,,,,,,,2.71484375,2.1796875,-0.8515625,0.189453125,-1.095703125,0.333984375,1.65234375,-7.39453125,0.3515625,1.0
652266,,,,,,,,2.60546875,1.98828125,-0.7890625,0.16796875,-1.072265625,0.306640625,1.53515625,-7.578125,0.4296875,1.0
652267,,,,,,,,2.546875,1.4453125,-0.8125,0.130859375,-0.98046875,0.2421875,1.4609375,-8.12109375,0.4296875,1.0
652268,,,,,,,,2.35546875,0.7109375,-0.921875,0.12109375,-0.787109375,0.166015625,1.26953125,-8.84375,0.3515625,1.0
652269,,,,,,,,2.27734375,-0.21875,-0.8984375,0.130859375,-0.654296875,0.12109375,1.19140625,-9.76953125,0.390625,1.0
652270,36.01325416666667,129.3192858333333,61.82691353992104,94.77790042836143,1.1,354.0,,2.0546875,-0.87109375,-0.69140625,0.2734375,-0.751953125,-0.0078125,0.9609375,-10.41796875,0.62109375,1.0
652271,,,,,,,,1.8203125,-1.03125,-0.59375,0.16015625,-0.4140625,0.064453125,0.734375,-10.57421875,0.734375,1.0
652272,,,,,,,,1.43359375,-1.0703125,-0.3125,0.154296875,-0.310546875,0.04296875,0.34765625,-10.61328125,1.0390625,1.0
652273,,,,,,,,0.96875,-0.6953125,0.27734375,0.154296875,-0.16796875,0.013671875,-0.109375,-10.2265625,1.65234375,1.0
652274,,,,,,,,0.84375,-0.50390625,0.2265625,0.162109375,-0.0703125,-0.005859375,-0.2265625,-10.03125,1.6171875,1.0
652275,,,,,,,,1.296875,-0.43359375,-0.171875,0.18359375,0.03125,-0.033203125,0.234375,-9.953125,1.234375,1.0
652276,,,,,,,,1.59765625,-0.38671875,-0.6484375,0.185546875,0.08984375,-0.046875,0.54296875,-9.91796875,0.7734375,1.0
652277,,,,,,,,1.58203125,-0.47265625,-1.23828125,0.169921875,0.078125,-0.046875,0.54296875,-9.99609375,0.19921875,1.0
652278,,,,,,,,1.42578125,-0.625,-1.4453125,0.181640625,0.041015625,-0.048828125,0.38671875,-10.1484375,0.0078125,1.0
652279,,,,,,,,1.11328125,-0.89453125,-1.5,0.2109375,-0.04296875,-0.03515625,0.08203125,-10.4140625,-0.03125,1.0
652280,36.013255,129.31928516666667,61.7668138281661,94.87036604318452,1.2000000000000002,343.0,,0.8359375,-0.9765625,-1.5625,0.1875,-0.103515625,-0.013671875,0.9609375,-10.41796875,0.62109375,1.0
652281,,,,,,,,0.140625,-1.0625,-1.234375,0.1171875,-0.080078125,0.01953125,-0.875,-10.5703125,0.2734375,1.0
652282,,,,,,,,-0.05078125,-1.0234375,-0.92578125,0.072265625,-0.05078125,0.03125,-1.06640625,-10.53515625,0.58203125,1.0
652283,,,,,,,,-0.43359375,-0.82421875,0.03125,-0.056640625,-0.001953125,0.052734375,-1.44921875,-10.3359375,1.5390625,1.0
652284,,,,,,,,0.17578125,-0.32421875,-0.09765625,-0.19921875,0.0546875,0.060546875,-0.83984375,-9.83984375,1.38671875,1.0
652285,,,,,,,,1.21875,-0.74609375,-0.91796875,-0.294921875,0.083984375,0.05859375,0.1953125,-10.2578125,0.54296875,1.0
652286,,,,,,,,1.55859375,-1.4375,-1.1328125,-0.322265625,0.1015625,0.056640625,0.54296875,-10.953125,0.3125,1.0
652287,,,,,,,,1.3046875,-1.96484375,-0.87109375,-0.333984375,0.08984375,0.06640625,0.2734375,-11.484375,0.54296875,1.0
652288,,,,,,,,0.15625,-2.1875,-0.10546875,-0.328125,-0.044921875,0.095703125,-0.875,-11.72265625,1.26953125,1.0
652289,,,,,,,,-0.34375,-2.1484375,0.46484375,-0.353515625,-0.25390625,0.107421875,-1.375,-11.6796875,1.80859375,1.0
652290,36.013256,129.31928449999998,61.70671398079705,94.9813248675694,1.2000000000000002,337.0,,-1.67578125,-2.1796875,2.296875,0.1875,-0.103515625,-0.013671875,0.9609375,-10.41796875,0.62109375,1.0
652291,,,,,,,,-1.90625,-2.83203125,2.83984375,-0.736328125,-0.388671875,0.16796875,-2.9453125,-12.3671875,4.10546875,1.0
652292,,,,,,,,-1.78125,-3.12109375,3.0,-0.86328125,-0.337890625,0.166015625,-2.828125,-12.67578125,4.21875,1.0
652293,,,,,,,,-1.62109375,-3.53515625,3.73046875,-0.935546875,-0.169921875,0.1171875,-2.67578125,-13.09375,4.87109375,1.0
652294,,,,,,,,-1.57421875,-3.94921875,3.703125,-0.916015625,-0.09375,0.05859375,-2.63671875,-13.515625,4.7578125,1.0
652295,,,,,,,,-1.4296875,-3.359375,4.09375,-0.814453125,-0.30078125,0.0234375,-2.484375,-12.9453125,5.0234375,1.0
652296,,,,,,,,-0.93359375,-2.27734375,4.2890625,-0.796875,-0.4375,0.0390625,-1.98828125,-11.8671875,5.1796875,1.0
652297,,,,,,,,-0.25,-1.08203125,4.00390625,-0.67578125,-0.63671875,0.0390625,-1.296875,-10.6796875,4.83203125,1.0
652298,,,,,,,,0.59375,-0.43359375,3.4375,-0.369140625,-0.6953125,0.037109375,-0.453125,-10.03125,4.21875,1.0
652299,,,,,,,,0.78515625,-0.27734375,3.109375,-0.107421875,-0.66796875,0.068359375,-0.26171875,-9.87890625,3.875,1.0
652300,36.01325683333334,129.31928366666668,61.63158950559631,95.07379037902027,1.3,330.0,0.0,0.046875,-0.23046875,2.3203125,0.1875,-0.103515625,-0.013671875,-0.9921875,-9.8359375,3.109375,1.0
652301,,,,,,,,-0.57421875,-0.5,2.79296875,0.529296875,-0.505859375,-0.017578125,-1.60546875,-10.11328125,3.64453125,1.0
652302,,,,,,,,-0.3125,-0.1171875,2.42578125,0.546875,-0.45703125,-0.115234375,-1.3359375,-9.7265625,3.33984375,1.0
652303,,,,,,,,-0.20703125,-0.00390625,2.203125,0.4765625,-0.43359375,-0.1484375,-1.22265625,-9.61328125,3.1484375,1.0
652304,,,,,,,,-0.0078125,0.3046875,1.93359375,0.216796875,-0.357421875,-0.21484375,-0.9921875,-9.30859375,2.91796875,1.0
652305,,,,,,,,0.19921875,0.578125,1.421875,-0.048828125,-0.361328125,-0.244140625,-0.76171875,-9.0390625,2.421875,1.0
652306,,,,,,,,0.40625,1.0,0.8515625,-0.1328125,-0.4609375,-0.2734375,-0.53125,-8.6171875,1.84375,1.0
652307,,,,,,,,0.3828125,1.35546875,0.74609375,-0.111328125,-0.548828125,-0.2890625,-0.4921875,-8.265625,1.73046875,1.0
652308,,,,,,,,0.48046875,1.58984375,0.66796875,-0.1015625,-0.5546875,-0.296875,-0.37890625,-8.04296875,1.65234375,1.0
652309,,,,,,,,0.7109375,1.9765625,0.40234375,-0.119140625,-0.583984375,-0.294921875,-0.109375,-7.65625,1.38671875,1.0
652310,36.0132575,129.31928299999998,61.57148992080943,95.14776278882184,1.1,329.0,,0.83203125,2.17578125,0.21875,0.1875,-0.103515625,-0.013671875,0.04296875,-7.4609375,1.1953125,1.0
652311,,,,,,,,1.03125,2.41015625,0.03515625,-0.193359375,-0.58203125,-0.279296875,0.2734375,-7.23828125,1.00390625,1.0
652312,,,,,,,,0.875,2.44921875,-0.07421875,-0.2265625,-0.548828125,-0.2890625,0.15625,-7.1953125,0.88671875,1.0
652313,,,,,,,,0.6171875,2.52734375,-0.05859375,-0.23828125,-0.55859375,-0.30078125,-0.0703125,-7.12109375,0.88671875,1.0
652314,,,,,,,,0.33984375,2.53515625,-0.1484375,-0.23046875,-0.583984375,-0.296875,-0.30078125,-7.12109375,0.7734375,1.0
652315,,,,,,,,-0.05078125,2.54296875,-0.27734375,-0.20703125,-0.595703125,-0.30859375,-0.64453125,-7.1171875,0.62109375,1.0
652316,,,,,,,,-0.10546875,2.51171875,-0.35546875,-0.19140625,-0.59765625,-0.302734375,-0.68359375,-7.15625,0.54296875,1.0
652317,,,,,,,,-0.26953125,2.55078125,-0.609375,-0.15234375,-0.564453125,-0.31640625,-0.80078125,-7.12109375,0.2734375,1.0
652318,,,,,,,,-0.26953125,2.47265625,-0.67578125,-0.099609375,-0.548828125,-0.31640625,-0.76171875,-7.19921875,0.19921875,1.0
652319,,,,,,,,-0.4609375,2.359375,-0.64453125,-0.009765625,-0.52734375,-0.3046875,-0.9140625,-7.31640625,0.23828125,1.0
652320,36.01325816666667,129.3192825,61.52641510864605,95.22173530378686,1.0,327.0,,-0.46875,2.12890625,-0.5390625,0.1171875,-0.478515625,-0.28515625,-0.875,-7.5390625,0.3515625,1.0
652321,,,,,,,,-0.46484375,1.9375,-0.44140625,0.16796875,-0.435546875,-0.244140625,-0.83984375,-7.73828125,0.46484375,1.0
652322,,,,,,,,-0.49609375,1.8515625,-0.35546875,0.189453125,-0.421875,-0.20703125,-0.83984375,-7.8125,0.58203125,1.0
652323,,,,,,,,-0.50390625,1.77734375,-0.32421875,0.1875,-0.42578125,-0.1875,-0.83984375,-7.88671875,0.62109375,1.0
652324,,,,,,,,-0.5625,1.73828125,-0.42578125,0.1796875,-0.451171875,-0.150390625,-0.875,-7.92578125,0.54296875,1.0
652325,,,,,,,,-0.54296875,1.5859375,-0.5546875,0.162109375,-0.484375,-0.1171875,-0.83984375,-8.08203125,0.4296875,1.0
652326,,,,,,,,-0.52734375,1.39453125,-0.6484375,0.1640625,-0.5234375,-0.1015625,-0.80078125,-8.265625,0.3515625,1.0
652327,,,,,,,,-0.54296875,0.99609375,-0.625,0.169921875,-0.5390625,-0.08203125,-0.80078125,-8.65234375,0.390625,1.0
652328,,,,,,,,-0.51171875,0.87890625,-0.71875,0.181640625,-0.537109375,-0.078125,-0.76171875,-8.76953125,0.3125,1.0
652329,,,,,,,,-0.2890625,0.49609375,-0.54296875,0.203125,-0.541015625,-0.080078125,-0.53125,-9.1484375,0.50390625,1.0
652330,36.01325883333333,129.31928183333332,61.46631552556432,95.29570771373793,1.1,323.0,,0.0,0.41796875,-0.375,0.1171875,-0.478515625,-0.28515625,-0.875,-7.5390625,0.3515625,1.0
652331,,,,,,,,0.19921875,0.3359375,-0.3359375,0.173828125,-0.580078125,-0.078125,0.00390625,-9.30859375,0.7734375,1.0
652332,,,,,,,,0.34375,0.3359375,-0.34375,0.142578125,-0.6015625,-0.083984375,0.15625,-9.3046875,0.7734375,1.0
652333,,,,,,,,0.60546875,0.2890625,-0.4296875,0.080078125,-0.6328125,-0.083984375,0.42578125,-9.34375,0.6953125,1.0
652334,,,,,,,,1.21875,0.17578125,-0.875,0.046875,-0.68359375,-0.1015625,1.078125,-9.453125,0.2734375,1.0
652335,,,,,,,,1.53125,-0.1796875,-0.875,0.0546875,-0.662109375,-0.123046875,1.421875,-9.80859375,0.2734375,1.0
652336,,,,,,,,1.6015625,-0.29296875,-0.796875,0.046875,-0.650390625,-0.130859375,1.5,-9.91796875,0.3515625,1.0
652337,,,,,,,,1.84375,-0.79296875,-0.34375,0.048828125,-0.634765625,-0.13671875,1.765625,-10.4140625,0.8125,1.0
652338,,,,,,,,1.74609375,-1.01953125,-0.3515625,0.052734375,-0.619140625,-0.154296875,1.69140625,-10.64453125,0.8125,1.0
652339,,,,,,,,1.5078125,-1.06640625,-0.390625,0.021484375,-0.607421875,-0.158203125,1.4609375,-10.68359375,0.7734375,1.0
652340,36.01325966666666,129.31928116666668,61.40621582099024,95.3881733319989,1.1,323.0,,1.16796875,-0.76171875,-0.58984375,-0.078125,-0.572265625,-0.162109375,1.15234375,-10.37890625,0.58203125,1.0
652341,,,,,,,,0.5703125,-0.1484375,-0.84375,-0.208984375,-0.490234375,-0.1640625,0.578125,-9.76953125,0.3125,1.0
652342,,,,,,,,-0.40234375,0.3515625,-0.66015625,-0.3203125,-0.32421875,-0.162109375,-0.37890625,-9.26953125,0.46484375,1.0
652343,,,,,,,,-1.34375,0.6171875,-0.390625,-0.376953125,-0.14453125,-0.16015625,-1.296875,-9.0,0.6953125,1.0
652344,,,,,,,,-1.7890625,0.5859375,-0.20703125,-0.365234375,-0.037109375,-0.15234375,-1.71875,-9.04296875,0.84765625,1.0
652345,,,,,,,,-1.95703125,-0.0234375,-0.625,-0.326171875,0.013671875,-0.16015625,-1.87109375,-9.65234375,0.390625,1.0
652346,,,,,,,,-2.00390625,-0.24609375,-0.87890625,-0.3125,0.03515625,-0.166015625,-1.91015625,-9.875,0.12109375,1.0
652347,,,,,,,,-2.05859375,-0.9375,-0.85546875,-0.322265625,0.0625,-0.185546875,-1.94921875,-10.5703125,0.12109375,1.0
652348,,,,,,,,-2.45703125,-2.5078125,0.44140625,-0.373046875,-0.013671875,-0.189453125,-2.33203125,-12.14453125,1.38671875,1.0
652349,,,,,,,,-1.9375,-5.3046875,1.4375,-0.470703125,-0.1796875,-0.19140625,-1.796875,-14.94140625,2.34375,1.0
652350,36.01326033333333,129.31928033333332,61.331091474987645,95.46214563825669,1.1,321.0,,0.5546875,-8.8203125,1.28515625,-0.619140625,-0.349609375,-0.18359375,0.734375,-18.46484375,2.11328125,1.0
652351,,,,,,,,3.41015625,-5.9375,3.4609375,-0.759765625,-0.34375,-0.1484375,3.60546875,-15.58984375,4.21875,1.0
652352,,,,,,,,3.85546875,-4.3671875,3.73046875,-0.79296875,-0.353515625,-0.125,4.06640625,-14.015625,4.44921875,1.0
652353,,,,,,,,1.00390625,-2.16796875,4.15625,-0.76953125,-0.765625,0.0078125,1.23046875,-11.83203125,4.7578125,1.0
652354,,,,,,,,-0.59765625,-2.74609375,4.41796875,-0.720703125,-1.2265625,0.087890625,-0.37890625,-12.41015625,4.94921875,1.0
652355,,,,,,,,-1.859375,-3.53125,3.9375,-0.537109375,-1.46484375,0.064453125,-1.640625,-13.2109375,4.375,1.0
652356,,,,,,,,-2.0234375,-3.3046875,2.84765625,-0.333984375,-1.357421875,0.080078125,-1.796875,-12.98828125,3.26171875,1.0
652357,,,,,,,,-1.83203125,-2.765625,2.16015625,0.306640625,-0.921875,-0.06640625,-1.60546875,-12.44921875,2.57421875,1.0
652358,,,,,,,,-1.73828125,-1.9609375,2.3125,0.486328125,-0.92578125,-0.15234375,-1.48828125,-11.64453125,2.765625,1.0
652359,,,,,,,,-1.70703125,-1.6953125,2.2109375,0.49609375,-1.115234375,-0.142578125,-1.44921875,-11.375,2.6875,1.0
652360,36.013261166666666,129.3192795,61.255967003756396,95.55461115332182,1.2000000000000002,320.0,,-1.07421875,-0.890625,1.3125,-0.619140625,-0.349609375,-0.18359375,-0.80078125,-10.5703125,1.84375,1.0
652361,,,,,,,,-0.62890625,-0.46875,0.9609375,0.681640625,-1.572265625,-0.01171875,-0.33984375,-10.1484375,1.5390625,1.0
652362,,,,,,,,-0.21484375,0.05859375,0.8828125,0.716796875,-1.54296875,0.0625,0.08203125,-9.61328125,1.5,1.0
652363,,,,,,,,0.52734375,0.44921875,0.4375,0.759765625,-1.4609375,0.283203125,0.80859375,-9.23046875,1.15625,1.0
652364,,,,,,,,0.97265625,1.01953125,0.359375,0.765625,-1.53125,0.439453125,1.23046875,-8.65234375,1.15625,1.0
652365,,,,,,,,1.34765625,1.59375,0.2578125,0.646484375,-1.568359375,0.5625,1.57421875,-8.078125,1.1171875,1.0
652366,,,,,,,,1.49609375,2.12890625,0.33984375,0.294921875,-1.580078125,0.640625,1.65234375,-7.5390625,1.26953125,1.0
652367,,,,,,,,1.50390625,2.3515625,-0.03515625,0.048828125,-1.5078125,0.640625,1.57421875,-7.3125,0.92578125,1.0
652368,,,,,,,,1.78125,2.6953125,-0.12109375,0.033203125,-1.470703125,0.62109375,1.8046875,-6.97265625,0.84765625,1.0
652369,,,,,,,,1.84375,2.81640625,-0.12109375,0.04296875,-1.44140625,0.607421875,1.84375,-6.8515625,0.84765625,1.0
652370,36.01326166666667,129.3192785,61.16581802854628,95.6100901484609,1.2000000000000002,316.0,,2.38671875,3.0078125,-0.3203125,-0.619140625,-0.349609375,-0.18359375,2.33984375,-6.66796875,0.65625,1.0
652371,,,,,,,,2.49609375,2.85546875,-0.36328125,0.130859375,-1.2734375,0.515625,2.41796875,-6.8515625,0.58203125,1.0
652372,,,,,,,,2.51953125,2.81640625,-0.41015625,0.150390625,-1.248046875,0.501953125,2.45703125,-6.8515625,0.58203125,1.0
652373,,,,,,,,2.56640625,2.703125,-0.51953125,0.212890625,-1.162109375,0.4921875,2.41796875,-7.05078125,0.54296875,1.0
652374,,,,,,,,2.58203125,2.6171875,-0.48828125,0.22265625,-1.134765625,0.484375,2.33984375,-7.05078125,0.50390625,1.0
652375,,,,,,,,2.5078125,2.57421875,-0.59765625,0.205078125,-1.0546875,0.48828125,2.1484375,-7.19921875,0.3515625,1.0
652376,,,,,,,,2.375,2.34375,-0.6484375,0.158203125,-0.990234375,0.474609375,2.07421875,-7.31640625,0.3515625,1.0
652377,,,,,,,,2.31640625,2.34375,-0.734375,0.1328125,-0.962890625,0.470703125,1.921875,-7.390625,0.46484375,1.0
652378,,,,,,,,1.97265625,2.18359375,-0.52734375,0.087890625,-0.892578125,0.453125,1.57421875,-7.50390625,0.65625,1.0
652379,,,,,,,,1.87109375,2.15234375,-0.4609375,0.095703125,-0.8515625,0.44140625,1.53515625,-7.5390625,0.65625,1.0
652380,36.0132625,129.319278,61.12074308971665,95.70255587418185,1.0,313.0,,1.55078125,1.9140625,-0.3984375,0.107421875,-0.796875,0.40625,2.33984375,-6.66796875,0.65625,1.0
652381,,,,,,,,1.67578125,1.484375,-0.4296875,0.12890625,-0.708984375,0.361328125,1.30859375,-8.16015625,0.734375,1.0
652382,,,,,,,,1.7890625,0.86328125,-0.375,0.15234375,-0.595703125,0.314453125,1.3828125,-8.76953125,0.8125,1.0
652383,,,,,,,,1.875,0.59375,-0.421875,0.171875,-0.552734375,0.3046875,1.4609375,-9.04296875,0.7734375,1.0
652384,,,,,,,,1.8515625,0.16796875,-0.33203125,0.1875,-0.5,0.28125,1.421875,-9.453125,0.88671875,1.0
652385,,,,,,,,1.64453125,0.05078125,-0.30859375,0.1796875,-0.482421875,0.27734375,1.19140625,-9.5703125,0.92578125,1.0
652386,,,,,,,,1.5859375,0.04296875,-0.4453125,0.150390625,-0.46875,0.283203125,1.1171875,-9.5703125,0.8125,1.0
652387,,,,,,,,1.41015625,0.1875,-0.42578125,0.126953125,-0.421875,0.279296875,0.92578125,-9.42578125,0.84765625,1.0
652388,,,,,,,,1.37890625,0.11328125,-0.43359375,0.115234375,-0.38671875,0.275390625,0.88671875,-9.4921875,0.84765625,1.0
652389,,,,,,,,1.27734375,-0.1171875,-0.32421875,0.142578125,-0.326171875,0.265625,0.76953125,-9.7265625,0.96484375,1.0
652390,36.01326316666667,129.31927666666667,61.00054445776486,95.77652786860922,1.1,304.0,,1.45703125,-0.31640625,-0.30859375,0.107421875,-0.796875,0.40625,0.92578125,-9.91796875,1.00390625,1.0
652391,,,,,,,,1.69140625,-0.44140625,-0.2578125,0.208984375,-0.2421875,0.244140625,1.15234375,-10.03125,1.078125,1.0
652392,,,,,,,,1.79296875,-0.4765625,-0.34765625,0.19140625,-0.2421875,0.236328125,1.23046875,-10.07421875,1.00390625,1.0
652393,,,,,,,,1.72265625,-0.484375,-0.640625,0.16796875,-0.212890625,0.240234375,1.15234375,-10.07421875,0.734375,1.0
652394,,,,,,,,1.65625,-0.44921875,-0.83984375,0.140625,-0.2109375,0.236328125,1.078125,-10.03515625,0.54296875,1.0
652395,,,,,,,,1.41015625,-0.6484375,-0.93359375,0.107421875,-0.21875,0.263671875,0.80859375,-10.2265625,0.46484375,1.0
652396,,,,,,,,0.73828125,-0.609375,-0.82421875,0.109375,-0.193359375,0.271484375,0.12109375,-10.19140625,0.58203125,1.0
652397,,,,,,,,0.4765625,-0.5390625,-0.80078125,0.1171875,-0.181640625,0.263671875,-0.1484375,-10.109375,0.62109375,1.0
652398,,,,,,,,-0.375,-0.35546875,-0.203125,0.07421875,-0.162109375,0.267578125,-1.03125,-9.91796875,1.234375,1.0
652399,,,,,,,,-0.40234375,-0.0859375,-0.01171875,0.033203125,-0.16015625,0.25390625,-1.06640625,-9.6484375,1.42578125,1.0
652400,36.0132635,129.3192755,60.895370848959004,95.81351355472003,1.1,296.0,0.0,0.04296875,0.10546875,-0.04296875,0.107421875,-0.796875,0.40625,0.92578125,-9.91796875,1.00390625,1.0
652401,,,,,,,,0.32421875,-0.40234375,-0.42578125,-0.171875,-0.1328125,0.20703125,-0.37890625,-9.95703125,1.00390625,1.0
652402,,,,,,,,0.609375,-1.58203125,-0.48046875,-0.212890625,-0.158203125,0.203125,-0.109375,-11.140625,0.92578125,1.0
652403,,,,,,,,-0.5625,-2.8828125,0.5390625,-0.240234375,-0.25,0.23046875,-1.296875,-12.44921875,1.921875,1.0
652404,,,,,,,,-1.4375,-2.80859375,1.98046875,-0.251953125,-0.34375,0.25390625,-2.1796875,-12.37109375,3.33984375,1.0
652405,,,,,,,,-2.33203125,-3.91015625,2.70703125,-0.39453125,-0.353515625,0.302734375,-3.09765625,-13.48046875,4.02734375,1.0
652406,,,,,,,,-2.32421875,-4.29296875,3.4765625,-0.845703125,-0.291015625,0.359375,-3.13671875,-13.859375,4.71875,1.0
652407,,,,,,,,-2.1953125,-3.2890625,4.51953125,-0.90234375,-0.205078125,0.318359375,-3.0234375,-12.87109375,5.67578125,1.0
652408,,,,,,,,-1.47265625,-3.20703125,4.3359375,-0.869140625,-0.271484375,0.25390625,-2.33203125,-12.7890625,5.40625,1.0
652409,,,,,,,,0.3828125,-3.19140625,4.63671875,-0.79296875,-0.46875,0.203125,-0.4921875,-12.79296875,5.63671875,1.0
652410,36.01326366666667,129.31927416666667,60.775172604817996,95.83200593027675,1.2000000000000002,289.0,,1.125,-2.5703125,4.43359375,0.107421875,-0.796875,0.40625,0.234375,-12.1796875,5.37109375,1.0
652411,,,,,,,,1.125,-1.41015625,3.63671875,-0.51171875,-0.80078125,0.181640625,0.234375,-11.0234375,4.52734375,1.0
652412,,,,,,,,1.171875,-1.02734375,3.5078125,-0.328125,-0.78515625,0.158203125,0.2734375,-10.640625,4.375,1.0
652413,,,,,,,,1.109375,0.3203125,2.84765625,0.08984375,-0.814453125,0.177734375,0.1953125,-9.30859375,3.72265625,1.0
652414,,,,,,,,0.0,0.38671875,1.91796875,0.400390625,-0.615234375,0.091796875,-0.9140625,-9.2265625,2.83984375,1.0
652415,,,,,,,,-0.4296875,-0.30859375,2.78515625,0.6484375,-0.46875,-0.04296875,-1.3359375,-9.9140625,3.80078125,1.0
652416,,,,,,,,-0.40625,-0.26953125,2.59765625,0.587890625,-0.51171875,-0.1640625,-1.296875,-9.87890625,3.68359375,1.0
652417,,,,,,,,-0.33984375,-0.078125,2.34375,0.494140625,-0.52734375,-0.21484375,-1.22265625,-9.6875,3.453125,1.0
652418,,,,,,,,0.28125,0.609375,1.609375,0.15234375,-0.552734375,-0.267578125,-0.5703125,-9.0,2.765625,1.0
652419,,,,,,,,0.41015625,0.7265625,1.41015625,-0.033203125,-0.55078125,-0.283203125,-0.41796875,-8.8828125,2.57421875,1.0
652420,36.01326400000001,129.319273,60.66999899932297,95.86899161870889,1.1,288.0,,0.6953125,0.92578125,1.15625,-0.267578125,-0.607421875,-0.30859375,-0.0703125,-8.6875,2.3046875,1.0
652421,,,,,,,,0.96875,1.23828125,0.7578125,-0.19140625,-0.63671875,-0.31640625,0.234375,-8.38671875,1.8828125,1.0
652422,,,,,,,,0.9453125,1.32421875,0.60546875,-0.14453125,-0.654296875,-0.314453125,0.234375,-8.30859375,1.73046875,1.0
652423,,,,,,,,0.71484375,1.62890625,0.30078125,-0.1171875,-0.720703125,-0.3046875,-0.0703125,-7.88671875,1.38671875,1.0
652424,,,,,,,,0.5625,1.8671875,0.22265625,-0.1640625,-0.76953125,-0.30078125,-0.0703125,-7.5,1.30859375,1.0
652425,,,,,,,,0.5234375,2.3359375,0.16015625,-0.19140625,-0.771484375,-0.2890625,-0.109375,-7.1953125,1.234375,1.0
652426,,,,,,,,0.453125,2.45703125,0.125,-0.189453125,-0.74609375,-0.28125,-0.03515625,-7.05078125,1.1953125,1.0
652427,,,,,,,,0.53515625,2.71875,-0.015625,-0.166015625,-0.685546875,-0.26171875,0.04296875,-6.8515625,1.078125,1.0
652428,,,,,,,,0.46484375,2.83984375,-0.046875,-0.15625,-0.6640625,-0.240234375,-0.0703125,-6.8515625,1.00390625,1.0
652429,,,,,,,,0.40625,2.80859375,-0.08203125,-0.146484375,-0.673828125,-0.234375,-0.1875,-6.93359375,0.96484375,1.0
652430,36.013264166666666,129.319272,60.57985028443741,95.8874842047125,1.0,286.0,,0.6953125,0.92578125,1.15625,-0.267578125,-0.607421875,-0.30859375,-0.5703125,-7.05078125,0.96484375,1.0
652431,,,,,,,,-0.24609375,2.6171875,-0.13671875,-0.07421875,-0.787109375,-0.22265625,-0.5703125,-7.05078125,0.88671875,1.0
652432,,,,,,,,-0.1640625,2.65625,-0.22265625,-0.015625,-0.787109375,-0.21484375,-0.5703125,-7.078125,0.7734375,1.0
652433,,,,,,,,-0.21875,2.58203125,-0.296875,0.015625,-0.76171875,-0.19921875,-0.53125,-7.2734375,0.6953125,1.0
652434,,,,,,,,-0.2265625,2.265625,-0.421875,0.078125,-0.69921875,-0.169921875,-0.5703125,-7.5390625,0.734375,1.0
652435,,,,,,,,-0.2890625,1.9609375,-0.3515625,0.11328125,-0.689453125,-0.1328125,-0.64453125,-7.8515625,0.7734375,1.0
652436,,,,,,,,-0.46484375,1.61328125,-0.21484375,0.140625,-0.69140625,-0.099609375,-0.72265625,-8.0390625,0.88671875,1.0
652437,,,,,,,,-0.7265625,1.4609375,-0.0546875,0.15234375,-0.71875,-0.068359375,-0.953125,-8.19921875,1.078125,1.0
652438,,,,,,,,-0.65625,1.5703125,-0.14453125,0.130859375,-0.732421875,-0.0546875,-0.875,-8.08203125,1.00390625,1.0
652439,,,,,,,,-0.48046875,1.64453125,-0.34375,0.087890625,-0.740234375,-0.0234375,-0.68359375,-8.00390625,0.8125,1.0
652440,36.013264166666666,129.31927083333332,60.4746769311048,95.88748348019942,1.1,281.0,,0.1171875,1.40625,-0.94140625,0.0703125,-0.763671875,0.041015625,-0.0703125,-8.234375,0.23828125,1.0
652441,,,,,,,,0.55859375,0.7109375,-0.8046875,0.12890625,-0.794921875,0.060546875,0.38671875,-8.92578125,0.390625,1.0
652442,,,,,,,,0.67578125,0.3671875,-0.69921875,0.154296875,-0.802734375,0.056640625,0.50390625,-9.265625,0.50390625,1.0
652443,,,,,,,,0.71484375,-0.0546875,-0.37109375,0.17578125,-0.79296875,0.060546875,0.54296875,-9.69140625,0.84765625,1.0
652444,,,,,,,,0.69921875,-0.140625,-0.30859375,0.15234375,-0.779296875,0.05859375,0.54296875,-9.76953125,0.92578125,1.0
652445,,,,,,,,0.65234375,0.01171875,-0.1640625,0.076171875,-0.759765625,0.05859375,0.50390625,-9.61328125,1.078125,1.0
652446,,,,,,,,0.4609375,0.05078125,-0.4765625,0.01171875,-0.755859375,0.037109375,0.3125,-9.5703125,0.7734375,1.0
652447,,,,,,,,0.4140625,0.08203125,-0.5546875,-0.037109375,-0.76171875,0.015625,0.2734375,-9.53515625,0.6953125,1.0
652448,,,,,,,,0.3984375,-0.1484375,-0.62890625,-0.060546875,-0.744140625,-0.03125,0.2734375,-9.76953125,0.62109375,1.0
652449,,,,,,,,0.46484375,-0.26171875,-0.5078125,-0.068359375,-0.728515625,-0.048828125,0.34765625,-9.87890625,0.734375,1.0
652450,36.01326433333334,129.31926983333332,60.38452821726907,95.90597606782086,1.0,281.0,,0.71875,-0.64453125,-0.23828125,0.0703125,-0.763671875,0.041015625,0.6171875,-10.26171875,1.00390625,1.0
652451,,,,,,,,1.00390625,-0.72265625,-0.015625,0.02734375,-0.62109375,-0.125,0.92578125,-10.3359375,1.234375,1.0
652452,,,,,,,,1.0546875,-0.6171875,0.09765625,0.021484375,-0.568359375,-0.15234375,1.0,-10.2265625,1.34765625,1.0
652453,,,,,,,,0.83984375,-0.34765625,-0.09375,-0.025390625,-0.548828125,-0.16015625,0.80859375,-9.953125,1.15625,1.0
652454,,,,,,,,0.5859375,-0.078125,-0.31640625,-0.07421875,-0.548828125,-0.171875,0.578125,-9.69140625,0.92578125,1.0
652455,,,,,,,,0.2890625,0.3046875,-0.5390625,-0.125,-0.568359375,-0.150390625,0.3125,-9.3046875,0.6953125,1.0
652456,,,,,,,,-0.08984375,0.65625,-0.59765625,-0.142578125,-0.490234375,-0.1484375,-0.03515625,-8.9609375,0.62109375,1.0
652457,,,,,,,,-0.609375,0.80078125,-0.67578125,-0.1171875,-0.369140625,-0.15625,-0.53125,-8.8046875,0.54296875,1.0
652458,,,,,,,,-1.0078125,0.83984375,-0.66015625,-0.12109375,-0.26953125,-0.158203125,-0.9140625,-8.765625,0.54296875,1.0
652459,,,,,,,,-1.421875,0.734375,-0.30078125,-0.169921875,-0.244140625,-0.146484375,-1.296875,-8.8828125,0.88671875,1.0
652460,36.013264166666666,129.3192685,60.264330228505194,95.88748203452393,1.1,278.0,,-1.66796875,0.37890625,-0.125,-0.255859375,-0.259765625,-0.130859375,-1.52734375,-9.2265625,1.0390625,1.0
652461,,,,,,,,-1.68359375,-1.2265625,-0.16796875,-0.345703125,-0.28125,-0.123046875,-1.52734375,-10.8359375,0.96484375,1.0
652462,,,,,,,,-1.65234375,-1.7265625,-0.0390625,-0.396484375,-0.3046875,-0.11328125,-1.48828125,-11.33984375,1.078125,1.0
652463,,,,,,,,-1.66015625,-2.90625,0.61328125,-0.48828125,-0.37109375,-0.103515625,-1.48828125,-12.52734375,1.69140625,1.0
652464,,,,,,,,-1.1796875,-4.4375,1.51171875,-0.580078125,-0.462890625,-0.087890625,-0.9921875,-14.05859375,2.53515625,1.0
652465,,,,,,,,0.8671875,-7.83984375,1.60546875,-0.677734375,-0.54296875,-0.072265625,1.078125,-17.4609375,2.57421875,1.0
652466,,,,,,,,2.015625,-8.90625,1.7578125,-0.748046875,-0.595703125,-0.068359375,2.2265625,-18.54296875,2.6875,1.0
652467,,,,,,,,5.29296875,-6.63671875,4.35546875,-0.849609375,-0.708984375,-0.017578125,5.51953125,-16.2734375,5.21484375,1.0
652468,,,,,,,,1.1953125,-2.72265625,4.26171875,-0.859375,-0.978515625,0.126953125,1.421875,-12.37109375,4.98828125,1.0
652469,,,,,,,,-0.90234375,-2.74609375,4.56640625,-0.83203125,-1.365234375,0.203125,-0.68359375,-12.41015625,5.21484375,1.0
652470,36.01326433333334,129.31926716666666,60.14413198709164,95.90597441900759,1.2000000000000002,276.0,,-1.66796875,-3.05078125,3.8125,-0.255859375,-0.259765625,-0.130859375,-1.44921875,-12.7109375,4.375,1.0
652471,,,,,,,,-1.546875,-2.57421875,2.34375,-0.3359375,-1.48828125,0.1484375,-1.3359375,-12.25390625,2.8046875,1.0
652472,,,,,,,,-1.1953125,-2.15234375,1.99609375,0.099609375,-1.119140625,0.05859375,-0.9921875,-11.828125,2.45703125,1.0
652473,,,,,,,,-0.85546875,-1.1953125,1.68359375,0.6015625,-0.806640625,-0.119140625,-0.64453125,-10.875,2.19140625,1.0
652474,,,,,,,,-0.11328125,-0.515625,1.19921875,0.603515625,-1.146484375,-0.107421875,0.12109375,-10.1875,1.76953125,1.0
652475,,,,,,,,0.29296875,-0.09375,1.02734375,0.603515625,-1.568359375,-0.046875,0.54296875,-9.76953125,1.65234375,1.0
652476,,,,,,,,0.3515625,0.05859375,1.05078125,0.64453125,-1.658203125,0.046875,0.6171875,-9.61328125,1.73046875,1.0
652477,,,,,,,,0.54296875,0.2890625,0.375,0.68359375,-1.603515625,0.1953125,0.80859375,-9.38671875,1.1171875,1.0
652478,,,,,,,,0.703125,0.44140625,0.04296875,0.67578125,-1.62890625,0.3359375,0.9609375,-9.2265625,0.84765625,1.0
652479,,,,,,,,0.8828125,0.90234375,-0.2109375,0.541015625,-1.6484375,0.48828125,1.1171875,-8.765625,0.65625,1.0
652480,36.0132645,129.31926583333333,60.023933745122264,95.92446680406728,1.3,277.0,,0.95703125,1.69921875,-0.27734375,-0.255859375,-0.259765625,-0.130859375,1.15234375,-7.96484375,0.62109375,1.0
652481,,,,,,,,0.8984375,2.20703125,-0.37890625,0.234375,-1.556640625,0.607421875,1.078125,-7.46484375,0.54296875,1.0
652482,,,,,,,,1.16015625,2.97265625,-0.39453125,0.068359375,-1.56640625,0.640625,1.26953125,-6.6953125,0.54296875,1.0
652483,,,,,,,,1.58203125,3.23828125,-0.48046875,-0.013671875,-1.6171875,0.642578125,1.65234375,-6.43359375,0.46484375,1.0
652484,,,,,,,,2.05078125,3.24609375,-0.546875,-0.078125,-1.5625,0.625,2.03515625,-6.4296875,0.390625,1.0
652485,,,,,,,,2.07421875,3.2109375,-0.5,-0.091796875,-1.5390625,0.619140625,2.03515625,-6.47265625,0.4296875,1.0
652486,,,,,,,,2.328125,3.171875,-0.578125,-0.107421875,-1.52734375,0.619140625,2.265625,-6.51171875,0.3515625,1.0
652487,,,,,,,,2.48828125,3.1640625,-0.76171875,-0.09375,-1.509765625,0.6171875,2.37890625,-6.5078125,0.16015625,1.0
652488,,,,,,,,2.52734375,3.125,-0.76171875,-0.03515625,-1.43359375,0.62109375,2.37890625,-6.55078125,0.16015625,1.0
652489,,,,,,,,2.65234375,2.59765625,-0.83984375,0.03125,-1.32421875,0.61328125,2.45703125,-7.08203125,0.08203125,1.0
652490,36.01326433333334,129.3192645,59.90373575652643,95.90597277639739,1.3,274.0,,2.69140625,2.47265625,-0.81640625,0.09375,-1.201171875,0.609375,1.15234375,-7.96484375,0.62109375,1.0
652491,,,,,,,,2.69921875,1.9375,-0.48046875,0.142578125,-1.1171875,0.607421875,2.41796875,-7.73828125,0.46484375,1.0
652492,,,,,,,,2.609375,1.73828125,-0.265625,0.15234375,-1.083984375,0.59375,2.3046875,-7.92578125,0.6953125,1.0
652493,,,,,,,,2.44140625,1.66015625,0.046875,0.125,-1.052734375,0.548828125,2.07421875,-8.0,1.0390625,1.0
652494,,,,,,,,2.37890625,1.73046875,0.0390625,0.099609375,-1.025390625,0.525390625,1.99609375,-7.92578125,1.0390625,1.0
652495,,,,,,,,2.640625,1.65234375,-0.3125,0.056640625,-0.953125,0.48046875,2.2265625,-8.0,0.6953125,1.0
652496,,,,,,,,2.82421875,1.26171875,-0.48046875,0.037109375,-0.857421875,0.43359375,2.37890625,-8.3828125,0.54296875,1.0
652497,,,,,,,,2.83984375,0.99609375,-0.51171875,0.06640625,-0.787109375,0.404296875,2.37890625,-8.65234375,0.50390625,1.0
652498,,,,,,,,2.796875,0.21875,-0.42578125,0.234375,-0.64453125,0.330078125,2.3046875,-9.421875,0.62109375,1.0
652499,,,,,,,,2.390625,-0.40234375,-0.07421875,0.330078125,-0.609375,0.279296875,1.8828125,-10.03515625,1.00390625,1.0
652500,36.01326400000001,129.31926316666667,59.783537893323896,95.86898554165586,1.2000000000000002,268.0,0.0,1.6171875,-0.22265625,0.12109375,0.27734375,-0.48828125,0.22265625,1.078125,-9.8359375,1.26953125,1.0
652501,,,,,,,,1.5078125,0.08984375,-0.015625,0.201171875,-0.34765625,0.1953125,0.9609375,-9.53125,1.15625,1.0
652502,,,,,,,,1.39453125,0.12109375,-0.0703125,0.17578125,-0.271484375,0.1796875,0.84765625,-9.49609375,1.1171875,1.0
652503,,,,,,,,1.02734375,-0.078125,-0.20703125,0.173828125,-0.1328125,0.146484375,0.46484375,-9.69140625,1.00390625,1.0
652504,,,,,,,,1.08203125,-0.27734375,-0.23046875,0.19921875,-0.13671875,0.125,0.50390625,-9.875,1.00390625,1.0
652505,,,,,,,,1.37890625,-0.46875,-0.37109375,0.234375,-0.1328125,0.1015625,0.80859375,-10.0703125,0.88671875,1.0
652506,,,,,,,,1.37890625,-0.43359375,-0.41015625,0.236328125,-0.125,0.103515625,0.80859375,-10.03515625,0.84765625,1.0
652507,,,,,,,,1.46484375,-0.40234375,-0.59375,0.197265625,-0.08203125,0.119140625,0.88671875,-9.9921875,0.6953125,1.0
652508,,,,,,,,1.35546875,-0.37109375,-0.76171875,0.111328125,-0.080078125,0.158203125,0.76953125,-9.95703125,0.54296875,1.0
652509,,,,,,,,1.36328125,-0.33203125,-0.68359375,0.0703125,-0.078125,0.173828125,0.76953125,-9.91796875,0.62109375,1.0
652510,36.01326366666667,129.31926216666668,59.69338955760307,95.83199851257571,1.1,259.0,,0.98828125,-0.32421875,-0.73046875,0.27734375,-0.48828125,0.22265625,1.078125,-9.8359375,1.26953125,1.0
652511,,,,,,,,0.73828125,-0.29296875,-0.72265625,-0.046875,-0.0390625,0.23828125,0.12109375,-9.875,0.58203125,1.0
652512,,,,,,,,0.484375,-0.0703125,-0.4921875,-0.080078125,0.037109375,0.248046875,-0.1484375,-9.6484375,0.8125,1.0
652513,,,,,,,,0.69921875,0.34765625,-0.36328125,-0.150390625,0.0859375,0.25,0.04296875,-9.2265625,0.92578125,1.0
652514,,,,,,,,1.14453125,0.625,-0.21875,-0.2421875,0.13671875,0.21875,0.46484375,-8.9609375,1.0390625,1.0
652515,,,,,,,,1.20703125,-0.90625,-0.484375,-0.330078125,0.09765625,0.162109375,0.50390625,-10.49609375,0.734375,1.0
652516,,,,,,,,0.67578125,-1.75,-0.53125,-0.376953125,0.06640625,0.12109375,-0.37890625,-11.52734375,1.1171875,1.0
652517,,,,,,,,-0.2734375,-2.01171875,1.2421875,-0.404296875,0.0625,0.10546875,-0.9921875,-11.60546875,2.3828125,1.0
652518,,,,,,,,-0.72265625,-2.0859375,2.91796875,-0.505859375,0.083984375,0.087890625,-1.6796875,-11.9453125,4.60546875,1.0
652519,,,,,,,,-1.3671875,-3.734375,3.77734375,-0.724609375,0.11328125,0.099609375,-2.1015625,-13.33203125,4.83203125,1.0
652520,36.01326316666667,129.31926083333335,59.57319181779699,95.77651807353918,1.3,248.0,,0.98828125,-0.32421875,-0.73046875,-1.03515625,0.072265625,0.10546875,-3.25,-15.58984375,4.7578125,1.0
652521,,,,,,,,-3.12109375,-6.5078125,4.48828125,-1.076171875,0.12109375,0.0234375,-3.90234375,-15.81640625,5.63671875,1.0
652522,,,,,,,,-3.12109375,-5.34375,5.34765625,-0.888671875,0.13671875,-0.02734375,-3.90234375,-13.8984375,6.328125,1.0
652523,,,,,,,,-3.015625,-3.2734375,5.43359375,-0.830078125,0.13671875,-0.029296875,-3.75,-12.91015625,6.17578125,1.0
652524,,,,,,,,-1.56640625,-1.83984375,4.4375,-0.78515625,0.076171875,-0.01953125,-2.29296875,-11.48828125,5.0625,1.0
652525,,,,,,,,0.01171875,-1.34375,3.50390625,-0.685546875,-0.19140625,-0.01953125,-0.72265625,-10.9921875,4.06640625,1.0
652526,,,,,,,,0.5,-1.14453125,2.9375,-0.37109375,-0.408203125,0.00390625,-0.2265625,-10.796875,3.453125,1.0
652527,,,,,,,,0.71484375,-0.953125,2.48828125,0.076171875,-0.462890625,-0.009765625,0.00390625,-10.61328125,2.99609375,1.0
652528,,,,,,,,0.6015625,-0.9140625,2.44140625,0.318359375,-0.482421875,-0.005859375,-0.109375,-10.5703125,2.95703125,1.0
652529,,,,,,,,-0.01171875,-0.68359375,2.578125,0.525390625,-0.470703125,0.005859375,-0.72265625,-10.33984375,3.1484375,1.0
652530,36.01326266666667,129.31925966666668,59.46801884255176,95.72103773760075,1.2000000000000002,245.0,,-0.40234375,-0.53125,2.37890625,0.453125,-0.369140625,0.01171875,-1.10546875,-10.19140625,2.99609375,1.0
652531,,,,,,,,-0.296875,-0.33203125,1.82421875,0.310546875,-0.333984375,-0.033203125,-0.9921875,-9.99609375,2.49609375,1.0
652532,,,,,,,,0.1796875,-0.0234375,1.2578125,0.087890625,-0.353515625,-0.130859375,-0.4921875,-9.6875,1.9609375,1.0
652533,,,,,,,,0.46875,0.12890625,1.09765625,-0.048828125,-0.41796875,-0.193359375,-0.1875,-9.53125,1.80859375,1.0
652534,,,,,,,,0.859375,0.6328125,0.828125,-0.12890625,-0.525390625,-0.2265625,0.234375,-9.04296875,1.5390625,1.0
652535,,,,,,,,1.13671875,1.1328125,0.4140625,-0.1640625,-0.583984375,-0.2578125,0.54296875,-8.5390625,1.1171875,1.0
652536,,,,,,,,1.34765625,1.37109375,0.22265625,-0.158203125,-0.595703125,-0.26953125,0.76953125,-8.3046875,0.92578125,1.0
652537,,,,,,,,1.41796875,1.68359375,-0.10546875,-0.1484375,-0.609375,-0.291015625,0.88671875,-8.00390625,0.58203125,1.0
652538,,,,,,,,1.34765625,2.10546875,-0.12890625,-0.13671875,-0.6015625,-0.29296875,0.84765625,-7.578125,0.54296875,1.0
652539,,,,,,,,1.109375,2.49609375,0.0546875,-0.107421875,-0.57421875,-0.291015625,0.65625,-7.19921875,0.734375,1.0
652540,36.0132625,129.31925883333332,59.39289514118482,95.70254402246954,1.0,247.0,,0.79296875,2.6484375,-0.015625,0.453125,-0.369140625,0.01171875,0.38671875,-7.05078125,0.65625,1.0
652541,,,,,,,,0.1796875,2.91796875,0.0234375,-0.052734375,-0.5234375,-0.296875,-0.1875,-6.77734375,0.6953125,1.0
652542,,,,,,,,0.01171875,2.83984375,-0.015625,-0.044921875,-0.509765625,-0.294921875,-0.33984375,-6.85546875,0.65625,1.0
652543,,,,,,,,-0.25,2.84765625,-0.05078125,-0.04296875,-0.49609375,-0.2890625,-0.5703125,-6.8515625,0.62109375,1.0
652544,,,,,,,,-0.2265625,2.7734375,-0.12890625,-0.02734375,-0.48828125,-0.283203125,-0.53125,-6.9296875,0.54296875,1.0
652545,,,,,,,,-0.39453125,2.65625,-0.17578125,0.07421875,-0.46875,-0.255859375,-0.64453125,-7.046875,0.50390625,1.0
652546,,,,,,,,-0.42578125,2.6484375,-0.19140625,0.125,-0.451171875,-0.224609375,-0.64453125,-7.046875,0.50390625,1.0
652547,,,,,,,,-0.3671875,2.53515625,-0.23828125,0.140625,-0.455078125,-0.193359375,-0.5703125,-7.16015625,0.46484375,1.0
652548,,,,,,,,-0.390625,2.50390625,-0.375,0.169921875,-0.4609375,-0.16015625,-0.5703125,-7.1953125,0.3515625,1.0
652549,,,,,,,,-0.3515625,2.4296875,-0.3828125,0.1875,-0.4609375,-0.138671875,-0.53125,-7.2734375,0.3515625,1.0
652550,36.013262166666664,129.31925816666666,59.332796330948895,95.66555719994408,1.0,245.0,,-0.4140625,2.3046875,-0.40625,0.453125,-0.369140625,0.01171875,0.38671875,-7.05078125,0.65625,1.0
652551,,,,,,,,-0.46875,2.03125,-0.3515625,0.171875,-0.46875,-0.009765625,-0.609375,-7.66015625,0.4296875,1.0
652552,,,,,,,,-0.3984375,1.9921875,-0.33203125,0.158203125,-0.470703125,0.0234375,-0.53125,-7.69921875,0.46484375,1.0
652553,,,,,,,,-0.28515625,2.06640625,-0.26953125,0.125,-0.47265625,0.0703125,-0.41796875,-7.62109375,0.54296875,1.0
652554,,,,,,,,-0.23828125,2.06640625,-0.35546875,0.111328125,-0.458984375,0.09765625,-0.37890625,-7.62109375,0.46484375,1.0
652555,,,,,,,,0.0078125,1.8671875,-0.63671875,0.046875,-0.419921875,0.19140625,-0.1484375,-7.8125,0.19921875,1.0
652556,,,,,,,,0.21484375,1.09375,-0.76171875,0.052734375,-0.43359375,0.2421875,0.04296875,-8.58203125,0.08203125,1.0
652557,,,,,,,,0.19140625,0.90234375,-0.73046875,0.060546875,-0.4296875,0.251953125,0.00390625,-8.765625,0.12109375,1.0
652558,,,,,,,,0.1328125,0.47265625,-0.59375,0.08984375,-0.390625,0.25390625,-0.0703125,-9.19140625,0.2734375,1.0
652559,,,,,,,,0.140625,0.28125,-0.5546875,0.095703125,-0.375,0.25,-0.0703125,-9.3828125,0.3125,1.0
652560,36.01326183333333,129.3192571666667,59.24264799533092,95.62857017574626,1.1,240.0,,0.26953125,0.12109375,-0.4921875,0.453125,-0.369140625,0.01171875,0.38671875,-7.05078125,0.65625,1.0
652561,,,,,,,,0.28515625,-0.109375,-0.34765625,0.009765625,-0.326171875,0.21875,0.04296875,-9.765625,0.54296875,1.0
652562,,,,,,,,0.421875,-0.22265625,-0.37890625,-0.048828125,-0.302734375,0.1953125,0.15625,-9.87890625,0.50390625,1.0
652563,,,,,,,,0.5859375,-0.22265625,-0.4921875,-0.099609375,-0.294921875,0.162109375,0.3125,-9.87890625,0.390625,1.0
652564,,,,,,,,0.5625,-0.37890625,-0.515625,-0.140625,-0.302734375,0.115234375,0.2734375,-10.03515625,0.3515625,1.0
652565,,,,,,,,0.33203125,-0.921875,-0.5,-0.138671875,-0.291015625,0.064453125,0.04296875,-10.57421875,0.3515625,1.0
652566,,,,,,,,0.41015625,-1.07421875,-0.5703125,-0.140625,-0.275390625,0.041015625,0.12109375,-10.72265625,0.2734375,1.0
652567,,,,,,,,0.33203125,-1.11328125,-0.70703125,-0.169921875,-0.220703125,0.025390625,0.04296875,-10.7578125,0.12109375,1.0
652568,,,,,,,,0.1796875,-0.921875,-0.875,-0.224609375,-0.126953125,0.01171875,-0.109375,-10.5703125,-0.0703125,1.0
652569,,,,,,,,-0.6640625,-0.30859375,-0.70703125,-0.279296875,-0.033203125,0.001953125,-0.953125,-9.953125,0.08203125,1.0
652570,36.01326133333334,129.31925600000002,59.13747501488087,95.57308984514547,1.1,238.0,,-1.69921875,0.0,-0.3671875,0.453125,-0.369140625,0.01171875,-1.98828125,-9.65234375,0.390625,1.0
652571,,,,,,,,-1.97265625,0.0078125,-0.14453125,-0.32421875,0.068359375,0.001953125,-2.25390625,-9.6484375,0.58203125,1.0
652572,,,,,,,,-2.01171875,-0.69140625,0.15234375,-0.318359375,0.115234375,0.005859375,-2.29296875,-10.3359375,0.84765625,1.0
652573,,,,,,,,-1.97265625,-1.11328125,0.1328125,-0.330078125,0.138671875,0.0078125,-2.25390625,-10.7578125,0.8125,1.0
652574,,,,,,,,-1.66796875,-2.40625,-0.12890625,-0.3515625,0.2265625,0.00390625,-1.94921875,-12.06640625,0.50390625,1.0
652575,,,,,,,,-1.359375,-2.59765625,0.71484375,-0.400390625,0.181640625,0.013671875,-1.640625,-12.25390625,1.30859375,1.0
652576,,,,,,,,-0.35546875,-3.328125,1.59765625,-0.458984375,0.078125,0.015625,-0.64453125,-12.984375,2.15234375,1.0
652577,,,,,,,,0.8984375,-5.15625,1.52734375,-0.52734375,-0.029296875,0.0390625,0.6171875,-14.82421875,2.03515625,1.0
652578,,,,,,,,2.046875,-6.61328125,1.828125,-0.5703125,-0.08984375,0.048828125,1.765625,-16.27734375,2.3046875,1.0
652579,,,,,,,,4.27734375,-4.57421875,4.2421875,-0.603515625,-0.23828125,0.111328125,3.98828125,-14.24609375,4.640625,1.0
652580,36.013260833333334,129.31925483333333,59.03230203026908,95.5176095133409,1.2000000000000002,238.0,,3.3359375,-3.80859375,4.86328125,0.453125,-0.369140625,0.01171875,3.03125,-13.48046875,5.21484375,1.0
652581,,,,,,,,-1.0234375,-3.2265625,4.9140625,-0.640625,-0.7421875,0.146484375,-1.3359375,-12.90625,5.1796875,1.0
652582,,,,,,,,-1.7734375,-2.765625,4.59375,-0.654296875,-0.869140625,0.0859375,-2.1015625,-12.44921875,4.796875,1.0
652583,,,,,,,,-1.8125,-2.1171875,3.08203125,-0.60546875,-0.890625,0.0390625,-2.140625,-11.80078125,3.26171875,1.0
652584,,,,,,,,-1.5078125,-1.41796875,2.05078125,-0.267578125,-0.68359375,0.005859375,-1.8359375,-11.1015625,2.19140625,1.0
652585,,,,,,,,-1.359375,-0.95703125,1.8515625,0.2890625,-0.251953125,-0.111328125,-1.6796875,-10.64453125,2.0,1.0
652586,,,,,,,,-1.078125,-0.30859375,0.5546875,0.59375,-0.48046875,-0.099609375,-1.375,-9.99609375,0.7734375,1.0
652587,,,,,,,,-0.9609375,0.0390625,0.515625,0.765625,-0.720703125,-0.033203125,-1.2578125,-9.6484375,0.8125,1.0
652588,,,,,,,,-0.77734375,0.07421875,0.67578125,0.78125,-0.703125,-0.0078125,-1.06640625,-9.61328125,1.00390625,1.0
652589,,,,,,,,-0.05078125,-0.078125,0.94140625,0.703125,-0.53515625,0.0859375,-0.33984375,-9.76953125,1.34765625,1.0
652590,36.01326033333333,129.31925383333333,58.942153812118875,95.46212928475806,1.2000000000000002,239.0,,0.453125,-0.078125,0.94921875,0.453125,-0.369140625,0.01171875,0.15625,-9.765625,1.42578125,1.0
652591,,,,,,,,0.32421875,0.19140625,0.78515625,0.380859375,-0.44921875,0.302734375,0.00390625,-9.49609375,1.30859375,1.0
652592,,,,,,,,0.2265625,0.3828125,0.6484375,0.271484375,-0.494140625,0.35546875,-0.109375,-9.3046875,1.1953125,1.0
652593,,,,,,,,0.21875,1.03515625,0.39453125,0.076171875,-0.654296875,0.423828125,-0.1484375,-8.6484375,0.96484375,1.0
652594,,,,,,,,0.28125,1.26171875,0.35546875,0.009765625,-0.720703125,0.44921875,-0.109375,-8.42578125,0.92578125,1.0
652595,,,,,,,,0.6796875,1.8359375,0.1640625,-0.08984375,-0.724609375,0.4765625,0.234375,-7.85546875,0.734375,1.0
652596,,,,,,,,0.95703125,2.03125,0.078125,-0.095703125,-0.615234375,0.458984375,0.46484375,-7.66015625,0.65625,1.0
652597,,,,,,,,1.0859375,2.21484375,-0.06640625,-0.083984375,-0.572265625,0.439453125,0.578125,-7.46484375,0.50390625,1.0
652598,,,,,,,,1.21875,2.48828125,-0.2578125,-0.01171875,-0.541015625,0.36328125,0.65625,-7.1953125,0.3125,1.0
652599,,,,,,,,1.2734375,2.71875,-0.296875,-0.005859375,-0.548828125,0.33984375,0.6953125,-6.96875,0.2734375,1.0
652600,36.01325966666666,129.319253,58.86703048070807,95.38815594999346,1.1,237.0,0.0,1.59375,2.75,-0.05078125,0.07421875,-0.46484375,0.279296875,0.15625,-9.765625,1.42578125,1.0
652601,,,,,,,,1.79296875,2.6328125,0.1328125,0.11328125,-0.376953125,0.26953125,1.15234375,-7.046875,0.734375,1.0
652602,,,,,,,,1.89453125,2.6328125,0.22265625,0.140625,-0.267578125,0.259765625,1.23046875,-7.046875,0.84765625,1.0
652603,,,,,,,,1.7578125,2.59765625,0.1796875,0.1484375,-0.228515625,0.25390625,1.078125,-7.08203125,0.8125,1.0
652604,,,,,,,,1.6640625,2.55078125,0.19921875,0.171875,-0.173828125,0.23828125,0.9609375,-7.12109375,0.84765625,1.0
652605,,,,,,,,1.3046875,2.3125,0.046875,0.169921875,-0.162109375,0.1875,0.578125,-7.35546875,0.734375,1.0
652606,,,,,,,,1.12890625,2.16015625,0.03125,0.17578125,-0.134765625,0.146484375,0.38671875,-7.50390625,0.734375,1.0
652607,,,,,,,,0.83203125,1.9296875,0.09375,0.189453125,-0.09375,0.091796875,0.08203125,-7.734375,0.8125,1.0
652608,,,,,,,,0.71484375,1.73046875,0.12109375,0.203125,-0.0859375,0.05859375,-0.03515625,-7.921875,0.84765625,1.0
652609,,,,,,,,0.71484375,1.53125,-0.03125,0.203125,-0.060546875,0.00390625,-0.03515625,-8.12109375,0.734375,1.0
652610,36.013259166666664,129.31925183333334,58.761857496789254,95.3326756227415,1.1,239.0,,0.87109375,1.26171875,-0.1328125,0.07421875,-0.46484375,0.279296875,0.15625,-9.765625,1.42578125,1.0
652611,,,,,,,,0.96875,0.6484375,-0.26171875,0.16796875,-0.03125,-0.0625,0.234375,-9.0,0.54296875,1.0
652612,,,,,,,,0.76953125,0.07421875,-0.0234375,0.16015625,0.0078125,-0.068359375,0.04296875,-9.57421875,0.8125,1.0
652613,,,,,,,,0.71484375,0.03515625,0.00390625,0.158203125,0.005859375,-0.0703125,0.00390625,-9.609375,0.84765625,1.0
652614,,,,,,,,0.59375,0.10546875,0.06640625,0.13671875,0.00390625,-0.064453125,-0.109375,-9.53515625,0.92578125,1.0
652615,,,,,,,,0.70703125,0.3046875,-0.1015625,0.107421875,0.01953125,-0.064453125,0.00390625,-9.34375,0.7734375,1.0
652616,,,,,,,,1.0,0.48828125,-0.5390625,0.076171875,0.046875,-0.068359375,0.3125,-9.1484375,0.3515625,1.0
652617,,,,,,,,1.3046875,0.3359375,-0.66015625,0.076171875,0.06640625,-0.076171875,0.6171875,-9.30859375,0.23828125,1.0
652618,,,,,,,,1.4140625,0.14453125,-0.66015625,0.1015625,0.083984375,-0.0703125,0.734375,-9.49609375,0.23828125,1.0
652619,,,,,,,,1.3203125,-0.1328125,-0.5625,0.15625,0.083984375,-0.068359375,0.65625,-9.76953125,0.3515625,1.0
652620,36.01325816666667,129.31925099999998,58.68673440791018,95.22171587455541,1.1,232.0,,1.12890625,-0.36328125,-0.46484375,0.07421875,-0.46484375,0.279296875,0.46484375,-9.9921875,0.46484375,1.0
652621,,,,,,,,0.9296875,-0.6015625,-0.5703125,0.142578125,0.0703125,-0.0234375,0.2734375,-10.23046875,0.390625,1.0
652622,,,,,,,,0.73046875,-0.79296875,-0.578125,0.072265625,0.142578125,-0.025390625,0.08203125,-10.41796875,0.390625,1.0
652623,,,,,,,,0.61328125,-0.9921875,-0.5859375,0.052734375,0.17578125,-0.021484375,-0.03515625,-10.609375,0.390625,1.0
652624,,,,,,,,0.22265625,-1.375,-0.35546875,-0.01171875,0.244140625,-0.033203125,-0.41796875,-10.99609375,0.62109375,1.0
652625,,,,,,,,-0.359375,-1.18359375,0.234375,-0.06640625,0.3046875,-0.0390625,-0.9921875,-10.80078125,1.1953125,1.0
652626,,,,,,,,-0.20703125,-1.375,0.47265625,-0.146484375,0.291015625,-0.05078125,-0.83984375,-10.9921875,1.42578125,1.0
652627,,,,,,,,0.24609375,-2.24609375,0.32421875,-0.228515625,0.275390625,-0.056640625,-0.37890625,-11.87109375,1.26953125,1.0
652628,,,,,,,,0.20703125,-2.5546875,0.33984375,-0.2578125,0.2578125,-0.05859375,-0.41796875,-12.18359375,1.26953125,1.0
652629,,,,,,,,-0.296875,-3.01171875,0.52734375,-0.3125,0.25390625,-0.060546875,-0.9140625,-12.6328125,1.42578125,1.0
652630,36.01325716666667,129.31925,58.59658655647384,95.11075602714719,1.2000000000000002,227.0,,-0.7578125,-2.3984375,1.0546875,0.07421875,-0.46484375,0.279296875,0.46484375,-9.9921875,0.46484375,1.0
652631,,,,,,,,-1.30078125,-2.0078125,1.8046875,-0.2890625,0.26171875,-0.03515625,-1.91015625,-11.64453125,2.6484375,1.0
652632,,,,,,,,-1.4921875,-2.8828125,2.0,-0.466796875,0.220703125,0.013671875,-2.1015625,-12.52734375,2.8046875,1.0
652633,,,,,,,,-1.921875,-2.26953125,2.8125,-0.556640625,0.2890625,0.025390625,-2.5234375,-11.91015625,3.5703125,1.0
652634,,,,,,,,-1.72265625,-1.734375,3.125,-0.486328125,0.337890625,0.029296875,-2.33203125,-11.375,3.8359375,1.0
652635,,,,,,,,-0.94921875,-1.6875,2.9453125,-0.42578125,0.34765625,0.01953125,-1.56640625,-11.33984375,3.609375,1.0
652636,,,,,,,,-0.3359375,-1.87109375,2.828125,-0.388671875,0.34765625,0.025390625,-0.953125,-11.52734375,3.453125,1.0
652637,,,,,,,,-0.01953125,-1.6015625,2.9140625,-0.42578125,0.287109375,0.02734375,-0.64453125,-11.2578125,3.4921875,1.0
652638,,,,,,,,-0.13671875,-1.21875,3.0546875,-0.2109375,0.2734375,-0.009765625,-0.76171875,-10.87890625,3.609375,1.0
652639,,,,,,,,-0.2578125,-1.09765625,2.74609375,0.14453125,0.26171875,-0.048828125,-0.875,-10.7578125,3.30078125,1.0
652640,36.013256166666665,129.319249,58.506438700615014,94.99979617894635,1.3,225.0,,-0.87109375,-1.13671875,2.34765625,0.08203125,0.30078125,-0.072265625,-1.48828125,-10.796875,2.91796875,1.0
652641,,,,,,,,-1.609375,-1.2109375,2.33984375,0.09375,0.39453125,-0.1171875,-2.21875,-10.87890625,2.91796875,1.0
652642,,,,,,,,-1.73046875,-1.12890625,2.37109375,0.158203125,0.431640625,-0.146484375,-2.33203125,-10.796875,2.95703125,1.0
652643,,,,,,,,-1.859375,-0.78125,2.26953125,0.26953125,0.470703125,-0.197265625,-2.4453125,-10.45703125,2.87890625,1.0
652644,,,,,,,,-1.47265625,-0.36328125,1.83984375,0.201171875,0.404296875,-0.26171875,-2.02734375,-10.03515625,2.49609375,1.0
652645,,,,,,,,-0.99609375,0.0234375,1.41015625,0.1015625,0.361328125,-0.28125,-1.52734375,-9.6484375,2.07421875,1.0
652646,,,,,,,,-0.859375,0.22265625,1.328125,0.078125,0.3359375,-0.28515625,-1.375,-9.45703125,2.0,1.0
652647,,,,,,,,-0.23828125,0.828125,0.73828125,0.115234375,0.244140625,-0.27734375,-0.72265625,-8.84765625,1.42578125,1.0
652648,,,,,,,,-0.0390625,1.1796875,0.5234375,0.16015625,0.1953125,-0.259765625,-0.4921875,-8.5,1.234375,1.0
652649,,,,,,,,0.02734375,1.5234375,0.359375,0.171875,0.1796875,-0.25,-0.41796875,-8.16015625,1.078125,1.0
