time,latitude,longitude,enu_x,enu_y,speed,course,ecg,accX,accY,accZ,gyrX,gyrY,gyrZ,eulR,eulP,eulY,validity
628140,36.013214999999995,129.31923733333332,57.45473495763974,90.43196694127127,1.0,237.0,,0.296875,1.66015625,-0.921875,0.1015625,0.53515625,-0.064453125,0.15625,-7.8828125,0.734375,1.0
628141,,,,,,,,0.14453125,1.54296875,-0.890625,0.0703125,0.5546875,-0.1171875,0.00390625,-8.0,0.7734375,1.0
628142,,,,,,,,0.0703125,1.46875,-0.96875,0.05859375,0.572265625,-0.1328125,-0.0703125,-8.078125,0.6953125,1.0
628143,,,,,,,,0.17578125,1.3515625,-1.05078125,0.017578125,0.57421875,-0.19921875,0.04296875,-8.1953125,0.62109375,1.0
628144,,,,,,,,0.12109375,1.16015625,-1.12890625,0.025390625,0.583984375,-0.21875,0.00390625,-8.38671875,0.54296875,1.0
628145,,,,,,,,0.12109375,0.9609375,-1.08984375,0.056640625,0.58984375,-0.2265625,0.00390625,-8.58203125,0.58203125,1.0
628146,,,,,,,,0.11328125,0.88671875,-1.09765625,0.07421875,0.59375,-0.224609375,0.00390625,-8.6484375,0.58203125,1.0
628147,,,,,,,,0.09765625,0.6171875,-0.9921875,0.1171875,0.591796875,-0.212890625,0.00390625,-8.921875,0.6953125,1.0
628148,,,,,,,,-0.03125,0.6171875,-1.0078125,0.15234375,0.619140625,-0.2109375,-0.109375,-8.921875,0.6953125,1.0
628149,,,,,,,,-0.0703125,0.5390625,-0.9765625,0.16015625,0.62109375,-0.20703125,-0.1484375,-9.0,0.734375,1.0
628150,36.01321433333333,129.31923633333332,57.36458679765628,90.35799352259448,1.1,238.0,,-0.23828125,0.44921875,-0.953125,0.1015625,0.53515625,-0.064453125,0.15625,-7.8828125,0.734375,1.0
628151,,,,,,,,-0.32421875,0.140625,-0.96875,0.19921875,0.63671875,-0.171875,-0.37890625,-9.38671875,0.7734375,1.0
628152,,,,,,,,-0.32421875,0.06640625,-0.90234375,0.19921875,0.63671875,-0.171875,-0.37890625,-9.45703125,0.84765625,1.0
628153,,,,,,,,-0.4375,-0.21875,-0.625,0.25,0.619140625,-0.142578125,-0.4921875,-9.7265625,1.15625,1.0
628154,,,,,,,,-0.4765625,-0.296875,-0.5546875,0.2421875,0.623046875,-0.12890625,-0.53125,-9.80859375,1.234375,1.0
628155,,,,,,,,-0.29296875,-0.52734375,-0.46484375,0.224609375,0.611328125,-0.125,-0.33984375,-10.03515625,1.34765625,1.0
628156,,,,,,,,-0.21484375,-0.609375,-0.51953125,0.203125,0.560546875,-0.1015625,-0.26171875,-10.109375,1.30859375,1.0
628157,,,,,,,,-0.1796875,-0.6484375,-0.52734375,0.1875,0.537109375,-0.091796875,-0.2265625,-10.1484375,1.30859375,1.0
628158,,,,,,,,-0.171875,-0.80859375,-0.55078125,0.16015625,0.482421875,-0.087890625,-0.2265625,-10.30078125,1.30859375,1.0
628159,,,,,,,,-0.20703125,-0.6171875,-0.55859375,0.140625,0.412109375,-0.08203125,-0.26171875,-10.109375,1.30859375,1.0
628160,36.01321383333333,129.31923533333332,57.27443851528854,90.3025133117196,1.1,238.0,,0.25,0.1796875,-0.8125,0.103515625,0.322265625,-0.072265625,0.1953125,-9.30859375,1.078125,1.0
628161,,,,,,,,0.44140625,0.4453125,-1.01171875,0.033203125,0.255859375,-0.072265625,0.38671875,-9.04296875,0.88671875,1.0
628162,,,,,,,,0.58984375,0.4765625,-1.125,0.009765625,0.236328125,-0.0703125,0.54296875,-9.0,0.7734375,1.0
628163,,,,,,,,0.93359375,-0.48046875,-1.27734375,-0.0234375,0.193359375,-0.068359375,0.88671875,-9.953125,0.62109375,1.0
628164,,,,,,,,0.65625,-2.01171875,-0.765625,-0.046875,0.177734375,-0.056640625,0.6171875,-11.48828125,1.1171875,1.0
628165,,,,,,,,0.08203125,-2.6640625,-0.10546875,-0.095703125,0.2109375,-0.04296875,0.04296875,-12.140625,1.76953125,1.0
628166,,,,,,,,0.08203125,-2.65625,-0.10546875,-0.22265625,0.2890625,-0.013671875,-0.03515625,-12.2109375,2.3046875,1.0
628167,,,,,,,,0.00390625,-2.84765625,0.9140625,-0.427734375,0.357421875,0.0234375,-0.109375,-12.63671875,3.03125,1.0
628168,,,,,,,,-0.36328125,-4.37109375,1.2578125,-0.677734375,0.45703125,0.03125,-0.41796875,-13.859375,3.0703125,1.0
628169,,,,,,,,-0.62890625,-5.08984375,1.05859375,-0.734375,0.513671875,0.0234375,-0.68359375,-14.58984375,2.83984375,1.0
628170,36.01321333333333,129.319234,57.154240684513574,90.24703290550026,1.1,240.0,,0.25,0.1796875,-0.8125,-0.71875,0.55078125,-0.00390625,0.1953125,-9.30859375,1.078125,1.0
628171,,,,,,,,-2.0625,-2.2734375,2.2734375,-0.685546875,0.51953125,-0.044921875,-1.91015625,-10.7578125,3.53125,1.0
628172,,,,,,,,-1.59375,-0.953125,1.8828125,-0.673828125,0.54296875,-0.07421875,-1.375,-10.375,3.4921875,1.0
628173,,,,,,,,-0.55859375,-1.20703125,1.9453125,-0.654296875,0.52734375,-0.087890625,-0.33984375,-11.14453125,3.5703125,1.0
628174,,,,,,,,0.09765625,-1.88671875,2.0859375,-0.482421875,0.4453125,-0.07421875,0.34765625,-11.6796875,3.5703125,1.0
628175,,,,,,,,0.97265625,-2.15625,2.35546875,0.015625,0.43359375,-0.107421875,0.88671875,-11.72265625,3.76171875,1.0
628176,,,,,,,,0.88671875,-1.8125,2.31640625,0.28515625,0.396484375,-0.078125,0.80859375,-11.375,3.72265625,1.0
628177,,,,,,,,0.3515625,-1.3046875,1.91015625,0.283203125,0.60546875,-0.07421875,0.2734375,-10.875,3.33984375,1.0
628178,,,,,,,,-0.25390625,-1.0390625,1.734375,0.255859375,0.849609375,-0.060546875,-0.33984375,-10.609375,3.1875,1.0
628179,,,,,,,,-0.67578125,-0.546875,1.51953125,0.298828125,1.001953125,-0.076171875,-0.76171875,-10.109375,2.99609375,1.0
628180,36.013212833333334,129.31923283333333,57.049067625995136,90.19155259984865,1.2000000000000002,240.0,,-0.66015625,-0.35546875,1.37109375,0.416015625,1.10546875,-0.126953125,0.1953125,-9.30859375,1.078125,1.0
628181,,,,,,,,-0.58203125,-0.171875,0.98828125,0.53125,1.1171875,-0.181640625,-0.68359375,-9.7265625,2.53515625,1.0
628182,,,,,,,,-0.62109375,-0.1640625,0.84375,0.556640625,1.091796875,-0.201171875,-0.72265625,-9.7265625,2.421875,1.0
628183,,,,,,,,-0.73828125,0.09765625,0.7890625,0.55078125,1.0078125,-0.279296875,-0.83984375,-9.45703125,2.421875,1.0
628184,,,,,,,,-0.7734375,0.125,0.6875,0.53125,0.95703125,-0.31640625,-0.875,-9.42578125,2.34375,1.0
628185,,,,,,,,-0.59765625,0.5,0.40234375,0.46484375,0.875,-0.34765625,-0.68359375,-9.0390625,2.11328125,1.0
628186,,,,,,,,-0.390625,0.80078125,0.04296875,0.37109375,0.833984375,-0.36328125,-0.453125,-8.7265625,1.80859375,1.0
628187,,,,,,,,-0.37109375,0.984375,-0.12890625,0.3203125,0.828125,-0.369140625,-0.41796875,-8.54296875,1.65234375,1.0
628188,,,,,,,,-0.203125,1.63671875,-0.1953125,0.25,0.8515625,-0.349609375,-0.2265625,-7.8828125,1.6171875,1.0
628189,,,,,,,,-0.2109375,1.8671875,-0.21875,0.236328125,0.873046875,-0.33984375,-0.2265625,-7.65625,1.6171875,1.0
628190,36.01321216666667,129.319232,56.973944236566396,90.11757928209134,1.1,239.0,,-0.69921875,2.39453125,-0.4140625,0.22265625,0.845703125,-0.306640625,-0.68359375,-7.12109375,1.4609375,1.0
628191,,,,,,,,-0.9453125,2.34765625,-0.52734375,0.166015625,0.85546875,-0.31640625,-0.9140625,-7.15625,1.38671875,1.0
628192,,,,,,,,-1.15234375,2.30859375,-0.6953125,0.154296875,0.830078125,-0.328125,-1.10546875,-7.19921875,1.234375,1.0
628193,,,,,,,,-1.19921875,2.26953125,-0.7421875,0.166015625,0.8203125,-0.34375,-1.14453125,-7.234375,1.1953125,1.0
628194,,,,,,,,-1.4140625,2.26953125,-0.875,0.203125,0.765625,-0.365234375,-1.3359375,-7.23828125,1.078125,1.0
628195,,,,,,,,-1.7421875,2.03515625,-1.01953125,0.20703125,0.71875,-0.37109375,-1.640625,-7.46484375,0.96484375,1.0
628196,,,,,,,,-1.69140625,1.7265625,-0.96875,0.21484375,0.703125,-0.37890625,-1.56640625,-7.7734375,1.0390625,1.0
628197,,,,,,,,-1.5546875,1.51953125,-0.828125,0.2265625,0.693359375,-0.365234375,-1.4140625,-7.9609375,1.1953125,1.0
628198,,,,,,,,-1.484375,1.55859375,-0.73046875,0.23046875,0.689453125,-0.3515625,-1.3359375,-7.921875,1.30859375,1.0
628199,,,,,,,,-1.34765625,1.55078125,-0.68359375,0.228515625,0.701171875,-0.330078125,-1.18359375,-7.92578125,1.38671875,1.0
628200,36.01321183333334,129.319231,56.88379582952585,90.08059228283783,1.0,241.0,0.0,-1.28515625,1.58203125,-0.66015625,0.22265625,0.845703125,-0.306640625,-1.10546875,-7.8828125,1.42578125,1.0
628201,,,,,,,,-1.25390625,1.6171875,-0.76171875,0.166015625,0.66015625,-0.24609375,-1.06640625,-7.8515625,1.34765625,1.0
628202,,,,,,,,-1.30078125,1.6484375,-0.8828125,0.142578125,0.625,-0.201171875,-1.10546875,-7.81640625,1.234375,1.0
628203,,,,,,,,-1.30078125,1.6484375,-0.96875,0.158203125,0.61328125,-0.17578125,-1.10546875,-7.81640625,1.15625,1.0
628204,,,,,,,,-1.2265625,1.41015625,-1.1015625,0.185546875,0.58984375,-0.154296875,-1.03125,-8.0390625,1.0390625,1.0
628205,,,,,,,,-0.99609375,1.05859375,-1.0078125,0.208984375,0.560546875,-0.13671875,-0.80078125,-8.3828125,1.15625,1.0
628206,,,,,,,,-0.8046875,0.78515625,-1.0,0.240234375,0.517578125,-0.126953125,-0.609375,-8.6484375,1.1953125,1.0
628207,,,,,,,,-0.7578125,0.5546875,-0.83203125,0.24609375,0.490234375,-0.119140625,-0.5703125,-8.8828125,1.38671875,1.0
628208,,,,,,,,-0.91015625,0.46875,-0.80078125,0.234375,0.482421875,-0.123046875,-0.72265625,-8.96484375,1.42578125,1.0
628209,,,,,,,,-1.0625,0.3828125,-0.78125,0.18359375,0.466796875,-0.115234375,-0.875,-9.0390625,1.4609375,1.0
628210,36.013211500000004,129.31922983333334,56.77862264793691,90.04360518671142,1.0,249.0,,-1.37109375,0.03125,-0.83984375,0.22265625,0.845703125,-0.306640625,-1.10546875,-7.8828125,1.42578125,1.0
628211,,,,,,,,-1.36328125,-0.43359375,-0.734375,0.060546875,0.421875,-0.12890625,-1.18359375,-9.83984375,1.5390625,1.0
628212,,,,,,,,-1.33203125,-0.703125,-0.65625,0.052734375,0.42578125,-0.134765625,-1.14453125,-10.11328125,1.6171875,1.0
628213,,,,,,,,-1.21875,-0.98046875,-0.671875,0.041015625,0.41796875,-0.15625,-1.03125,-10.37890625,1.6171875,1.0
628214,,,,,,,,-1.140625,-0.89453125,-0.86328125,-0.0390625,0.36328125,-0.171875,-0.953125,-10.296875,1.42578125,1.0
628215,,,,,,,,-1.03515625,-0.7890625,-1.0859375,-0.111328125,0.31640625,-0.171875,-0.64453125,-10.2265625,1.078125,1.0
628216,,,,,,,,-0.83984375,-0.828125,-1.1953125,-0.12109375,0.30859375,-0.169921875,-0.33984375,-10.375,1.0390625,1.0
628217,,,,,,,,-0.50390625,-0.89453125,-1.1875,-0.119140625,0.3046875,-0.177734375,-0.1875,-10.2578125,1.078125,1.0
628218,,,,,,,,-0.359375,-0.75,-1.1328125,-0.13671875,0.298828125,-0.181640625,-0.1875,-9.80859375,1.1953125,1.0
628219,,,,,,,,-0.40625,-0.3984375,-1.0390625,-0.166015625,0.2890625,-0.185546875,-0.30078125,-9.5703125,1.234375,1.0
628220,36.01321133333333,129.31922866666667,56.673449345963924,90.0251112995016,1.1,256.0,,-1.37109375,0.03125,-0.83984375,0.22265625,0.845703125,-0.306640625,-0.72265625,-9.19140625,1.26953125,1.0
628221,,,,,,,,-1.2265625,-0.015625,-0.80859375,-0.294921875,0.279296875,-0.17578125,-1.06640625,-9.7265625,1.38671875,1.0
628222,,,,,,,,-1.30859375,-0.3125,-0.80078125,-0.32421875,0.279296875,-0.173828125,-1.10546875,-10.41796875,1.34765625,1.0
628223,,,,,,,,-1.2421875,-1.109375,-0.6953125,-0.33984375,0.28125,-0.177734375,-0.80078125,-10.53515625,1.76953125,1.0
628224,,,,,,,,-0.93359375,-1.0234375,-0.1953125,-0.3125,0.287109375,-0.18359375,-0.26171875,-10.07421875,2.11328125,1.0
628225,,,,,,,,-0.3359375,-0.48828125,0.140625,-0.349609375,0.279296875,-0.173828125,0.04296875,-10.07421875,2.265625,1.0
628226,,,,,,,,-0.23046875,-0.6328125,0.1953125,-0.390625,0.263671875,-0.16796875,0.1953125,-10.53515625,2.2265625,1.0
628227,,,,,,,,0.61328125,-2.578125,0.2578125,-0.595703125,0.205078125,-0.126953125,1.26953125,-12.63671875,2.53515625,1.0
628228,,,,,,,,1.44921875,-3.828125,1.00390625,-0.6953125,0.1328125,-0.072265625,2.6875,-13.90234375,3.953125,1.0
628229,,,,,,,,2.3984375,-4.43359375,2.0390625,-0.662109375,0.123046875,-0.044921875,3.26171875,-13.9765625,4.41015625,1.0
628230,36.01321133333333,129.31922716666668,56.538226376475976,90.02511042795425,1.1,262.0,,-1.37109375,0.03125,-0.83984375,-0.5859375,0.134765625,-0.013671875,3.18359375,-12.98828125,5.21484375,1.0
628231,,,,,,,,2.2890625,-3.0234375,3.3671875,-0.771484375,0.1796875,-0.005859375,2.1875,-12.140625,4.98828125,1.0
628232,,,,,,,,0.796875,-2.2421875,3.0625,-0.923828125,0.16015625,-0.015625,0.65625,-11.71875,4.640625,1.0
628233,,,,,,,,0.03125,-2.1484375,2.99609375,-0.78125,0.18359375,-0.0546875,0.08203125,-11.796875,4.60546875,1.0
628234,,,,,,,,-0.19140625,-2.2109375,3.02734375,-0.380859375,0.318359375,-0.1328125,0.12109375,-11.64453125,4.2578125,1.0
628235,,,,,,,,-0.015625,-1.67578125,1.984375,0.09765625,0.48046875,-0.220703125,0.234375,-10.609375,2.99609375,1.0
628236,,,,,,,,-0.1484375,-0.75390625,1.33984375,0.392578125,0.501953125,-0.271484375,0.04296875,-9.99609375,2.7265625,1.0
628237,,,,,,,,-0.421875,0.08203125,0.99609375,0.4609375,0.35546875,-0.265625,-0.0703125,-9.2265625,2.421875,1.0
628238,,,,,,,,-0.26171875,0.37890625,0.6953125,0.501953125,0.326171875,-0.216796875,0.08203125,-9.15234375,2.34375,1.0
628239,,,,,,,,-0.0390625,0.21875,0.6875,0.533203125,0.39453125,-0.140625,0.3125,-9.30859375,2.3828125,1.0
628240,36.013211166666665,129.31922583333335,56.41802829959769,90.00661644793632,1.2000000000000002,266.0,,-0.0390625,0.36328125,0.78515625,0.474609375,0.5078125,-0.056640625,0.3125,-9.15234375,2.53515625,1.0
628241,,,,,,,,-0.1953125,0.44140625,0.66796875,0.34375,0.548828125,0.0234375,0.15625,-9.07421875,2.45703125,1.0
628242,,,,,,,,-0.24609375,0.671875,0.37109375,0.14453125,0.525390625,0.087890625,0.08203125,-8.84765625,2.19140625,1.0
628243,,,,,,,,-0.26953125,1.046875,0.0546875,-0.033203125,0.505859375,0.125,0.04296875,-8.4609375,1.8828125,1.0
628244,,,,,,,,-0.31640625,1.20703125,-0.203125,-0.14453125,0.51171875,0.14453125,-0.03515625,-8.3046875,1.6171875,1.0
628245,,,,,,,,-0.29296875,1.51953125,-0.37890625,-0.166015625,0.51953125,0.146484375,-0.03515625,-8.00390625,1.42578125,1.0
628246,,,,,,,,-0.23046875,1.828125,-0.36328125,-0.125,0.521484375,0.142578125,0.00390625,-7.6953125,1.42578125,1.0
628247,,,,,,,,-0.0546875,2.01953125,-0.28125,-0.107421875,0.51953125,0.134765625,0.15625,-7.5,1.5,1.0
628248,,,,,,,,0.19921875,2.140625,-0.47265625,-0.11328125,0.529296875,0.12890625,0.38671875,-7.39453125,1.30859375,1.0
628249,,,,,,,,0.4140625,2.03515625,-0.6484375,-0.130859375,0.56640625,0.126953125,0.578125,-7.5,1.1171875,1.0
628250,36.013211,129.31922483333335,56.32787977040613,89.98812266134979,1.0,266.0,,0.70703125,1.99609375,-0.74609375,-0.146484375,0.6171875,0.138671875,0.84765625,-7.5390625,1.00390625,1.0
628251,,,,,,,,0.82421875,2.03515625,-0.76953125,-0.107421875,0.705078125,0.1484375,0.92578125,-7.50390625,0.96484375,1.0
628252,,,,,,,,0.83984375,2.04296875,-0.76953125,-0.08203125,0.71875,0.154296875,0.92578125,-7.50390625,0.96484375,1.0
628253,,,,,,,,0.72265625,1.890625,-0.83984375,0.001953125,0.755859375,0.12890625,0.76953125,-7.66015625,0.88671875,1.0
628254,,,,,,,,0.59375,1.7734375,-0.87890625,0.01953125,0.765625,0.099609375,0.6171875,-7.77734375,0.84765625,1.0
628255,,,,,,,,0.578125,1.6953125,-0.84765625,0.037109375,0.765625,0.041015625,0.46484375,-7.92578125,0.8125,1.0
628256,,,,,,,,0.37109375,1.57421875,-0.96875,0.048828125,0.755859375,-0.00390625,0.34765625,-7.96484375,0.7734375,1.0
628257,,,,,,,,0.37890625,1.48828125,-1.0078125,0.05078125,0.75,-0.033203125,0.2734375,-8.04296875,0.734375,1.0
628258,,,,,,,,0.2734375,1.375,-0.96875,0.04296875,0.73046875,-0.076171875,0.234375,-8.265625,0.734375,1.0
628259,,,,,,,,0.28125,1.26953125,-1.015625,0.046875,0.732421875,-0.08984375,0.15625,-8.3046875,0.7734375,1.0
628260,36.013211,129.3192236666667,56.222706348608284,89.98812198750181,0.9,267.0,,0.70703125,1.99609375,-0.74609375,0.041015625,0.734375,-0.12109375,0.84765625,-7.5390625,1.00390625,1.0
628261,,,,,,,,0.08984375,0.9140625,-1.0234375,0.0234375,0.736328125,-0.12890625,0.00390625,-8.76953125,0.7734375,1.0
628262,,,,,,,,0.01171875,0.45703125,-0.91015625,0.017578125,0.732421875,-0.138671875,-0.03515625,-9.0703125,0.84765625,1.0
628263,,,,,,,,-0.1328125,0.29296875,-0.91015625,0.001953125,0.732421875,-0.138671875,-0.1875,-9.2265625,0.84765625,1.0
628264,,,,,,,,-0.24609375,0.484375,-0.75390625,-0.001953125,0.720703125,-0.140625,-0.30078125,-9.04296875,1.00390625,1.0
628265,,,,,,,,-0.29296875,0.71484375,-0.78515625,-0.005859375,0.70703125,-0.12109375,-0.33984375,-8.80859375,0.96484375,1.0
628266,,,,,,,,-0.28515625,0.75390625,-0.82421875,0.0,0.720703125,-0.126953125,-0.33984375,-8.765625,0.92578125,1.0
628267,,,,,,,,-0.3984375,0.6484375,-1.0546875,-0.001953125,0.705078125,-0.115234375,-0.453125,-8.88671875,0.6953125,1.0
628268,,,,,,,,-0.5078125,0.37109375,-0.90234375,-0.0078125,0.671875,-0.09375,-0.5703125,-9.15234375,0.84765625,1.0
628269,,,,,,,,-0.58203125,0.1328125,-0.7109375,0.021484375,0.634765625,-0.07421875,-0.64453125,-9.3828125,1.0390625,1.0
628270,36.01321083333333,129.3192225,56.11753304290576,89.9696281078187,1.0,269.0,,-0.58203125,-0.36328125,-0.5625,0.041015625,0.734375,-0.12109375,0.84765625,-7.5390625,1.00390625,1.0
628271,,,,,,,,-0.61328125,-0.48046875,-0.5625,-0.0078125,0.552734375,0.0,-0.5703125,-10.19140625,1.30859375,1.0
628272,,,,,,,,-0.4453125,-0.71875,-0.515625,-0.0625,0.521484375,0.025390625,-0.33984375,-10.33984375,1.1953125,1.0
628273,,,,,,,,-0.24609375,-0.83203125,-0.5546875,-0.08203125,0.509765625,0.0390625,-0.37890625,-10.30078125,1.15625,1.0
628274,,,,,,,,-0.19921875,-0.5625,-0.6640625,-0.13671875,0.423828125,0.076171875,-0.2265625,-9.875,1.078125,1.0
628275,,,,,,,,0.015625,-0.08984375,-0.74609375,-0.18359375,0.3515625,0.09765625,0.15625,-9.49609375,0.84765625,1.0
628276,,,,,,,,0.3828125,0.140625,-0.9453125,-0.21484375,0.279296875,0.09765625,0.54296875,-9.30859375,0.734375,1.0
628277,,,,,,,,0.78125,0.06640625,-0.890625,-0.224609375,0.20703125,0.095703125,0.76953125,-9.609375,0.7734375,1.0
628278,,,,,,,,0.94140625,-0.08984375,-0.875,-0.236328125,0.17578125,0.087890625,1.0,-10.5703125,0.84765625,1.0
628279,,,,,,,,1.140625,-1.53515625,-0.8203125,-0.251953125,0.1484375,0.0859375,0.80859375,-11.484375,0.62109375,1.0
628280,36.013211,129.319221,55.98230995425165,89.98812045243282,1.2000000000000002,272.0,,-0.58203125,-0.36328125,-0.5625,-0.30078125,0.1484375,0.076171875,0.15625,-12.6015625,1.0390625,1.0
628281,,,,,,,,0.24609375,-3.18359375,-0.30078125,-0.384765625,0.1875,0.08203125,0.00390625,-12.79296875,1.69140625,1.0
628282,,,,,,,,0.21484375,-3.25390625,0.13671875,-0.427734375,0.24609375,0.087890625,-0.1484375,-12.94921875,2.11328125,1.0
628283,,,,,,,,-0.41796875,-4.01171875,1.01171875,-0.548828125,0.365234375,0.0859375,-0.953125,-14.09765625,2.421875,1.0
628284,,,,,,,,-0.94140625,-5.11328125,0.921875,-0.685546875,0.474609375,0.1015625,-1.375,-15.203125,2.421875,1.0
628285,,,,,,,,-1.15625,-4.9140625,1.4140625,-0.73828125,0.556640625,0.09765625,-1.4140625,-14.48046875,2.765625,1.0
628286,,,,,,,,-1.375,-3.52734375,1.90234375,-0.720703125,0.55078125,0.0859375,-1.640625,-13.09765625,3.22265625,1.0
628287,,,,,,,,-1.58203125,-1.09765625,1.36328125,-0.66796875,0.5625,0.0625,-1.87109375,-10.68359375,2.57421875,1.0
628288,,,,,,,,0.34765625,-2.30859375,1.9609375,-0.689453125,0.58203125,0.05078125,0.04296875,-11.90625,3.0703125,1.0
628289,,,,,,,,0.69921875,-2.5390625,2.109375,-0.6640625,0.517578125,0.0703125,0.38671875,-12.140625,3.1875,1.0
628290,36.013211,129.3192195,55.84708698388863,89.98811959192392,1.2000000000000002,274.0,,1.26171875,-2.71484375,2.37109375,-0.30078125,0.1484375,0.076171875,0.92578125,-12.33203125,3.37890625,1.0
628291,,,,,,,,0.9140625,-2.1015625,1.82421875,0.18359375,0.5546875,0.013671875,0.578125,-11.71875,2.83984375,1.0
628292,,,,,,,,0.1171875,-1.41015625,1.42578125,0.154296875,0.62109375,0.013671875,-0.2265625,-11.02734375,2.45703125,1.0
628293,,,,,,,,-0.1484375,-1.18359375,1.3515625,0.08984375,0.671875,0.015625,-0.4921875,-10.796875,2.3828125,1.0
628294,,,,,,,,-0.5625,-0.5703125,1.34375,0.103515625,0.814453125,0.00390625,-0.9140625,-10.1875,2.3828125,1.0
628295,,,,,,,,-0.625,-0.109375,1.41015625,0.265625,0.955078125,-0.044921875,-0.9921875,-9.7265625,2.45703125,1.0
628296,,,,,,,,-0.625,0.16796875,1.37109375,0.45703125,1.03125,-0.103515625,-0.9921875,-9.45703125,2.45703125,1.0
628297,,,,,,,,-0.69140625,0.1953125,1.05859375,0.587890625,1.021484375,-0.1640625,-1.06640625,-9.42578125,2.19140625,1.0
628298,,,,,,,,-0.73828125,0.265625,0.98828125,0.62890625,0.998046875,-0.203125,-1.10546875,-9.34765625,2.15234375,1.0
628299,,,,,,,,-0.6015625,0.984375,0.671875,0.625,0.931640625,-0.2890625,-0.953125,-8.62109375,1.921875,1.0
628300,36.013211,129.31921833333334,55.74191356212845,89.98811892372022,1.1,277.0,0.0,-0.48046875,1.33203125,0.36328125,0.517578125,0.890625,-0.3046875,-0.80078125,-8.265625,1.69140625,1.0
628301,,,,,,,,-0.48828125,1.75,0.171875,0.4609375,0.884765625,-0.306640625,-0.80078125,-7.8515625,1.5390625,1.0
628302,,,,,,,,-0.50390625,1.859375,0.1484375,0.4453125,0.88671875,-0.3046875,-0.80078125,-7.73828125,1.5390625,1.0
628303,,,,,,,,-0.6328125,2.28125,0.0703125,0.4453125,0.87890625,-0.30078125,-0.9140625,-7.3125,1.5,1.0
628304,,,,,,,,-0.6484375,2.46484375,-0.0078125,0.431640625,0.8515625,-0.294921875,-0.9140625,-7.12109375,1.4609375,1.0
628305,,,,,,,,-0.734375,2.609375,-0.16796875,0.408203125,0.833984375,-0.302734375,-0.9921875,-6.97265625,1.34765625,1.0
628306,,,,,,,,-0.78125,2.609375,-0.26171875,0.38671875,0.830078125,-0.3046875,-1.03125,-6.96875,1.26953125,1.0
628307,,,,,,,,-0.94921875,2.44921875,-0.4140625,0.35546875,0.830078125,-0.314453125,-1.18359375,-7.12109375,1.15625,1.0
628308,,,,,,,,-1.1640625,2.32421875,-0.453125,0.328125,0.783203125,-0.333984375,-1.375,-7.23828125,1.15625,1.0
628309,,,,,,,,-1.33984375,2.05859375,-0.4453125,0.31640625,0.736328125,-0.341796875,-1.52734375,-7.5,1.1953125,1.0
628310,36.013211166666665,129.3192173333333,55.6517647947591,90.00661156027184,1.0,276.0,,-1.44921875,1.703125,-0.578125,0.28515625,0.66796875,-0.369140625,-1.60546875,-7.85546875,1.1171875,1.0
628311,,,,,,,,-1.47265625,1.390625,-0.44140625,0.24609375,0.66015625,-0.369140625,-1.60546875,-8.16015625,1.26953125,1.0
628312,,,,,,,,-1.48046875,1.390625,-0.45703125,0.21875,0.66015625,-0.3671875,-1.56640625,-8.1953125,1.234375,1.0
628313,,,,,,,,-1.42578125,1.3046875,-0.47265625,0.203125,0.646484375,-0.345703125,-1.52734375,-8.234375,1.30859375,1.0
628314,,,,,,,,-1.41796875,1.34375,-0.46484375,0.16796875,0.603515625,-0.2890625,-1.44921875,-8.16015625,1.26953125,1.0
628315,,,,,,,,-1.38671875,1.453125,-0.59375,0.1484375,0.58203125,-0.251953125,-1.4140625,-8.0,1.15625,1.0
628316,,,,,,,,-1.359375,1.52734375,-0.640625,0.15234375,0.57421875,-0.232421875,-1.4140625,-7.96484375,1.1171875,1.0
628317,,,,,,,,-1.328125,1.59765625,-0.80078125,0.166015625,0.544921875,-0.20703125,-1.296875,-7.8828125,0.92578125,1.0
628318,,,,,,,,-1.2265625,1.63671875,-0.93359375,0.197265625,0.51953125,-0.19140625,-1.22265625,-7.921875,0.84765625,1.0
628319,,,,,,,,-1.19140625,1.59765625,-0.98828125,0.20703125,0.49609375,-0.18359375,-1.06640625,-7.92578125,0.7734375,1.0
628320,36.013211500000004,129.31921616666665,55.54659114163162,90.04359731015711,1.0,281.0,,-1.44921875,1.703125,-0.578125,0.28515625,0.66796875,-0.369140625,-0.83984375,-8.16015625,0.7734375,1.0
628321,,,,,,,,-0.74609375,1.20703125,-1.140625,0.2421875,0.439453125,-0.171875,-0.72265625,-8.3828125,0.84765625,1.0
628322,,,,,,,,-0.62890625,1.0390625,-1.01171875,0.228515625,0.412109375,-0.169921875,-0.68359375,-8.578125,0.92578125,1.0
628323,,,,,,,,-0.67578125,0.65625,-0.8046875,0.19140625,0.392578125,-0.166015625,-0.72265625,-8.88671875,1.1171875,1.0
628324,,,,,,,,-0.76171875,0.53125,-0.67578125,0.107421875,0.357421875,-0.17578125,-0.9921875,-9.2265625,1.26953125,1.0
628325,,,,,,,,-1.07421875,0.140625,-0.68359375,0.052734375,0.33984375,-0.185546875,-1.3359375,-9.61328125,1.30859375,1.0
628326,,,,,,,,-1.3515625,-0.12890625,-0.64453125,0.001953125,0.328125,-0.201171875,-1.44921875,-9.8046875,1.26953125,1.0
628327,,,,,,,,-1.47265625,-0.39453125,-0.65234375,-0.02734375,0.322265625,-0.21484375,-1.4140625,-10.109375,1.34765625,1.0
628328,,,,,,,,-1.375,-1.0078125,-0.375,-0.048828125,0.322265625,-0.22265625,-1.3359375,-10.49609375,1.578125,1.0
628329,,,,,,,,-1.3515625,-1.31640625,-0.29296875,-0.04296875,0.31640625,-0.2265625,-1.296875,-10.80078125,1.65234375,1.0
628330,36.01321216666667,129.31921516666668,55.456442030175694,90.11756957143884,1.0,290.0,,-1.28515625,-1.5078125,-0.24609375,-0.02734375,0.310546875,-0.2265625,-1.22265625,-10.99609375,1.69140625,1.0
628331,,,,,,,,-1.109375,-1.28515625,-0.51171875,-0.033203125,0.28125,-0.22265625,-1.03125,-10.76171875,1.42578125,1.0
628332,,,,,,,,-0.85546875,-1.015625,-0.8125,-0.037109375,0.24609375,-0.2109375,-0.76171875,-10.4921875,1.1171875,1.0
628333,,,,,,,,-0.59375,-0.85546875,-0.92578125,-0.0390625,0.234375,-0.208984375,-0.4921875,-10.3359375,1.00390625,1.0
628334,,,,,,,,-0.34375,-0.7109375,-0.96484375,-0.037109375,0.20703125,-0.205078125,-0.2265625,-10.1875,0.96484375,1.0
628335,,,,,,,,-0.359375,-0.48046875,-0.95703125,-0.044921875,0.18359375,-0.197265625,-0.2265625,-9.95703125,0.96484375,1.0
628336,,,,,,,,-0.55859375,-0.47265625,-0.98828125,-0.048828125,0.1640625,-0.19921875,-0.41796875,-9.953125,0.92578125,1.0
628337,,,,,,,,-1.03125,-1.58984375,-0.93359375,-0.08984375,0.169921875,-0.197265625,-0.875,-11.0625,0.96484375,1.0
628338,,,,,,,,-0.92578125,-1.9375,-0.8203125,-0.125,0.169921875,-0.1953125,-0.76171875,-11.4140625,1.078125,1.0
628339,,,,,,,,-0.6640625,-2.578125,-0.58203125,-0.2109375,0.169921875,-0.189453125,-0.4921875,-12.06640625,1.30859375,1.0
628340,36.013212833333334,129.31921416666668,55.36629291744343,90.19154183289024,1.0,298.0,,-0.06640625,-2.88671875,0.1015625,-0.296875,0.1796875,-0.1875,0.12109375,-12.3671875,1.9609375,1.0
628341,,,,,,,,0.30859375,-2.91015625,0.4375,-0.373046875,0.19140625,-0.1796875,0.50390625,-12.41015625,2.265625,1.0
628342,,,,,,,,0.453125,-3.1015625,0.5,-0.447265625,0.1953125,-0.18359375,0.65625,-12.60546875,2.3046875,1.0
628343,,,,,,,,1.32421875,-3.62109375,1.4296875,-0.75,0.171875,-0.138671875,1.53515625,-13.1328125,3.1484375,1.0
628344,,,,,,,,1.90234375,-3.23046875,1.7734375,-0.787109375,0.16015625,-0.115234375,2.11328125,-12.75,3.453125,1.0
628345,,,,,,,,2.23828125,-2.21875,2.3828125,-0.732421875,0.171875,-0.064453125,2.45703125,-11.76171875,3.9921875,1.0
628346,,,,,,,,1.125,-1.703125,2.859375,-0.634765625,0.26953125,0.00390625,1.34375,-11.26171875,4.375,1.0
628347,,,,,,,,0.68359375,-1.11328125,3.19140625,-0.65234375,0.369140625,0.02734375,0.88671875,-10.6796875,4.60546875,1.0
628348,,,,,,,,0.30859375,-0.2265625,2.890625,-0.396484375,0.408203125,0.001953125,0.50390625,-9.8046875,4.2578125,1.0
628349,,,,,,,,0.125,-0.109375,2.37109375,-0.203125,0.48046875,-0.044921875,0.3125,-9.6875,3.72265625,1.0
628350,36.01321383333333,129.31921333333332,55.29116834562793,90.30250060546203,1.2000000000000002,306.0,,0.15234375,0.05078125,1.6796875,0.076171875,0.5859375,-0.123046875,0.34765625,-9.53125,3.03125,1.0
628351,,,,,,,,0.18359375,0.35546875,1.3515625,0.19921875,0.5859375,-0.1796875,0.38671875,-9.2265625,2.7265625,1.0
628352,,,,,,,,0.30078125,0.546875,1.16015625,0.251953125,0.556640625,-0.1953125,0.50390625,-9.0390625,2.53515625,1.0
628353,,,,,,,,0.32421875,0.6171875,0.953125,0.4921875,0.439453125,-0.2109375,0.54296875,-8.9609375,2.3828125,1.0
628354,,,,,,,,0.62109375,0.6484375,0.97265625,0.533203125,0.4375,-0.185546875,0.84765625,-8.92578125,2.45703125,1.0
628355,,,,,,,,0.8828125,0.5234375,0.8828125,0.470703125,0.44921875,-0.125,1.1171875,-9.0390625,2.421875,1.0
628356,,,,,,,,1.07421875,0.1796875,0.97265625,0.419921875,0.466796875,-0.099609375,1.30859375,-9.38671875,2.53515625,1.0
628357,,,,,,,,0.84375,-0.01953125,0.94140625,0.203125,0.484375,-0.00390625,0.92578125,-9.6484375,2.53515625,1.0
628358,,,,,,,,0.4609375,-0.171875,0.91796875,-0.0390625,0.484375,0.103515625,0.578125,-9.6875,2.421875,1.0
628359,,,,,,,,0.359375,-0.1328125,0.796875,-0.099609375,0.494140625,0.125,0.34765625,-9.421875,2.265625,1.0
628360,36.01321433333333,129.3192125,55.21604412828786,90.3579797553106,1.1,307.0,,0.15234375,0.05078125,1.6796875,-0.203125,0.546875,0.15625,0.234375,-9.0703125,2.07421875,1.0
628361,,,,,,,,0.03125,0.640625,0.359375,-0.2578125,0.62890625,0.15234375,0.08203125,-8.6484375,1.73046875,1.0
628362,,,,,,,,-0.01953125,1.0703125,0.0078125,-0.236328125,0.681640625,0.134765625,0.00390625,-8.34375,1.5,1.0
628363,,,,,,,,-0.265625,1.5,-0.20703125,-0.16796875,0.689453125,0.103515625,-0.1875,-8.04296875,1.26953125,1.0
628364,,,,,,,,-0.3203125,1.69140625,-0.3046875,-0.05859375,0.68359375,0.064453125,-0.1875,-7.85546875,1.234375,1.0
628365,,,,,,,,-0.05859375,1.8125,-0.390625,0.080078125,0.724609375,0.01953125,0.00390625,-7.77734375,1.15625,1.0
628366,,,,,,,,0.30078125,1.8125,-0.4375,0.140625,0.767578125,0.017578125,0.34765625,-7.77734375,1.1171875,1.0
628367,,,,,,,,0.43359375,1.921875,-0.4921875,0.162109375,0.80078125,0.02734375,0.46484375,-7.66015625,1.078125,1.0
628368,,,,,,,,0.59375,1.94921875,-0.66015625,0.166015625,0.82421875,0.052734375,0.6171875,-7.6171875,0.92578125,1.0
628369,,,,,,,,0.734375,1.8359375,-0.796875,0.162109375,0.826171875,0.060546875,0.734375,-7.73828125,0.8125,1.0
628370,36.013214833333336,129.3192116666667,55.140919912062834,90.4134589067684,0.9,308.0,,0.80078125,1.63671875,-0.8203125,0.140625,0.826171875,0.052734375,0.76953125,-7.921875,0.8125,1.0
628371,,,,,,,,0.7109375,1.328125,-0.76171875,0.12109375,0.806640625,0.01953125,0.65625,-8.234375,0.88671875,1.0
628372,,,,,,,,0.60546875,1.328125,-0.80078125,0.1171875,0.80859375,0.0,0.54296875,-8.23828125,0.84765625,1.0
628373,,,,,,,,0.3125,1.12890625,-0.77734375,0.08984375,0.78125,-0.03125,0.234375,-8.42578125,0.88671875,1.0
628374,,,,,,,,0.3203125,1.12890625,-0.78515625,0.044921875,0.763671875,-0.072265625,0.15625,-8.421875,0.7734375,1.0
628375,,,,,,,,0.2421875,0.9765625,-0.8984375,0.03125,0.763671875,-0.115234375,0.12109375,-8.58203125,0.8125,1.0
628376,,,,,,,,0.21484375,0.9765625,-0.859375,0.03125,0.767578125,-0.138671875,0.12109375,-8.6875,0.734375,1.0
628377,,,,,,,,0.21484375,0.73828125,-0.8984375,0.056640625,0.78515625,-0.17578125,0.08203125,-8.80859375,0.7734375,1.0
628378,,,,,,,,0.16796875,0.74609375,-0.8984375,0.08984375,0.80859375,-0.19921875,0.08203125,-8.84375,0.734375,1.0
628379,,,,,,,,0.12890625,0.703125,-0.9453125,0.107421875,0.82421875,-0.20703125,-0.03515625,-8.84765625,0.7734375,1.0
628380,36.01321533333333,129.31921066666666,55.0507709188019,90.46893796319067,1.1,310.0,,0.04296875,0.703125,-0.9140625,0.115234375,0.830078125,-0.208984375,-0.03515625,-8.921875,0.7734375,1.0
628381,,,,,,,,0.0,0.578125,-0.8984375,0.13671875,0.857421875,-0.1953125,-0.2265625,-9.04296875,0.734375,1.0
628382,,,,,,,,-0.23828125,0.578125,-0.90625,0.15234375,0.85546875,-0.1796875,-0.30078125,-8.96484375,0.8125,1.0
628383,,,,,,,,-0.46875,0.65625,-0.84765625,0.1640625,0.837890625,-0.18359375,-0.53125,-8.88671875,0.88671875,1.0
628384,,,,,,,,-0.546875,0.5234375,-0.82421875,0.1640625,0.82421875,-0.177734375,-0.609375,-9.0,0.92578125,1.0
628385,,,,,,,,-0.66015625,0.33203125,-0.6875,0.1484375,0.806640625,-0.169921875,-0.72265625,-9.19140625,1.078125,1.0
628386,,,,,,,,-0.62890625,0.06640625,-0.625,0.138671875,0.802734375,-0.15625,-0.68359375,-9.45703125,1.15625,1.0
628387,,,,,,,,-0.4765625,-0.01953125,-0.5546875,0.150390625,0.771484375,-0.13671875,-0.53125,-9.53515625,1.234375,1.0
628388,,,,,,,,-0.23828125,-0.06640625,-0.6015625,0.138671875,0.736328125,-0.103515625,-0.30078125,-9.57421875,1.1953125,1.0
628389,,,,,,,,-0.0390625,-0.140625,-0.65625,0.0859375,0.677734375,-0.080078125,-0.109375,-9.65234375,1.15625,1.0
628390,36.013216166666666,129.31920966666667,54.9606216998759,90.5614034376961,1.2000000000000002,313.0,,-0.078125,-0.1796875,-0.578125,0.115234375,0.830078125,-0.208984375,-0.1484375,-9.6875,1.234375,1.0
628391,,,,,,,,-0.0703125,-0.1796875,-0.5859375,-0.00390625,0.59765625,-0.041015625,-0.1484375,-9.6875,1.234375,1.0
628392,,,,,,,,0.16796875,-0.140625,-0.6171875,-0.06640625,0.515625,-0.02734375,0.08203125,-9.6484375,1.1953125,1.0
628393,,,,,,,,0.3203125,-0.06640625,-0.65625,-0.1015625,0.478515625,-0.01953125,0.234375,-9.57421875,1.15625,1.0
628394,,,,,,,,0.75,-0.140625,-0.40234375,-0.15625,0.412109375,-0.015625,0.65625,-9.65234375,1.38671875,1.0
628395,,,,,,,,0.91015625,-0.9765625,-0.06640625,-0.244140625,0.318359375,-0.021484375,0.80859375,-10.49609375,1.69140625,1.0
628396,,,,,,,,0.796875,-1.8984375,-0.15625,-0.27734375,0.255859375,-0.03125,0.6953125,-11.41796875,1.578125,1.0
628397,,,,,,,,0.265625,-2.80859375,0.06640625,-0.318359375,0.23046875,-0.01171875,0.15625,-12.33203125,1.76953125,1.0
628398,,,,,,,,0.19140625,-2.80859375,0.37890625,-0.353515625,0.240234375,0.0,0.08203125,-12.33203125,2.07421875,1.0
628399,,,,,,,,0.19921875,-3.15234375,1.19140625,-0.419921875,0.314453125,0.048828125,0.08203125,-12.67578125,2.83984375,1.0
628400,36.01321683333333,129.31920866666667,54.870472596160056,90.6353757042243,1.2000000000000002,316.0,0.0,-0.078125,-0.1796875,-0.578125,0.115234375,0.830078125,-0.208984375,-1.14453125,-15.3203125,2.87890625,1.0
628401,,,,,,,,-1.59375,-4.5078125,2.55078125,-0.6328125,0.71484375,0.12109375,-2.140625,-12.71484375,4.640625,1.0
628402,,,,,,,,-1.96875,-3.16015625,3.15625,-0.58203125,0.70703125,0.107421875,-1.98828125,-11.33984375,4.10546875,1.0
628403,,,,,,,,-1.453125,-1.4296875,2.40625,-0.51953125,0.701171875,0.083984375,-1.22265625,-10.80078125,3.72265625,1.0
628404,,,,,,,,0.21484375,-1.48828125,2.5234375,-0.626953125,0.724609375,0.02734375,1.15234375,-11.828125,3.875,1.0
628405,,,,,,,,2.1640625,-2.46875,2.71875,-0.3359375,0.646484375,0.00390625,1.921875,-12.0625,3.953125,1.0
628406,,,,,,,,2.28515625,-1.8125,2.34375,-0.044921875,0.630859375,-0.021484375,2.03515625,-11.4140625,3.5703125,1.0
628407,,,,,,,,2.0234375,-1.359375,1.76171875,0.236328125,0.54296875,-0.03125,1.765625,-10.95703125,2.99609375,1.0
628408,,,,,,,,1.18359375,-0.8515625,0.96875,0.2109375,0.76171875,-0.041015625,0.92578125,-10.453125,2.2265625,1.0
628409,,,,,,,,0.8828125,-0.78515625,1.0390625,0.1796875,0.947265625,-0.033203125,0.6171875,-10.37890625,2.3046875,1.0
628410,36.01321766666667,129.31920783333334,54.795348151453126,90.72784127326113,1.2000000000000002,316.0,,0.30859375,-0.59375,1.4453125,0.115234375,0.830078125,-0.208984375,0.04296875,-10.1875,2.7265625,1.0
628411,,,,,,,,-0.14453125,-0.59375,1.94921875,0.349609375,1.3828125,-0.119140625,-0.41796875,-10.19140625,3.26171875,1.0
628412,,,,,,,,-0.36328125,-0.5546875,1.55078125,0.4296875,1.390625,-0.158203125,-0.64453125,-10.15234375,2.87890625,1.0
628413,,,,,,,,-0.48828125,-0.41015625,0.9921875,0.51953125,1.296875,-0.287109375,-0.76171875,-9.9921875,2.3828125,1.0
628414,,,,,,,,-0.57421875,-0.21875,0.9296875,0.474609375,1.275390625,-0.330078125,-0.83984375,-9.8046875,2.34375,1.0
628415,,,,,,,,-0.55078125,0.47265625,0.5078125,0.337890625,1.26171875,-0.42578125,-0.80078125,-9.11328125,1.9609375,1.0
628416,,,,,,,,-0.3984375,1.0,0.24609375,0.234375,1.205078125,-0.482421875,-0.609375,-8.58203125,1.73046875,1.0
628417,,,,,,,,-0.3359375,1.15234375,0.078125,0.220703125,1.1796875,-0.48046875,-0.53125,-8.42578125,1.578125,1.0
628418,,,,,,,,-0.20703125,1.5,-0.0234375,0.212890625,1.1640625,-0.44921875,-0.37890625,-8.08203125,1.5,1.0
628419,,,,,,,,-0.421875,1.7265625,-0.15234375,0.201171875,1.20703125,-0.400390625,-0.5703125,-7.8515625,1.38671875,1.0
628420,36.013218333333334,129.319207,54.72022382618324,90.8018136351392,1.1,316.0,,-0.70703125,1.95703125,-0.0546875,0.18359375,1.22265625,-0.35546875,-0.83984375,-7.6171875,1.5,1.0
628421,,,,,,,,-0.796875,1.99609375,-0.078125,0.142578125,1.23046875,-0.32421875,-0.9140625,-7.58203125,1.5,1.0
628422,,,,,,,,-0.921875,2.03515625,-0.0859375,0.12109375,1.228515625,-0.30859375,-1.03125,-7.54296875,1.5,1.0
628423,,,,,,,,-1.08203125,2.1875,-0.24609375,0.076171875,1.197265625,-0.3046875,-1.18359375,-7.390625,1.34765625,1.0
628424,,,,,,,,-1.59375,2.41796875,-0.40625,0.068359375,1.111328125,-0.322265625,-1.6796875,-7.16015625,1.1953125,1.0
628425,,,,,,,,-1.88671875,2.1796875,-0.5390625,0.1015625,0.982421875,-0.35546875,-1.94921875,-7.390625,1.078125,1.0
628426,,,,,,,,-1.97265625,1.98828125,-0.4609375,0.125,0.951171875,-0.3671875,-2.02734375,-7.58203125,1.15625,1.0
628427,,,,,,,,-1.96484375,1.94921875,-0.37890625,0.1796875,0.859375,-0.361328125,-1.98828125,-7.62109375,1.26953125,1.0
628428,,,,,,,,-1.98046875,1.94140625,-0.31640625,0.201171875,0.86328125,-0.337890625,-1.98828125,-7.6171875,1.34765625,1.0
628429,,,,,,,,-1.8359375,2.01953125,-0.25390625,0.212890625,0.87890625,-0.318359375,-1.8359375,-7.54296875,1.42578125,1.0
628430,36.01321900000001,129.31920616666667,54.64509949970223,90.87578599868498,1.1,318.0,,-1.8125,2.01953125,-0.34765625,0.18359375,1.22265625,-0.35546875,-0.83984375,-7.6171875,1.5,1.0
628431,,,,,,,,-1.65625,1.97265625,-0.37109375,0.18359375,0.86328125,-0.234375,-1.640625,-7.58203125,1.34765625,1.0
628432,,,,,,,,-1.58984375,1.859375,-0.38671875,0.169921875,0.80859375,-0.185546875,-1.56640625,-7.6953125,1.34765625,1.0
628433,,,,,,,,-1.4375,1.6953125,-0.44921875,0.193359375,0.73046875,-0.13671875,-1.4140625,-7.8515625,1.30859375,1.0
628434,,,,,,,,-1.24609375,1.53515625,-0.50390625,0.201171875,0.63671875,-0.099609375,-1.22265625,-8.00390625,1.26953125,1.0
628435,,,,,,,,-1.046875,1.3828125,-0.5546875,0.1953125,0.5390625,-0.072265625,-1.03125,-8.15625,1.234375,1.0
628436,,,,,,,,-0.96875,1.23046875,-0.5703125,0.1875,0.505859375,-0.06640625,-0.953125,-8.30859375,1.234375,1.0
628437,,,,,,,,-0.921875,0.90625,-0.51953125,0.1484375,0.390625,-0.04296875,-0.9140625,-8.6171875,1.30859375,1.0
628438,,,,,,,,-0.8828125,0.671875,-0.52734375,0.13671875,0.32421875,-0.02734375,-0.875,-8.84375,1.30859375,1.0
628439,,,,,,,,-0.90625,0.44140625,-0.390625,0.11328125,0.275390625,-0.0234375,-0.9140625,-9.0703125,1.4609375,1.0
628440,36.01321983333333,129.3192055,54.58499983390102,90.9682516631359,1.1,326.0,,-0.9453125,0.28515625,-0.43359375,0.18359375,1.22265625,-0.35546875,-0.953125,-9.2265625,1.42578125,1.0
628441,,,,,,,,-0.90625,-0.02734375,-0.40625,0.041015625,0.21484375,-0.0078125,-0.9140625,-9.53515625,1.4609375,1.0
628442,,,,,,,,-0.8515625,-0.21875,-0.44140625,-0.03515625,0.16796875,-0.01171875,-0.875,-9.7265625,1.42578125,1.0
628443,,,,,,,,-0.77734375,-0.37109375,-0.44140625,-0.056640625,0.1640625,-0.0078125,-0.80078125,-9.87890625,1.42578125,1.0
628444,,,,,,,,-0.84375,-0.5625,-0.43359375,-0.091796875,0.146484375,-0.009765625,-0.875,-10.0703125,1.42578125,1.0
628445,,,,,,,,-0.875,-0.75390625,-0.50390625,-0.123046875,0.134765625,-0.01171875,-0.9140625,-10.2578125,1.34765625,1.0
628446,,,,,,,,-0.8359375,-1.0234375,-0.51953125,-0.17578125,0.111328125,-0.02734375,-0.875,-10.53515625,1.30859375,1.0
628447,,,,,,,,-0.68359375,-1.0625,-0.5703125,-0.201171875,0.1015625,-0.029296875,-0.72265625,-10.57421875,1.234375,1.0
628448,,,,,,,,-0.5234375,-0.79296875,-0.6015625,-0.208984375,0.107421875,-0.037109375,-0.5703125,-10.296875,1.1953125,1.0
628449,,,,,,,,-0.37890625,-0.6328125,-0.50390625,-0.2265625,0.1171875,-0.041015625,-0.41796875,-10.1484375,1.26953125,1.0
628450,36.013220833333335,129.31920516666665,54.5549495955604,91.07921072275798,1.0,333.0,,-0.453125,-0.1640625,-0.671875,0.18359375,1.22265625,-0.35546875,-0.953125,-9.2265625,1.42578125,1.0
628451,,,,,,,,-0.67578125,0.44140625,-0.5,-0.287109375,0.125,-0.05078125,-0.72265625,-9.07421875,1.234375,1.0
628452,,,,,,,,-0.9140625,-0.2421875,-0.46875,-0.30859375,0.14453125,-0.05859375,-0.953125,-9.76953125,1.234375,1.0
628453,,,,,,,,-0.9140625,-0.65625,-0.5703125,-0.3125,0.14453125,-0.056640625,-0.953125,-10.1875,1.1171875,1.0
628454,,,,,,,,-0.53125,-0.88671875,-0.23046875,-0.296875,0.140625,-0.072265625,-0.5703125,-10.4140625,1.42578125,1.0
628455,,,,,,,,-0.30078125,-0.76171875,-0.0078125,-0.349609375,0.087890625,-0.103515625,-0.33984375,-10.30078125,1.6171875,1.0
628456,,,,,,,,-0.125,-1.40625,0.51171875,-0.48828125,0.064453125,-0.123046875,-0.1484375,-10.953125,2.07421875,1.0
628457,,,,,,,,0.94921875,-3.16015625,0.90625,-0.55078125,0.07421875,-0.126953125,0.92578125,-12.7109375,2.421875,1.0
628458,,,,,,,,1.359375,-3.6875,1.1953125,-0.603515625,0.05859375,-0.125,1.34375,-13.25390625,2.6875,1.0
628459,,,,,,,,3.30078125,-4.29296875,2.515625,-0.630859375,-0.046875,-0.06640625,3.30078125,-13.859375,3.9140625,1.0
628460,36.01322166666667,129.31920499999998,54.53992424897179,91.17167666649111,1.1,341.0,,3.60546875,-3.3203125,3.34375,0.18359375,1.22265625,-0.35546875,3.60546875,-12.91015625,4.6796875,1.0
628461,,,,,,,,2.03515625,-2.23828125,3.375,-0.73046875,-0.021484375,0.00390625,2.03515625,-11.83203125,4.640625,1.0
628462,,,,,,,,1.5078125,-2.26953125,3.41015625,-0.904296875,-0.0859375,0.0078125,1.5,-11.87109375,4.60546875,1.0
628463,,,,,,,,0.54296875,-2.453125,3.1484375,-0.875,-0.048828125,0.0078125,0.54296875,-12.0625,4.2578125,1.0
628464,,,,,,,,0.38671875,-2.4375,3.10546875,-0.740234375,0.021484375,-0.013671875,0.38671875,-12.0625,4.18359375,1.0
628465,,,,,,,,0.3125,-2.015625,2.77734375,-0.330078125,0.22265625,-0.11328125,0.3125,-11.64453125,3.80078125,1.0
628466,,,,,,,,0.1640625,-0.79296875,1.7265625,0.248046875,0.29296875,-0.23828125,0.1953125,-10.4140625,2.765625,1.0
628467,,,,,,,,-0.109375,-0.1796875,1.3359375,0.302734375,0.251953125,-0.25390625,-0.0703125,-9.8046875,2.3828125,1.0
628468,,,,,,,,-0.203125,0.2421875,1.07421875,0.369140625,0.21484375,-0.23046875,-0.1484375,-9.3828125,2.15234375,1.0
628469,,,,,,,,-0.1328125,0.3125,1.05078125,0.404296875,0.22265625,-0.20703125,-0.0703125,-9.3046875,2.15234375,1.0
628470,36.01322266666667,129.31920466666668,54.50987401787386,91.28263572602782,1.1,345.0,,0.03515625,0.3125,1.09375,0.5234375,0.345703125,-0.1171875,0.12109375,-9.3046875,2.265625,1.0
628471,,,,,,,,0.109375,0.2265625,1.078125,0.49609375,0.466796875,-0.02734375,0.1953125,-9.38671875,2.3046875,1.0
628472,,,,,,,,0.04296875,0.41796875,0.80078125,0.36328125,0.541015625,0.064453125,0.12109375,-9.19140625,2.07421875,1.0
628473,,,,,,,,0.01953125,0.45703125,0.59375,0.251953125,0.546875,0.1015625,0.08203125,-9.15234375,1.8828125,1.0
628474,,,,,,,,-0.15625,0.6875,0.203125,0.015625,0.529296875,0.16796875,-0.109375,-8.92578125,1.5,1.0
628475,,,,,,,,-0.26953125,0.84765625,0.01953125,-0.19140625,0.505859375,0.201171875,-0.26171875,-8.765625,1.30859375,1.0
628476,,,,,,,,-0.35546875,1.19140625,-0.109375,-0.19921875,0.517578125,0.201171875,-0.37890625,-8.421875,1.15625,1.0
628477,,,,,,,,-0.37109375,1.4296875,-0.28515625,-0.14453125,0.51953125,0.193359375,-0.41796875,-8.19921875,0.96484375,1.0
628478,,,,,,,,-0.390625,1.61328125,-0.32421875,-0.12109375,0.517578125,0.189453125,-0.453125,-8.0,0.92578125,1.0
628479,,,,,,,,-0.1015625,1.8046875,-0.546875,-0.109375,0.53515625,0.162109375,-0.1875,-7.8125,0.6953125,1.0
628480,36.013223333333336,129.31920433333335,54.47982401565236,91.35660836956498,1.0,344.0,,0.2578125,1.7734375,-0.61328125,0.5234375,0.345703125,-0.1171875,0.15625,-7.8515625,0.62109375,1.0
628481,,,,,,,,0.4375,1.73828125,-0.59765625,-0.130859375,0.59765625,0.14453125,0.3125,-7.8828125,0.62109375,1.0
628482,,,,,,,,0.57421875,1.62109375,-0.546875,-0.109375,0.650390625,0.146484375,0.42578125,-8.00390625,0.65625,1.0
628483,,,,,,,,0.59765625,1.70703125,-0.546875,-0.109375,0.68359375,0.158203125,0.42578125,-7.92578125,0.65625,1.0
628484,,,,,,,,0.66015625,1.70703125,-0.4140625,-0.099609375,0.689453125,0.150390625,0.46484375,-7.921875,0.7734375,1.0
628485,,,,,,,,0.64453125,1.69921875,-0.453125,-0.08203125,0.70703125,0.13671875,0.42578125,-7.92578125,0.734375,1.0
628486,,,,,,,,0.59765625,1.70703125,-0.4765625,-0.048828125,0.740234375,0.103515625,0.34765625,-7.92578125,0.6953125,1.0
628487,,,,,,,,0.61328125,1.69921875,-0.54296875,-0.013671875,0.748046875,0.0703125,0.34765625,-7.92578125,0.62109375,1.0
628488,,,,,,,,0.59375,1.74609375,-0.66015625,0.03125,0.7421875,0.0234375,0.3125,-7.8828125,0.50390625,1.0
628489,,,,,,,,0.67578125,1.69921875,-0.67578125,0.064453125,0.724609375,-0.021484375,0.38671875,-7.92578125,0.50390625,1.0
628490,36.01322416666667,129.31920416666665,54.464798665691106,91.44907431563006,1.0,347.0,,0.5703125,1.66015625,-0.75,0.091796875,0.708984375,-0.07421875,0.2734375,-7.9609375,0.4296875,1.0
628491,,,,,,,,0.4921875,1.58203125,-0.7578125,0.11328125,0.7109375,-0.107421875,0.1953125,-8.0390625,0.4296875,1.0
628492,,,,,,,,0.29296875,1.23046875,-0.84375,0.130859375,0.70703125,-0.142578125,0.00390625,-8.38671875,0.3515625,1.0
628493,,,,,,,,0.2109375,1.0,-0.70703125,0.140625,0.71875,-0.166015625,-0.0703125,-8.6171875,0.50390625,1.0
628494,,,,,,,,0.24609375,0.609375,-0.5703125,0.154296875,0.7265625,-0.185546875,-0.03515625,-9.00390625,0.65625,1.0
628495,,,,,,,,0.15625,0.37890625,-0.66015625,0.14453125,0.74609375,-0.193359375,-0.109375,-9.23046875,0.58203125,1.0
628496,,,,,,,,0.1953125,0.265625,-0.5078125,0.15234375,0.7578125,-0.1875,-0.0703125,-9.34765625,0.734375,1.0
628497,,,,,,,,0.109375,0.3046875,-0.5234375,0.15234375,0.7890625,-0.18359375,-0.1484375,-9.30859375,0.734375,1.0
628498,,,,,,,,0.0234375,0.34375,-0.4609375,0.12890625,0.78515625,-0.171875,-0.2265625,-9.26953125,0.8125,1.0
628499,,,,,,,,0.0234375,0.34375,-0.4609375,0.12890625,0.78515625,-0.171875,-0.2265625,-9.26953125,0.8125,1.0
628500,36.01322533333334,129.31920399999998,54.44977309140968,91.5785266759579,1.1,349.0,0.0,-0.21875,-0.171875,-0.109375,0.14453125,0.759765625,-0.119140625,-0.453125,-9.765625,1.1953125,1.0
628501,,,,,,,,-0.375,-0.59375,-0.05078125,0.166015625,0.736328125,-0.115234375,-0.609375,-10.1875,1.26953125,1.0
628502,,,,,,,,-0.44921875,-0.640625,-0.09375,0.166015625,0.716796875,-0.107421875,-0.68359375,-10.2265625,1.234375,1.0
628503,,,,,,,,-0.52734375,-0.5625,-0.06640625,0.16015625,0.685546875,-0.095703125,-0.76171875,-10.1484375,1.26953125,1.0
628504,,,,,,,,-0.60546875,-0.21875,-0.1875,0.1484375,0.671875,-0.095703125,-0.83984375,-9.8046875,1.15625,1.0
628505,,,,,,,,-0.48828125,0.08984375,-0.35546875,0.08984375,0.6015625,-0.08984375,-0.72265625,-9.49609375,1.00390625,1.0
628506,,,,,,,,-0.21875,0.2734375,-0.51953125,0.017578125,0.51953125,-0.07421875,-0.453125,-9.3046875,0.84765625,1.0
628507,,,,,,,,0.046875,0.46484375,-0.5859375,-0.00390625,0.47265625,-0.0703125,-0.1875,-9.109375,0.7734375,1.0
628508,,,,,,,,0.31640625,0.6171875,-0.703125,-0.0625,0.353515625,-0.056640625,0.08203125,-8.9609375,0.65625,1.0
628509,,,,,,,,0.546875,0.38671875,-0.80859375,-0.07421875,0.306640625,-0.046875,0.3125,-9.19140625,0.54296875,1.0
628510,36.013226333333336,129.31920383333332,54.434747632499686,91.68948582841297,1.1,351.0,,0.77734375,-0.5703125,-0.5703125,0.14453125,0.759765625,-0.119140625,0.54296875,-10.15234375,0.7734375,1.0
628511,,,,,,,,0.8125,-2.40234375,-0.8984375,-0.181640625,0.203125,0.01171875,0.578125,-11.98828125,0.4296875,1.0
628512,,,,,,,,0.66796875,-3.43359375,-0.76171875,-0.275390625,0.220703125,0.037109375,0.42578125,-13.01953125,0.54296875,1.0
628513,,,,,,,,0.5234375,-4.0859375,0.37890625,-0.41015625,0.251953125,0.07421875,0.2734375,-13.671875,1.65234375,1.0
628514,,,,,,,,-0.3046875,-4.578125,0.97265625,-0.587890625,0.271484375,0.12109375,-0.5703125,-14.17578125,2.19140625,1.0
628515,,,,,,,,-1.484375,-5.375,1.80078125,-0.75390625,0.408203125,0.130859375,-1.7578125,-14.9765625,2.95703125,1.0
628516,,,,,,,,-1.546875,-4.4140625,2.60546875,-0.80078125,0.458984375,0.142578125,-1.8359375,-14.01953125,3.72265625,1.0
628517,,,,,,,,-1.98828125,-1.375,2.5625,-0.82421875,0.51953125,0.146484375,-2.29296875,-10.9921875,3.609375,1.0
628518,,,,,,,,-1.3828125,-1.05859375,2.1796875,-0.748046875,0.669921875,0.125,-1.71875,-10.68359375,3.109375,1.0
628519,,,,,,,,0.40234375,-2.125,2.21875,-0.7578125,0.77734375,0.12890625,0.04296875,-11.76171875,3.0703125,1.0
628520,36.0132275,129.31920383333332,54.4347468304714,91.81893828202723,1.2000000000000002,353.0,,1.734375,-2.65234375,2.7109375,-0.623046875,0.60546875,0.162109375,1.34375,-12.2890625,3.453125,1.0
628521,,,,,,,,2.01953125,-2.453125,2.55078125,-0.064453125,0.61328125,0.12890625,1.61328125,-12.1015625,3.26171875,1.0
628522,,,,,,,,1.5,-1.91796875,1.47265625,0.171875,0.61328125,0.1484375,1.078125,-11.56640625,2.19140625,1.0
628523,,,,,,,,1.390625,-1.95703125,1.2734375,0.158203125,0.625,0.146484375,0.9609375,-11.6015625,2.0,1.0
628524,,,,,,,,0.91796875,-1.7265625,1.1484375,0.083984375,0.701171875,0.134765625,0.46484375,-11.37890625,1.8828125,1.0
628525,,,,,,,,0.09765625,-0.99609375,1.75390625,0.154296875,0.8359375,0.046875,-0.37890625,-10.64453125,2.49609375,1.0
628526,,,,,,,,-0.27734375,-0.65234375,2.19140625,0.341796875,0.861328125,-0.029296875,-0.76171875,-10.30078125,2.95703125,1.0
628527,,,,,,,,-0.73828125,-0.0390625,2.11328125,0.443359375,0.859375,-0.0859375,-1.22265625,-9.69140625,2.91796875,1.0
628528,,,,,,,,-0.58203125,0.19140625,1.5546875,0.447265625,0.8671875,-0.1171875,-1.06640625,-9.453125,2.3828125,1.0
628529,,,,,,,,-0.33203125,0.3046875,0.9765625,0.427734375,0.970703125,-0.22265625,-0.80078125,-9.34375,1.84375,1.0
628530,36.0132285,129.31920366666665,54.41972137212062,91.9298974347842,1.1,354.0,,-0.0390625,0.609375,0.6875,0.453125,1.1953125,-0.2890625,-0.4921875,-9.0390625,1.6171875,1.0
628531,,,,,,,,-0.0234375,1.0234375,0.83984375,0.515625,1.19921875,-0.306640625,-0.453125,-8.6171875,1.80859375,1.0
628532,,,,,,,,-0.15625,1.37890625,0.67578125,0.50390625,1.068359375,-0.3203125,-0.5703125,-8.26953125,1.69140625,1.0
628533,,,,,,,,-0.46484375,2.328125,0.33203125,0.365234375,0.912109375,-0.31640625,-0.83984375,-7.31640625,1.42578125,1.0
628534,,,,,,,,-0.6015625,2.94140625,0.21484375,0.330078125,0.94140625,-0.302734375,-0.953125,-6.69921875,1.34765625,1.0
628535,,,,,,,,-0.76953125,3.09375,0.18359375,0.31640625,0.93359375,-0.306640625,-1.10546875,-6.55078125,1.34765625,1.0
628536,,,,,,,,-0.77734375,3.09375,0.0625,0.30859375,0.927734375,-0.314453125,-1.10546875,-6.546875,1.234375,1.0
628537,,,,,,,,-1.03125,3.0078125,-0.19921875,0.298828125,0.865234375,-0.3203125,-1.3359375,-6.62890625,1.00390625,1.0
628538,,,,,,,,-1.16015625,2.93359375,-0.30078125,0.251953125,0.798828125,-0.33984375,-1.44921875,-6.69921875,0.92578125,1.0
628539,,,,,,,,-1.26171875,2.55078125,-0.484375,0.21875,0.712890625,-0.349609375,-1.52734375,-7.08203125,0.7734375,1.0
628540,36.0132295,129.31920366666665,54.419720684547684,92.04085668089853,1.1,355.0,,-1.25390625,2.16796875,-0.5859375,0.203125,0.66015625,-0.37109375,-1.48828125,-7.4609375,0.6953125,1.0
628541,,,,,,,,-1.28515625,1.66015625,-0.2578125,0.208984375,0.642578125,-0.349609375,-1.48828125,-7.96484375,1.0390625,1.0
628542,,,,,,,,-1.29296875,1.58203125,-0.1953125,0.197265625,0.642578125,-0.345703125,-1.48828125,-8.0390625,1.1171875,1.0
628543,,,,,,,,-1.27734375,1.421875,-0.1328125,0.154296875,0.646484375,-0.302734375,-1.4140625,-8.23828125,1.1953125,1.0
628544,,,,,,,,-1.25,1.3828125,-0.140625,0.130859375,0.634765625,-0.2734375,-1.375,-8.19921875,1.1171875,1.0
628545,,,,,,,,-1.1640625,1.5,-0.34765625,0.06640625,0.623046875,-0.19140625,-1.22265625,-8.04296875,0.92578125,1.0
628546,,,,,,,,-1.01171875,1.64453125,-0.43359375,0.060546875,0.623046875,-0.14453125,-1.06640625,-7.96484375,0.88671875,1.0
628547,,,,,,,,-0.94140625,1.64453125,-0.48046875,0.099609375,0.6015625,-0.111328125,-1.03125,-8.00390625,0.84765625,1.0
628548,,,,,,,,-0.90625,1.53125,-0.640625,0.162109375,0.560546875,-0.09375,-1.03125,-8.12109375,0.8125,1.0
628549,,,,,,,,-0.90625,1.4921875,-0.5703125,0.189453125,0.546875,-0.0859375,-0.9921875,-8.1953125,0.8125,1.0
628550,36.01323033333333,129.31920366666665,54.41972011152622,92.13332271811933,1.0,357.0,,-1.25390625,2.16796875,-0.5859375,0.224609375,0.505859375,-0.078125,-0.953125,-8.578125,0.7734375,1.0
628551,,,,,,,,-0.859375,0.91015625,-0.6171875,0.24609375,0.486328125,-0.06640625,-0.953125,-8.765625,0.8125,1.0
628552,,,,,,,,-0.828125,0.83203125,-0.625,0.255859375,0.478515625,-0.076171875,-0.953125,-8.96484375,0.84765625,1.0
628553,,,,,,,,-0.8203125,0.546875,-0.6953125,0.236328125,0.46875,-0.07421875,-0.953125,-9.1484375,0.88671875,1.0
628554,,,,,,,,-0.8203125,0.43359375,-0.58984375,0.21875,0.462890625,-0.0703125,-1.03125,-9.265625,0.96484375,1.0
628555,,,,,,,,-1.01171875,0.203125,-0.49609375,0.173828125,0.435546875,-0.0703125,-1.14453125,-9.45703125,1.1171875,1.0
628556,,,,,,,,-1.04296875,-0.109375,-0.40625,0.119140625,0.416015625,-0.080078125,-1.22265625,-9.953125,1.15625,1.0
628557,,,,,,,,-1.08984375,-0.38671875,-0.375,0.09765625,0.40625,-0.083984375,-1.2578125,-10.15234375,1.15625,1.0
628558,,,,,,,,-1.08984375,-0.6484375,-0.3046875,0.078125,0.384765625,-0.095703125,-1.2578125,-10.49609375,1.30859375,1.0
628559,,,,,,,,-1.1171875,-0.921875,-0.23828125,0.068359375,0.37890625,-0.099609375,-1.296875,-10.61328125,1.38671875,1.0
628560,36.01323133333334,129.31920383333332,54.43474419437089,92.24428205889447,1.0,4.0,,-1.25390625,2.16796875,-0.5859375,0.224609375,0.505859375,-0.078125,-1.22265625,-10.64453125,1.5,1.0
628561,,,,,,,,-0.94140625,-0.81640625,-0.21484375,0.02734375,0.30078125,-0.119140625,-0.875,-10.15234375,1.1171875,1.0
628562,,,,,,,,-0.75,-0.5859375,-0.4453125,0.02734375,0.310546875,-0.115234375,-0.76171875,-10.03125,0.92578125,1.0
628563,,,,,,,,-0.60546875,-0.39453125,-0.67578125,0.017578125,0.306640625,-0.11328125,-0.609375,-9.87890625,0.7734375,1.0
628564,,,,,,,,-0.375,-0.171875,-0.9140625,-0.001953125,0.298828125,-0.107421875,-0.37890625,-9.53515625,0.62109375,1.0
628565,,,,,,,,-0.26953125,0.171875,-0.8671875,-0.021484375,0.26171875,-0.107421875,-0.41796875,-9.2265625,0.6953125,1.0
628566,,,,,,,,-0.30859375,0.32421875,-0.875,-0.017578125,0.248046875,-0.115234375,-0.53125,-9.0703125,0.7734375,1.0
628567,,,,,,,,-0.73828125,0.74609375,-0.71484375,-0.015625,0.220703125,-0.119140625,-0.9140625,-8.6875,0.92578125,1.0
628568,,,,,,,,-1.1484375,0.90234375,-0.55859375,-0.107421875,0.21875,-0.126953125,-1.375,-8.69140625,0.96484375,1.0
628569,,,,,,,,-1.28125,0.86328125,-0.58984375,-0.154296875,0.216796875,-0.125,-1.6796875,-9.1484375,0.734375,1.0
628570,36.01323216666666,129.31920433333335,54.47981793705563,92.33674837460872,1.1,12.0,,-1.6328125,0.171875,-0.91796875,-0.255859375,0.21875,-0.1171875,-1.7578125,-9.53125,0.54296875,1.0
628571,,,,,,,,-1.52734375,-0.09375,-0.66015625,-0.30859375,0.208984375,-0.119140625,-1.4140625,-9.6484375,1.00390625,1.0
628572,,,,,,,,-0.8828125,-0.125,-0.10546875,-0.380859375,0.16796875,-0.115234375,-0.76171875,-9.953125,1.4609375,1.0
628573,,,,,,,,-0.27734375,-1.34375,0.46875,-0.46875,0.14453125,-0.099609375,-0.33984375,-10.9140625,1.8828125,1.0
628574,,,,,,,,1.5625,-4.6015625,1.28125,-0.611328125,0.126953125,-0.072265625,1.5,-14.17578125,2.6484375,1.0
628575,,,,,,,,2.90234375,-6.84375,2.07421875,-0.751953125,0.123046875,-0.017578125,2.83984375,-16.43359375,3.37890625,1.0
628576,,,,,,,,4.17578125,-7.55859375,3.26171875,-0.755859375,0.0625,0.0859375,4.10546875,-17.15625,4.48828125,1.0
628577,,,,,,,,4.87890625,-4.5625,4.51953125,-0.734375,-0.046875,0.126953125,4.79296875,-14.17578125,5.67578125,1.0
628578,,,,,,,,3.1640625,-2.0234375,3.33203125,-0.90625,-0.255859375,0.10546875,3.0703125,-11.640625,4.41015625,1.0
628579,,,,,,,,1.6015625,-2.125,3.3125,-1.041015625,-0.388671875,0.09765625,1.5,-11.7578125,4.296875,1.0
628580,36.013233,129.31920499999998,54.53991644144337,92.4292147875247,1.1,19.0,,0.265625,-2.19140625,3.828125,-0.255859375,0.21875,-0.1171875,-1.7578125,-9.53125,0.54296875,1.0
628581,,,,,,,,-0.19140625,-1.87890625,3.3828125,-0.373046875,0.0546875,0.013671875,-0.30078125,-11.52734375,4.21875,1.0
628582,,,,,,,,-0.078125,-0.99609375,1.77734375,0.35546875,0.32421875,-0.142578125,-0.1875,-10.64453125,2.61328125,1.0
628583,,,,,,,,-0.0234375,-0.19140625,1.375,0.677734375,0.431640625,-0.26953125,-0.109375,-9.8359375,2.265625,1.0
628584,,,,,,,,0.18359375,0.48828125,1.19921875,0.5859375,0.375,-0.298828125,0.234375,-8.88671875,2.15234375,1.0
628585,,,,,,,,0.3515625,0.796875,1.09765625,0.6640625,0.35546875,-0.234375,0.3125,-8.84375,2.11328125,1.0
628586,,,,,,,,0.48828125,0.44140625,0.95703125,0.7890625,0.416015625,-0.123046875,0.46484375,-9.34375,2.11328125,1.0
628587,,,,,,,,0.328125,0.2421875,1.0703125,0.75,0.57421875,-0.03515625,0.234375,-9.26953125,2.265625,1.0
628588,,,,,,,,0.10546875,0.51171875,0.96484375,0.56640625,0.6875,0.0625,-0.0703125,-8.84375,2.07421875,1.0
628589,,,,,,,,-0.453125,1.0703125,0.51953125,0.3046875,0.728515625,0.16796875,-0.609375,-8.38671875,1.73046875,1.0
628590,36.01323416666666,129.3192055,54.584989951357464,92.55866751975609,1.2000000000000002,21.0,,0.265625,-2.19140625,3.828125,0.076171875,0.7265625,0.248046875,-1.7578125,-9.53125,0.54296875,1.0
628591,,,,,,,,-0.69921875,1.68359375,0.08984375,-0.03515625,0.736328125,0.267578125,-0.76171875,-7.88671875,1.38671875,1.0
628592,,,,,,,,-0.58984375,1.7578125,0.05859375,-0.017578125,0.75,0.25390625,-0.64453125,-7.81640625,1.34765625,1.0
628593,,,,,,,,-0.3203125,1.796875,-0.01953125,0.033203125,0.748046875,0.216796875,-0.453125,-7.8515625,1.234375,1.0
628594,,,,,,,,-0.13671875,1.68359375,-0.25,0.009765625,0.697265625,0.181640625,-0.33984375,-7.92578125,1.078125,1.0
628595,,,,,,,,0.15625,1.7578125,-0.33203125,-0.041015625,0.630859375,0.15625,-0.0703125,-7.8515625,1.00390625,1.0
628596,,,,,,,,0.28515625,1.796875,-0.41015625,-0.068359375,0.615234375,0.150390625,0.04296875,-7.8125,0.92578125,1.0
628597,,,,,,,,0.65234375,1.9140625,-0.48046875,-0.08203125,0.595703125,0.140625,0.38671875,-7.69921875,0.84765625,1.0
628598,,,,,,,,0.921875,1.9140625,-0.5859375,-0.03515625,0.625,0.13671875,0.6171875,-7.69921875,0.734375,1.0
628599,,,,,,,,0.984375,1.953125,-0.5859375,0.009765625,0.66796875,0.142578125,0.65625,-7.65625,0.734375,1.0
628600,36.01323483333333,129.31920583333334,54.61503903156114,92.63264053693923,1.0,21.0,0.0,1.0078125,1.8828125,-0.69921875,0.076171875,0.7265625,0.248046875,-1.7578125,-9.53125,0.54296875,1.0
628601,,,,,,,,0.86328125,1.7578125,-0.6328125,0.09375,0.681640625,0.1171875,0.50390625,-7.85546875,0.6953125,1.0
628602,,,,,,,,0.87890625,1.68359375,-0.640625,0.11328125,0.67578125,0.107421875,0.50390625,-7.92578125,0.6953125,1.0
628603,,,,,,,,0.86328125,1.63671875,-0.5703125,0.13671875,0.669921875,0.07421875,0.46484375,-7.96484375,0.7734375,1.0
628604,,,,,,,,0.71875,1.55859375,-0.50390625,0.150390625,0.671875,0.060546875,0.3125,-8.04296875,0.84765625,1.0
628605,,,,,,,,0.609375,1.484375,-0.51171875,0.146484375,0.66015625,0.015625,0.1953125,-8.12109375,0.84765625,1.0
628606,,,,,,,,0.47265625,1.32421875,-0.6796875,0.126953125,0.642578125,-0.03125,0.04296875,-8.265625,0.6953125,1.0
628607,,,,,,,,0.43359375,1.16796875,-0.76171875,0.1171875,0.64453125,-0.078125,0.00390625,-8.421875,0.62109375,1.0
628608,,,,,,,,0.2421875,0.671875,-0.85546875,0.130859375,0.6484375,-0.109375,-0.1875,-8.92578125,0.54296875,1.0
628609,,,,,,,,0.16796875,0.35546875,-0.79296875,0.15625,0.658203125,-0.140625,-0.26171875,-9.2265625,0.62109375,1.0
628610,36.01323566666667,129.3192063333333,54.660112762913414,92.7251068562957,1.0,22.0,,0.15234375,0.3203125,-0.3984375,0.076171875,0.7265625,0.248046875,-1.7578125,-9.53125,0.54296875,1.0
628611,,,,,,,,0.07421875,0.65625,-0.44921875,0.177734375,0.705078125,-0.16015625,-0.33984375,-8.92578125,1.00390625,1.0
628612,,,,,,,,-0.01953125,0.53125,-0.58203125,0.138671875,0.701171875,-0.13671875,-0.41796875,-9.0390625,0.88671875,1.0
628613,,,,,,,,-0.09375,0.45703125,-0.55078125,0.126953125,0.6796875,-0.138671875,-0.4921875,-9.11328125,0.92578125,1.0
628614,,,,,,,,-0.28515625,0.1796875,-0.4453125,0.125,0.630859375,-0.130859375,-0.68359375,-9.3828125,1.0390625,1.0
628615,,,,,,,,-0.40234375,0.10546875,-0.265625,0.16796875,0.6015625,-0.13671875,-0.80078125,-9.45703125,1.234375,1.0
628616,,,,,,,,-0.44921875,-0.09375,-0.0703125,0.205078125,0.544921875,-0.11328125,-0.83984375,-9.6484375,1.4609375,1.0
628617,,,,,,,,-0.44921875,-0.32421875,-0.19921875,0.162109375,0.501953125,-0.08203125,-0.83984375,-9.87890625,1.34765625,1.0
628618,,,,,,,,-0.484375,-0.48046875,-0.27734375,0.140625,0.48046875,-0.07421875,-0.875,-10.03515625,1.26953125,1.0
628619,,,,,,,,-0.44921875,-0.86328125,-0.13671875,0.10546875,0.44921875,-0.052734375,-0.83984375,-10.4140625,1.42578125,1.0
628620,36.013236666666664,129.31920683333334,54.70518638499098,92.83606638359194,1.2000000000000002,23.0,,-0.5546875,-1.0234375,0.08203125,0.076171875,0.7265625,0.248046875,-0.953125,-10.5703125,1.65234375,1.0
628621,,,,,,,,-0.4765625,-0.83203125,0.265625,0.111328125,0.333984375,-0.015625,-0.875,-10.37890625,1.84375,1.0
628622,,,,,,,,-0.203125,-0.33203125,0.14453125,0.06640625,0.236328125,0.0078125,-0.609375,-9.875,1.73046875,1.0
628623,,,,,,,,0.3359375,0.43359375,-0.4375,0.0,0.13671875,0.017578125,-0.0703125,-9.109375,1.15625,1.0
628624,,,,,,,,0.6875,0.81640625,-0.73828125,-0.06640625,0.04296875,0.013671875,0.2734375,-8.7265625,0.84765625,1.0
628625,,,,,,,,1.30078125,0.85546875,-0.8828125,-0.109375,-0.05859375,-0.001953125,0.88671875,-8.69140625,0.6953125,1.0
628626,,,,,,,,1.484375,0.203125,-1.140625,-0.107421875,-0.111328125,-0.013671875,1.078125,-9.34765625,0.4296875,1.0
628627,,,,,,,,1.59765625,-0.72265625,-1.2109375,-0.0703125,-0.251953125,-0.01171875,1.19140625,-10.2578125,0.3515625,1.0
628628,,,,,,,,1.16796875,-1.71875,-0.58984375,-0.06640625,-0.263671875,0.0078125,0.76953125,-11.26171875,0.96484375,1.0
628629,,,,,,,,0.82421875,-1.875,0.71875,-0.18359375,-0.1640625,0.02734375,0.42578125,-11.41796875,2.265625,1.0
628630,36.01323766666667,129.31920766666664,54.780309537614365,92.94702609768734,1.2000000000000002,27.0,,0.640625,-2.05859375,1.515625,0.076171875,0.7265625,0.248046875,0.234375,-11.60546875,3.03125,1.0
628631,,,,,,,,0.2265625,-4.2421875,1.37109375,-0.701171875,0.041015625,0.099609375,-0.1875,-13.79296875,2.83984375,1.0
628632,,,,,,,,-0.26953125,-5.796875,1.375,-0.921875,0.140625,0.080078125,-0.68359375,-15.359375,2.765625,1.0
628633,,,,,,,,-0.9453125,-3.59765625,2.9609375,-0.92578125,0.20703125,0.064453125,-1.375,-13.171875,4.2578125,1.0
628634,,,,,,,,-1.13671875,-2.0859375,2.86328125,-0.86328125,0.232421875,0.013671875,-1.56640625,-11.68359375,4.06640625,1.0
628635,,,,,,,,-0.40234375,-1.65625,2.0078125,-0.84375,0.291015625,-0.03515625,-0.83984375,-11.26171875,3.1484375,1.0
628636,,,,,,,,0.359375,-1.796875,2.24609375,-0.830078125,0.244140625,-0.04296875,-0.0703125,-11.41796875,3.30078125,1.0
628637,,,,,,,,1.4296875,-2.0546875,2.70703125,-0.638671875,0.193359375,-0.021484375,1.0,-11.6796875,3.68359375,1.0
628638,,,,,,,,1.46875,-1.75,2.5546875,-0.169921875,0.298828125,-0.046875,1.0390625,-11.37890625,3.4921875,1.0
628639,,,,,,,,1.31640625,-1.6328125,2.0859375,0.2109375,0.32421875,0.001953125,0.88671875,-11.2578125,3.03125,1.0
628640,36.01323850000001,129.31920833333334,54.84040804144965,93.03949251130396,1.2000000000000002,29.0,,1.1328125,-1.3203125,1.3828125,0.208984375,0.4765625,0.029296875,0.6953125,-10.95703125,2.34375,1.0
628641,,,,,,,,0.87890625,-0.5625,1.34375,0.28125,0.859375,0.0390625,0.42578125,-10.19140625,2.34375,1.0
628642,,,,,,,,0.6875,-0.33203125,1.4140625,0.3359375,0.93359375,0.02734375,0.234375,-9.95703125,2.421875,1.0
628643,,,,,,,,0.19921875,-0.29296875,1.57421875,0.412109375,0.9765625,-0.015625,-0.26171875,-9.9140625,2.61328125,1.0
628644,,,,,,,,0.015625,-0.20703125,1.39453125,0.451171875,0.94140625,-0.037109375,-0.453125,-9.83984375,2.45703125,1.0
628645,,,,,,,,0.015625,0.00390625,1.09375,0.49609375,0.828125,-0.134765625,-0.453125,-9.61328125,2.2265625,1.0
628646,,,,,,,,0.12109375,0.42578125,0.75,0.466796875,0.861328125,-0.21484375,-0.33984375,-9.1875,1.921875,1.0
628647,,,,,,,,0.08203125,0.65625,0.6484375,0.42578125,0.89453125,-0.24609375,-0.37890625,-8.96484375,1.84375,1.0
628648,,,,,,,,0.02734375,1.078125,0.3828125,0.345703125,0.94921875,-0.255859375,-0.41796875,-8.54296875,1.6171875,1.0
628649,,,,,,,,0.05078125,1.26953125,0.16796875,0.271484375,0.947265625,-0.255859375,-0.37890625,-8.34765625,1.42578125,1.0
