time,latitude,longitude,enu_x,enu_y,speed,course,ecg,accX,accY,accZ,gyrX,gyrY,gyrZ,eulR,eulP,eulY,validity
607610,36.01321216666667,129.319242,57.87543069452874,90.1175851751724,1.2000000000000002,225.0,,0.81640625,1.98046875,-0.34765625,0.171875,0.025390625,-0.33203125,0.50390625,-7.54296875,1.42578125,1.0
607611,,,,,,,,0.4375,2.28515625,-0.2890625,0.18359375,0.0546875,-0.306640625,0.15625,-7.234375,1.5,1.0
607612,,,,,,,,0.21484375,2.5625,-0.2265625,0.169921875,0.080078125,-0.283203125,-0.03515625,-6.97265625,1.578125,1.0
607613,,,,,,,,0.0,2.66796875,-0.3671875,0.146484375,0.123046875,-0.2734375,-0.2265625,-6.85546875,1.4609375,1.0
607614,,,,,,,,-0.40625,2.8984375,-0.640625,0.12109375,0.134765625,-0.271484375,-0.609375,-6.62890625,1.1953125,1.0
607615,,,,,,,,-0.734375,2.859375,-0.734375,0.1171875,0.111328125,-0.279296875,-0.9140625,-6.6640625,1.1171875,1.0
607616,,,,,,,,-0.7890625,2.859375,-0.7421875,0.12890625,0.0859375,-0.271484375,-0.953125,-6.6640625,1.1171875,1.0
607617,,,,,,,,-1.15625,2.73828125,-0.796875,0.177734375,0.044921875,-0.28125,-1.296875,-6.7734375,1.078125,1.0
607618,,,,,,,,-1.37890625,2.66015625,-0.8203125,0.236328125,-0.001953125,-0.291015625,-1.48828125,-6.8515625,1.078125,1.0
607619,,,,,,,,-1.48046875,2.6171875,-0.84375,0.28125,-0.025390625,-0.27734375,-1.56640625,-6.890625,1.078125,1.0
607620,36.01321166666666,129.31924116666667,57.800307189787006,90.06210505674332,1.1,226.0,,-1.51171875,2.68359375,-0.875,0.171875,0.025390625,-0.33203125,0.50390625,-7.54296875,1.42578125,1.0
607621,,,,,,,,-1.41015625,2.68359375,-0.9375,0.3203125,0.013671875,-0.1953125,-1.44921875,-6.81640625,1.0390625,1.0
607622,,,,,,,,-1.3125,2.484375,-0.8984375,0.3203125,0.03125,-0.123046875,-1.3359375,-7.0078125,1.1171875,1.0
607623,,,,,,,,-1.2421875,2.24609375,-0.8515625,0.33984375,0.052734375,-0.044921875,-1.2578125,-7.234375,1.1953125,1.0
607624,,,,,,,,-1.05078125,2.0859375,-0.9609375,0.384765625,0.06640625,0.02734375,-1.06640625,-7.390625,1.1171875,1.0
607625,,,,,,,,-0.890625,2.00390625,-1.046875,0.421875,0.044921875,0.09375,-0.9140625,-7.46484375,1.078125,1.0
607626,,,,,,,,-0.66796875,1.83984375,-1.17578125,0.42578125,0.0234375,0.119140625,-0.68359375,-7.6171875,0.96484375,1.0
607627,,,,,,,,-0.578125,1.671875,-1.29296875,0.400390625,-0.01953125,0.15625,-0.609375,-7.7734375,0.88671875,1.0
607628,,,,,,,,-0.4296875,1.38671875,-1.1875,0.3125,-0.072265625,0.16796875,-0.4921875,-8.0390625,1.0390625,1.0
607629,,,,,,,,-0.30078125,1.03515625,-0.94921875,0.28515625,-0.07421875,0.169921875,-0.37890625,-8.38671875,1.30859375,1.0
607630,36.01321083333333,129.31923999999998,57.69513437380365,89.9696383272481,1.2000000000000002,226.0,,-0.25390625,0.69140625,-0.7421875,0.26953125,-0.05859375,0.15625,-0.33984375,-8.73046875,1.5390625,1.0
607631,,,,,,,,-0.34375,0.3984375,-0.62109375,0.234375,-0.0546875,0.142578125,-0.453125,-9.00390625,1.69140625,1.0
607632,,,,,,,,-0.4140625,0.32421875,-0.60546875,0.177734375,-0.037109375,0.119140625,-0.53125,-9.07421875,1.73046875,1.0
607633,,,,,,,,-0.64453125,0.19921875,-0.65234375,0.107421875,-0.017578125,0.09375,-0.76171875,-9.1875,1.69140625,1.0
607634,,,,,,,,-0.828125,0.0078125,-0.92578125,0.056640625,0.017578125,0.052734375,-0.953125,-9.3828125,1.42578125,1.0
607635,,,,,,,,-0.97265625,-0.265625,-0.92578125,0.005859375,0.080078125,0.00390625,-1.10546875,-9.6484375,1.42578125,1.0
607636,,,,,,,,-1.05078125,-0.3046875,-0.92578125,-0.017578125,0.111328125,-0.0234375,-1.18359375,-9.6875,1.42578125,1.0
607637,,,,,,,,-1.25,-0.8046875,-0.84375,-0.06640625,0.177734375,-0.125,-1.375,-10.1875,1.5,1.0
607638,,,,,,,,-1.140625,-0.99609375,-0.91796875,-0.099609375,0.189453125,-0.177734375,-1.2578125,-10.37890625,1.42578125,1.0
607639,,,,,,,,-0.8359375,-1.1484375,-0.94921875,-0.119140625,0.197265625,-0.197265625,-0.953125,-10.53125,1.38671875,1.0
607640,36.01321033333333,129.31923866666665,57.57493654125496,89.91415791586661,1.2000000000000002,230.0,,-0.23828125,-0.84375,-0.703125,0.26953125,-0.05859375,0.15625,-0.33984375,-8.73046875,1.5390625,1.0
607641,,,,,,,,-0.33203125,-0.10546875,-0.4140625,-0.255859375,0.19140625,-0.236328125,-0.41796875,-9.4921875,1.8828125,1.0
607642,,,,,,,,-0.62890625,0.359375,-0.25,-0.33984375,0.18359375,-0.23828125,-0.68359375,-9.0390625,2.0,1.0
607643,,,,,,,,-1.2578125,0.16796875,-0.17578125,-0.373046875,0.208984375,-0.21875,-1.296875,-9.23046875,2.03515625,1.0
607644,,,,,,,,-1.45703125,-1.046875,-0.51953125,-0.39453125,0.251953125,-0.19921875,-1.48828125,-10.45703125,1.65234375,1.0
607645,,,,,,,,-0.8984375,-2.3828125,-0.6015625,-0.3671875,0.306640625,-0.21484375,-0.9140625,-11.796875,1.5390625,1.0
607646,,,,,,,,-0.71484375,-2.44921875,-0.08984375,-0.34375,0.3359375,-0.22265625,-0.72265625,-11.87109375,2.03515625,1.0
607647,,,,,,,,-0.26953125,-2.51953125,0.671875,-0.353515625,0.333984375,-0.24609375,-0.26171875,-11.94921875,2.765625,1.0
607648,,,,,,,,1.09375,-4.5859375,1.16796875,-0.44140625,0.25390625,-0.28125,1.1171875,-14.015625,3.22265625,1.0
607649,,,,,,,,2.5625,-6.3046875,2.06640625,-0.703125,0.185546875,-0.30859375,2.609375,-15.74609375,4.06640625,1.0
607650,36.01320966666666,129.31923749999999,57.46976360223539,89.84018439689628,1.3,234.0,,4.69140625,-6.08984375,4.51171875,0.26953125,-0.05859375,0.15625,4.75390625,-15.55078125,6.44140625,1.0
607651,,,,,,,,3.16796875,-4.2265625,4.63671875,-0.76171875,0.025390625,-0.1484375,3.26171875,-13.7109375,6.44140625,1.0
607652,,,,,,,,0.5859375,-2.71484375,4.2421875,-0.720703125,-0.173828125,-0.091796875,0.6953125,-12.2109375,5.984375,1.0
607653,,,,,,,,-0.12109375,-2.47265625,3.66015625,-0.716796875,-0.291015625,-0.10546875,0.00390625,-11.98828125,5.33203125,1.0
607654,,,,,,,,-0.2890625,-2.33984375,1.83203125,-0.443359375,0.08984375,-0.095703125,-0.1484375,-11.8671875,3.41796875,1.0
607655,,,,,,,,-0.52734375,-1.65234375,1.80859375,0.162109375,0.572265625,-0.171875,-0.37890625,-11.18359375,3.37890625,1.0
607656,,,,,,,,-0.52734375,-1.23046875,1.5625,0.439453125,0.681640625,-0.232421875,-0.37890625,-10.76171875,3.1484375,1.0
607657,,,,,,,,-0.47265625,-0.1953125,0.54296875,0.689453125,0.466796875,-0.302734375,-0.30078125,-9.73046875,2.19140625,1.0
607658,,,,,,,,-0.34375,0.05859375,0.01171875,0.650390625,0.06640625,-0.32421875,-0.1484375,-9.453125,1.73046875,1.0
607659,,,,,,,,-0.09765625,-0.48828125,0.33984375,0.52734375,-0.0078125,-0.296875,0.12109375,-9.99609375,2.11328125,1.0
607660,36.01320916666667,129.31923633333332,57.36459054099623,89.78470408821696,1.3,236.0,,-0.0078125,-0.9921875,1.09765625,0.486328125,0.099609375,-0.193359375,0.234375,-10.4921875,2.91796875,1.0
607661,,,,,,,,-0.13671875,-0.91796875,1.08984375,0.453125,0.181640625,-0.091796875,0.12109375,-10.41796875,2.95703125,1.0
607662,,,,,,,,-0.3671875,-0.234375,0.515625,0.298828125,0.294921875,0.021484375,-0.109375,-9.73046875,2.421875,1.0
607663,,,,,,,,-0.4296875,0.33203125,0.14453125,0.052734375,0.376953125,0.166015625,-0.1875,-9.15234375,2.07421875,1.0
607664,,,,,,,,-0.20703125,1.10546875,-0.12109375,-0.14453125,0.453125,0.263671875,0.00390625,-8.3828125,1.80859375,1.0
607665,,,,,,,,-0.05078125,1.56640625,-0.10546875,-0.173828125,0.5234375,0.310546875,0.12109375,-7.921875,1.80859375,1.0
607666,,,,,,,,0.0078125,1.8125,-0.09765625,-0.123046875,0.548828125,0.31640625,0.15625,-7.69921875,1.80859375,1.0
607667,,,,,,,,-0.11328125,2.234375,-0.28125,-0.021484375,0.572265625,0.271484375,0.00390625,-7.27734375,1.6171875,1.0
607668,,,,,,,,-0.08203125,2.5,-0.51171875,0.009765625,0.494140625,0.212890625,0.00390625,-7.01171875,1.38671875,1.0
607669,,,,,,,,-0.08984375,3.11328125,-0.671875,-0.041015625,0.40625,0.16015625,-0.03515625,-6.390625,1.234375,1.0
607670,36.01320833333333,129.31923533333332,57.27444249409568,89.69223746134345,1.2000000000000002,235.0,,0.05078125,3.49609375,-1.01171875,0.486328125,0.099609375,-0.193359375,0.08203125,-6.01171875,0.88671875,1.0
607671,,,,,,,,0.140625,3.53515625,-1.0859375,-0.046875,0.4140625,0.0625,0.15625,-5.96875,0.8125,1.0
607672,,,,,,,,0.34765625,3.46484375,-1.1171875,-0.02734375,0.48828125,0.02734375,0.34765625,-6.05078125,0.7734375,1.0
607673,,,,,,,,0.6328125,3.3125,-1.04296875,-0.041015625,0.541015625,0.005859375,0.6171875,-6.203125,0.84765625,1.0
607674,,,,,,,,0.7578125,3.08203125,-0.95703125,-0.046875,0.5703125,-0.013671875,0.734375,-6.4296875,0.92578125,1.0
607675,,,,,,,,0.87890625,2.81640625,-0.765625,-0.0625,0.58984375,-0.060546875,0.84765625,-6.6953125,1.1171875,1.0
607676,,,,,,,,0.765625,2.66015625,-0.71875,-0.083984375,0.607421875,-0.099609375,0.734375,-6.85546875,1.15625,1.0
607677,,,,,,,,0.57421875,2.34765625,-1.0546875,-0.1171875,0.626953125,-0.1484375,0.54296875,-7.15625,0.8125,1.0
607678,,,,,,,,0.41015625,2.04296875,-1.38671875,-0.16796875,0.677734375,-0.216796875,0.38671875,-7.4609375,0.46484375,1.0
607679,,,,,,,,0.25,1.58984375,-1.4765625,-0.177734375,0.7109375,-0.263671875,0.234375,-7.921875,0.3515625,1.0
607680,36.01320783333333,129.31923416666666,57.16926942990929,89.63675715293061,1.1,237.0,,0.04296875,0.9375,-1.26953125,0.486328125,0.099609375,-0.193359375,0.04296875,-8.58203125,0.54296875,1.0
607681,,,,,,,,-0.01171875,0.5234375,-1.1015625,-0.15234375,0.708984375,-0.345703125,0.00390625,-9.00390625,0.6953125,1.0
607682,,,,,,,,-0.06640625,0.140625,-1.015625,-0.150390625,0.6953125,-0.369140625,-0.03515625,-9.38671875,0.7734375,1.0
607683,,,,,,,,-0.06640625,-0.05859375,-0.9609375,-0.1484375,0.716796875,-0.380859375,0.00390625,-9.57421875,0.8125,1.0
607684,,,,,,,,-0.05078125,-0.32421875,-0.9453125,-0.1640625,0.775390625,-0.375,0.04296875,-9.8359375,0.8125,1.0
607685,,,,,,,,-0.296875,-0.2890625,-1.0859375,-0.177734375,0.8359375,-0.3515625,-0.1875,-9.8046875,0.65625,1.0
607686,,,,,,,,-0.41796875,-0.171875,-1.14453125,-0.166015625,0.859375,-0.33203125,-0.30078125,-9.69140625,0.58203125,1.0
607687,,,,,,,,-0.7421875,-0.05078125,-1.13671875,-0.12890625,0.875,-0.3046875,-0.609375,-9.57421875,0.58203125,1.0
607688,,,,,,,,-1.0546875,0.01953125,-1.0546875,-0.06640625,0.8515625,-0.26953125,-0.9140625,-9.49609375,0.65625,1.0
607689,,,,,,,,-1.1875,0.05859375,-0.9296875,0.01171875,0.814453125,-0.2421875,-1.03125,-9.45703125,0.7734375,1.0
607690,36.013207333333334,129.319233,57.06409636421673,89.58127684597366,1.2000000000000002,237.0,,-0.93359375,-0.32421875,-0.9453125,0.09375,0.73828125,-0.177734375,-0.76171875,-9.8359375,0.7734375,1.0
607691,,,,,,,,-0.7421875,-0.41015625,-1.12109375,0.13671875,0.705078125,-0.140625,-0.5703125,-9.91796875,0.62109375,1.0
607692,,,,,,,,-0.55078125,-0.37890625,-1.0078125,0.12890625,0.671875,-0.123046875,-0.37890625,-9.875,0.734375,1.0
607693,,,,,,,,-0.2421875,-0.1484375,-0.83203125,0.10546875,0.5859375,-0.095703125,-0.0703125,-9.6484375,0.92578125,1.0
607694,,,,,,,,0.03125,0.078125,-0.80078125,0.052734375,0.447265625,-0.076171875,0.1953125,-9.421875,0.96484375,1.0
607695,,,,,,,,0.53125,0.2265625,-1.18359375,-0.046875,0.251953125,-0.037109375,0.6953125,-9.265625,0.58203125,1.0
607696,,,,,,,,0.9140625,0.30859375,-1.40625,-0.072265625,0.2109375,-0.025390625,1.078125,-9.1875,0.3515625,1.0
607697,,,,,,,,1.265625,0.2265625,-1.3125,-0.140625,0.1640625,-0.01171875,1.421875,-9.26953125,0.4296875,1.0
607698,,,,,,,,1.91796875,-0.734375,-0.9140625,-0.171875,0.123046875,0.005859375,2.07421875,-10.23046875,0.8125,1.0
607699,,,,,,,,1.91796875,-0.734375,-0.9140625,-0.171875,0.123046875,0.005859375,2.07421875,-10.23046875,0.8125,1.0
607700,36.013206833333335,129.31923166666667,56.94389852250383,89.52579644309272,1.3,239.0,0.0,1.15234375,-3.98046875,-0.77734375,-0.2421875,0.0859375,0.03515625,1.30859375,-13.48046875,0.92578125,1.0
607701,,,,,,,,-0.02734375,-6.5859375,0.1875,-0.37890625,0.15234375,0.072265625,0.12109375,-16.08984375,1.84375,1.0
607702,,,,,,,,-1.20703125,-7.4609375,2.01171875,-0.447265625,0.203125,0.087890625,-1.06640625,-16.97265625,3.64453125,1.0
607703,,,,,,,,-3.26171875,-6.953125,3.90625,-0.625,0.37109375,0.109375,-3.13671875,-16.47265625,5.484375,1.0
607704,,,,,,,,-3.515625,-3.26171875,3.85546875,-0.763671875,0.619140625,0.083984375,-3.40625,-12.7890625,5.37109375,1.0
607705,,,,,,,,-2.6484375,-1.98046875,2.9296875,-0.771484375,0.73828125,0.064453125,-2.5625,-11.52734375,4.375,1.0
607706,,,,,,,,-1.22265625,-1.4453125,2.8125,-0.7421875,0.78125,0.04296875,-1.14453125,-10.9921875,4.21875,1.0
607707,,,,,,,,0.79296875,-2.34765625,2.73046875,-0.732421875,0.8671875,0.033203125,0.84765625,-11.91015625,4.02734375,1.0
607708,,,,,,,,1.8359375,-3.44140625,2.21875,-0.623046875,0.6015625,0.08203125,1.8828125,-13.01953125,3.453125,1.0
607709,,,,,,,,1.8046875,-3.47265625,2.12890625,-0.34375,0.443359375,0.091796875,1.84375,-13.0546875,3.33984375,1.0
607710,36.01320616666667,129.31923049999997,56.838725571304266,89.45182293315011,1.3,240.0,,1.28515625,-2.78515625,1.9765625,-0.2421875,0.0859375,0.03515625,1.30859375,-13.48046875,0.92578125,1.0
607711,,,,,,,,0.84765625,-2.171875,1.75390625,0.33984375,0.1875,0.19140625,0.84765625,-11.76171875,2.99609375,1.0
607712,,,,,,,,-0.00390625,-1.25,1.32421875,0.296875,0.75,0.099609375,-0.03515625,-10.8359375,2.61328125,1.0
607713,,,,,,,,-0.67578125,-0.5234375,1.30078125,0.25390625,0.890625,0.041015625,-0.72265625,-10.109375,2.61328125,1.0
607714,,,,,,,,-1.00390625,-0.41796875,1.23046875,0.3125,0.939453125,-0.04296875,-1.06640625,-9.99609375,2.57421875,1.0
607715,,,,,,,,-0.8515625,-0.109375,0.59375,0.462890625,0.904296875,-0.12890625,-0.9140625,-9.6875,2.0,1.0
607716,,,,,,,,-0.57421875,0.15625,0.0546875,0.416015625,0.826171875,-0.1953125,-0.64453125,-9.42578125,1.5,1.0
607717,,,,,,,,-0.1640625,0.6875,-0.4375,0.28125,0.8671875,-0.23046875,-0.2265625,-8.88671875,1.0390625,1.0
607718,,,,,,,,-0.140625,1.4140625,-0.34375,0.16796875,0.9140625,-0.232421875,-0.1875,-8.16015625,1.15625,1.0
607719,,,,,,,,-0.29296875,1.7265625,-0.3203125,0.13671875,0.908203125,-0.224609375,-0.33984375,-7.8515625,1.1953125,1.0
607720,36.013205666666664,129.3192295,56.748577281048654,89.39634272683946,1.2000000000000002,240.0,,-0.69140625,2.48828125,-0.66015625,0.123046875,0.89453125,-0.220703125,-0.72265625,-7.08203125,0.88671875,1.0
607721,,,,,,,,-0.62890625,2.90625,-0.58984375,0.013671875,0.94140625,-0.205078125,-0.64453125,-6.66796875,0.96484375,1.0
607722,,,,,,,,-0.77734375,3.14453125,-0.63671875,0.029296875,0.98046875,-0.203125,-0.80078125,-6.43359375,0.92578125,1.0
607723,,,,,,,,-0.890625,3.14453125,-0.63671875,0.041015625,0.98046875,-0.20703125,-0.9140625,-6.43359375,0.92578125,1.0
607724,,,,,,,,-1.359375,3.22265625,-0.8671875,0.048828125,0.96875,-0.2265625,-1.375,-6.35546875,0.6953125,1.0
607725,,,,,,,,-1.40625,3.13671875,-0.8359375,0.060546875,0.95703125,-0.248046875,-1.4140625,-6.43359375,0.734375,1.0
607726,,,,,,,,-1.56640625,3.1015625,-0.98828125,0.06640625,0.943359375,-0.255859375,-1.56640625,-6.46875,0.58203125,1.0
607727,,,,,,,,-1.6484375,2.984375,-1.11328125,0.08203125,0.91015625,-0.2890625,-1.640625,-6.5859375,0.46484375,1.0
607728,,,,,,,,-1.65625,2.87109375,-1.12109375,0.091796875,0.904296875,-0.298828125,-1.640625,-6.6953125,0.46484375,1.0
607729,,,,,,,,-1.59765625,2.44921875,-1.05078125,0.115234375,0.880859375,-0.3125,-1.56640625,-7.12109375,0.54296875,1.0
607730,36.013205166666665,129.31922833333334,56.643404209660616,89.34086242465754,1.1,241.0,,-1.56640625,2.37109375,-0.9453125,0.13671875,0.875,-0.32421875,-1.52734375,-7.1953125,0.65625,1.0
607731,,,,,,,,-1.4296875,2.1328125,-0.578125,0.162109375,0.857421875,-0.3125,-1.375,-7.43359375,1.0390625,1.0
607732,,,,,,,,-1.3671875,2.2109375,-0.59375,0.158203125,0.857421875,-0.306640625,-1.296875,-7.35546875,1.0390625,1.0
607733,,,,,,,,-1.4140625,2.2890625,-0.68359375,0.12109375,0.82421875,-0.296875,-1.3359375,-7.2734375,0.96484375,1.0
607734,,,,,,,,-1.61328125,2.35546875,-0.9296875,0.0859375,0.822265625,-0.2734375,-1.52734375,-7.1953125,0.734375,1.0
607735,,,,,,,,-1.69921875,2.15625,-1.12109375,0.033203125,0.810546875,-0.24609375,-1.60546875,-7.39453125,0.54296875,1.0
607736,,,,,,,,-1.66796875,1.6953125,-1.16796875,0.052734375,0.8046875,-0.224609375,-1.56640625,-7.8515625,0.50390625,1.0
607737,,,,,,,,-1.59765625,1.27734375,-1.12890625,0.078125,0.794921875,-0.21484375,-1.48828125,-8.265625,0.54296875,1.0
607738,,,,,,,,-1.53125,0.5390625,-0.9921875,0.1875,0.724609375,-0.212890625,-1.4140625,-9.00390625,0.6953125,1.0
607739,,,,,,,,-1.56640625,0.2734375,-0.9296875,0.220703125,0.701171875,-0.21484375,-1.44921875,-9.265625,0.7734375,1.0
607740,36.013205,129.31922716666668,56.53823089923716,89.32236853970208,1.1,244.0,,-1.61328125,-0.28125,-0.53125,0.16015625,0.62109375,-0.21484375,-1.48828125,-9.8046875,1.1953125,1.0
607741,,,,,,,,-1.67578125,-0.47265625,-0.86328125,0.025390625,0.505859375,-0.21484375,-1.52734375,-9.9921875,0.88671875,1.0
607742,,,,,,,,-1.60546875,-0.203125,-0.85546875,-0.021484375,0.453125,-0.2109375,-1.44921875,-9.7265625,0.88671875,1.0
607743,,,,,,,,-1.26953125,-0.1328125,-0.77734375,-0.00390625,0.41015625,-0.212890625,-1.10546875,-9.65234375,0.96484375,1.0
607744,,,,,,,,-1.1328125,-0.25,-0.703125,0.044921875,0.373046875,-0.21484375,-0.953125,-9.76953125,1.0390625,1.0
607745,,,,,,,,-1.03515625,-0.671875,-0.82421875,0.076171875,0.34375,-0.21484375,-0.83984375,-10.19140625,0.92578125,1.0
607746,,,,,,,,-0.95703125,-0.71875,-0.90234375,0.078125,0.341796875,-0.212890625,-0.76171875,-10.2265625,0.84765625,1.0
607747,,,,,,,,-0.93359375,-0.79296875,-1.1015625,0.037109375,0.3046875,-0.20703125,-0.72265625,-10.30078125,0.65625,1.0
607748,,,,,,,,-0.89453125,-0.75390625,-1.17578125,0.021484375,0.287109375,-0.193359375,-0.68359375,-10.2578125,0.58203125,1.0
607749,,,,,,,,-0.90234375,-0.79296875,-1.3203125,-0.041015625,0.283203125,-0.1875,-0.68359375,-10.296875,0.4296875,1.0
607750,36.01320483333333,129.31922566666665,56.403008035033615,89.30387446250278,1.2000000000000002,253.0,,-0.8359375,-0.79296875,-1.3984375,-0.052734375,0.27734375,-0.1875,-0.609375,-10.30078125,0.3515625,1.0
607751,,,,,,,,-0.8046875,-0.83203125,-1.58203125,-0.099609375,0.291015625,-0.171875,-0.5703125,-10.33984375,0.16015625,1.0
607752,,,,,,,,-1.00390625,-0.2265625,-1.34375,-0.1484375,0.296875,-0.158203125,-0.76171875,-9.73046875,0.390625,1.0
607753,,,,,,,,-1.234375,0.01171875,-1.296875,-0.17578125,0.30078125,-0.16015625,-0.9921875,-9.49609375,0.4296875,1.0
607754,,,,,,,,-2.046875,0.70703125,-1.046875,-0.244140625,0.318359375,-0.15234375,-1.796875,-8.8046875,0.65625,1.0
607755,,,,,,,,-2.62890625,1.0078125,-0.8671875,-0.322265625,0.345703125,-0.138671875,-2.37109375,-8.50390625,0.8125,1.0
607756,,,,,,,,-2.67578125,0.74609375,-1.25,-0.390625,0.373046875,-0.107421875,-2.41015625,-8.76953125,0.390625,1.0
607757,,,,,,,,-2.27734375,0.41015625,-1.3203125,-0.439453125,0.37890625,-0.076171875,-2.02734375,-9.11328125,0.2734375,1.0
607758,,,,,,,,-2.0078125,0.1796875,-1.265625,-0.43359375,0.3828125,-0.06640625,-1.7578125,-9.34765625,0.3125,1.0
607759,,,,,,,,-0.3203125,-1.26953125,-0.08984375,-0.400390625,0.3359375,-0.046875,-0.0703125,-10.80078125,1.42578125,1.0
607760,36.01320483333333,129.31922416666666,56.26778505450825,89.30387359556279,1.3,260.0,,2.2890625,-4.859375,1.82421875,-0.052734375,0.27734375,-0.1875,-0.609375,-10.30078125,0.3515625,1.0
607761,,,,,,,,4.828125,-10.140625,3.375,-0.59765625,0.16015625,0.005859375,5.0625,-19.6875,4.796875,1.0
607762,,,,,,,,5.33984375,-12.23046875,4.31640625,-0.904296875,0.041015625,0.09765625,5.55859375,-21.7890625,5.63671875,1.0
607763,,,,,,,,5.1171875,-7.1953125,5.21484375,-1.029296875,-0.076171875,0.154296875,5.328125,-16.7734375,6.44140625,1.0
607764,,,,,,,,2.95703125,-1.85546875,3.25,-1.15234375,-0.126953125,0.208984375,3.14453125,-11.4453125,4.375,1.0
607765,,,,,,,,1.75,-1.45703125,3.48046875,-1.201171875,0.08984375,0.185546875,1.921875,-11.0625,4.48828125,1.0
607766,,,,,,,,-0.42578125,-1.6875,3.99609375,-1.107421875,0.263671875,0.140625,-0.26171875,-11.30078125,4.94921875,1.0
607767,,,,,,,,-1.1015625,-2.09375,3.73828125,-0.59765625,0.587890625,0.072265625,-0.953125,-11.72265625,4.60546875,1.0
607768,,,,,,,,-0.6640625,-0.9375,1.8359375,0.21875,0.642578125,0.060546875,-0.53125,-10.5703125,2.6875,1.0
607769,,,,,,,,-0.01171875,-0.1328125,0.85546875,1.046875,0.833984375,-0.17578125,0.12109375,-9.76953125,1.76953125,1.0
607770,36.01320483333333,129.31922283333333,56.147586848531304,89.30387282624902,1.2000000000000002,264.0,,0.24609375,0.85546875,-0.2421875,-0.052734375,0.27734375,-0.1875,0.38671875,-8.76953125,0.7734375,1.0
607771,,,,,,,,0.19140625,1.18359375,-0.16796875,0.703125,0.646484375,-0.21875,0.34765625,-8.42578125,0.92578125,1.0
607772,,,,,,,,-0.07421875,0.91796875,0.71875,0.6015625,0.5078125,-0.05078125,0.08203125,-8.6875,1.8828125,1.0
607773,,,,,,,,-0.234375,0.609375,0.83203125,0.5859375,0.505859375,0.0078125,-0.0703125,-9.00390625,2.03515625,1.0
607774,,,,,,,,-0.78515625,0.609375,0.39453125,0.560546875,0.55078125,0.111328125,-0.64453125,-9.0,1.65234375,1.0
607775,,,,,,,,-0.87109375,1.29296875,-0.01171875,0.25390625,0.720703125,0.16796875,-0.76171875,-8.3046875,1.30859375,1.0
607776,,,,,,,,-0.5546875,1.75,-0.01171875,-0.1953125,0.83984375,0.291015625,-0.4921875,-7.8515625,1.30859375,1.0
607777,,,,,,,,-0.31640625,1.875,-0.0625,-0.22265625,0.904296875,0.30859375,-0.30078125,-7.73828125,1.234375,1.0
607778,,,,,,,,-0.29296875,1.875,-0.0546875,-0.16015625,0.853515625,0.314453125,-0.26171875,-7.69921875,1.078125,1.0
607779,,,,,,,,-0.21484375,1.953125,-0.31640625,-0.177734375,0.80078125,0.310546875,-0.1875,-7.43359375,0.84765625,1.0
607780,36.01320483333333,129.31922183333333,56.057438194238145,89.30387225058803,1.1,265.0,,-0.015625,2.3046875,-0.4453125,-0.21875,0.771484375,0.275390625,-0.109375,-7.15625,0.6953125,1.0
607781,,,,,,,,0.21484375,2.7265625,-0.69921875,-0.119140625,0.796875,0.197265625,0.234375,-6.8515625,0.50390625,1.0
607782,,,,,,,,0.40625,2.76953125,-0.70703125,-0.041015625,0.81640625,0.19140625,0.3125,-6.81640625,0.58203125,1.0
607783,,,,,,,,0.5,2.80859375,-0.61328125,0.046875,0.8671875,0.16796875,0.3125,-6.890625,0.54296875,1.0
607784,,,,,,,,0.5546875,2.734375,-0.65234375,0.068359375,0.890625,0.16015625,0.3125,-6.9296875,0.50390625,1.0
607785,,,,,,,,0.546875,2.609375,-0.78125,0.095703125,0.947265625,0.138671875,0.234375,-7.046875,0.390625,1.0
607786,,,,,,,,0.4921875,2.41796875,-0.8671875,0.130859375,0.986328125,0.109375,0.12109375,-7.2734375,0.3515625,1.0
607787,,,,,,,,0.43359375,2.34375,-0.8671875,0.150390625,0.994140625,0.103515625,0.04296875,-7.43359375,0.390625,1.0
607788,,,,,,,,0.29296875,1.9609375,-0.76953125,0.189453125,0.98828125,0.0546875,-0.1484375,-7.734375,0.54296875,1.0
607789,,,,,,,,0.1875,1.8828125,-0.69140625,0.2109375,0.9765625,0.0390625,-0.26171875,-7.8515625,0.62109375,1.0
607790,36.01320466666667,129.3192205,55.93724010622633,89.28537827732438,1.1,265.0,,-0.27734375,1.59765625,-0.63671875,0.212890625,0.947265625,-0.005859375,-0.64453125,-8.00390625,0.62109375,1.0
607791,,,,,,,,-0.30859375,1.40625,-0.69140625,0.173828125,0.927734375,-0.037109375,-0.68359375,-8.1953125,0.58203125,1.0
607792,,,,,,,,-0.30078125,1.21484375,-0.77734375,0.138671875,0.9140625,-0.052734375,-0.68359375,-8.38671875,0.50390625,1.0
607793,,,,,,,,-0.26171875,0.83203125,-0.859375,0.068359375,0.900390625,-0.087890625,-0.64453125,-8.76953125,0.4296875,1.0
607794,,,,,,,,-0.140625,0.671875,-0.859375,0.072265625,0.8828125,-0.091796875,-0.53125,-8.92578125,0.4296875,1.0
607795,,,,,,,,-0.01953125,0.5546875,-0.82421875,0.078125,0.849609375,-0.103515625,-0.41796875,-9.0390625,0.46484375,1.0
607796,,,,,,,,0.01953125,0.44140625,-0.90625,0.087890625,0.8203125,-0.099609375,-0.41796875,-9.11328125,0.3515625,1.0
607797,,,,,,,,-0.0546875,0.51953125,-0.9453125,0.08984375,0.7890625,-0.091796875,-0.453125,-9.07421875,0.3515625,1.0
607798,,,,,,,,-0.24609375,0.6328125,-0.875,0.064453125,0.732421875,-0.080078125,-0.64453125,-8.9609375,0.4296875,1.0
607799,,,,,,,,-0.27734375,0.546875,-0.83203125,0.041015625,0.708984375,-0.060546875,-0.68359375,-9.04296875,0.46484375,1.0
607800,36.01320483333333,129.319219,55.80201700771167,89.30387062425515,1.2000000000000002,268.0,0.0,-0.35546875,0.203125,-0.4921875,0.212890625,0.947265625,-0.005859375,-0.64453125,-8.00390625,0.62109375,1.0
607801,,,,,,,,-0.30859375,0.12890625,-0.30859375,0.10546875,0.6015625,-0.033203125,-0.72265625,-9.45703125,1.00390625,1.0
607802,,,,,,,,-0.30078125,0.12109375,-0.30859375,0.12109375,0.572265625,-0.025390625,-0.68359375,-9.3828125,0.92578125,1.0
607803,,,,,,,,-0.22265625,0.234375,-0.43359375,0.123046875,0.5859375,0.01171875,-0.609375,-9.2265625,0.7734375,1.0
607804,,,,,,,,0.01953125,0.50390625,-0.74609375,0.09375,0.572265625,0.0390625,-0.41796875,-9.0703125,0.58203125,1.0
607805,,,,,,,,0.21875,0.5703125,-0.90625,0.08203125,0.560546875,0.0703125,-0.2265625,-9.00390625,0.4296875,1.0
607806,,,,,,,,0.265625,0.49609375,-1.0625,0.08203125,0.560546875,0.083984375,-0.1875,-9.07421875,0.2734375,1.0
607807,,,,,,,,-0.30859375,-0.31640625,-0.9140625,0.103515625,0.52734375,0.103515625,-0.80078125,-9.87890625,0.4296875,1.0
607808,,,,,,,,-0.66796875,-0.546875,-0.73046875,0.03515625,0.47265625,0.109375,-1.18359375,-10.109375,0.62109375,1.0
607809,,,,,,,,-0.62109375,-0.40234375,-0.6171875,-0.015625,0.462890625,0.109375,-1.14453125,-9.95703125,0.734375,1.0
607810,36.01320483333333,129.31921766666667,55.68181880259235,89.30386986160642,1.2000000000000002,271.0,,0.0078125,0.09765625,-0.6015625,0.212890625,0.947265625,-0.005859375,-0.53125,-9.45703125,0.734375,1.0
607811,,,,,,,,0.51171875,0.2109375,-0.84765625,-0.27734375,0.380859375,0.0546875,-0.03515625,-9.34375,0.46484375,1.0
607812,,,,,,,,1.33203125,-0.47265625,-1.16015625,-0.3671875,0.32421875,0.017578125,0.76953125,-10.03515625,0.12109375,1.0
607813,,,,,,,,1.33984375,-0.77734375,-0.99609375,-0.416015625,0.265625,0.0,0.76953125,-10.33984375,0.23828125,1.0
607814,,,,,,,,1.37890625,-2.26171875,-0.61328125,-0.4375,0.234375,0.0,0.80859375,-11.828125,0.58203125,1.0
607815,,,,,,,,0.99609375,-4.0625,0.6875,-0.419921875,0.259765625,0.0078125,0.42578125,-13.63671875,1.84375,1.0
607816,,,,,,,,-0.48828125,-6.77734375,1.73046875,-0.498046875,0.34765625,0.0234375,-1.06640625,-16.3515625,2.83984375,1.0
607817,,,,,,,,-2.04296875,-8.26171875,2.33203125,-0.66796875,0.484375,0.03125,-2.63671875,-17.84375,3.37890625,1.0
607818,,,,,,,,-3.1953125,-7.48828125,3.82421875,-0.7578125,0.55859375,0.0234375,-3.7890625,-17.078125,4.83203125,1.0
607819,,,,,,,,-3.22265625,-4.5703125,4.36328125,-0.845703125,0.650390625,0.00390625,-3.82421875,-14.171875,5.29296875,1.0
607820,36.013205,129.31921599999998,55.5315709253091,89.32236211862842,1.3,273.0,,-1.4609375,-2.953125,2.41796875,-0.859375,0.8046875,-0.08984375,-2.0625,-12.56640625,3.22265625,1.0
607821,,,,,,,,0.9140625,-4.36328125,2.63671875,-0.916015625,0.833984375,-0.150390625,0.3125,-13.9765625,3.33984375,1.0
607822,,,,,,,,1.48046875,-4.421875,3.09765625,-0.58203125,0.576171875,-0.119140625,0.88671875,-14.0546875,3.68359375,1.0
607823,,,,,,,,0.78125,-2.8125,2.86328125,-0.015625,0.40234375,-0.115234375,0.1953125,-12.44921875,3.41796875,1.0
607824,,,,,,,,0.27734375,-1.88671875,2.109375,0.310546875,0.357421875,0.001953125,-0.30078125,-11.5234375,2.6875,1.0
607825,,,,,,,,-0.12890625,-0.77734375,1.16015625,0.2421875,0.931640625,0.078125,-0.72265625,-10.4140625,1.76953125,1.0
607826,,,,,,,,-0.390625,-0.578125,0.9921875,0.25390625,1.10546875,0.087890625,-0.9921875,-10.2265625,1.6171875,1.0
607827,,,,,,,,-0.6875,-0.73828125,1.3125,0.404296875,1.310546875,0.02734375,-1.296875,-10.375,1.9609375,1.0
607828,,,,,,,,-1.171875,-0.66015625,1.89453125,0.755859375,1.3125,-0.091796875,-1.796875,-10.30078125,2.61328125,1.0
607829,,,,,,,,-1.28515625,-0.1640625,1.5546875,0.78515625,1.20703125,-0.181640625,-1.91015625,-9.80859375,2.34375,1.0
607830,36.013205166666665,129.31921483333332,55.42639738018336,89.34085466199814,1.3,274.0,,-1.21875,0.98828125,0.6484375,0.560546875,1.123046875,-0.23046875,-2.0625,-12.56640625,3.22265625,1.0
607831,,,,,,,,-1.01171875,2.44140625,-0.31640625,0.2109375,1.0625,-0.25390625,-1.60546875,-7.1953125,0.58203125,1.0
607832,,,,,,,,-0.94921875,2.6328125,-0.40234375,0.197265625,1.025390625,-0.25390625,-1.52734375,-7.01171875,0.50390625,1.0
607833,,,,,,,,-0.56640625,3.21484375,-0.4921875,0.302734375,0.97265625,-0.255859375,-1.14453125,-6.43359375,0.4296875,1.0
607834,,,,,,,,-0.4609375,3.3984375,-0.39453125,0.380859375,0.955078125,-0.267578125,-1.03125,-6.24609375,0.54296875,1.0
607835,,,,,,,,-0.61328125,3.4765625,-0.15234375,0.44140625,0.984375,-0.234375,-1.14453125,-6.16796875,0.88671875,1.0
607836,,,,,,,,-0.890625,3.4765625,-0.20703125,0.400390625,1.001953125,-0.23046875,-1.4140625,-6.16796875,0.84765625,1.0
607837,,,,,,,,-1.2421875,3.32421875,-0.3203125,0.2890625,0.96875,-0.2265625,-1.7578125,-6.3125,0.7734375,1.0
607838,,,,,,,,-1.2890625,3.23828125,-0.3671875,0.2734375,0.955078125,-0.21875,-1.796875,-6.390625,0.734375,1.0
607839,,,,,,,,-1.37109375,2.96875,-0.49609375,0.240234375,0.904296875,-0.21484375,-1.87109375,-6.66796875,0.62109375,1.0
607840,36.01320533333333,129.31921383333335,55.336248612127804,89.3593473017797,1.0,276.0,,-1.45703125,2.85546875,-0.55078125,0.560546875,1.123046875,-0.23046875,-2.0625,-12.56640625,3.22265625,1.0
607841,,,,,,,,-1.6171875,2.51171875,-0.53515625,0.30859375,0.8359375,-0.24609375,-2.1015625,-7.1171875,0.62109375,1.0
607842,,,,,,,,-1.625,2.51171875,-0.54296875,0.34375,0.806640625,-0.248046875,-2.0625,-7.1953125,0.65625,1.0
607843,,,,,,,,-1.56640625,2.234375,-0.4453125,0.396484375,0.703125,-0.26171875,-2.02734375,-7.39453125,0.7734375,1.0
607844,,,,,,,,-1.390625,2.08203125,-0.32421875,0.3671875,0.61328125,-0.248046875,-1.8359375,-7.54296875,0.92578125,1.0
607845,,,,,,,,-1.25,1.9609375,-0.43359375,0.306640625,0.560546875,-0.240234375,-1.6796875,-7.66015625,0.84765625,1.0
607846,,,,,,,,-1.06640625,1.875,-0.4921875,0.25390625,0.533203125,-0.212890625,-1.48828125,-7.734375,0.8125,1.0
607847,,,,,,,,-0.8515625,1.953125,-0.70703125,0.2421875,0.505859375,-0.1796875,-1.2578125,-7.65625,0.62109375,1.0
607848,,,,,,,,-0.66796875,1.828125,-1.0546875,0.22265625,0.44140625,-0.12890625,-1.06640625,-7.77734375,0.3125,1.0
607849,,,,,,,,-0.6328125,1.75,-1.09375,0.21484375,0.41796875,-0.111328125,-1.03125,-7.8515625,0.2734375,1.0
607850,36.01320533333333,129.3192125,55.21605040524487,89.3593465456427,1.0,278.0,,-0.515625,1.40625,-1.0390625,0.560546875,1.123046875,-0.23046875,-0.9140625,-8.1953125,0.3515625,1.0
607851,,,,,,,,-0.484375,1.3515625,-1.0546875,0.2109375,0.390625,-0.091796875,-0.875,-8.421875,0.50390625,1.0
607852,,,,,,,,-0.44140625,1.046875,-0.88671875,0.19921875,0.388671875,-0.09765625,-0.875,-8.54296875,0.58203125,1.0
607853,,,,,,,,-0.484375,1.0390625,-0.82421875,0.150390625,0.37109375,-0.10546875,-0.875,-8.5,0.65625,1.0
607854,,,,,,,,-0.5625,1.078125,-0.796875,0.08203125,0.357421875,-0.123046875,-0.953125,-8.50390625,0.62109375,1.0
607855,,,,,,,,-0.6015625,1.0390625,-0.83984375,0.025390625,0.34765625,-0.146484375,-1.06640625,-8.6171875,0.6953125,1.0
607856,,,,,,,,-0.80078125,0.91796875,-0.7265625,-0.00390625,0.33984375,-0.177734375,-1.22265625,-8.765625,0.734375,1.0
607857,,,,,,,,-0.921875,0.6875,-0.7265625,-0.015625,0.33984375,-0.208984375,-1.375,-9.07421875,0.6953125,1.0
607858,,,,,,,,-1.0546875,0.37890625,-0.8046875,-0.009765625,0.330078125,-0.2421875,-1.44921875,-9.3046875,0.65625,1.0
607859,,,,,,,,-1.0703125,0.11328125,-0.87109375,0.005859375,0.33203125,-0.267578125,-1.375,-9.57421875,0.54296875,1.0
607860,36.01320583333334,129.31921150000002,55.12590140477218,89.41482560227203,1.0,287.0,,-0.984375,-0.04296875,-0.87109375,-0.01171875,0.33984375,-0.296875,-1.22265625,-9.6875,0.58203125,1.0
607861,,,,,,,,-0.6953125,-0.42578125,-0.90234375,-0.0390625,0.330078125,-0.3046875,-0.875,-10.19140625,0.50390625,1.0
607862,,,,,,,,-0.59375,-0.6171875,-0.94140625,-0.05078125,0.318359375,-0.3046875,-0.4921875,-10.61328125,0.390625,1.0
607863,,,,,,,,0.03125,-1.19921875,-1.078125,-0.10546875,0.27734375,-0.2734375,0.04296875,-10.640625,0.2734375,1.0
607864,,,,,,,,0.26953125,-1.07421875,-1.1484375,-0.125,0.26953125,-0.265625,0.08203125,-10.4921875,0.23828125,1.0
607865,,,,,,,,0.28515625,-0.76953125,-1.19921875,-0.20703125,0.265625,-0.224609375,-0.30078125,-9.9921875,0.23828125,1.0
607866,,,,,,,,-0.56640625,-0.30859375,-1.14453125,-0.26171875,0.298828125,-0.193359375,-0.76171875,-9.87890625,0.23828125,1.0
607867,,,,,,,,-0.8515625,-0.34765625,-1.09375,-0.275390625,0.32421875,-0.173828125,-1.03125,-9.91796875,0.2734375,1.0
607868,,,,,,,,-1.31640625,-0.6171875,-0.9921875,-0.298828125,0.376953125,-0.14453125,-1.48828125,-10.19140625,0.3515625,1.0
607869,,,,,,,,-1.46875,-0.84765625,-0.9375,-0.30078125,0.3984375,-0.126953125,-1.640625,-10.4140625,0.390625,1.0
607870,36.01320616666667,129.31921033333336,55.020727744834204,89.45181135833649,1.0,292.0,,-1.5625,-2.33203125,-1.12109375,-0.25,0.46875,-0.107421875,-1.22265625,-9.6875,0.58203125,1.0
607871,,,,,,,,-0.828125,-3.015625,-0.484375,-0.224609375,0.546875,-0.1171875,-0.9921875,-12.60546875,0.7734375,1.0
607872,,,,,,,,-0.328125,-3.12890625,0.19921875,-0.271484375,0.53515625,-0.10546875,-0.4921875,-12.7109375,1.42578125,1.0
607873,,,,,,,,0.3125,-3.58984375,0.8046875,-0.40234375,0.462890625,-0.087890625,0.15625,-13.171875,2.0,1.0
607874,,,,,,,,1.5390625,-5.34375,1.1953125,-0.603515625,0.375,-0.064453125,1.3828125,-14.94140625,2.34375,1.0
607875,,,,,,,,2.421875,-5.05859375,2.64453125,-0.75,0.32421875,0.01171875,2.265625,-14.66796875,3.72265625,1.0
607876,,,,,,,,2.484375,-3.7109375,3.09765625,-0.767578125,0.333984375,0.07421875,2.3046875,-13.328125,4.10546875,1.0
607877,,,,,,,,1.45703125,-2.859375,3.13671875,-0.724609375,0.34765625,0.126953125,1.26953125,-12.48828125,4.06640625,1.0
607878,,,,,,,,1.1953125,-2.8203125,3.28515625,-0.728515625,0.365234375,0.166015625,1.0,-12.44921875,4.18359375,1.0
607879,,,,,,,,0.0703125,-2.46875,3.9765625,-0.767578125,0.447265625,0.1640625,-0.1484375,-12.10546875,4.796875,1.0
607880,36.013207,129.31920916666667,54.91555373631857,89.54427673784582,1.2000000000000002,300.0,,-0.48046875,-2.3828125,3.625,-0.25,0.46875,-0.107421875,-1.22265625,-9.6875,0.58203125,1.0
607881,,,,,,,,-0.6953125,-1.96484375,2.4375,-0.09765625,0.673828125,0.095703125,-0.953125,-11.6015625,3.1484375,1.0
607882,,,,,,,,-0.2265625,-1.3515625,1.38671875,0.3046875,0.681640625,-0.01953125,-0.4921875,-10.99609375,2.11328125,1.0
607883,,,,,,,,0.0859375,-0.8046875,0.88671875,0.49609375,0.578125,-0.08203125,-0.1875,-10.453125,1.65234375,1.0
607884,,,,,,,,0.0390625,-0.578125,0.94921875,0.654296875,0.46484375,-0.1328125,-0.2265625,-10.23046875,1.76953125,1.0
607885,,,,,,,,-0.04296875,-0.69921875,1.26171875,0.78125,0.392578125,-0.111328125,-0.30078125,-10.33984375,2.15234375,1.0
607886,,,,,,,,-0.203125,-0.74609375,1.421875,0.77734375,0.376953125,-0.087890625,-0.453125,-10.37890625,2.3828125,1.0
607887,,,,,,,,-0.359375,-0.74609375,1.3828125,0.650390625,0.431640625,-0.037109375,-0.609375,-10.375,2.421875,1.0
607888,,,,,,,,-0.57421875,-0.33203125,1.08984375,0.353515625,0.46484375,0.107421875,-0.83984375,-9.95703125,2.19140625,1.0
607889,,,,,,,,-0.28125,0.16796875,0.60546875,0.1953125,0.443359375,0.189453125,-0.5703125,-9.45703125,1.73046875,1.0
607890,36.013207666666666,129.319208,54.810379847469875,89.61824891079348,1.3,303.0,,-0.02734375,0.6328125,0.16015625,0.107421875,0.443359375,0.2109375,-0.33984375,-9.00390625,1.30859375,1.0
607891,,,,,,,,-0.03515625,0.97265625,0.0,0.09375,0.46875,0.21875,-0.37890625,-8.6484375,1.15625,1.0
607892,,,,,,,,-0.05859375,1.35546875,-0.046875,0.11328125,0.4765625,0.216796875,-0.41796875,-8.265625,1.1171875,1.0
607893,,,,,,,,-0.26171875,1.890625,-0.20703125,0.162109375,0.421875,0.189453125,-0.64453125,-7.734375,0.96484375,1.0
607894,,,,,,,,-0.31640625,2.6171875,-0.25390625,0.1796875,0.33203125,0.146484375,-0.72265625,-7.01171875,0.92578125,1.0
607895,,,,,,,,-0.22265625,2.84765625,-0.390625,0.2109375,0.298828125,0.1015625,-0.64453125,-6.7734375,0.8125,1.0
607896,,,,,,,,-0.0625,2.9609375,-0.37109375,0.21875,0.296875,0.083984375,-0.4921875,-6.66796875,0.84765625,1.0
607897,,,,,,,,0.296875,2.91796875,-0.25390625,0.2421875,0.384765625,0.044921875,-0.1484375,-6.69921875,1.00390625,1.0
607898,,,,,,,,0.54296875,2.91796875,-0.0859375,0.22265625,0.4296875,0.0546875,0.08203125,-6.69921875,1.1953125,1.0
607899,,,,,,,,0.625,2.87890625,-0.09375,0.201171875,0.43359375,0.0703125,0.15625,-6.73828125,1.1953125,1.0
607900,36.013208166666665,129.31920683333334,54.705206077862655,89.67372787773824,1.1,303.0,0.0,0.796875,2.75390625,-0.109375,0.13671875,0.482421875,0.087890625,0.46484375,-7.05078125,1.234375,1.0
607901,,,,,,,,1.00390625,2.48828125,-0.05078125,0.115234375,0.529296875,0.08984375,0.6171875,-7.15625,1.26953125,1.0
607902,,,,,,,,1.125,2.44921875,-0.05078125,0.115234375,0.5546875,0.09375,0.65625,-7.27734375,1.1953125,1.0
607903,,,,,,,,1.06640625,2.2578125,-0.1328125,0.123046875,0.58203125,0.076171875,0.46484375,-7.39453125,1.15625,1.0
607904,,,,,,,,0.89453125,2.171875,-0.15625,0.15234375,0.5703125,0.02734375,0.15625,-7.4609375,1.15625,1.0
607905,,,,,,,,0.59765625,2.05078125,-0.203125,0.142578125,0.560546875,-0.013671875,-0.03515625,-7.6171875,1.1171875,1.0
607906,,,,,,,,0.51953125,1.97265625,-0.25,0.15234375,0.5625,-0.03125,-0.0703125,-7.65625,1.1171875,1.0
607907,,,,,,,,0.5,1.8984375,-0.37109375,0.138671875,0.576171875,-0.0625,-0.03515625,-7.77734375,0.96484375,1.0
607908,,,,,,,,0.53515625,1.7421875,-0.46484375,0.130859375,0.599609375,-0.095703125,0.00390625,-8.0390625,0.7734375,1.0
607909,,,,,,,,0.57421875,1.55078125,-0.6171875,0.1328125,0.60546875,-0.103515625,-0.0703125,-8.1171875,0.6953125,1.0
607910,36.013208999999996,129.31920566666668,54.60003207773905,89.76619326127776,1.2000000000000002,306.0,,0.796875,2.75390625,-0.109375,0.13671875,0.482421875,0.087890625,-0.109375,-8.1953125,0.58203125,1.0
607911,,,,,,,,0.3359375,1.3828125,-0.83203125,0.09765625,0.599609375,-0.119140625,-0.2265625,-8.19921875,0.62109375,1.0
607912,,,,,,,,0.26171875,1.421875,-0.7265625,0.08203125,0.611328125,-0.099609375,-0.2265625,-8.1953125,0.734375,1.0
607913,,,,,,,,0.3359375,1.23046875,-0.6484375,0.04296875,0.630859375,-0.09375,-0.2265625,-8.34765625,0.7734375,1.0
607914,,,,,,,,0.4140625,0.88671875,-0.765625,0.017578125,0.66015625,-0.083984375,-0.1484375,-8.6875,0.65625,1.0
607915,,,,,,,,0.453125,0.6875,-0.7265625,-0.013671875,0.671875,-0.078125,-0.109375,-8.88671875,0.6953125,1.0
607916,,,,,,,,0.375,0.6484375,-0.71875,-0.01171875,0.685546875,-0.076171875,-0.1875,-8.92578125,0.6953125,1.0
607917,,,,,,,,0.421875,0.6015625,-0.640625,-0.01171875,0.689453125,-0.072265625,-0.1484375,-8.9609375,0.7734375,1.0
607918,,,,,,,,0.421875,0.33984375,-0.6328125,-0.025390625,0.6953125,-0.048828125,-0.1484375,-9.2265625,0.7734375,1.0
607919,,,,,,,,0.390625,-0.078125,-0.65625,-0.087890625,0.697265625,-0.015625,-0.1875,-9.6484375,0.734375,1.0
607920,36.01320966666666,129.31920483333334,54.52490774352134,89.84016562535172,1.1,308.0,,0.32421875,-0.546875,-0.5703125,-0.123046875,0.71484375,0.001953125,-0.26171875,-10.11328125,0.8125,1.0
607921,,,,,,,,0.1484375,-0.96875,-0.51171875,-0.146484375,0.71875,0.01953125,-0.453125,-10.53125,0.84765625,1.0
607922,,,,,,,,0.078125,-1.12109375,-0.45703125,-0.18359375,0.7265625,0.02734375,-0.53125,-10.68359375,0.88671875,1.0
607923,,,,,,,,0.32421875,-1.0078125,-0.34765625,-0.23828125,0.736328125,0.044921875,-0.30078125,-10.57421875,0.96484375,1.0
607924,,,,,,,,0.64453125,-1.11328125,-0.1640625,-0.302734375,0.740234375,0.0390625,0.00390625,-10.6796875,1.1171875,1.0
607925,,,,,,,,0.8515625,-1.6875,0.05859375,-0.34375,0.7265625,0.04296875,0.1953125,-11.26171875,1.30859375,1.0
607926,,,,,,,,0.66796875,-3.4140625,0.25,-0.35546875,0.703125,0.03515625,0.00390625,-12.984375,1.4609375,1.0
607927,,,,,,,,-0.1953125,-5.20703125,1.0625,-0.35546875,0.681640625,0.017578125,-0.875,-14.78515625,2.2265625,1.0
607928,,,,,,,,-0.80078125,-5.7421875,2.0234375,-0.345703125,0.66796875,0.009765625,-1.48828125,-15.32421875,3.1484375,1.0
607929,,,,,,,,-2.01953125,-6.1953125,1.671875,-0.361328125,0.708984375,0.01171875,-2.71484375,-15.78125,2.765625,1.0
607930,36.01321033333333,129.31920383333332,54.434758633547446,89.91413789698177,1.2000000000000002,309.0,,-2.6640625,-4.8515625,2.17578125,-0.439453125,0.845703125,0.01171875,-3.3671875,-14.44140625,3.22265625,1.0
607931,,,,,,,,-2.65625,-2.66015625,2.42578125,-0.548828125,0.98046875,0.03515625,-3.3671875,-12.25390625,3.41796875,1.0
607932,,,,,,,,-1.7578125,-1.54296875,1.7109375,-0.48828125,0.998046875,0.041015625,-2.484375,-11.140625,2.6484375,1.0
607933,,,,,,,,0.76953125,-2.03125,0.7578125,-0.2890625,0.890625,0.076171875,0.00390625,-11.640625,1.6171875,1.0
607934,,,,,,,,1.31640625,-2.68359375,1.5390625,-0.244140625,0.822265625,0.099609375,0.54296875,-12.2890625,2.3828125,1.0
607935,,,,,,,,0.91796875,-2.875,1.8984375,0.26171875,0.73828125,0.08984375,0.12109375,-12.484375,2.7265625,1.0
607936,,,,,,,,0.3125,-2.80078125,1.67578125,0.34375,0.708984375,0.064453125,-0.4921875,-12.40625,2.53515625,1.0
607937,,,,,,,,0.05078125,-2.60546875,1.58203125,0.287109375,0.775390625,0.048828125,-0.76171875,-12.21484375,2.45703125,1.0
607938,,,,,,,,-0.5859375,-1.7734375,1.56640625,0.119140625,0.939453125,0.013671875,-1.4140625,-11.37890625,2.45703125,1.0
607939,,,,,,,,-0.8125,-1.3125,1.5,0.07421875,1.015625,-0.01171875,-1.640625,-10.9140625,2.3828125,1.0
607940,36.013211166666665,129.31920283333332,54.34460941285447,90.0066033767443,1.3,310.0,,-1.0,-0.26171875,1.23046875,0.09765625,1.16015625,-0.076171875,-1.8359375,-9.87890625,2.11328125,1.0
607941,,,,,,,,-1.11328125,0.08203125,1.03125,0.21484375,1.259765625,-0.126953125,-1.94921875,-9.53515625,1.921875,1.0
607942,,,,,,,,-1.3046875,0.16015625,0.86328125,0.28515625,1.279296875,-0.166015625,-2.140625,-9.453125,1.76953125,1.0
607943,,,,,,,,-1.234375,0.16015625,0.953125,0.361328125,1.2265625,-0.1953125,-2.0625,-9.45703125,1.8828125,1.0
607944,,,,,,,,-0.74609375,0.578125,0.73046875,0.45703125,1.177734375,-0.208984375,-1.56640625,-9.0390625,1.69140625,1.0
607945,,,,,,,,-0.33203125,1.26953125,0.2265625,0.521484375,1.1796875,-0.201171875,-1.14453125,-8.34375,1.234375,1.0
607946,,,,,,,,-0.29296875,1.5,0.09375,0.517578125,1.171875,-0.21484375,-1.10546875,-8.12109375,1.1171875,1.0
607947,,,,,,,,-0.2265625,1.99609375,0.015625,0.478515625,1.15234375,-0.197265625,-1.03125,-7.62109375,1.078125,1.0
607948,,,,,,,,-0.4609375,2.6796875,0.0390625,0.462890625,1.111328125,-0.17578125,-1.2578125,-6.93359375,1.15625,1.0
607949,,,,,,,,-0.73046875,3.1015625,0.078125,0.52734375,1.076171875,-0.171875,-1.52734375,-6.5078125,1.234375,1.0
607950,36.013211999999996,129.31920166666666,54.23943542259815,90.09906876461972,1.2000000000000002,311.0,,-0.890625,3.28515625,-0.0078125,0.5546875,1.068359375,-0.171875,-1.6796875,-6.3125,1.1953125,1.0
607951,,,,,,,,-1.08203125,3.4765625,-0.1796875,0.54296875,1.0625,-0.1796875,-1.87109375,-6.125,1.0390625,1.0
607952,,,,,,,,-1.359375,3.125,-0.6015625,0.458984375,1.08203125,-0.21484375,-2.140625,-6.46875,0.6953125,1.0
607953,,,,,,,,-1.3671875,3.046875,-0.6015625,0.451171875,1.048828125,-0.244140625,-2.140625,-6.546875,0.734375,1.0
607954,,,,,,,,-1.48828125,2.50390625,-0.41796875,0.453125,0.978515625,-0.271484375,-2.25390625,-7.078125,0.96484375,1.0
607955,,,,,,,,-1.53515625,2.41796875,-0.41015625,0.451171875,0.921875,-0.296875,-2.29296875,-7.15625,1.00390625,1.0
607956,,,,,,,,-1.54296875,2.11328125,-0.359375,0.4375,0.91015625,-0.296875,-2.29296875,-7.46484375,1.078125,1.0
607957,,,,,,,,-1.52734375,1.7578125,-0.25,0.33984375,0.884765625,-0.29296875,-2.25390625,-7.8125,1.234375,1.0
607958,,,,,,,,-1.57421875,1.64453125,-0.2578125,0.3046875,0.875,-0.28515625,-2.29296875,-7.921875,1.234375,1.0
607959,,,,,,,,-1.54296875,1.55859375,-0.20703125,0.2421875,0.84765625,-0.2578125,-2.25390625,-8.0,1.30859375,1.0
607960,36.013212833333334,129.3192006666667,54.14928620895229,90.19153424695943,1.2000000000000002,314.0,,-1.4765625,1.7109375,-0.2890625,0.5546875,1.068359375,-0.171875,-2.1796875,-7.85546875,1.234375,1.0
607961,,,,,,,,-1.40625,1.8671875,-0.34375,0.181640625,0.794921875,-0.220703125,-2.1015625,-7.69921875,1.1953125,1.0
607962,,,,,,,,-1.26171875,1.93359375,-0.54296875,0.1796875,0.759765625,-0.1953125,-1.94921875,-7.62109375,1.00390625,1.0
607963,,,,,,,,-1.21484375,1.8984375,-0.55859375,0.1875,0.70703125,-0.169921875,-1.91015625,-7.65625,1.00390625,1.0
607964,,,,,,,,-1.26171875,1.50390625,-0.8828125,0.23828125,0.654296875,-0.1484375,-1.94921875,-8.0390625,0.6953125,1.0
607965,,,,,,,,-1.4140625,1.23046875,-0.97265625,0.28125,0.607421875,-0.14453125,-2.1015625,-8.3046875,0.62109375,1.0
607966,,,,,,,,-1.68359375,0.76953125,-0.99609375,0.30078125,0.5546875,-0.146484375,-2.37109375,-8.765625,0.62109375,1.0
607967,,,,,,,,-1.65234375,0.5234375,-0.8828125,0.287109375,0.52734375,-0.150390625,-2.33203125,-9.0,0.7734375,1.0
607968,,,,,,,,-1.5,0.2578125,-0.74609375,0.265625,0.515625,-0.146484375,-2.1796875,-9.265625,0.92578125,1.0
607969,,,,,,,,-1.30859375,0.06640625,-0.41796875,0.220703125,0.498046875,-0.146484375,-1.98828125,-9.45703125,1.26953125,1.0
607970,36.01321383333333,129.31920016666666,54.104211199109926,90.3024932149532,1.2000000000000002,322.0,,-1.0859375,-0.25,-0.27734375,0.5546875,1.068359375,-0.171875,-1.7578125,-9.76953125,1.42578125,1.0
607971,,,,,,,,-1.4765625,-0.296875,-0.37109375,0.021484375,0.314453125,-0.126953125,-2.140625,-9.80859375,1.34765625,1.0
607972,,,,,,,,-1.66796875,-0.41015625,-0.640625,0.015625,0.2890625,-0.130859375,-2.33203125,-9.91796875,1.078125,1.0
607973,,,,,,,,-1.484375,-0.37109375,-0.82421875,0.029296875,0.2109375,-0.134765625,-2.140625,-9.87890625,0.88671875,1.0
607974,,,,,,,,-1.0234375,-0.33984375,-1.0234375,0.05078125,0.21484375,-0.14453125,-1.6796875,-9.83984375,0.6953125,1.0
607975,,,,,,,,-0.6171875,-0.3046875,-1.0625,0.029296875,0.2734375,-0.169921875,-1.2578125,-9.80859375,0.65625,1.0
607976,,,,,,,,-0.50390625,-0.265625,-1.0234375,0.033203125,0.283203125,-0.169921875,-1.14453125,-9.765625,0.6953125,1.0
607977,,,,,,,,-0.3203125,-0.1875,-0.9453125,0.001953125,0.27734375,-0.181640625,-0.953125,-9.6875,0.7734375,1.0
607978,,,,,,,,-0.375,0.1953125,-0.70703125,-0.033203125,0.263671875,-0.181640625,-0.9921875,-9.3046875,1.00390625,1.0
607979,,,,,,,,-0.52734375,0.39453125,-0.6328125,-0.056640625,0.234375,-0.177734375,-1.14453125,-9.11328125,1.078125,1.0
607980,36.01321466666666,129.31919983333333,54.074161082789956,90.3949590671989,1.1,332.0,,-1.1875,1.08203125,-0.27734375,0.5546875,1.068359375,-0.171875,-1.7578125,-9.76953125,1.42578125,1.0
607981,,,,,,,,-2.03515625,1.2734375,-0.24609375,-0.255859375,0.23828125,-0.169921875,-2.63671875,-8.234375,1.42578125,1.0
607982,,,,,,,,-2.08984375,0.96875,-0.79296875,-0.30859375,0.28125,-0.169921875,-2.67578125,-8.5390625,0.84765625,1.0
607983,,,,,,,,-1.484375,0.59375,-1.13671875,-0.318359375,0.3515625,-0.169921875,-2.0625,-8.921875,0.46484375,1.0
607984,,,,,,,,-0.4609375,-0.25,-0.61328125,-0.294921875,0.431640625,-0.171875,-1.03125,-9.765625,0.96484375,1.0
607985,,,,,,,,0.15234375,-1.23828125,0.7578125,-0.302734375,0.4765625,-0.171875,-0.41796875,-10.76171875,2.3046875,1.0
607986,,,,,,,,0.5,-2.1875,1.203125,-0.349609375,0.484375,-0.166015625,-0.0703125,-11.71875,2.7265625,1.0
607987,,,,,,,,2.22265625,-5.828125,2.27734375,-0.5390625,0.46875,-0.15234375,1.65234375,-15.359375,3.76171875,1.0
607988,,,,,,,,4.51171875,-8.578125,3.375,-0.8046875,0.400390625,-0.091796875,3.94921875,-18.12109375,4.796875,1.0
607989,,,,,,,,4.55078125,-7.3359375,5.56640625,-0.92578125,0.26171875,0.0078125,3.98828125,-16.890625,6.90234375,1.0
607990,36.013215833333334,129.31919933333333,54.02908596553935,90.52441124451646,1.2000000000000002,339.0,,3.1796875,-3.44921875,4.94140625,-0.958984375,-0.064453125,0.017578125,2.609375,-13.015625,6.13671875,1.0
607991,,,,,,,,0.65234375,-1.71875,4.078125,-0.958984375,-0.318359375,0.01953125,0.08203125,-11.296875,5.1796875,1.0
607992,,,,,,,,-0.4140625,-2.1640625,4.546875,-0.923828125,-0.041015625,0.048828125,-0.9921875,-11.7578125,5.5625,1.0
607993,,,,,,,,-1.0625,-2.1171875,3.66015625,-0.583984375,0.671875,0.001953125,-1.640625,-11.71875,4.60546875,1.0
607994,,,,,,,,-0.94140625,-1.0,1.7265625,0.220703125,0.94921875,-0.095703125,-1.52734375,-10.609375,2.6484375,1.0
607995,,,,,,,,-0.90234375,0.11328125,0.71484375,0.908203125,0.998046875,-0.251953125,-1.48828125,-9.4921875,1.69140625,1.0
607996,,,,,,,,-0.91796875,0.41015625,0.0234375,0.830078125,0.76953125,-0.32421875,-1.48828125,-9.1875,1.078125,1.0
607997,,,,,,,,-0.828125,0.10546875,-0.0546875,0.6640625,0.51953125,-0.306640625,-1.375,-9.49609375,1.078125,1.0
607998,,,,,,,,-0.84375,-0.1328125,0.14453125,0.662109375,0.47265625,-0.267578125,-1.375,-9.7265625,1.30859375,1.0
607999,,,,,,,,-0.8203125,-0.67578125,0.58984375,0.65625,0.51171875,-0.20703125,-1.3359375,-10.26171875,1.80859375,1.0
608000,36.01321683333333,129.31919916666666,54.01406051025941,90.6353703967405,1.1,345.0,0.0,-0.5234375,-0.41015625,0.79296875,-0.958984375,-0.064453125,0.017578125,2.609375,-13.015625,6.13671875,1.0
608001,,,,,,,,-0.13671875,0.546875,0.2578125,0.296875,0.6953125,-0.05859375,-0.64453125,-9.0390625,1.578125,1.0
608002,,,,,,,,-0.0546875,0.734375,0.1328125,0.115234375,0.68359375,0.013671875,-0.5703125,-8.84765625,1.4609375,1.0
608003,,,,,,,,0.11328125,1.0859375,-0.09375,-0.212890625,0.6328125,0.125,-0.41796875,-8.50390625,1.234375,1.0
608004,,,,,,,,0.29296875,1.359375,-0.2578125,-0.322265625,0.619140625,0.1796875,-0.26171875,-8.23828125,1.0390625,1.0
608005,,,,,,,,0.4140625,1.55859375,-0.33203125,-0.203125,0.63671875,0.181640625,-0.1875,-8.04296875,0.92578125,1.0
608006,,,,,,,,0.3828125,1.63671875,-0.39453125,-0.140625,0.625,0.158203125,-0.2265625,-7.96484375,0.84765625,1.0
608007,,,,,,,,0.4375,2.01953125,-0.64453125,-0.08984375,0.59375,0.1015625,-0.1875,-7.58203125,0.58203125,1.0
608008,,,,,,,,0.74609375,2.7109375,-0.5546875,-0.09765625,0.5703125,-0.005859375,0.08203125,-6.89453125,0.65625,1.0
608009,,,,,,,,0.859375,2.78515625,-0.4296875,-0.0703125,0.595703125,-0.0234375,0.1953125,-6.8125,0.7734375,1.0
608010,36.01321766666667,129.31919866666667,53.96898562047852,90.72783615786877,1.1,345.0,,1.05859375,2.7109375,-0.5390625,0.017578125,0.724609375,-0.041015625,0.38671875,-6.89453125,0.65625,1.0
608011,,,,,,,,1.375,2.51953125,-0.65234375,0.052734375,0.810546875,-0.048828125,0.6953125,-7.078125,0.54296875,1.0
608012,,,,,,,,1.4140625,2.48046875,-0.69140625,0.0703125,0.859375,-0.052734375,0.734375,-7.12109375,0.50390625,1.0
608013,,,,,,,,1.03515625,2.51171875,-0.62109375,0.12890625,0.943359375,-0.072265625,0.34765625,-7.078125,0.58203125,1.0
608014,,,,,,,,0.66015625,2.47265625,-0.58984375,0.162109375,0.986328125,-0.107421875,-0.03515625,-7.12109375,0.62109375,1.0
608015,,,,,,,,0.01171875,2.05078125,-0.40625,0.19140625,1.009765625,-0.138671875,-0.68359375,-7.5390625,0.8125,1.0
608016,,,,,,,,-0.2578125,1.7421875,-0.33984375,0.19921875,1.025390625,-0.16015625,-0.953125,-7.85546875,0.88671875,1.0
608017,,,,,,,,-0.41796875,1.55078125,-0.39453125,0.16015625,1.06640625,-0.22265625,-1.10546875,-8.0390625,0.84765625,1.0
608018,,,,,,,,-0.54296875,1.46875,-0.5234375,0.13671875,1.11328125,-0.251953125,-1.22265625,-8.12109375,0.734375,1.0
608019,,,,,,,,-0.5859375,1.390625,-0.63671875,0.125,1.1328125,-0.265625,-1.2578125,-8.1953125,0.62109375,1.0
608020,36.01321866666667,129.31919833333333,53.93893539334336,90.83879521888719,1.1,348.0,,-0.44140625,1.19921875,-0.79296875,0.017578125,0.724609375,-0.041015625,-1.10546875,-8.3828125,0.46484375,1.0
608021,,,,,,,,-0.3046875,0.89453125,-0.71484375,0.052734375,1.095703125,-0.2890625,-0.953125,-8.69140625,0.54296875,1.0
608022,,,,,,,,-0.3828125,0.6640625,-0.59375,0.044921875,1.064453125,-0.28515625,-1.03125,-8.92578125,0.65625,1.0
608023,,,,,,,,-0.40625,0.3203125,-0.29296875,0.130859375,0.99609375,-0.279296875,-1.03125,-9.265625,0.96484375,1.0
608024,,,,,,,,-0.48046875,0.3203125,-0.2265625,0.1484375,0.978515625,-0.265625,-1.10546875,-9.265625,1.0390625,1.0
608025,,,,,,,,-0.6484375,0.2734375,-0.234375,0.15234375,0.951171875,-0.2421875,-1.2578125,-9.30859375,1.0390625,1.0
608026,,,,,,,,-0.88671875,0.234375,-0.32421875,0.087890625,0.919921875,-0.208984375,-1.48828125,-9.34765625,0.96484375,1.0
608027,,,,,,,,-0.98046875,0.07421875,-0.1640625,0.06640625,0.890625,-0.177734375,-1.56640625,-9.4921875,1.1171875,1.0
608028,,,,,,,,-0.90234375,-0.1953125,-0.09375,0.099609375,0.83203125,-0.134765625,-1.48828125,-9.765625,1.1953125,1.0
608029,,,,,,,,-0.828125,-0.30859375,-0.1328125,0.1171875,0.80859375,-0.1171875,-1.4140625,-9.87890625,1.15625,1.0
608030,36.01321966666667,129.31919816666667,53.92390993914755,90.94975437259872,1.1,351.0,,-0.7890625,-0.38671875,-0.171875,0.017578125,0.724609375,-0.041015625,-1.375,-9.95703125,1.1171875,1.0
608031,,,,,,,,-0.62890625,-0.5078125,-0.2578125,0.09375,0.703125,-0.0625,-1.22265625,-10.07421875,1.0390625,1.0
608032,,,,,,,,-0.58984375,-0.5078125,-0.265625,0.083984375,0.677734375,-0.052734375,-1.18359375,-10.0703125,1.0390625,1.0
608033,,,,,,,,-0.4296875,-0.47265625,-0.37890625,0.05078125,0.60546875,-0.04296875,-1.03125,-10.03515625,0.92578125,1.0
608034,,,,,,,,-0.3046875,-0.27734375,-0.5703125,-0.005859375,0.4765625,-0.03125,-0.9140625,-9.83984375,0.734375,1.0
608035,,,,,,,,-0.07421875,-0.05859375,-0.53125,-0.048828125,0.396484375,-0.0390625,-0.68359375,-9.61328125,0.7734375,1.0
608036,,,,,,,,0.078125,0.05859375,-0.5234375,-0.076171875,0.353515625,-0.03515625,-0.53125,-9.49609375,0.7734375,1.0
608037,,,,,,,,0.7734375,0.36328125,-0.46875,-0.171875,0.228515625,-0.033203125,0.6171875,-9.26953125,0.8125,1.0
608038,,,,,,,,1.50390625,0.140625,-0.4921875,-0.224609375,0.171875,-0.03515625,1.0390625,-9.99609375,0.54296875,1.0
608039,,,,,,,,1.65625,-0.43359375,-0.69921875,-0.287109375,0.150390625,-0.033203125,1.0,-10.45703125,0.6953125,1.0
608040,36.01322066666667,129.319198,53.90888448590211,91.06071352618373,1.2000000000000002,355.0,,-0.7890625,-0.38671875,-0.171875,-0.341796875,0.16015625,-0.01171875,0.6953125,-11.37890625,0.92578125,1.0
608041,,,,,,,,1.16015625,-2.0625,-0.046875,-0.47265625,0.296875,0.017578125,0.08203125,-12.328125,1.9609375,1.0
608042,,,,,,,,0.4375,-3.2578125,1.3125,-0.603515625,0.455078125,0.046875,-0.609375,-13.328125,2.6875,1.0
608043,,,,,,,,0.015625,-3.7578125,1.6015625,-0.693359375,0.544921875,0.0390625,-1.06640625,-14.09375,2.765625,1.0
608044,,,,,,,,-1.23046875,-6.1953125,1.89453125,-0.8203125,0.638671875,0.0390625,-2.71484375,-16.5078125,3.609375,1.0
608045,,,,,,,,-2.40234375,-6.109375,3.4453125,-0.783203125,0.671875,0.0,-3.21484375,-13.63671875,4.71875,1.0
608046,,,,,,,,-2.203125,-3.3828125,3.28515625,-0.728515625,0.728515625,-0.091796875,-2.41015625,-12.48828125,3.53125,1.0
608047,,,,,,,,-1.171875,-2.60546875,2.2890625,-0.76953125,0.8125,-0.166015625,-0.609375,-12.25,2.95703125,1.0
608048,,,,,,,,0.046875,-2.64453125,2.21484375,-0.787109375,0.80078125,-0.177734375,0.00390625,-12.37109375,3.03125,1.0
608049,,,,,,,,1.49609375,-3.01171875,2.67578125,-0.546875,0.732421875,-0.166015625,0.92578125,-12.63671875,3.33984375,1.0
608050,36.01322183333333,129.319198,53.90888369130535,91.19016597906085,1.3,358.0,,1.3671875,-2.8125,2.73046875,-0.15234375,0.740234375,-0.212890625,0.54296875,-12.2890625,3.26171875,1.0
608051,,,,,,,,0.69140625,-2.1640625,2.484375,0.27734375,0.658203125,-0.18359375,-0.109375,-11.5234375,2.87890625,1.0
608052,,,,,,,,0.5,-1.88671875,2.32421875,0.361328125,0.708984375,-0.171875,-0.33984375,-11.140625,2.6484375,1.0
608053,,,,,,,,-0.015625,-1.1953125,1.8359375,0.341796875,1.203125,-0.154296875,-1.10546875,-10.26171875,1.921875,1.0
608054,,,,,,,,-0.63671875,-0.46875,1.2109375,0.33203125,1.427734375,-0.1953125,-1.3359375,-9.99609375,1.80859375,1.0
608055,,,,,,,,-0.7578125,-0.19140625,1.15234375,0.4453125,1.470703125,-0.275390625,-1.4140625,-9.6875,1.76953125,1.0
608056,,,,,,,,-0.84375,-0.046875,1.09765625,0.537109375,1.4375,-0.32421875,-1.48828125,-9.61328125,1.80859375,1.0
608057,,,,,,,,-0.95703125,0.99609375,0.62109375,0.595703125,1.36328125,-0.513671875,-1.44921875,-8.6484375,1.42578125,1.0
608058,,,,,,,,-0.60546875,1.796875,0.1875,0.390625,1.30859375,-0.52734375,-1.06640625,-7.85546875,1.0390625,1.0
608059,,,,,,,,-0.515625,2.02734375,-0.01953125,0.30859375,1.2734375,-0.52734375,-0.953125,-7.6171875,0.84765625,1.0
608060,36.01322283333333,129.31919783333333,53.89385823861912,91.30112513332443,1.2000000000000002,357.0,,-0.2109375,2.6015625,-0.2265625,0.2109375,1.240234375,-0.517578125,-0.609375,-7.05078125,0.65625,1.0
608061,,,,,,,,-0.2421875,2.87890625,-0.28515625,0.22265625,1.251953125,-0.482421875,-0.609375,-6.7734375,0.62109375,1.0
608062,,,,,,,,-0.33203125,3.140625,-0.2578125,0.2421875,1.259765625,-0.47265625,-0.68359375,-6.5078125,0.65625,1.0
608063,,,,,,,,-0.49609375,3.140625,-0.140625,0.26171875,1.2578125,-0.439453125,-0.80078125,-6.51171875,0.8125,1.0
608064,,,,,,,,-0.78515625,2.984375,-0.12890625,0.224609375,1.291015625,-0.42578125,-1.06640625,-6.6640625,0.84765625,1.0
608065,,,,,,,,-1.1015625,2.79296875,-0.1875,0.154296875,1.30078125,-0.423828125,-1.3359375,-6.85546875,0.8125,1.0
608066,,,,,,,,-1.23046875,2.71875,-0.15234375,0.12890625,1.291015625,-0.42578125,-1.44921875,-6.93359375,0.84765625,1.0
608067,,,,,,,,-1.640625,2.671875,-0.3203125,0.08984375,1.236328125,-0.43359375,-1.8359375,-6.97265625,0.6953125,1.0
608068,,,,,,,,-1.9296875,2.51953125,-0.39453125,0.1015625,1.173828125,-0.43359375,-2.1015625,-7.1171875,0.62109375,1.0
608069,,,,,,,,-1.984375,2.41015625,-0.40234375,0.12109375,1.134765625,-0.427734375,-2.140625,-7.23828125,0.62109375,1.0
608070,36.013223833333335,129.31919783333333,53.893857557856684,91.41208437966296,1.1,0.0,,-2.0390625,1.90625,-0.328125,0.224609375,1.01171875,-0.412109375,-2.140625,-7.734375,0.734375,1.0
608071,,,,,,,,-1.7890625,1.4765625,-0.03125,0.25390625,0.931640625,-0.34765625,-1.8359375,-8.15625,1.078125,1.0
608072,,,,,,,,-1.75,1.5078125,0.03125,0.23828125,0.90234375,-0.328125,-1.796875,-8.12109375,1.15625,1.0
608073,,,,,,,,-1.734375,1.66015625,-0.0234375,0.208984375,0.837890625,-0.267578125,-1.7578125,-7.96484375,1.1171875,1.0
608074,,,,,,,,-1.7421875,1.7734375,-0.26953125,0.197265625,0.8046875,-0.244140625,-1.7578125,-7.85546875,0.88671875,1.0
608075,,,,,,,,-1.7109375,1.69140625,-0.58984375,0.18359375,0.71484375,-0.185546875,-1.71875,-7.92578125,0.58203125,1.0
608076,,,,,,,,-1.56640625,1.5,-0.57421875,0.220703125,0.599609375,-0.142578125,-1.56640625,-8.1171875,0.62109375,1.0
608077,,,,,,,,-1.51953125,1.4140625,-0.60546875,0.271484375,0.50390625,-0.115234375,-1.52734375,-8.1953125,0.62109375,1.0
608078,,,,,,,,-1.3671875,1.0703125,-0.62109375,0.33203125,0.447265625,-0.095703125,-1.375,-8.54296875,0.62109375,1.0
608079,,,,,,,,-1.25,0.91796875,-0.6015625,0.369140625,0.4296875,-0.083984375,-1.2578125,-8.6875,0.65625,1.0
608080,36.01322483333333,129.319198,53.90888164862352,91.52304371725023,1.1,5.0,,-0.9453125,0.5625,-0.80078125,0.384765625,0.375,-0.064453125,-0.953125,-9.04296875,0.50390625,1.0
608081,,,,,,,,-0.9453125,0.48046875,-0.83203125,0.337890625,0.298828125,-0.03515625,-0.875,-9.15234375,0.4296875,1.0
608082,,,,,,,,-0.859375,0.43359375,-0.9296875,0.30859375,0.26171875,-0.0234375,-0.80078125,-9.421875,0.50390625,1.0
608083,,,,,,,,-0.78515625,0.04296875,-0.88671875,0.259765625,0.216796875,-0.01171875,-0.83984375,-9.76953125,0.54296875,1.0
608084,,,,,,,,-0.81640625,-0.26953125,-0.91015625,0.197265625,0.19921875,-0.01171875,-0.875,-9.9140625,0.50390625,1.0
608085,,,,,,,,-0.9296875,-0.5,-1.0390625,0.09765625,0.1640625,-0.01953125,-1.10546875,-10.2265625,0.3125,1.0
608086,,,,,,,,-1.07421875,-0.65625,-1.125,0.048828125,0.154296875,-0.021484375,-1.18359375,-10.3359375,0.3515625,1.0
608087,,,,,,,,-1.15234375,-0.890625,-1.09375,-0.017578125,0.13671875,-0.021484375,-1.18359375,-10.61328125,0.390625,1.0
608088,,,,,,,,-1.07421875,-1.08203125,-1.015625,-0.0859375,0.119140625,-0.01171875,-1.06640625,-10.72265625,0.50390625,1.0
608089,,,,,,,,-1.02734375,-1.16796875,-0.94140625,-0.107421875,0.115234375,-0.0234375,-0.9921875,-10.71875,0.58203125,1.0
608090,36.01322583333333,129.3191985,53.953955282253304,91.63400323886758,1.2000000000000002,14.0,,-0.9453125,0.5625,-0.80078125,-0.13671875,0.123046875,-0.015625,-0.953125,-9.04296875,0.50390625,1.0
608091,,,,,,,,-0.5234375,-0.890625,-0.87109375,-0.1875,0.154296875,-0.00390625,-0.5703125,-10.45703125,0.54296875,1.0
608092,,,,,,,,-0.58984375,-0.234375,-0.77734375,-0.259765625,0.150390625,0.021484375,-0.64453125,-9.8046875,0.62109375,1.0
608093,,,,,,,,-0.8203125,0.2265625,-0.52734375,-0.3125,0.15234375,0.037109375,-0.875,-9.34765625,0.84765625,1.0
608094,,,,,,,,-1.11328125,0.45703125,-0.265625,-0.34375,0.19140625,0.05078125,-1.18359375,-9.11328125,1.078125,1.0
608095,,,,,,,,-1.41015625,-0.72265625,-0.6171875,-0.36328125,0.248046875,0.05078125,-1.48828125,-10.30078125,0.6953125,1.0
608096,,,,,,,,-1.171875,-1.6796875,-0.66796875,-0.357421875,0.279296875,0.052734375,-1.2578125,-11.2578125,0.62109375,1.0
608097,,,,,,,,-0.65234375,-2.1015625,0.15234375,-0.36328125,0.345703125,0.05078125,-0.76171875,-11.6796875,1.38671875,1.0
608098,,,,,,,,0.46484375,-2.4765625,1.2265625,-0.3984375,0.376953125,0.048828125,0.34765625,-12.0625,2.421875,1.0
608099,,,,,,,,1.1640625,-4.4609375,1.76953125,-0.490234375,0.353515625,0.0703125,1.0390625,-14.0546875,2.91796875,1.0
608100,36.01322666666667,129.31919916666666,54.014053801311874,91.72646964706976,1.2000000000000002,23.0,0.0,1.88671875,-5.91015625,3.6484375,-0.13671875,0.123046875,-0.015625,1.73046875,-15.5078125,4.71875,1.0
608101,,,,,,,,2.0234375,-4.7890625,4.62109375,-0.900390625,0.244140625,0.1796875,1.84375,-14.40234375,5.59765625,1.0
608102,,,,,,,,2.03125,-4.78125,4.66015625,-0.76953125,0.3203125,0.216796875,1.23046875,-13.13671875,5.21484375,1.0
608103,,,,,,,,1.13671875,-2.9375,4.12109375,-0.7421875,0.46484375,0.21875,0.3125,-11.984375,4.44921875,1.0
608104,,,,,,,,0.5390625,-2.36328125,3.62109375,-0.783203125,0.53515625,0.212890625,-0.109375,-11.9453125,4.3359375,1.0
608105,,,,,,,,-0.28125,-2.390625,3.625,-0.732421875,0.609375,0.189453125,-0.9140625,-12.140625,4.44921875,1.0
608106,,,,,,,,-0.91015625,-2.56640625,3.80078125,-0.314453125,0.619140625,0.130859375,-1.375,-12.2109375,4.06640625,1.0
608107,,,,,,,,-1.078125,-2.57421875,3.41015625,0.01171875,0.646484375,0.09375,-1.03125,-11.7578125,3.64453125,1.0
608108,,,,,,,,-0.1875,-1.08203125,1.9765625,0.748046875,0.5859375,-0.09765625,-0.4921875,-10.72265625,2.7265625,1.0
608109,,,,,,,,-0.41796875,-0.046875,1.25390625,0.720703125,0.515625,-0.119140625,-0.72265625,-9.6875,2.07421875,1.0
608110,36.01322783333333,129.31919983333333,54.074152090087296,91.85592246995174,1.3,26.0,,-0.734375,0.59375,1.18359375,0.70703125,0.447265625,-0.07421875,-1.03125,-9.04296875,2.07421875,1.0
608111,,,,,,,,-0.80859375,0.59375,0.921875,0.68359375,0.369140625,-0.009765625,-1.10546875,-9.0390625,1.921875,1.0
608112,,,,,,,,-0.83203125,0.51953125,0.70703125,0.630859375,0.408203125,0.0546875,-1.14453125,-9.11328125,1.76953125,1.0
608113,,,,,,,,-0.74609375,0.5859375,0.67578125,0.55859375,0.435546875,0.09765625,-1.06640625,-9.04296875,1.76953125,1.0
608114,,,,,,,,-0.53125,0.96484375,0.66796875,0.337890625,0.453125,0.166015625,-0.875,-8.65234375,1.80859375,1.0
608115,,,,,,,,-0.47265625,1.4609375,0.3828125,0.1328125,0.416015625,0.21875,-0.83984375,-8.16015625,1.5390625,1.0
608116,,,,,,,,-0.4765625,1.921875,0.03125,-0.00390625,0.365234375,0.23828125,-0.875,-7.69921875,1.1953125,1.0
608117,,,,,,,,-0.41015625,2.16015625,-0.19140625,-0.087890625,0.337890625,0.236328125,-0.83984375,-7.46484375,0.96484375,1.0
608118,,,,,,,,-0.4375,2.3125,-0.34375,-0.109375,0.31640625,0.232421875,-0.875,-7.31640625,0.8125,1.0
608119,,,,,,,,-0.4453125,2.42578125,-0.453125,-0.09765625,0.29296875,0.20703125,-0.9140625,-7.19921875,0.6953125,1.0
608120,36.01322866666667,129.3192005,54.134250606558915,91.94838887900028,1.2000000000000002,26.0,,-0.421875,2.46484375,-0.3359375,0.70703125,0.447265625,-0.07421875,-0.9140625,-7.15625,0.8125,1.0
608121,,,,,,,,-0.19921875,2.609375,-0.17578125,-0.03515625,0.26171875,0.16015625,-0.72265625,-7.0078125,0.96484375,1.0
608122,,,,,,,,0.09375,2.578125,-0.17578125,-0.04296875,0.279296875,0.158203125,-0.453125,-7.046875,0.96484375,1.0
608123,,,,,,,,0.421875,2.50390625,-0.3203125,-0.060546875,0.3203125,0.166015625,-0.1484375,-7.1171875,0.8125,1.0
608124,,,,,,,,0.8359375,2.34375,-0.3828125,-0.052734375,0.39453125,0.173828125,0.234375,-7.2734375,0.734375,1.0
608125,,,,,,,,1.14453125,2.1875,-0.4609375,0.04296875,0.435546875,0.154296875,0.50390625,-7.43359375,0.65625,1.0
608126,,,,,,,,1.07421875,2.15234375,-0.53515625,0.1015625,0.4375,0.15234375,0.42578125,-7.46484375,0.58203125,1.0
608127,,,,,,,,1.01953125,2.03515625,-0.58984375,0.19140625,0.44140625,0.13671875,0.34765625,-7.578125,0.54296875,1.0
608128,,,,,,,,0.73046875,1.953125,-0.64453125,0.224609375,0.462890625,0.0859375,-0.0703125,-7.66015625,0.46484375,1.0
608129,,,,,,,,0.36328125,1.828125,-0.70703125,0.236328125,0.458984375,0.046875,-0.41796875,-7.77734375,0.50390625,1.0
608130,36.013229333333335,129.3192015,54.22439877481131,92.02236226594381,1.2000000000000002,33.0,,0.21875,1.7890625,-0.73046875,0.251953125,0.482421875,0.001953125,-0.64453125,-7.85546875,0.50390625,1.0
608131,,,,,,,,0.07421875,1.70703125,-0.67578125,0.275390625,0.490234375,-0.0546875,-0.68359375,-7.9609375,0.58203125,1.0
608132,,,,,,,,0.04296875,1.62109375,-0.64453125,0.2890625,0.5,-0.08203125,-0.72265625,-7.96484375,0.50390625,1.0
608133,,,,,,,,-0.03515625,1.58203125,-0.70703125,0.322265625,0.501953125,-0.126953125,-0.76171875,-8.0390625,0.50390625,1.0
608134,,,,,,,,-0.04296875,1.30859375,-0.66015625,0.33203125,0.5234375,-0.154296875,-0.76171875,-8.50390625,0.65625,1.0
608135,,,,,,,,-0.08984375,0.7265625,-0.73828125,0.294921875,0.501953125,-0.193359375,-0.80078125,-9.07421875,0.62109375,1.0
608136,,,,,,,,-0.09765625,0.49609375,-0.71484375,0.279296875,0.5,-0.203125,-0.80078125,-9.265625,0.62109375,1.0
608137,,,,,,,,-0.06640625,0.03515625,-0.47265625,0.248046875,0.45703125,-0.212890625,-0.76171875,-9.53515625,0.88671875,1.0
608138,,,,,,,,-0.2265625,-0.05078125,-0.41796875,0.234375,0.46484375,-0.212890625,-0.9140625,-9.609375,0.96484375,1.0
608139,,,,,,,,-0.3515625,-0.125,-0.42578125,0.21875,0.478515625,-0.212890625,-1.03125,-9.69140625,0.96484375,1.0
608140,36.01323033333333,129.31920233333332,54.29952194524832,92.13332197427971,1.2000000000000002,34.0,,-0.6796875,-0.2421875,-0.2578125,0.193359375,0.47265625,-0.197265625,-1.3359375,-9.80859375,1.15625,1.0
608141,,,,,,,,-0.49609375,-0.6328125,-0.08203125,0.162109375,0.458984375,-0.1640625,-1.14453125,-10.19140625,1.34765625,1.0
608142,,,,,,,,-0.46484375,-0.70703125,-0.01171875,0.142578125,0.443359375,-0.138671875,-1.10546875,-10.2578125,1.42578125,1.0
608143,,,,,,,,0.1015625,-1.25390625,-0.21875,0.1171875,0.42578125,-0.109375,-0.53125,-10.796875,1.234375,1.0
608144,,,,,,,,0.37890625,-1.13671875,-0.34375,0.080078125,0.369140625,-0.1015625,-0.26171875,-10.68359375,1.1171875,1.0
608145,,,,,,,,0.58984375,-0.72265625,-0.2734375,0.01953125,0.22265625,-0.091796875,-0.03515625,-10.26171875,1.1953125,1.0
608146,,,,,,,,0.8984375,0.01171875,-0.46484375,-0.015625,0.09765625,-0.08984375,0.2734375,-9.53515625,1.00390625,1.0
608147,,,,,,,,0.9375,0.15625,-0.58203125,-0.037109375,0.03125,-0.0859375,0.3125,-9.38671875,0.88671875,1.0
608148,,,,,,,,1.38671875,0.34765625,-0.61328125,-0.048828125,-0.046875,-0.1015625,0.76953125,-9.1875,0.84765625,1.0
608149,,,,,,,,1.45703125,0.38671875,-0.49609375,-0.06640625,-0.080078125,-0.099609375,0.84765625,-9.1484375,0.96484375,1.0
608150,36.01323133333334,129.31920316666668,54.37464511558924,92.24428168664588,1.3,35.0,,1.52734375,-0.45703125,-0.21875,-0.13671875,-0.12109375,-0.087890625,0.92578125,-9.9921875,1.234375,1.0
608151,,,,,,,,0.8671875,-2.28515625,-0.47265625,-0.2109375,-0.126953125,-0.072265625,0.2734375,-11.828125,0.96484375,1.0
608152,,,,,,,,0.16796875,-3.93359375,0.23828125,-0.287109375,-0.08984375,-0.04296875,-0.41796875,-13.48046875,1.65234375,1.0
608153,,,,,,,,-0.4140625,-4.234375,1.51953125,-0.47265625,0.009765625,0.0078125,-0.9921875,-13.7890625,2.87890625,1.0
608154,,,,,,,,-2.28125,-4.76171875,3.0703125,-0.59375,0.146484375,0.037109375,-2.8671875,-14.3203125,4.375,1.0
608155,,,,,,,,-2.6875,-3.22265625,5.23046875,-0.6640625,0.3046875,0.0546875,-3.2890625,-12.7890625,6.44140625,1.0
608156,,,,,,,,-1.41796875,-2.83203125,4.03125,-0.634765625,0.3828125,0.04296875,-2.02734375,-12.40625,5.1796875,1.0
608157,,,,,,,,0.859375,-3.2734375,3.59375,-0.640625,0.53515625,0.0390625,0.234375,-12.87109375,4.6796875,1.0
608158,,,,,,,,1.90234375,-3.54296875,3.3046875,-0.650390625,0.455078125,0.0390625,1.26953125,-13.1328125,4.3359375,1.0
608159,,,,,,,,1.94921875,-3.19140625,2.8671875,-0.431640625,0.22265625,0.03515625,1.30859375,-12.7890625,3.8359375,1.0
608160,36.01323216666666,129.31920416666665,54.46479316208514,92.33674828143256,1.3,39.0,,1.609375,-2.453125,3.03125,0.083984375,0.07421875,0.029296875,0.9609375,-12.06640625,3.9921875,1.0
608161,,,,,,,,0.69140625,-1.234375,2.515625,0.333984375,0.046875,0.03125,0.04296875,-10.8359375,3.4921875,1.0
608162,,,,,,,,-0.2109375,-0.38671875,1.81640625,0.392578125,0.234375,0.017578125,-0.875,-9.99609375,2.83984375,1.0
608163,,,,,,,,-0.375,-0.23046875,1.7421875,0.447265625,0.478515625,-0.009765625,-1.03125,-9.8359375,2.8046875,1.0
608164,,,,,,,,-0.06640625,-0.39453125,2.0859375,0.46875,0.619140625,-0.060546875,-0.72265625,-9.9921875,3.1875,1.0
608165,,,,,,,,0.1640625,-0.27734375,1.921875,0.53125,0.6171875,-0.154296875,-0.4921875,-9.87890625,3.0703125,1.0
608166,,,,,,,,0.38671875,0.01953125,1.37109375,0.580078125,0.5625,-0.2265625,-0.26171875,-9.5703125,2.57421875,1.0
608167,,,,,,,,0.9375,0.94921875,0.42578125,0.294921875,0.513671875,-0.263671875,0.3125,-8.6484375,1.69140625,1.0
608168,,,,,,,,0.9296875,1.20703125,0.2578125,0.185546875,0.494140625,-0.255859375,0.3125,-8.3828125,1.5390625,1.0
608169,,,,,,,,0.98046875,1.55078125,0.05859375,0.068359375,0.486328125,-0.2421875,0.38671875,-8.04296875,1.34765625,1.0
608170,36.013233166666666,129.31920499999998,54.5399163268267,92.44770799529684,1.3,39.0,,0.93359375,1.98046875,-0.1796875,0.09765625,0.513671875,-0.240234375,0.9609375,-12.06640625,3.9921875,1.0
608171,,,,,,,,0.5,2.6328125,-0.30859375,0.140625,0.51953125,-0.23828125,-0.0703125,-6.96875,1.00390625,1.0
608172,,,,,,,,0.28515625,2.74609375,-0.2109375,0.09765625,0.5078125,-0.23828125,-0.5703125,-6.62890625,1.234375,1.0
608173,,,,,,,,-0.0390625,3.09375,0.01953125,0.05078125,0.51171875,-0.244140625,-0.5703125,-6.5078125,1.34765625,1.0
608174,,,,,,,,-0.23828125,3.17578125,0.04296875,-0.01171875,0.494140625,-0.2421875,-0.76171875,-6.43359375,1.38671875,1.0
608175,,,,,,,,-0.484375,3.140625,-0.1484375,-0.056640625,0.4765625,-0.248046875,-0.9921875,-6.47265625,1.1953125,1.0
608176,,,,,,,,-0.61328125,3.17578125,-0.21875,-0.072265625,0.4609375,-0.259765625,-1.10546875,-6.4296875,1.1171875,1.0
608177,,,,,,,,-0.9375,3.17578125,-0.37109375,-0.083984375,0.421875,-0.26953125,-1.4140625,-6.4296875,0.96484375,1.0
608178,,,,,,,,-1.06640625,3.17578125,-0.44140625,-0.03515625,0.361328125,-0.28125,-1.6796875,-6.46875,0.88671875,1.0
608179,,,,,,,,-1.2890625,3.140625,-0.47265625,0.06640625,0.31640625,-0.29296875,-1.7578125,-6.546875,0.88671875,1.0
608180,36.01323383333333,129.31920583333334,54.615039721161835,92.52168129118334,1.1,38.0,,-1.390625,3.1015625,-0.48828125,0.162109375,0.279296875,-0.2890625,-1.8359375,-6.51171875,0.88671875,1.0
608181,,,,,,,,-1.40625,3.0546875,-0.46484375,0.2265625,0.28125,-0.26171875,-1.796875,-6.6640625,0.88671875,1.0
608182,,,,,,,,-1.421875,2.9375,-0.47265625,0.2421875,0.306640625,-0.244140625,-1.796875,-6.6953125,0.88671875,1.0
608183,,,,,,,,-1.359375,2.82421875,-0.49609375,0.25,0.3203125,-0.1953125,-1.640625,-6.8125,0.88671875,1.0
608184,,,,,,,,-1.22265625,2.671875,-0.48046875,0.259765625,0.322265625,-0.12890625,-1.48828125,-7.01171875,0.96484375,1.0
608185,,,,,,,,-1.078125,2.3125,-0.51953125,0.27734375,0.26953125,-0.048828125,-1.3359375,-7.4609375,0.88671875,1.0
608186,,,,,,,,-0.921875,1.96484375,-0.57421875,0.283203125,0.2421875,-0.017578125,-1.2578125,-7.6171875,0.88671875,1.0
608187,,,,,,,,-0.76171875,1.34375,-0.65234375,0.27734375,0.189453125,0.02734375,-1.10546875,-8.234375,0.84765625,1.0
608188,,,,,,,,-0.6796875,0.609375,-0.52734375,0.2578125,0.12109375,0.064453125,-1.03125,-8.96484375,1.00390625,1.0
608189,,,,,,,,-0.70703125,0.41015625,-0.46875,0.25,0.099609375,0.07421875,-1.06640625,-9.1484375,1.078125,1.0
608190,36.013234499999996,129.31920666666667,54.69016310986332,92.59565458907497,1.1,40.0,,-0.69140625,-0.28515625,-0.26953125,0.162109375,0.279296875,-0.2890625,-1.8359375,-6.51171875,0.88671875,1.0
608191,,,,,,,,-0.5234375,-0.6328125,-0.21484375,0.1328125,-0.072265625,0.109375,-0.9140625,-10.19140625,1.38671875,1.0
608192,,,,,,,,-0.5078125,-0.76171875,-0.30859375,0.087890625,-0.080078125,0.10546875,-0.9140625,-10.296875,1.30859375,1.0
608193,,,,,,,,-0.42578125,-0.609375,-0.390625,0.060546875,-0.072265625,0.09765625,-0.83984375,-10.1484375,1.234375,1.0
608194,,,,,,,,-0.37890625,-0.53125,-0.4765625,0.0703125,-0.076171875,0.08203125,-0.80078125,-10.0703125,1.15625,1.0
608195,,,,,,,,-0.37109375,-0.6171875,-0.63671875,0.078125,-0.08984375,0.05859375,-0.80078125,-10.1484375,1.00390625,1.0
608196,,,,,,,,-0.29296875,-0.6171875,-0.67578125,0.091796875,-0.09765625,0.04296875,-0.72265625,-10.15234375,0.96484375,1.0
608197,,,,,,,,-0.1328125,-0.6953125,-0.72265625,0.078125,-0.08984375,0.005859375,-0.5703125,-10.23046875,0.92578125,1.0
608198,,,,,,,,-0.0625,-0.703125,-0.8828125,0.056640625,-0.08203125,-0.025390625,-0.4921875,-10.2265625,0.7734375,1.0
608199,,,,,,,,0.05078125,-0.5859375,-0.78515625,-0.005859375,-0.080078125,-0.060546875,-0.37890625,-10.11328125,0.88671875,1.0
608200,36.013235,129.319208,54.81036092439997,92.65113496255397,1.1,49.0,0.0,0.1953125,-0.31640625,-0.625,-0.076171875,-0.072265625,-0.076171875,-1.8359375,-6.51171875,0.88671875,1.0
608201,,,,,,,,0.265625,0.29296875,-0.578125,-0.1328125,-0.060546875,-0.087890625,-0.1484375,-9.2265625,1.078125,1.0
608202,,,,,,,,-0.125,1.08984375,-0.21484375,-0.181640625,-0.037109375,-0.10546875,-0.53125,-8.42578125,1.42578125,1.0
608203,,,,,,,,-0.40234375,1.25390625,-0.015625,-0.21875,-0.015625,-0.1015625,-0.80078125,-8.26953125,1.6171875,1.0
608204,,,,,,,,-1.22265625,0.5625,0.16015625,-0.28515625,0.0390625,-0.099609375,-1.60546875,-8.96484375,1.76953125,1.0
608205,,,,,,,,-1.2578125,-1.15234375,0.19140625,-0.306640625,0.078125,-0.103515625,-1.640625,-10.68359375,1.76953125,1.0
608206,,,,,,,,-0.921875,-1.84375,0.8359375,-0.3359375,0.109375,-0.115234375,-1.296875,-11.375,2.3828125,1.0
608207,,,,,,,,0.140625,-3.28125,1.76171875,-0.396484375,0.111328125,-0.119140625,-0.2265625,-12.83203125,3.26171875,1.0
608208,,,,,,,,1.28515625,-4.73828125,2.09375,-0.4296875,0.07421875,-0.115234375,0.92578125,-14.28125,3.5703125,1.0
608209,,,,,,,,2.921875,-7.375,3.09765625,-0.5859375,-0.037109375,-0.111328125,2.5703125,-16.9296875,4.52734375,1.0
608210,36.0132355,129.31920933333333,54.93055873730006,92.70661533562276,1.2000000000000002,52.0,,3.7578125,-7.55859375,4.5,-0.8359375,-0.197265625,-0.083984375,3.4140625,-17.1171875,5.8671875,1.0
608211,,,,,,,,3.0234375,-4.74609375,5.421875,-0.80078125,-0.3984375,0.0234375,2.6875,-14.3203125,6.671875,1.0
608212,,,,,,,,0.140625,-2.46875,4.99609375,-0.646484375,-0.4921875,0.078125,-0.1875,-12.0625,6.17578125,1.0
608213,,,,,,,,-0.35546875,-2.4609375,4.98046875,-0.580078125,-0.51171875,0.087890625,-0.68359375,-12.0625,6.13671875,1.0
608214,,,,,,,,-0.5859375,-2.69140625,4.25390625,-0.421875,-0.40234375,0.064453125,-0.9140625,-12.29296875,5.37109375,1.0
608215,,,,,,,,-0.46484375,-2.453125,3.2890625,-0.109375,-0.203125,0.07421875,-0.80078125,-12.0625,4.375,1.0
608216,,,,,,,,-0.1484375,-1.6484375,2.84375,0.7734375,0.01953125,-0.03515625,-0.33984375,-10.87890625,3.4921875,1.0
608217,,,,,,,,0.04296875,-0.81640625,1.80859375,0.89453125,-0.275390625,-0.068359375,-0.2265625,-9.83984375,2.07421875,1.0
608218,,,,,,,,0.109375,-0.24609375,0.83984375,0.837890625,-0.482421875,-0.05078125,-0.109375,-9.6875,1.9609375,1.0
608219,,,,,,,,0.2578125,-0.1328125,0.70703125,0.75390625,-0.7265625,-0.0234375,-0.0703125,-9.87890625,2.265625,1.0
608220,36.013236166666665,129.3192105,55.03573166316903,92.78058882420284,1.2000000000000002,53.0,,3.7578125,-7.55859375,4.5,0.7265625,-0.6953125,0.04296875,3.4140625,-17.1171875,5.8671875,1.0
608221,,,,,,,,0.35546875,-0.69140625,1.48828125,0.736328125,-0.646484375,0.130859375,0.04296875,-10.26171875,2.95703125,1.0
608222,,,,,,,,0.5390625,0.1875,0.56640625,0.58984375,-0.580078125,0.212890625,0.234375,-9.38671875,2.11328125,1.0
608223,,,,,,,,0.640625,0.9765625,0.08203125,0.27734375,-0.53515625,0.35546875,0.3125,-8.58203125,1.69140625,1.0
608224,,,,,,,,0.76953125,1.890625,-0.21484375,0.06640625,-0.505859375,0.458984375,0.42578125,-7.65625,1.42578125,1.0
608225,,,,,,,,0.96875,2.43359375,-0.15625,0.02734375,-0.466796875,0.533203125,0.578125,-7.1171875,1.5,1.0
608226,,,,,,,,1.0234375,2.5078125,-0.15625,0.05859375,-0.44921875,0.55859375,0.6171875,-7.046875,1.5,1.0
608227,,,,,,,,1.32421875,2.6171875,-0.29296875,0.10546875,-0.39453125,0.576171875,0.84765625,-6.9296875,1.38671875,1.0
608228,,,,,,,,1.5078125,2.80859375,-0.5078125,0.03125,-0.3671875,0.55859375,0.9609375,-6.73828125,1.1953125,1.0
608229,,,,,,,,1.74609375,3.03125,-0.69921875,-0.060546875,-0.37109375,0.53125,1.15234375,-6.5078125,1.00390625,1.0
608230,36.01323683333333,129.31921150000002,55.12587981976972,92.85456222073095,1.2000000000000002,51.0,,1.90234375,3.14453125,-0.81640625,-0.107421875,-0.349609375,0.494140625,1.26953125,-6.39453125,0.88671875,1.0
608231,,,,,,,,2.015625,3.0703125,-0.9609375,-0.087890625,-0.314453125,0.455078125,1.34375,-6.47265625,0.734375,1.0
608232,,,,,,,,2.09375,2.9453125,-1.03125,-0.041015625,-0.20703125,0.41015625,1.3828125,-6.58984375,0.65625,1.0
608233,,,,,,,,2.0859375,2.90625,-1.15234375,0.0078125,-0.103515625,0.375,1.34375,-6.625,0.54296875,1.0
608234,,,,,,,,2.00390625,2.59375,-1.12109375,0.0546875,-0.00390625,0.34375,1.23046875,-6.9296875,0.58203125,1.0
608235,,,,,,,,1.9140625,2.31640625,-1.015625,0.08984375,0.056640625,0.3046875,1.1171875,-7.1953125,0.6953125,1.0
608236,,,,,,,,1.71484375,2.0859375,-0.71484375,0.115234375,0.078125,0.25,0.88671875,-7.4296875,1.00390625,1.0
608237,,,,,,,,1.4609375,1.859375,-0.5,0.125,0.095703125,0.197265625,0.6171875,-7.65625,1.234375,1.0
608238,,,,,,,,1.31640625,1.8515625,-0.43359375,0.12890625,0.111328125,0.166015625,0.46484375,-7.66015625,1.30859375,1.0
608239,,,,,,,,1.140625,1.8125,-0.5234375,0.12109375,0.177734375,0.1171875,0.2734375,-7.69921875,1.234375,1.0
