time,latitude,longitude,enu_x,enu_y,speed,course,ecg,accX,accY,accZ,gyrX,gyrY,gyrZ,eulR,eulP,eulY,validity
655480,36.01323716666666,129.31927683333333,61.015589260349714,92.89158756916724,1.1,47.0,,0.625,2.42578125,-0.46875,-0.134765625,-0.43359375,-0.287109375,0.6953125,-7.1953125,0.734375,1.0
655481,,,,,,,,0.32421875,2.3515625,-0.19140625,-0.134765625,-0.400390625,-0.23828125,0.42578125,-7.27734375,1.00390625,1.0
655482,,,,,,,,0.203125,2.3203125,-0.0703125,-0.13671875,-0.39453125,-0.20703125,0.3125,-7.3125,1.1171875,1.0
655483,,,,,,,,-0.16796875,2.28125,-0.015625,-0.166015625,-0.384765625,-0.15625,-0.03515625,-7.35546875,1.15625,1.0
655484,,,,,,,,-0.6171875,2.2890625,-0.0625,-0.197265625,-0.390625,-0.1015625,-0.453125,-7.3515625,1.078125,1.0
655485,,,,,,,,-0.94140625,2.09765625,-0.27734375,-0.1875,-0.408203125,-0.076171875,-0.76171875,-7.54296875,0.84765625,1.0
655486,,,,,,,,-1.01953125,2.01953125,-0.34375,-0.181640625,-0.42578125,-0.0703125,-0.83984375,-7.6171875,0.7734375,1.0
655487,,,,,,,,-1.26953125,1.71484375,-0.4375,-0.078125,-0.478515625,-0.0546875,-1.06640625,-7.92578125,0.65625,1.0
655488,,,,,,,,-1.27734375,1.75390625,-0.3984375,0.0078125,-0.52734375,-0.025390625,-1.06640625,-7.88671875,0.6953125,1.0
655489,,,,,,,,-1.09375,1.828125,-0.47265625,0.046875,-0.53515625,-0.015625,-0.875,-7.81640625,0.62109375,1.0
655490,36.01323783333333,129.31927750000003,61.075687827038365,92.96556081692606,1.0,44.0,,-0.90234375,1.8671875,-0.671875,-0.134765625,-0.43359375,-0.287109375,-0.68359375,-7.77734375,0.4296875,1.0
655491,,,,,,,,-0.64453125,1.78125,-0.7265625,0.138671875,-0.580078125,0.091796875,-0.41796875,-7.85546875,0.390625,1.0
655492,,,,,,,,-0.51953125,1.70703125,-0.8125,0.150390625,-0.587890625,0.13671875,-0.30078125,-7.92578125,0.3125,1.0
655493,,,,,,,,-0.3125,1.1640625,-0.8359375,0.220703125,-0.59375,0.234375,-0.109375,-8.46484375,0.3125,1.0
655494,,,,,,,,-0.25,0.47265625,-1.01171875,0.279296875,-0.61328125,0.283203125,-0.0703125,-9.15234375,0.16015625,1.0
655495,,,,,,,,-0.234375,0.2734375,-0.9296875,0.306640625,-0.626953125,0.32421875,-0.0703125,-9.34765625,0.2734375,1.0
655496,,,,,,,,-0.17578125,0.16015625,-0.953125,0.271484375,-0.650390625,0.345703125,-0.03515625,-9.453125,0.2734375,1.0
655497,,,,,,,,-0.16015625,0.03515625,-1.03515625,0.236328125,-0.671875,0.33984375,-0.03515625,-9.57421875,0.19921875,1.0
655498,,,,,,,,0.0625,0.07421875,-1.14453125,0.15234375,-0.7421875,0.33203125,0.15625,-9.53515625,0.12109375,1.0
655499,,,,,,,,0.1953125,0.1875,-1.15234375,0.13671875,-0.751953125,0.3203125,0.2734375,-9.42578125,0.12109375,1.0
655500,36.013238666666666,129.31927833333333,61.150811029618026,93.05802737880629,1.0,44.0,0.0,0.28515625,0.14453125,-1.234375,-0.134765625,-0.43359375,-0.287109375,0.34765625,-9.45703125,0.046875,1.0
655501,,,,,,,,0.34765625,-0.01171875,-1.17578125,0.12109375,-0.744140625,0.2890625,0.38671875,-9.609375,0.12109375,1.0
655502,,,,,,,,0.671875,-0.09375,-1.10546875,0.126953125,-0.7421875,0.275390625,0.6953125,-9.6875,0.19921875,1.0
655503,,,,,,,,0.80078125,-0.140625,-1.11328125,0.095703125,-0.708984375,0.25390625,0.80859375,-9.73046875,0.19921875,1.0
655504,,,,,,,,0.93359375,-0.21875,-1.08203125,0.05078125,-0.671875,0.23828125,0.92578125,-9.80859375,0.23828125,1.0
655505,,,,,,,,0.7578125,-0.29296875,-1.015625,-0.01171875,-0.625,0.205078125,0.734375,-9.87890625,0.3125,1.0
655506,,,,,,,,0.41796875,-0.24609375,-1.0078125,-0.08203125,-0.55859375,0.158203125,0.04296875,-9.80859375,0.19921875,1.0
655507,,,,,,,,-0.03125,-0.21875,-1.15234375,-0.107421875,-0.544921875,0.12890625,-0.30078125,-9.61328125,0.19921875,1.0
655508,,,,,,,,-0.26171875,-0.02734375,-1.09765625,-0.134765625,-0.501953125,0.09375,-0.453125,-9.4921875,0.16015625,1.0
655509,,,,,,,,-0.60546875,0.35546875,-1.12109375,-0.1796875,-0.427734375,0.068359375,-0.76171875,-9.109375,0.19921875,1.0
655510,36.013239500000005,129.31927933333333,61.24095899875873,93.15049404527593,1.2000000000000002,44.0,,0.28515625,0.14453125,-1.234375,-0.216796875,-0.357421875,0.041015625,-0.9921875,-8.92578125,0.2734375,1.0
655511,,,,,,,,-1.25,0.90234375,-0.890625,-0.25390625,-0.31640625,0.037109375,-1.4140625,-8.6171875,0.4296875,1.0
655512,,,,,,,,-1.48046875,1.0546875,-0.67578125,-0.294921875,-0.287109375,0.041015625,-1.7578125,-8.50390625,0.84765625,1.0
655513,,,,,,,,-1.75,1.0546875,-0.30859375,-0.3203125,-0.267578125,0.064453125,-1.87109375,-8.6875,0.92578125,1.0
655514,,,,,,,,-1.7421875,0.37109375,-0.390625,-0.3671875,-0.28125,0.083984375,-1.796875,-9.23046875,0.7734375,1.0
655515,,,,,,,,-1.39453125,-0.9375,-0.53515625,-0.421875,-0.3125,0.099609375,-1.44921875,-10.53515625,0.58203125,1.0
655516,,,,,,,,-1.359375,-1.58203125,-0.4453125,-0.451171875,-0.345703125,0.091796875,-1.4140625,-11.1796875,0.65625,1.0
655517,,,,,,,,-0.8125,-3.87890625,0.29296875,-0.51171875,-0.43359375,0.076171875,-0.875,-13.48046875,1.34765625,1.0
655518,,,,,,,,0.375,-6.0234375,0.26171875,-0.580078125,-0.517578125,0.052734375,0.3125,-15.62890625,1.26953125,1.0
655519,,,,,,,,3.25390625,-9.3125,1.23828125,-0.681640625,-0.591796875,0.037109375,3.18359375,-18.921875,2.19140625,1.0
655520,36.013240333333336,129.31928033333332,61.331106968359165,93.24296071256313,1.3,44.0,,0.28515625,0.14453125,-1.234375,-0.734375,-0.6640625,0.064453125,-0.9921875,-8.92578125,0.2734375,1.0
655521,,,,,,,,5.23828125,-3.65625,3.78515625,-0.70703125,-0.8046875,0.134765625,5.17578125,-13.29296875,4.56640625,1.0
655522,,,,,,,,3.1015625,-2.3828125,3.39453125,-0.712890625,-0.935546875,0.166015625,3.03125,-12.02734375,4.14453125,1.0
655523,,,,,,,,0.05078125,-2.76171875,4.03125,-0.77734375,-1.41796875,0.1875,-0.03515625,-12.41015625,4.6796875,1.0
655524,,,,,,,,-0.859375,-2.98828125,4.1875,-0.77734375,-1.49609375,0.171875,-0.953125,-12.6328125,4.796875,1.0
655525,,,,,,,,-1.05078125,-1.3359375,1.55859375,0.1875,-0.51171875,-0.001953125,-1.14453125,-10.9921875,2.07421875,1.0
655526,,,,,,,,-0.68359375,-0.64453125,1.17578125,0.599609375,-0.333984375,-0.140625,-0.76171875,-10.30078125,1.76953125,1.0
655527,,,,,,,,-0.375,0.04296875,0.65234375,0.576171875,-0.5078125,-0.146484375,-0.453125,-9.61328125,1.26953125,1.0
655528,,,,,,,,0.01953125,0.12890625,0.29296875,0.5546875,-0.939453125,-0.11328125,-0.03515625,-9.53515625,0.96484375,1.0
655529,,,,,,,,0.3203125,-0.17578125,0.453125,0.5859375,-1.0625,-0.03125,0.2734375,-9.8359375,1.15625,1.0
655530,36.01324116666667,129.31928116666668,61.40623016992663,93.33542727583314,1.2000000000000002,42.0,,0.2734375,-0.5390625,1.34765625,0.78515625,-0.890625,0.078125,0.234375,-10.19140625,2.15234375,1.0
655531,,,,,,,,0.2890625,-0.4609375,0.6875,0.736328125,-0.744140625,0.197265625,0.234375,-10.109375,1.578125,1.0
655532,,,,,,,,0.3359375,0.53515625,-0.09765625,0.4375,-0.708984375,0.296875,0.2734375,-9.11328125,0.84765625,1.0
655533,,,,,,,,0.359375,1.30078125,-0.1953125,0.07421875,-0.716796875,0.40234375,0.2734375,-8.34765625,0.7734375,1.0
655534,,,,,,,,0.7578125,1.60546875,0.078125,-0.169921875,-0.71484375,0.4375,0.6171875,-8.04296875,1.0390625,1.0
655535,,,,,,,,1.37109375,1.4140625,0.2890625,-0.1328125,-0.720703125,0.431640625,1.19140625,-8.234375,1.234375,1.0
655536,,,,,,,,1.51171875,1.578125,-0.04296875,-0.125,-0.685546875,0.38671875,1.30859375,-8.078125,0.88671875,1.0
655537,,,,,,,,1.46484375,1.96875,-0.34765625,-0.208984375,-0.671875,0.345703125,1.23046875,-7.69921875,0.58203125,1.0
655538,,,,,,,,1.34375,2.390625,-0.4765625,-0.287109375,-0.7109375,0.306640625,1.078125,-7.2734375,0.4296875,1.0
655539,,,,,,,,1.25,2.65625,-0.609375,-0.2890625,-0.72265625,0.296875,0.9609375,-7.01171875,0.2734375,1.0
655540,36.013242,129.319282,61.48135336313973,93.42789383958723,1.2000000000000002,40.0,,1.34375,2.65625,-0.66015625,-0.17578125,-0.732421875,0.27734375,1.0390625,-7.01171875,0.19921875,1.0
655541,,,,,,,,1.51171875,2.47265625,-0.73046875,-0.03515625,-0.73046875,0.255859375,1.19140625,-7.19921875,0.12109375,1.0
655542,,,,,,,,1.63671875,2.359375,-0.76953125,0.029296875,-0.701171875,0.25390625,1.30859375,-7.3125,0.08203125,1.0
655543,,,,,,,,1.7265625,2.19921875,-0.9296875,0.1015625,-0.591796875,0.25,1.3828125,-7.4609375,-0.0703125,1.0
655544,,,,,,,,1.78125,2.19140625,-0.953125,0.12890625,-0.5546875,0.263671875,1.421875,-7.46484375,-0.0703125,1.0
655545,,,,,,,,1.7265625,2.11328125,-0.96875,0.125,-0.54296875,0.2734375,1.34375,-7.5390625,-0.0703125,1.0
655546,,,,,,,,1.70703125,2.11328125,-0.96875,0.107421875,-0.541015625,0.263671875,1.30859375,-7.5390625,-0.0703125,1.0
655547,,,,,,,,1.421875,2.15234375,-1.03125,0.107421875,-0.53515625,0.232421875,1.0,-7.50390625,-0.109375,1.0
655548,,,,,,,,1.35546875,2.06640625,-1.0390625,0.1171875,-0.466796875,0.19140625,0.92578125,-7.58203125,-0.109375,1.0
655549,,,,,,,,1.20703125,2.06640625,-1.046875,0.12890625,-0.42578125,0.169921875,0.76953125,-7.58203125,-0.109375,1.0
655550,36.01324266666666,129.31928233333335,61.51140238629326,93.50186688005451,1.0,37.0,,1.140625,1.9921875,-1.0625,0.154296875,-0.37109375,0.111328125,1.0390625,-7.01171875,0.19921875,1.0
655551,,,,,,,,1.0703125,1.4921875,-1.078125,0.17578125,-0.318359375,0.064453125,0.6171875,-8.15625,-0.109375,1.0
655552,,,,,,,,1.21484375,1.20703125,-1.1484375,0.220703125,-0.236328125,0.017578125,0.76953125,-8.42578125,-0.1484375,1.0
655553,,,,,,,,1.484375,0.59375,-1.0625,0.23828125,-0.1484375,-0.005859375,1.0390625,-9.0390625,-0.03125,1.0
655554,,,,,,,,1.515625,0.05078125,-0.89453125,0.216796875,-0.072265625,-0.009765625,1.078125,-9.5703125,0.16015625,1.0
655555,,,,,,,,1.36328125,-0.1015625,-0.8046875,0.1953125,-0.0390625,0.0078125,0.92578125,-9.73046875,0.2734375,1.0
655556,,,,,,,,1.046875,-0.1796875,-0.65625,0.1796875,-0.02734375,0.0078125,0.6171875,-9.8046875,0.4296875,1.0
655557,,,,,,,,0.85546875,-0.22265625,-0.51953125,0.1328125,0.0234375,0.015625,0.42578125,-9.83984375,0.58203125,1.0
655558,,,,,,,,0.6640625,-0.33984375,-0.421875,0.1328125,0.076171875,0.015625,0.234375,-9.95703125,0.6953125,1.0
655559,,,,,,,,0.6640625,-0.4609375,-0.3828125,0.14453125,0.107421875,0.01953125,0.234375,-10.07421875,0.734375,1.0
655560,36.01324366666667,129.31928299999998,61.571500679067285,93.61282654792218,1.1,31.0,,0.703125,-0.65234375,-0.66796875,0.154296875,-0.37109375,0.111328125,0.2734375,-10.26171875,0.46484375,1.0
655561,,,,,,,,0.7109375,-0.84375,-0.64453125,0.154296875,0.193359375,0.046875,0.2734375,-10.45703125,0.50390625,1.0
655562,,,,,,,,0.55078125,-1.19921875,-0.7265625,0.13671875,0.197265625,0.048828125,0.12109375,-10.796875,0.4296875,1.0
655563,,,,,,,,0.2109375,-1.6953125,-0.78125,0.087890625,0.138671875,0.06640625,-0.2265625,-11.30078125,0.390625,1.0
655564,,,,,,,,0.06640625,-1.8125,-0.58984375,0.072265625,0.119140625,0.078125,-0.37890625,-11.41796875,0.58203125,1.0
655565,,,,,,,,-0.38671875,-1.51171875,0.2890625,0.013671875,0.013671875,0.099609375,-0.83984375,-11.1015625,1.4609375,1.0
655566,,,,,,,,-0.453125,-1.015625,0.3671875,0.0,-0.013671875,0.11328125,-0.9140625,-10.61328125,1.5390625,1.0
655567,,,,,,,,0.05078125,-0.36328125,-0.24609375,-0.021484375,-0.013671875,0.126953125,-0.41796875,-9.953125,0.92578125,1.0
655568,,,,,,,,0.3984375,-0.39453125,-0.78125,-0.052734375,-0.02734375,0.140625,-0.0703125,-9.9921875,0.390625,1.0
655569,,,,,,,,0.71875,-0.9765625,-1.1875,-0.13671875,-0.041015625,0.154296875,0.234375,-10.5703125,-0.03125,1.0
655570,36.013244666666665,129.31928333333332,61.601549436952226,93.7237860047114,1.1,26.0,,0.8046875,-1.05078125,-1.21875,0.154296875,-0.37109375,0.111328125,0.2734375,-10.26171875,0.46484375,1.0
655571,,,,,,,,0.75,-1.3515625,-1.05078125,-0.099609375,-0.193359375,0.22265625,0.234375,-10.95703125,0.08203125,1.0
655572,,,,,,,,0.6875,-1.8203125,-0.87890625,-0.14453125,-0.255859375,0.27734375,0.15625,-11.41796875,0.23828125,1.0
655573,,,,,,,,0.4453125,-3.0078125,-0.21484375,-0.322265625,-0.244140625,0.3359375,-0.109375,-12.6015625,0.88671875,1.0
655574,,,,,,,,-0.3671875,-4.64453125,0.4375,-0.544921875,-0.20703125,0.3828125,-0.953125,-14.24609375,1.5,1.0
655575,,,,,,,,-2.01171875,-2.37890625,3.671875,-0.681640625,-0.068359375,0.3203125,-2.63671875,-11.984375,4.640625,1.0
655576,,,,,,,,-1.5234375,-0.76171875,2.74609375,-0.669921875,-0.01171875,0.259765625,-2.1796875,-10.37890625,3.64453125,1.0
655577,,,,,,,,-1.23046875,-0.29296875,1.890625,-0.73046875,0.1015625,0.21484375,-1.91015625,-9.91796875,2.7265625,1.0
655578,,,,,,,,-0.44140625,-0.28515625,1.73828125,-0.78515625,0.234375,0.1953125,-1.14453125,-9.91796875,2.45703125,1.0
655579,,,,,,,,-0.03515625,-0.35546875,2.30859375,-0.580078125,0.216796875,0.140625,-0.76171875,-9.9921875,2.95703125,1.0
655580,36.01324566666666,129.31928383333334,61.646622966180956,93.83474556670913,1.2000000000000002,22.0,,0.2421875,-0.546875,2.60546875,-0.08203125,-0.06640625,0.13671875,-0.4921875,-10.1875,3.22265625,1.0
655581,,,,,,,,0.21875,-0.66015625,1.640625,0.119140625,-0.357421875,0.162109375,-0.53125,-10.30078125,2.265625,1.0
655582,,,,,,,,-0.234375,-0.69921875,1.01953125,-0.005859375,-0.376953125,0.19140625,-0.9921875,-10.33984375,1.65234375,1.0
655583,,,,,,,,-0.30078125,-0.69921875,1.13671875,-0.05859375,-0.29296875,0.208984375,-1.06640625,-10.3359375,1.76953125,1.0
655584,,,,,,,,-0.74609375,-0.8515625,1.94921875,-0.033203125,-0.0703125,0.216796875,-1.52734375,-10.4921875,2.57421875,1.0
655585,,,,,,,,-1.03125,-1.08203125,2.4375,0.1484375,0.046875,0.1796875,-1.8359375,-10.72265625,3.0703125,1.0
655586,,,,,,,,-1.13671875,-1.3515625,2.33984375,0.23828125,0.033203125,0.15625,-1.94921875,-10.9921875,2.99609375,1.0
655587,,,,,,,,-1.0078125,-1.3515625,2.0078125,0.138671875,-0.041015625,0.1015625,-1.8359375,-10.99609375,2.6875,1.0
655588,,,,,,,,-0.8515625,-1.3203125,1.81640625,0.033203125,-0.103515625,0.060546875,-1.6796875,-10.953125,2.49609375,1.0
655589,,,,,,,,-0.09375,-0.5859375,1.2890625,-0.166015625,-0.294921875,-0.080078125,-0.9140625,-10.2265625,1.9609375,1.0
655590,36.01324666666667,129.31928416666668,61.67667172206906,93.94570502439166,1.2000000000000002,19.0,,0.12890625,-0.23046875,1.03515625,-0.08203125,-0.06640625,0.13671875,-0.68359375,-9.875,1.69140625,1.0
655591,,,,,,,,0.5625,0.2265625,0.68359375,-0.03515625,-0.546875,-0.177734375,-0.2265625,-9.42578125,1.34765625,1.0
655592,,,,,,,,0.80078125,0.734375,0.4453125,0.04296875,-0.666015625,-0.19921875,0.04296875,-8.92578125,1.1171875,1.0
655593,,,,,,,,0.8984375,1.078125,0.16796875,0.076171875,-0.671875,-0.1953125,0.15625,-8.578125,0.84765625,1.0
655594,,,,,,,,0.84765625,1.5,0.0390625,0.130859375,-0.6484375,-0.166015625,0.12109375,-8.15625,0.734375,1.0
655595,,,,,,,,0.70703125,1.9296875,-0.13671875,0.1484375,-0.611328125,-0.140625,0.00390625,-7.734375,0.58203125,1.0
655596,,,,,,,,0.53125,2.15234375,-0.34375,0.1328125,-0.6015625,-0.134765625,-0.1484375,-7.50390625,0.390625,1.0
655597,,,,,,,,0.35546875,2.12109375,-0.3671875,0.126953125,-0.623046875,-0.146484375,-0.30078125,-7.54296875,0.390625,1.0
655598,,,,,,,,0.26953125,2.16015625,-0.328125,0.119140625,-0.6328125,-0.154296875,-0.37890625,-7.5,0.4296875,1.0
655599,,,,,,,,0.171875,2.08203125,-0.3828125,0.09765625,-0.63671875,-0.181640625,-0.453125,-7.58203125,0.390625,1.0
655600,36.013247500000006,129.31928449999998,61.70672060600599,94.03817127427219,1.1,19.0,0.0,-0.08984375,2.12109375,-0.40625,-0.08203125,-0.06640625,0.13671875,-0.68359375,-7.54296875,0.390625,1.0
655601,,,,,,,,-0.23046875,2.3203125,-0.453125,0.044921875,-0.6484375,-0.1875,-0.80078125,-7.35546875,0.3515625,1.0
655602,,,,,,,,-0.13671875,2.3203125,-0.5078125,0.048828125,-0.625,-0.173828125,-0.68359375,-7.35546875,0.3125,1.0
655603,,,,,,,,-0.22265625,2.28125,-0.46875,0.046875,-0.619140625,-0.162109375,-0.76171875,-7.39453125,0.3515625,1.0
655604,,,,,,,,-0.13671875,2.19921875,-0.3984375,0.087890625,-0.57421875,-0.14453125,-0.64453125,-7.46484375,0.4296875,1.0
655605,,,,,,,,-0.125,2.0078125,-0.4296875,0.15234375,-0.5078125,-0.08984375,-0.609375,-7.66015625,0.4296875,1.0
655606,,,,,,,,-0.1328125,1.9296875,-0.484375,0.193359375,-0.47265625,-0.0546875,-0.609375,-7.73828125,0.390625,1.0
655607,,,,,,,,-0.17578125,1.9609375,-0.5859375,0.22265625,-0.443359375,-0.025390625,-0.64453125,-7.69921875,0.3125,1.0
655608,,,,,,,,-0.18359375,2.07421875,-0.59375,0.23046875,-0.435546875,-0.01171875,-0.64453125,-7.578125,0.3125,1.0
655609,,,,,,,,-0.078125,2.21875,-0.70703125,0.23046875,-0.435546875,0.0234375,-0.53125,-7.4296875,0.23828125,1.0
655610,36.01324816666667,129.31928483333334,61.73676962474039,94.11214431557816,1.0,18.0,,0.02734375,2.18359375,-0.73828125,-0.08203125,-0.06640625,0.13671875,-0.68359375,-7.54296875,0.390625,1.0
655611,,,,,,,,-0.15625,1.75390625,-0.76171875,0.232421875,-0.40625,0.037109375,-0.609375,-7.8828125,0.23828125,1.0
655612,,,,,,,,-0.39453125,1.4453125,-0.75,0.2421875,-0.400390625,0.0546875,-0.83984375,-8.1953125,0.2734375,1.0
655613,,,,,,,,-0.5390625,1.140625,-0.640625,0.248046875,-0.3984375,0.05859375,-0.9921875,-8.5,0.390625,1.0
655614,,,,,,,,-0.62109375,0.671875,-0.59765625,0.240234375,-0.4140625,0.05078125,-1.06640625,-8.9609375,0.46484375,1.0
655615,,,,,,,,-0.546875,0.2421875,-0.58984375,0.203125,-0.37890625,0.05078125,-0.9921875,-9.38671875,0.50390625,1.0
655616,,,,,,,,-0.4296875,-0.21484375,-0.7578125,0.1484375,-0.349609375,0.029296875,-0.875,-9.8359375,0.3515625,1.0
655617,,,,,,,,-0.26953125,-0.1875,-0.46875,0.08984375,-0.35546875,0.0078125,-0.72265625,-9.8046875,0.65625,1.0
655618,,,,,,,,-0.1640625,-0.1484375,-0.28515625,0.068359375,-0.373046875,-0.00390625,-0.609375,-9.765625,0.84765625,1.0
655619,,,,,,,,0.13671875,0.03515625,-0.16796875,0.013671875,-0.42578125,-0.0234375,-0.30078125,-9.57421875,0.96484375,1.0
655620,36.01324916666667,129.31928516666667,61.766818379057085,94.22310377284184,1.1,16.0,,0.00390625,-0.1953125,-0.20703125,-0.037109375,-0.474609375,-0.03515625,-0.41796875,-9.8046875,0.92578125,1.0
655621,,,,,,,,-0.35546875,-0.15625,-0.3515625,-0.09375,-0.494140625,-0.04296875,-0.76171875,-9.765625,0.7734375,1.0
655622,,,,,,,,-0.44140625,-0.078125,-0.390625,-0.072265625,-0.515625,-0.03515625,-0.83984375,-9.69140625,0.734375,1.0
655623,,,,,,,,-0.640625,0.41796875,-0.8046875,-0.033203125,-0.51171875,-0.048828125,-1.03125,-9.19140625,0.3125,1.0
655624,,,,,,,,-0.73046875,0.6484375,-0.95703125,-0.05859375,-0.455078125,-0.052734375,-1.10546875,-8.9609375,0.16015625,1.0
655625,,,,,,,,-0.8828125,0.87890625,-1.1015625,-0.11328125,-0.40234375,-0.064453125,-1.2578125,-8.73046875,0.0078125,1.0
655626,,,,,,,,-1.12109375,0.984375,-1.140625,-0.12109375,-0.390625,-0.0703125,-1.48828125,-8.62109375,-0.03125,1.0
655627,,,,,,,,-1.63671875,0.87109375,-0.8203125,-0.134765625,-0.38671875,-0.07421875,-1.98828125,-8.7265625,0.2734375,1.0
655628,,,,,,,,-2.08203125,0.2265625,-0.56640625,-0.19140625,-0.40234375,-0.078125,-2.41015625,-9.38671875,0.50390625,1.0
655629,,,,,,,,-2.1171875,-0.1953125,-0.51953125,-0.23046875,-0.421875,-0.068359375,-2.4453125,-9.8046875,0.54296875,1.0
655630,36.01325,129.3192855,61.796867262733244,94.31557002313355,1.0,16.0,,-1.94140625,-1.57421875,-0.48046875,-0.365234375,-0.484375,-0.05859375,-2.25390625,-11.18359375,0.54296875,1.0
655631,,,,,,,,-1.375,-3.55859375,0.44140625,-0.453125,-0.525390625,-0.048828125,-1.6796875,-13.171875,1.42578125,1.0
655632,,,,,,,,-0.9609375,-4.37109375,0.84765625,-0.498046875,-0.56640625,-0.037109375,-1.2578125,-13.9765625,1.80859375,1.0
655633,,,,,,,,1.10546875,-7.578125,1.19921875,-0.609375,-0.68359375,-0.0390625,0.80859375,-17.1953125,2.11328125,1.0
655634,,,,,,,,3.234375,-9.1796875,1.875,-0.78515625,-0.810546875,-0.044921875,2.953125,-18.80859375,2.7265625,1.0
655635,,,,,,,,5.296875,-4.4609375,2.91015625,-0.939453125,-0.962890625,-0.005859375,5.0234375,-14.09375,3.68359375,1.0
655636,,,,,,,,4.0625,-2.0859375,2.12109375,-0.9609375,-1.03125,0.0234375,3.796875,-11.71875,2.83984375,1.0
655637,,,,,,,,2.0703125,-1.87890625,2.5546875,-0.953125,-1.390625,0.111328125,1.8046875,-11.52734375,3.1484375,1.0
655638,,,,,,,,-0.265625,-3.671875,3.4609375,-0.8984375,-1.44140625,0.134765625,-0.53125,-13.33203125,3.9140625,1.0
655639,,,,,,,,-0.56640625,-3.94140625,3.38671875,-0.69921875,-1.3203125,0.107421875,-0.83984375,-13.59375,3.80078125,1.0
655640,36.013251,129.31928616666667,61.856965550895936,94.42652969236707,1.1,20.0,,-0.6015625,-3.7109375,2.48828125,-0.365234375,-0.484375,-0.05859375,-0.875,-13.3671875,2.87890625,1.0
655641,,,,,,,,0.0546875,-2.62109375,1.4296875,0.3515625,-0.8359375,-0.2421875,-0.1875,-12.29296875,1.8828125,1.0
655642,,,,,,,,0.19140625,-1.89453125,1.68359375,0.2578125,-1.03125,-0.2734375,-0.03515625,-11.5625,2.15234375,1.0
655643,,,,,,,,0.1171875,-1.55859375,1.62109375,0.177734375,-1.341796875,-0.2734375,-0.0703125,-11.21875,2.11328125,1.0
655644,,,,,,,,-0.015625,-1.2421875,1.15234375,0.224609375,-1.427734375,-0.248046875,-0.1875,-10.9140625,1.65234375,1.0
655645,,,,,,,,0.10546875,-0.74609375,0.8984375,0.4765625,-1.435546875,-0.115234375,-0.03515625,-10.4140625,1.4609375,1.0
655646,,,,,,,,0.58984375,-0.24609375,0.83984375,0.552734375,-1.35546875,-0.0546875,0.46484375,-9.91796875,1.42578125,1.0
655647,,,,,,,,1.0859375,0.7109375,0.18359375,0.59765625,-1.05078125,0.23046875,0.9609375,-8.9609375,0.88671875,1.0
655648,,,,,,,,1.09375,1.0546875,-0.0390625,0.53515625,-0.998046875,0.283203125,0.9609375,-8.6171875,0.6953125,1.0
655649,,,,,,,,1.234375,2.46484375,-0.20703125,0.375,-0.93359375,0.34765625,1.078125,-7.1953125,0.58203125,1.0
655650,36.013251833333335,129.31928616666667,61.85696489981336,94.51899573193974,1.0,16.0,,-0.6015625,-3.7109375,2.48828125,0.283203125,-0.958984375,0.37890625,1.19140625,-6.81640625,0.62109375,1.0
655651,,,,,,,,1.38671875,3.1171875,-0.21484375,0.28515625,-0.984375,0.380859375,1.3828125,-6.27734375,0.46484375,1.0
655652,,,,,,,,1.6953125,3.578125,-0.37109375,0.279296875,-0.9375,0.365234375,1.4609375,-6.0078125,0.54296875,1.0
655653,,,,,,,,1.87109375,3.61328125,-0.484375,0.224609375,-0.90625,0.34375,1.69140625,-6.2421875,0.19921875,1.0
655654,,,,,,,,2.0859375,3.23046875,-0.96875,0.17578125,-0.89453125,0.34375,1.99609375,-6.85546875,-0.33984375,1.0
655655,,,,,,,,2.30859375,2.6484375,-1.4453125,0.16015625,-0.86328125,0.328125,2.07421875,-7.15625,-0.453125,1.0
655656,,,,,,,,2.39453125,2.49609375,-1.4140625,0.177734375,-0.857421875,0.328125,2.03515625,-7.4609375,-0.33984375,1.0
655657,,,,,,,,2.37109375,2.06640625,-1.20703125,0.203125,-0.849609375,0.328125,1.95703125,-7.65625,-0.0703125,1.0
655658,,,,,,,,2.203125,1.796875,-0.76953125,0.2109375,-0.86328125,0.3359375,1.84375,-7.8515625,0.23828125,1.0
655659,,,,,,,,2.07421875,1.67578125,-0.52734375,0.1328125,-0.841796875,0.337890625,1.69140625,-7.9609375,0.50390625,1.0
655660,36.013252666666666,129.3192865,61.88701378142748,94.61146198087336,1.1,13.0,,1.97265625,1.5625,-0.58203125,0.0234375,-0.755859375,0.326171875,1.19140625,-6.81640625,0.62109375,1.0
655661,,,,,,,,1.796875,1.4453125,-0.78125,-0.04296875,-0.609375,0.3046875,1.3828125,-8.1953125,0.2734375,1.0
655662,,,,,,,,1.7734375,1.37109375,-0.78125,-0.0390625,-0.5390625,0.291015625,1.34375,-8.265625,0.2734375,1.0
655663,,,,,,,,1.5625,1.0546875,-0.78125,-0.00390625,-0.439453125,0.240234375,1.1171875,-8.58203125,0.2734375,1.0
655664,,,,,,,,1.53125,0.98046875,-0.703125,0.029296875,-0.4140625,0.224609375,1.078125,-8.65234375,0.3515625,1.0
655665,,,,,,,,1.4296875,0.98046875,-0.48046875,0.103515625,-0.373046875,0.189453125,0.9609375,-8.65234375,0.58203125,1.0
655666,,,,,,,,1.33984375,1.1640625,-0.4296875,0.12890625,-0.341796875,0.126953125,0.84765625,-8.4609375,0.65625,1.0
655667,,,,,,,,1.140625,1.390625,-0.62890625,0.115234375,-0.330078125,0.11328125,0.65625,-8.234375,0.46484375,1.0
655668,,,,,,,,0.99609375,1.4296875,-0.8046875,0.150390625,-0.25390625,0.0625,0.50390625,-8.1953125,0.3125,1.0
655669,,,,,,,,1.0703125,1.3828125,-0.8125,0.189453125,-0.236328125,0.0546875,0.578125,-8.234375,0.3125,1.0
655670,36.013253500000005,129.31928633333334,61.8719883642436,94.70392791479082,1.0,8.0,,1.1015625,1.15625,-0.765625,0.0234375,-0.755859375,0.326171875,0.6171875,-8.46484375,0.390625,1.0
655671,,,,,,,,1.1484375,0.92578125,-0.63671875,0.326171875,-0.2265625,0.037109375,0.65625,-8.6875,0.54296875,1.0
655672,,,,,,,,1.33203125,0.640625,-0.4375,0.3203125,-0.248046875,0.03515625,0.84765625,-8.9609375,0.7734375,1.0
655673,,,,,,,,1.74609375,-0.01953125,-0.37109375,0.25390625,-0.287109375,0.05859375,1.26953125,-9.61328125,0.88671875,1.0
655674,,,,,,,,2.01953125,-0.37109375,-0.43359375,0.201171875,-0.287109375,0.0859375,1.53515625,-9.95703125,0.84765625,1.0
655675,,,,,,,,2.17578125,-0.71484375,-0.484375,0.166015625,-0.26171875,0.111328125,1.69140625,-10.30078125,0.8125,1.0
655676,,,,,,,,2.13671875,-0.83203125,-0.578125,0.142578125,-0.25390625,0.12890625,1.65234375,-10.4140625,0.734375,1.0
655677,,,,,,,,1.953125,-0.984375,-0.69140625,0.087890625,-0.244140625,0.169921875,1.4609375,-10.5703125,0.62109375,1.0
655678,,,,,,,,1.46875,-1.3359375,-0.73828125,0.025390625,-0.259765625,0.20703125,0.9609375,-10.91796875,0.58203125,1.0
655679,,,,,,,,0.75,-1.53515625,-0.515625,0.0078125,-0.2265625,0.208984375,0.234375,-11.10546875,0.8125,1.0
655680,36.0132545,129.319286,61.84193804806165,94.81488694949125,1.1,358.0,,0.23046875,-1.421875,-0.2890625,0.017578125,-0.16015625,0.193359375,0.6171875,-8.46484375,0.390625,1.0
655681,,,,,,,,-0.25390625,-1.14453125,-0.09375,0.0,-0.103515625,0.1796875,-0.80078125,-10.72265625,1.234375,1.0
655682,,,,,,,,-0.12890625,-0.65625,0.09765625,-0.029296875,-0.03125,0.162109375,-0.68359375,-10.2265625,1.42578125,1.0
655683,,,,,,,,0.421875,-0.8828125,-0.1640625,-0.095703125,0.025390625,0.162109375,-0.1484375,-10.45703125,1.15625,1.0
655684,,,,,,,,0.66015625,-1.62109375,-0.68359375,-0.16796875,0.060546875,0.16015625,0.08203125,-11.18359375,0.62109375,1.0
655685,,,,,,,,0.03125,-2.41796875,-0.203125,-0.19140625,-0.001953125,0.17578125,-0.5703125,-11.98828125,1.078125,1.0
655686,,,,,,,,-0.375,-2.1875,0.46484375,-0.203125,-0.12109375,0.197265625,-0.9921875,-11.7578125,1.73046875,1.0
655687,,,,,,,,-0.94140625,-2.4453125,1.1484375,-0.26171875,-0.220703125,0.216796875,-1.56640625,-12.02734375,2.3828125,1.0
655688,,,,,,,,-1.61328125,-3.13671875,1.4375,-0.45703125,-0.322265625,0.251953125,-2.25390625,-12.71484375,2.6484375,1.0
655689,,,,,,,,-2.59375,-2.66796875,2.6875,-0.705078125,-0.373046875,0.259765625,-3.25,-12.25,3.8359375,1.0
655690,36.0132555,129.31928533333334,61.78183820357461,94.92584577248826,1.1,347.0,,-2.3125,-2.01171875,3.1328125,0.017578125,-0.16015625,0.193359375,-2.984375,-11.60546875,4.21875,1.0
655691,,,,,,,,-1.72265625,-1.65625,2.67578125,-0.759765625,-0.322265625,0.185546875,-2.41015625,-11.2578125,3.68359375,1.0
655692,,,,,,,,-0.6796875,-1.57421875,2.36328125,-0.728515625,-0.3984375,0.185546875,-1.375,-11.18359375,3.30078125,1.0
655693,,,,,,,,-0.13671875,-1.57421875,2.625,-0.74609375,-0.453125,0.1796875,-0.83984375,-11.1796875,3.53125,1.0
655694,,,,,,,,0.30078125,-1.55859375,3.109375,-0.626953125,-0.6640625,0.140625,-0.41796875,-11.1796875,3.9140625,1.0
655695,,,,,,,,0.42578125,-1.39453125,2.8515625,-0.22265625,-0.9140625,0.150390625,-0.30078125,-11.02734375,3.609375,1.0
655696,,,,,,,,0.2734375,-1.203125,2.3984375,-0.099609375,-0.9296875,0.154296875,-0.453125,-10.8359375,3.1484375,1.0
655697,,,,,,,,-0.21875,-1.13671875,2.3984375,-0.029296875,-0.8359375,0.140625,-0.953125,-10.7578125,3.1484375,1.0
655698,,,,,,,,-0.44921875,-1.12890625,2.50390625,0.021484375,-0.7734375,0.115234375,-1.18359375,-10.76171875,3.26171875,1.0
655699,,,,,,,,-0.70703125,-0.8515625,2.44921875,0.1328125,-0.716796875,0.07421875,-1.44921875,-10.4921875,3.22265625,1.0
655700,36.013256500000004,129.31928483333334,61.73676312640342,95.03680470261072,1.2000000000000002,342.0,0.0,-0.59375,-0.4765625,2.04296875,0.169921875,-0.70703125,0.03125,-1.3359375,-10.11328125,2.83984375,1.0
655701,,,,,,,,-0.45703125,-0.1328125,1.5234375,0.083984375,-0.703125,-0.013671875,-1.18359375,-9.76953125,2.34375,1.0
655702,,,,,,,,-0.265625,-0.09375,1.484375,0.013671875,-0.6953125,-0.033203125,-0.9921875,-9.73046875,2.3046875,1.0
655703,,,,,,,,-0.05078125,-0.015625,1.3984375,-0.09375,-0.701171875,-0.087890625,-0.76171875,-9.6484375,2.2265625,1.0
655704,,,,,,,,0.34765625,0.15234375,1.0234375,-0.072265625,-0.744140625,-0.130859375,-0.33984375,-9.4921875,1.84375,1.0
655705,,,,,,,,0.5625,0.3046875,0.75,0.0078125,-0.798828125,-0.15234375,-0.109375,-9.34375,1.578125,1.0
655706,,,,,,,,0.66015625,0.57421875,0.51953125,0.025390625,-0.8125,-0.158203125,0.00390625,-9.07421875,1.34765625,1.0
655707,,,,,,,,0.921875,1.00390625,0.3515625,-0.0390625,-0.822265625,-0.16796875,0.3125,-8.6484375,1.1953125,1.0
655708,,,,,,,,1.1875,1.8515625,-0.01171875,-0.025390625,-0.853515625,-0.154296875,0.6171875,-7.8125,0.84765625,1.0
655709,,,,,,,,1.140625,2.0078125,-0.125,-0.01171875,-0.85546875,-0.15234375,0.578125,-7.65625,0.734375,1.0
655710,36.01325716666667,129.31928433333331,61.6916883058514,95.1107772170602,1.0,342.0,,1.08203125,2.234375,-0.125,-0.005859375,-0.84375,-0.150390625,0.54296875,-7.43359375,0.734375,1.0
655711,,,,,,,,0.7734375,2.46484375,-0.171875,0.0078125,-0.841796875,-0.154296875,0.2734375,-7.1953125,0.6953125,1.0
655712,,,,,,,,0.61328125,2.42578125,-0.02734375,0.025390625,-0.849609375,-0.15234375,0.12109375,-7.234375,0.84765625,1.0
655713,,,,,,,,0.42578125,2.19921875,0.08203125,0.0546875,-0.87890625,-0.158203125,-0.03515625,-7.46484375,0.96484375,1.0
655714,,,,,,,,0.17578125,2.015625,0.03515625,0.044921875,-0.890625,-0.162109375,-0.26171875,-7.65625,0.92578125,1.0
655715,,,,,,,,0.11328125,2.0078125,-0.05859375,0.033203125,-0.876953125,-0.154296875,-0.30078125,-7.65625,0.84765625,1.0
655716,,,,,,,,-0.109375,2.08203125,-0.140625,0.01953125,-0.849609375,-0.130859375,-0.4921875,-7.58203125,0.7734375,1.0
655717,,,,,,,,-0.39453125,2.234375,-0.1015625,0.033203125,-0.794921875,-0.10546875,-0.76171875,-7.43359375,0.8125,1.0
655718,,,,,,,,-0.5625,2.3125,-0.109375,0.056640625,-0.76953125,-0.087890625,-0.9140625,-7.35546875,0.8125,1.0
655719,,,,,,,,-0.5390625,2.234375,-0.1171875,0.078125,-0.755859375,-0.076171875,-0.875,-7.4296875,0.8125,1.0
655720,36.013258,129.31928383333334,61.64661336282241,95.20324293894645,1.0,337.0,,-0.48046875,2.234375,-0.25,-0.005859375,-0.84375,-0.150390625,0.54296875,-7.43359375,0.734375,1.0
655721,,,,,,,,-0.41015625,2.234375,-0.45703125,0.14453125,-0.712890625,-0.0078125,-0.72265625,-7.43359375,0.50390625,1.0
655722,,,,,,,,-0.3046875,2.15234375,-0.640625,0.189453125,-0.703125,0.056640625,-0.609375,-7.5,0.3515625,1.0
655723,,,,,,,,-0.15625,2.11328125,-0.7421875,0.212890625,-0.712890625,0.095703125,-0.453125,-7.54296875,0.2734375,1.0
655724,,,,,,,,0.04296875,2.11328125,-0.83203125,0.2265625,-0.712890625,0.126953125,-0.26171875,-7.5390625,0.19921875,1.0
655725,,,,,,,,0.234375,1.9921875,-0.91015625,0.2421875,-0.705078125,0.1484375,-0.0703125,-7.66015625,0.16015625,1.0
655726,,,,,,,,0.30859375,1.8671875,-0.8046875,0.244140625,-0.697265625,0.16015625,0.00390625,-7.77734375,0.2734375,1.0
655727,,,,,,,,0.2421875,1.4375,-0.671875,0.22265625,-0.671875,0.189453125,-0.0703125,-8.1953125,0.4296875,1.0
655728,,,,,,,,0.06640625,0.90234375,-0.54296875,0.181640625,-0.673828125,0.208984375,-0.26171875,-8.7265625,0.58203125,1.0
655729,,,,,,,,0.03515625,0.48046875,-0.59765625,0.125,-0.701171875,0.21875,-0.30078125,-9.1484375,0.54296875,1.0
655730,36.01325883333333,129.31928316666665,61.58651364880984,95.29570855545067,1.0,332.0,,0.00390625,0.09765625,-0.57421875,-0.005859375,-0.84375,-0.150390625,0.54296875,-7.43359375,0.734375,1.0
655731,,,,,,,,0.01953125,-0.0703125,-0.53515625,0.015625,-0.701171875,0.21875,-0.33984375,-9.6875,0.62109375,1.0
655732,,,,,,,,0.06640625,-0.1484375,-0.46875,-0.009765625,-0.693359375,0.212890625,-0.30078125,-9.765625,0.6953125,1.0
655733,,,,,,,,0.45703125,-0.22265625,-0.7734375,-0.060546875,-0.685546875,0.197265625,0.08203125,-9.83984375,0.390625,1.0
655734,,,,,,,,1.0078125,0.08203125,-0.71875,-0.103515625,-0.671875,0.166015625,0.6171875,-9.53125,0.4296875,1.0
655735,,,,,,,,1.16796875,-0.30859375,-0.51171875,-0.064453125,-0.638671875,0.130859375,0.76953125,-9.91796875,0.62109375,1.0
655736,,,,,,,,1.140625,-0.4609375,-0.4375,-0.0703125,-0.63671875,0.125,0.734375,-10.0703125,0.6953125,1.0
655737,,,,,,,,0.86328125,-0.68359375,-0.55078125,-0.087890625,-0.615234375,0.10546875,0.46484375,-10.30078125,0.58203125,1.0
655738,,,,,,,,0.48828125,-0.578125,-0.66796875,-0.10546875,-0.587890625,0.087890625,0.08203125,-10.19140625,0.46484375,1.0
655739,,,,,,,,0.296875,-0.5078125,-0.765625,-0.12109375,-0.580078125,0.07421875,-0.109375,-10.109375,0.3515625,1.0
655740,36.013259833333336,129.3192825,61.5264138134696,95.40666738124723,1.1,333.0,,-0.5078125,-0.125,-0.91015625,-0.166015625,-0.5,0.05859375,-0.9140625,-9.7265625,0.19921875,1.0
655741,,,,,,,,-1.0078125,0.03515625,-0.85546875,-0.25,-0.40625,0.041015625,-1.4140625,-9.57421875,0.23828125,1.0
655742,,,,,,,,-1.59765625,0.1875,-0.6328125,-0.30859375,-0.318359375,0.015625,-1.98828125,-9.42578125,0.4296875,1.0
655743,,,,,,,,-1.7890625,0.265625,-0.45703125,-0.3203125,-0.244140625,-0.009765625,-2.1796875,-9.34375,0.58203125,1.0
655744,,,,,,,,-1.86328125,0.265625,-0.41796875,-0.3359375,-0.19140625,-0.0234375,-2.25390625,-9.34765625,0.58203125,1.0
655745,,,,,,,,-1.94921875,0.04296875,-0.234375,-0.3828125,-0.173828125,-0.033203125,-2.33203125,-9.5703125,0.734375,1.0
655746,,,,,,,,-2.02734375,-0.64453125,-0.30859375,-0.470703125,-0.205078125,-0.044921875,-2.41015625,-10.2578125,0.62109375,1.0
655747,,,,,,,,-1.88671875,-1.671875,-0.1015625,-0.525390625,-0.283203125,-0.048828125,-2.25390625,-11.296875,0.7734375,1.0
655748,,,,,,,,-1.7734375,-2.20703125,0.01953125,-0.580078125,-0.38671875,-0.048828125,-2.140625,-11.828125,0.84765625,1.0
655749,,,,,,,,-0.79296875,-4.27734375,0.58203125,-0.6328125,-0.470703125,-0.056640625,-1.14453125,-13.8984375,1.34765625,1.0
655750,36.01326066666666,129.31928183333332,61.46631410221205,95.49913299838879,1.0,331.0,,1.49609375,-7.37109375,0.4921875,-0.67578125,-0.5625,-0.072265625,1.15234375,-17.0,1.1953125,1.0
655751,,,,,,,,4.46875,-6.7890625,2.8828125,-0.748046875,-0.744140625,-0.08203125,4.140625,-16.4296875,3.4921875,1.0
655752,,,,,,,,5.57421875,-5.2578125,4.03515625,-0.763671875,-0.837890625,-0.06640625,5.25390625,-14.90234375,4.60546875,1.0
655753,,,,,,,,2.02734375,-3.05859375,3.94140625,-0.853515625,-1.23046875,-0.025390625,1.73046875,-12.71484375,4.41015625,1.0
655754,,,,,,,,-0.81640625,-3.203125,4.02734375,-0.87109375,-1.57421875,-0.021484375,-1.10546875,-12.8671875,4.41015625,1.0
655755,,,,,,,,-2.1640625,-3.28125,3.83203125,-0.763671875,-1.78515625,-0.048828125,-2.4453125,-12.9453125,4.14453125,1.0
655756,,,,,,,,-2.328125,-3.12890625,3.40234375,-0.66015625,-1.767578125,-0.0546875,-2.6015625,-12.79296875,3.68359375,1.0
655757,,,,,,,,-2.265625,-2.53515625,2.1328125,-0.123046875,-1.296875,-0.12890625,-2.5234375,-12.21484375,2.3828125,1.0
655758,,,,,,,,-2.01953125,-1.39453125,1.2734375,0.3359375,-0.908203125,-0.283203125,-2.25390625,-11.06640625,1.5390625,1.0
655759,,,,,,,,-1.8828125,-0.859375,1.296875,0.408203125,-0.955078125,-0.3125,-2.1015625,-10.53515625,1.578125,1.0
655760,36.01326133333334,129.31928116666668,61.40621452820855,95.57310541064676,1.1,331.0,,-0.8125,-0.23828125,0.94140625,-0.67578125,-0.5625,-0.072265625,1.15234375,-17.0,1.1953125,1.0
655761,,,,,,,,0.51953125,-0.125,1.0078125,0.76171875,-1.45703125,-0.111328125,0.38671875,-9.80859375,1.4609375,1.0
655762,,,,,,,,0.6953125,-0.23828125,0.9296875,0.74609375,-1.390625,0.107421875,0.578125,-9.9140625,1.5,1.0
655763,,,,,,,,0.93359375,0.13671875,0.62890625,0.609375,-1.4453125,0.287109375,0.80859375,-9.53125,1.26953125,1.0
655764,,,,,,,,1.09375,0.671875,0.40625,0.49609375,-1.48046875,0.349609375,0.9609375,-9.00390625,1.078125,1.0
655765,,,,,,,,1.1640625,1.5546875,0.21484375,0.236328125,-1.509765625,0.435546875,1.0,-8.12109375,0.92578125,1.0
655766,,,,,,,,1.1953125,1.8203125,0.12109375,0.0546875,-1.486328125,0.494140625,1.0,-7.8515625,0.84765625,1.0
655767,,,,,,,,1.38671875,2.16796875,-0.12109375,-0.001953125,-1.46484375,0.515625,1.15234375,-7.50390625,0.62109375,1.0
655768,,,,,,,,1.56640625,2.20703125,-0.12109375,-0.005859375,-1.47265625,0.513671875,1.30859375,-7.46484375,0.62109375,1.0
655769,,,,,,,,1.7890625,2.3203125,-0.23828125,0.005859375,-1.490234375,0.490234375,1.5,-7.3515625,0.50390625,1.0
655770,36.013262000000005,129.31928033333332,61.33109018387681,95.64707771643104,1.1,328.0,,1.91796875,2.359375,-0.3984375,-0.67578125,-0.5625,-0.072265625,1.61328125,-7.3125,0.3515625,1.0
655771,,,,,,,,2.06640625,2.47265625,-0.51953125,0.046875,-1.466796875,0.435546875,1.73046875,-7.19921875,0.23828125,1.0
655772,,,,,,,,2.25,2.51171875,-0.53515625,0.056640625,-1.462890625,0.408203125,1.8828125,-7.16015625,0.23828125,1.0
655773,,,,,,,,2.5703125,2.359375,-0.69921875,0.060546875,-1.4453125,0.392578125,2.1875,-7.3125,0.08203125,1.0
655774,,,,,,,,2.703125,2.359375,-0.78125,0.05859375,-1.421875,0.38671875,2.3046875,-7.31640625,0.0078125,1.0
655775,,,,,,,,2.91796875,2.20703125,-0.9140625,0.068359375,-1.37109375,0.390625,2.49609375,-7.46484375,-0.109375,1.0
655776,,,,,,,,2.9921875,2.12109375,-0.9296875,0.076171875,-1.265625,0.376953125,2.53125,-7.5390625,-0.109375,1.0
655777,,,,,,,,2.8125,1.8515625,-0.8359375,0.052734375,-1.21484375,0.337890625,2.3046875,-7.81640625,0.0078125,1.0
655778,,,,,,,,2.62109375,1.77734375,-0.73046875,0.052734375,-1.18359375,0.322265625,2.11328125,-7.88671875,0.12109375,1.0
655779,,,,,,,,2.17578125,1.65234375,-0.4765625,0.0703125,-1.052734375,0.25,1.65234375,-8.00390625,0.390625,1.0
655780,36.0132625,129.31927966666666,61.270990738543155,95.70255692105567,1.0,328.0,,2.07421875,1.5390625,-0.41015625,-0.67578125,-0.5625,-0.072265625,1.53515625,-8.1171875,0.46484375,1.0
655781,,,,,,,,1.9609375,1.4140625,-0.27734375,0.1796875,-0.7890625,0.12890625,1.421875,-8.23828125,0.62109375,1.0
655782,,,,,,,,1.9296875,1.22265625,-0.38671875,0.212890625,-0.650390625,0.068359375,1.3828125,-8.42578125,0.54296875,1.0
655783,,,,,,,,1.83984375,1.109375,-0.40234375,0.224609375,-0.537109375,0.02734375,1.30859375,-8.5390625,0.54296875,1.0
655784,,,,,,,,1.79296875,0.83984375,-0.43359375,0.251953125,-0.42578125,-0.005859375,1.26953125,-8.80859375,0.54296875,1.0
655785,,,,,,,,1.78515625,0.51953125,-0.38671875,0.26953125,-0.328125,-0.02734375,1.26953125,-9.11328125,0.62109375,1.0
655786,,,,,,,,1.82421875,0.17578125,-0.328125,0.28515625,-0.298828125,-0.0234375,1.30859375,-9.45703125,0.6953125,1.0
655787,,,,,,,,1.76953125,-0.09375,-0.05078125,0.298828125,-0.244140625,-0.033203125,1.26953125,-9.7265625,1.00390625,1.0
655788,,,,,,,,1.64453125,-0.24609375,0.19140625,0.30859375,-0.171875,-0.025390625,1.15234375,-9.875,1.26953125,1.0
655789,,,,,,,,1.63671875,-0.140625,0.16015625,0.3125,-0.078125,-0.01953125,1.15234375,-9.765625,1.26953125,1.0
655790,36.013262833333336,129.31927883333336,61.19586665866004,95.73954281175729,0.9,320.0,,1.74609375,0.16015625,-0.14453125,0.30859375,0.04296875,-0.0078125,1.26953125,-9.45703125,1.00390625,1.0
655791,,,,,,,,2.05078125,0.1875,-0.59765625,0.28125,0.087890625,0.001953125,1.57421875,-9.421875,0.58203125,1.0
655792,,,,,,,,2.16015625,0.11328125,-0.69140625,0.26171875,0.107421875,0.01171875,1.69140625,-9.4921875,0.50390625,1.0
655793,,,,,,,,2.12109375,-0.43359375,-0.71484375,0.2265625,0.126953125,0.02734375,1.65234375,-10.03515625,0.50390625,1.0
655794,,,,,,,,1.890625,-0.73828125,-0.8046875,0.16015625,0.0390625,0.0703125,1.26953125,-10.375,0.4296875,1.0
655795,,,,,,,,1.35546875,-0.890625,-0.74609375,0.111328125,-0.001953125,0.083984375,0.6171875,-10.49609375,0.54296875,1.0
655796,,,,,,,,1.09375,-0.890625,-0.72265625,0.048828125,0.0078125,0.083984375,0.38671875,-10.4921875,0.58203125,1.0
655797,,,,,,,,0.48046875,-0.8515625,-0.4921875,-0.01171875,0.1015625,0.0859375,-0.1484375,-10.375,0.84765625,1.0
655798,,,,,,,,0.13671875,-0.69921875,-0.26171875,-0.060546875,0.193359375,0.07421875,-0.4921875,-10.15234375,1.234375,1.0
655799,,,,,,,,-0.0078125,-0.5546875,-0.03125,-0.09375,0.2109375,0.07421875,-0.453125,-10.15234375,1.30859375,1.0
655800,36.013263333333335,129.31927766666666,61.090692917513266,95.7950217029769,1.0,305.0,0.0,1.74609375,0.16015625,-0.14453125,0.30859375,0.04296875,-0.0078125,-0.30078125,-10.87890625,1.26953125,1.0
655801,,,,,,,,0.23046875,-1.6640625,0.0,-0.201171875,0.26171875,0.095703125,-0.26171875,-11.60546875,1.1953125,1.0
655802,,,,,,,,0.0078125,-2.5859375,0.328125,-0.23046875,0.251953125,0.107421875,-0.4921875,-12.1796875,1.5390625,1.0
655803,,,,,,,,-0.55078125,-2.66015625,1.26953125,-0.21875,0.23046875,0.119140625,-1.06640625,-12.25390625,2.45703125,1.0
655804,,,,,,,,-1.1640625,-2.421875,2.0234375,-0.244140625,0.18359375,0.14453125,-1.6796875,-12.02734375,3.1875,1.0
655805,,,,,,,,-1.76171875,-2.80859375,2.50390625,-0.40625,0.123046875,0.181640625,-2.29296875,-12.41015625,3.64453125,1.0
655806,,,,,,,,-1.83203125,-2.72265625,2.66796875,-0.521484375,0.083984375,0.185546875,-2.37109375,-12.33203125,3.80078125,1.0
655807,,,,,,,,-2.046875,-1.95703125,3.33203125,-0.640625,0.099609375,0.16015625,-2.6015625,-11.5625,4.41015625,1.0
655808,,,,,,,,-1.9609375,-1.60546875,3.42578125,-0.58984375,0.095703125,0.123046875,-2.5234375,-11.21875,4.44921875,1.0
655809,,,,,,,,-1.140625,-1.671875,3.51953125,-0.5,0.029296875,0.08203125,-1.71875,-11.296875,4.44921875,1.0
655810,36.01326366666667,129.31927633333333,60.97049454424268,95.83200728346604,1.1,298.0,,-0.25390625,-1.08984375,3.64453125,0.30859375,0.04296875,-0.0078125,-0.30078125,-10.87890625,1.26953125,1.0
655811,,,,,,,,-0.17578125,-0.4296875,3.55078125,-0.353515625,-0.3046875,0.03125,-0.76171875,-10.0703125,4.41015625,1.0
655812,,,,,,,,0.31640625,0.44921875,2.92578125,0.017578125,-0.40625,0.029296875,-0.26171875,-9.19140625,3.76171875,1.0
655813,,,,,,,,0.54296875,0.6484375,2.10546875,0.083984375,-0.412109375,0.03515625,-0.03515625,-9.00390625,2.95703125,1.0
655814,,,,,,,,0.0703125,-0.23046875,2.25,0.142578125,-0.3515625,0.025390625,-0.4921875,-9.875,3.109375,1.0
655815,,,,,,,,-0.46875,-0.77734375,3.046875,0.365234375,-0.19140625,-0.01953125,-1.03125,-10.4140625,3.953125,1.0
655816,,,,,,,,-0.7578125,-0.69921875,2.5234375,0.32421875,-0.2421875,-0.123046875,-1.296875,-10.33984375,3.4921875,1.0
655817,,,,,,,,-0.66015625,-0.4296875,2.1953125,0.099609375,-0.267578125,-0.162109375,-1.18359375,-10.0703125,3.1875,1.0
655818,,,,,,,,-0.40625,-0.19140625,1.7734375,-0.15234375,-0.271484375,-0.20703125,-0.9140625,-9.8359375,2.765625,1.0
655819,,,,,,,,-0.16796875,-0.0390625,1.58984375,-0.21484375,-0.33203125,-0.25,-0.64453125,-9.69140625,2.57421875,1.0
655820,36.01326400000001,129.31927516666667,60.86532093609215,95.86899296999187,1.1,297.0,,-0.046875,0.15234375,1.375,-0.150390625,-0.453125,-0.279296875,-0.4921875,-9.49609375,2.34375,1.0
655821,,,,,,,,0.12890625,0.6640625,0.84765625,-0.083984375,-0.5625,-0.291015625,-0.26171875,-9.00390625,1.80859375,1.0
655822,,,,,,,,0.31640625,0.89453125,0.65625,-0.0859375,-0.591796875,-0.27734375,-0.03515625,-8.765625,1.6171875,1.0
655823,,,,,,,,0.515625,1.31640625,0.34765625,-0.078125,-0.59765625,-0.24609375,0.1953125,-8.34375,1.30859375,1.0
655824,,,,,,,,0.484375,1.62109375,0.15625,-0.05859375,-0.595703125,-0.21875,0.1953125,-8.0390625,1.1171875,1.0
655825,,,,,,,,0.4296875,1.73828125,0.0859375,-0.0234375,-0.611328125,-0.197265625,0.15625,-7.92578125,1.0390625,1.0
655826,,,,,,,,0.37109375,2.05078125,0.00390625,-0.0234375,-0.619140625,-0.1953125,0.12109375,-7.6171875,0.96484375,1.0
655827,,,,,,,,0.109375,2.19921875,-0.11328125,-0.029296875,-0.666015625,-0.189453125,-0.109375,-7.4609375,0.84765625,1.0
655828,,,,,,,,-0.09765625,2.3203125,-0.1484375,-0.048828125,-0.70703125,-0.1953125,-0.30078125,-7.35546875,0.8125,1.0
655829,,,,,,,,-0.16796875,2.43359375,-0.1875,-0.041015625,-0.7265625,-0.193359375,-0.37890625,-7.16015625,0.8125,1.0
655830,36.01326400000001,129.319274,60.76014758472209,95.86899224170247,1.0,296.0,,-0.3125,2.3984375,-0.15625,-0.03515625,-0.734375,-0.197265625,-0.453125,-7.2734375,0.8125,1.0
655831,,,,,,,,-0.3828125,2.359375,-0.15625,-0.001953125,-0.740234375,-0.177734375,-0.4921875,-7.3515625,0.7734375,1.0
655832,,,,,,,,-0.390625,2.3203125,-0.1875,0.01171875,-0.73046875,-0.171875,-0.53125,-7.3515625,0.734375,1.0
655833,,,,,,,,-0.5,2.28125,-0.28125,0.04296875,-0.71875,-0.146484375,-0.609375,-7.43359375,0.65625,1.0
655834,,,,,,,,-0.546875,2.2421875,-0.3203125,0.0546875,-0.7109375,-0.1171875,-0.5703125,-7.46484375,0.58203125,1.0
655835,,,,,,,,-0.62109375,1.69921875,-0.34375,0.111328125,-0.681640625,-0.068359375,-0.64453125,-7.96484375,0.65625,1.0
655836,,,,,,,,-0.453125,1.5859375,-0.16796875,0.1484375,-0.677734375,-0.009765625,-0.453125,-8.08203125,0.84765625,1.0
655837,,,,,,,,-0.41796875,1.5859375,-0.17578125,0.154296875,-0.677734375,0.01171875,-0.41796875,-8.078125,0.84765625,1.0
655838,,,,,,,,-0.26953125,1.61328125,-0.2734375,0.154296875,-0.697265625,0.06640625,-0.2265625,-7.921875,0.6953125,1.0
655839,,,,,,,,-0.234375,1.73046875,-0.3515625,0.142578125,-0.708984375,0.078125,-0.1875,-7.8828125,0.65625,1.0
655840,36.013264166666666,129.319273,60.66999887199803,95.88748482666519,1.0,293.0,,-0.3125,2.3984375,-0.15625,0.140625,-0.734375,0.12890625,-0.03515625,-7.77734375,0.62109375,1.0
655841,,,,,,,,0.03515625,1.796875,-0.46484375,0.150390625,-0.779296875,0.154296875,0.15625,-8.0390625,0.58203125,1.0
655842,,,,,,,,0.2265625,1.4140625,-0.48046875,0.185546875,-0.787109375,0.1796875,0.2734375,-8.46484375,0.65625,1.0
655843,,,,,,,,0.34765625,0.796875,-0.4296875,0.21875,-0.79296875,0.205078125,0.34765625,-8.84765625,0.6953125,1.0
655844,,,,,,,,0.328125,0.44921875,-0.3359375,0.19921875,-0.7578125,0.220703125,0.38671875,-9.3828125,0.92578125,1.0
655845,,,,,,,,0.3359375,-0.015625,-0.125,0.1640625,-0.72265625,0.236328125,0.34765625,-9.80859375,1.078125,1.0
655846,,,,,,,,0.37890625,-0.171875,-0.1015625,0.142578125,-0.712890625,0.23046875,0.2734375,-9.99609375,1.1953125,1.0
655847,,,,,,,,0.28125,-0.4375,0.0390625,0.08203125,-0.689453125,0.22265625,0.2734375,-10.19140625,1.078125,1.0
655848,,,,,,,,0.328125,-0.5234375,-0.1640625,0.025390625,-0.681640625,0.208984375,0.3125,-10.11328125,1.1171875,1.0
655849,,,,,,,,0.44921875,-0.4453125,-0.0546875,-0.021484375,-0.673828125,0.1875,0.54296875,-9.87890625,1.0390625,1.0
655850,36.0132645,129.319272,60.57985002942728,95.92447062004523,1.0,292.0,,-0.3125,2.3984375,-0.15625,-0.025390625,-0.650390625,0.15234375,0.578125,-9.91796875,0.84765625,1.0
655851,,,,,,,,0.58203125,-0.37890625,-0.4765625,-0.015625,-0.626953125,0.12890625,0.54296875,-10.109375,0.6953125,1.0
655852,,,,,,,,0.62890625,-0.4921875,-0.5078125,-0.021484375,-0.599609375,0.09375,0.34765625,-10.33984375,0.734375,1.0
655853,,,,,,,,0.3203125,-0.875,-0.31640625,-0.015625,-0.5625,0.06640625,0.234375,-10.53125,0.92578125,1.0
655854,,,,,,,,0.2734375,-0.80859375,-0.24609375,0.001953125,-0.515625,0.041015625,0.04296875,-10.0703125,0.92578125,1.0
655855,,,,,,,,0.03515625,-0.23046875,-0.390625,-0.111328125,-0.380859375,0.0234375,-0.26171875,-9.53515625,0.58203125,1.0
655856,,,,,,,,-0.19140625,0.08203125,-0.62109375,-0.177734375,-0.3359375,0.0234375,-0.4921875,-9.38671875,0.46484375,1.0
655857,,,,,,,,-0.61328125,0.3515625,-0.875,-0.283203125,-0.275390625,0.01953125,-1.03125,-9.00390625,0.3515625,1.0
655858,,,,,,,,-1.38671875,0.80859375,-0.71875,-0.318359375,-0.21875,0.017578125,-1.44921875,-8.8046875,0.4296875,1.0
655859,,,,,,,,-1.578125,0.80859375,-0.703125,-0.310546875,-0.19140625,0.0078125,-1.640625,-8.8046875,0.4296875,1.0
655860,36.01326466666667,129.31927050000002,60.44462702357989,95.94296289601557,1.1,287.0,,-2.078125,0.6953125,-0.828125,-0.025390625,-0.650390625,0.15234375,0.578125,-9.91796875,0.84765625,1.0
655861,,,,,,,,-2.390625,0.28125,-0.71875,-0.310546875,-0.158203125,-0.0234375,-2.4453125,-9.34765625,0.3515625,1.0
655862,,,,,,,,-2.5546875,0.2734375,-0.265625,-0.369140625,-0.2109375,-0.046875,-2.6015625,-9.34375,0.7734375,1.0
655863,,,,,,,,-2.5625,0.234375,0.015625,-0.41015625,-0.255859375,-0.052734375,-2.6015625,-9.3828125,1.0390625,1.0
655864,,,,,,,,-2.40625,-0.71484375,0.44921875,-0.48828125,-0.37109375,-0.060546875,-2.4453125,-10.33984375,1.42578125,1.0
655865,,,,,,,,-1.92578125,-2.36328125,0.1875,-0.59375,-0.455078125,-0.0703125,-1.94921875,-11.98828125,1.1171875,1.0
655866,,,,,,,,-0.21875,-6.0234375,0.55859375,-0.78125,-0.5625,-0.03515625,-0.2265625,-15.66796875,1.38671875,1.0
655867,,,,,,,,1.5,-8.515625,1.21875,-0.828125,-0.689453125,0.0078125,1.5,-18.16015625,1.9609375,1.0
655868,,,,,,,,2.9921875,-7.81640625,3.125,-0.8125,-0.767578125,0.03125,2.9921875,-17.46484375,3.8359375,1.0
655869,,,,,,,,5.98046875,-5.35546875,5.00390625,-0.806640625,-1.01171875,0.068359375,5.98046875,-15.0078125,5.63671875,1.0
655870,36.01326516666666,129.31926966666666,60.36950281775439,95.99844200177077,1.0,287.0,,-0.6015625,-3.04296875,3.8515625,-1.203125,-1.541015625,0.142578125,-0.609375,-12.7109375,4.296875,1.0
655871,,,,,,,,-1.55859375,-2.890625,3.265625,-0.86328125,-1.982421875,0.087890625,-1.56640625,-12.5625,3.5703125,1.0
655872,,,,,,,,-1.7109375,-2.69921875,2.921875,-0.578125,-2.142578125,0.048828125,-1.71875,-12.3671875,3.1875,1.0
655873,,,,,,,,-1.51953125,-1.92578125,2.0546875,0.16015625,-1.71484375,-0.087890625,-1.52734375,-11.6015625,2.3046875,1.0
655874,,,,,,,,-1.49609375,-1.6953125,1.88671875,0.447265625,-1.376953125,-0.173828125,-1.48828125,-11.37890625,2.15234375,1.0
655875,,,,,,,,-1.21484375,-0.66015625,1.83203125,0.6640625,-1.134765625,-0.2265625,-1.18359375,-10.33984375,2.15234375,1.0
655876,,,,,,,,-0.41015625,0.06640625,1.1171875,0.701171875,-1.462890625,-0.15234375,-0.33984375,-9.609375,1.5390625,1.0
655877,,,,,,,,0.1171875,0.296875,0.93359375,0.705078125,-1.5234375,-0.091796875,0.1953125,-9.38671875,1.38671875,1.0
655878,,,,,,,,0.5703125,0.56640625,0.96875,0.751953125,-1.470703125,0.033203125,0.65625,-9.109375,1.5,1.0
655879,,,,,,,,0.75390625,0.52734375,0.890625,0.771484375,-1.4140625,0.09375,0.84765625,-9.15234375,1.4609375,1.0
655880,36.01326566666667,129.31926833333333,60.24930432319715,96.0539208010878,1.2000000000000002,289.0,,1.19140625,0.796875,0.78125,-1.203125,-1.541015625,0.142578125,-0.609375,-12.7109375,4.296875,1.0
655881,,,,,,,,1.296875,1.37109375,0.3828125,0.470703125,-1.35546875,0.44140625,1.34375,-8.3046875,1.1171875,1.0
655882,,,,,,,,1.3125,1.5546875,0.2890625,0.33984375,-1.333984375,0.486328125,1.34375,-8.12109375,1.0390625,1.0
655883,,,,,,,,1.546875,2.20703125,-0.28515625,0.037109375,-1.26953125,0.556640625,1.5,-7.46484375,0.50390625,1.0
655884,,,,,,,,1.8515625,2.6328125,-0.40625,0.0390625,-1.294921875,0.546875,1.765625,-7.05078125,0.390625,1.0
655885,,,,,,,,2.20703125,2.51953125,-0.68359375,0.03125,-1.275390625,0.50390625,2.07421875,-7.15625,0.12109375,1.0
655886,,,,,,,,2.18359375,2.51171875,-0.7578125,0.0390625,-1.267578125,0.48828125,2.03515625,-7.15625,0.046875,1.0
655887,,,,,,,,2.375,2.12890625,-0.8203125,0.03515625,-1.259765625,0.41796875,2.1875,-7.54296875,0.0078125,1.0
655888,,,,,,,,2.55859375,1.66796875,-0.859375,0.041015625,-1.232421875,0.376953125,2.33984375,-8.0,-0.03125,1.0
655889,,,,,,,,2.60546875,1.4375,-0.7890625,0.0390625,-1.208984375,0.3671875,2.37890625,-8.23828125,0.046875,1.0
655890,36.013265833333335,129.31926766666666,60.189205138942846,96.07241359722966,1.0,291.0,,2.5546875,1.35546875,-0.60546875,-1.203125,-1.541015625,0.142578125,2.3046875,-8.3046875,0.23828125,1.0
655891,,,,,,,,2.421875,1.36328125,-0.4296875,0.01953125,-1.123046875,0.34375,2.1484375,-8.30859375,0.4296875,1.0
655892,,,,,,,,2.37109375,1.36328125,-0.39453125,-0.05078125,-1.0703125,0.333984375,2.07421875,-8.3046875,0.46484375,1.0
655893,,,,,,,,2.1484375,1.5078125,-0.30859375,-0.095703125,-1.015625,0.3125,1.84375,-8.15625,0.54296875,1.0
655894,,,,,,,,2.125,1.546875,-0.34765625,-0.095703125,-0.966796875,0.2890625,1.8046875,-8.12109375,0.50390625,1.0
655895,,,,,,,,1.91015625,1.66015625,-0.26171875,-0.037109375,-0.837890625,0.2421875,1.57421875,-8.00390625,0.58203125,1.0
655896,,,,,,,,1.8359375,1.69921875,-0.27734375,0.017578125,-0.775390625,0.220703125,1.5,-7.96484375,0.58203125,1.0
655897,,,,,,,,1.96484375,1.77734375,-0.33203125,0.19921875,-0.607421875,0.140625,1.61328125,-7.88671875,0.54296875,1.0
655898,,,,,,,,1.96484375,1.65234375,-0.640625,0.31640625,-0.482421875,0.078125,1.61328125,-8.00390625,0.2734375,1.0
655899,,,,,,,,1.88671875,1.4140625,-0.578125,0.369140625,-0.400390625,0.01953125,1.53515625,-8.23828125,0.390625,1.0
655900,36.013265833333335,129.31926633333333,60.06900702603447,96.07241277460426,1.0,283.0,0.0,1.734375,0.87109375,-0.52734375,-1.203125,-1.541015625,0.142578125,1.3828125,-8.76953125,0.46484375,1.0
655901,,,,,,,,1.671875,0.48046875,-0.58203125,0.412109375,-0.314453125,0.001953125,1.34375,-9.15234375,0.46484375,1.0
655902,,,,,,,,1.55859375,0.13671875,-0.47265625,0.396484375,-0.255859375,0.001953125,1.23046875,-9.4921875,0.62109375,1.0
655903,,,,,,,,1.50390625,-0.1796875,-0.046875,0.33203125,-0.1875,0.0,1.19140625,-9.80859375,1.078125,1.0
655904,,,,,,,,1.50390625,-0.1875,0.11328125,0.3046875,-0.134765625,0.015625,1.19140625,-9.80859375,1.26953125,1.0
655905,,,,,,,,1.6953125,-0.109375,0.0078125,0.251953125,-0.0859375,0.03125,1.3828125,-9.7265625,1.1953125,1.0
655906,,,,,,,,1.7734375,-0.078125,-0.078125,0.2265625,-0.06640625,0.037109375,1.4609375,-9.69140625,1.1171875,1.0
655907,,,,,,,,1.99609375,-0.1171875,-0.32421875,0.17578125,-0.02734375,0.0625,1.69140625,-9.73046875,0.88671875,1.0
655908,,,,,,,,1.96484375,-0.1171875,-0.76953125,0.13671875,0.03515625,0.078125,1.65234375,-9.7265625,0.46484375,1.0
655909,,,,,,,,1.58203125,-0.078125,-0.96875,0.119140625,0.076171875,0.109375,1.26953125,-9.69140625,0.2734375,1.0
655910,36.01326533333334,129.319265,59.948809293954966,96.01693232976908,1.2000000000000002,272.0,,1.3671875,-0.27734375,-0.8359375,0.111328125,0.048828125,0.14453125,1.0390625,-9.875,0.4296875,1.0
655911,,,,,,,,0.68359375,-0.32421875,-0.76953125,0.09375,0.017578125,0.166015625,0.34765625,-9.9140625,0.50390625,1.0
655912,,,,,,,,0.34765625,-0.28515625,-0.6171875,0.09375,0.029296875,0.171875,0.00390625,-9.87890625,0.65625,1.0
655913,,,,,,,,0.09765625,-0.0546875,-0.43359375,0.052734375,0.095703125,0.189453125,-0.26171875,-9.65234375,0.84765625,1.0
655914,,,,,,,,0.10546875,0.25,-0.0546875,-0.01953125,0.171875,0.197265625,-0.26171875,-9.34765625,1.234375,1.0
655915,,,,,,,,0.51953125,-0.140625,0.2265625,-0.150390625,0.28515625,0.203125,0.12109375,-9.7265625,1.5,1.0
655916,,,,,,,,0.78515625,-1.2421875,-0.0625,-0.18359375,0.294921875,0.208984375,0.38671875,-10.8359375,1.1953125,1.0
655917,,,,,,,,0.51171875,-2.125,0.02734375,-0.224609375,0.30859375,0.212890625,0.08203125,-11.72265625,1.26953125,1.0
655918,,,,,,,,-1.07421875,-3.19921875,1.75390625,-0.255859375,0.2578125,0.20703125,-1.52734375,-12.7890625,2.95703125,1.0
655919,,,,,,,,-1.71875,-2.9296875,2.3828125,-0.263671875,0.234375,0.203125,-2.1796875,-12.52734375,3.5703125,1.0
655920,36.013265000000004,129.31926333333334,59.79856190218996,95.9799448898866,1.3,263.0,,-2.921875,-2.8828125,3.1328125,0.111328125,0.048828125,0.14453125,-3.40625,-12.48828125,4.296875,1.0
655921,,,,,,,,-3.25,-2.65234375,3.09375,-0.603515625,0.076171875,0.228515625,-3.75,-12.25,4.21875,1.0
655922,,,,,,,,-2.96484375,-2.30078125,3.59375,-0.81640625,0.126953125,0.197265625,-3.48046875,-11.90625,4.640625,1.0
655923,,,,,,,,-2.17578125,-2.32421875,3.703125,-0.7421875,0.08203125,0.15625,-2.71484375,-11.94921875,4.640625,1.0
655924,,,,,,,,-1.05859375,-2.0546875,3.73046875,-0.564453125,-0.09375,0.146484375,-1.60546875,-11.68359375,4.60546875,1.0
655925,,,,,,,,-0.4296875,-1.78125,3.8515625,-0.478515625,-0.380859375,0.146484375,-0.9921875,-11.41796875,4.6796875,1.0
655926,,,,,,,,0.109375,-1.58984375,3.67578125,-0.443359375,-0.48046875,0.142578125,-0.453125,-11.21875,4.48828125,1.0
655927,,,,,,,,0.46875,-1.3125,3.36328125,-0.255859375,-0.55078125,0.15625,-0.109375,-10.953125,4.14453125,1.0
655928,,,,,,,,0.859375,-1.04296875,2.7578125,-0.0703125,-0.55078125,0.158203125,0.2734375,-10.6796875,3.53125,1.0
655929,,,,,,,,0.359375,-1.04296875,2.55859375,0.072265625,-0.541015625,0.134765625,-0.2265625,-10.68359375,3.33984375,1.0
655930,36.01326483333333,129.31926233333334,59.708413444156804,95.9614510684723,1.2000000000000002,259.0,,-0.28125,-1.16015625,2.8125,0.208984375,-0.466796875,0.08984375,-0.875,-10.80078125,3.609375,1.0
655931,,,,,,,,-0.47265625,-1.00390625,2.47265625,0.28125,-0.4609375,0.03515625,-1.06640625,-10.640625,3.30078125,1.0
655932,,,,,,,,-0.3359375,-0.8125,2.05078125,0.24609375,-0.47265625,-0.03125,-0.9140625,-10.45703125,2.91796875,1.0
655933,,,,,,,,-0.26171875,-0.66796875,1.890625,0.1953125,-0.455078125,-0.064453125,-0.83984375,-10.296875,2.765625,1.0
655934,,,,,,,,-0.015625,-0.35546875,1.56640625,-0.041015625,-0.369140625,-0.150390625,-0.5703125,-9.9921875,2.45703125,1.0
655935,,,,,,,,0.23046875,0.0,1.22265625,-0.115234375,-0.359375,-0.19140625,-0.30078125,-9.65234375,2.11328125,1.0
655936,,,,,,,,0.359375,0.15234375,1.03125,-0.083984375,-0.400390625,-0.216796875,-0.1484375,-9.4921875,1.921875,1.0
655937,,,,,,,,0.44140625,0.50390625,0.76171875,-0.05859375,-0.427734375,-0.234375,-0.03515625,-9.1484375,1.65234375,1.0
655938,,,,,,,,0.47265625,0.6171875,0.6953125,-0.06640625,-0.42578125,-0.2421875,0.00390625,-9.0390625,1.578125,1.0
655939,,,,,,,,0.6328125,1.203125,0.37890625,-0.091796875,-0.41796875,-0.248046875,0.1953125,-8.4609375,1.26953125,1.0
655940,36.01326466666667,129.31926133333334,59.618264983306844,95.9429572488139,1.0,260.0,,0.6640625,1.5078125,0.2734375,-0.078125,-0.40234375,-0.2578125,0.2734375,-8.16015625,1.15625,1.0
655941,,,,,,,,0.6328125,2.04296875,0.08203125,-0.03515625,-0.38671875,-0.265625,0.2734375,-7.62109375,0.96484375,1.0
655942,,,,,,,,0.5625,2.46484375,-0.109375,0.009765625,-0.38671875,-0.275390625,0.234375,-7.19921875,0.7734375,1.0
655943,,,,,,,,0.38671875,2.625,-0.1953125,0.0234375,-0.3984375,-0.28125,0.08203125,-7.046875,0.6953125,1.0
655944,,,,,,,,0.1484375,2.7421875,-0.203125,0.07421875,-0.447265625,-0.3046875,-0.109375,-6.9296875,0.6953125,1.0
655945,,,,,,,,-0.11328125,2.86328125,-0.140625,0.095703125,-0.478515625,-0.314453125,-0.33984375,-6.81640625,0.7734375,1.0
655946,,,,,,,,-0.421875,2.81640625,-0.08203125,0.109375,-0.5,-0.30859375,-0.609375,-6.85546875,0.84765625,1.0
655947,,,,,,,,-0.61328125,2.7421875,-0.171875,0.109375,-0.50390625,-0.298828125,-0.76171875,-6.9296875,0.7734375,1.0
655948,,,,,,,,-0.70703125,2.51171875,-0.21875,0.107421875,-0.494140625,-0.291015625,-0.83984375,-7.15625,0.734375,1.0
655949,,,,,,,,-0.890625,2.43359375,-0.2734375,0.103515625,-0.482421875,-0.265625,-0.9921875,-7.234375,0.6953125,1.0
655950,36.0132645,129.31926033333332,59.528116519869926,95.92446343000182,1.0,259.0,,-0.921875,2.12109375,-0.2421875,-0.078125,-0.40234375,-0.2578125,-0.9921875,-7.54296875,0.734375,1.0
655951,,,,,,,,-0.9140625,1.96875,-0.21875,0.119140625,-0.46484375,-0.208984375,-0.953125,-7.6953125,0.7734375,1.0
655952,,,,,,,,-0.74609375,1.77734375,-0.1953125,0.162109375,-0.455078125,-0.173828125,-0.76171875,-7.88671875,0.8125,1.0
655953,,,,,,,,-0.6328125,1.53125,-0.2265625,0.1953125,-0.453125,-0.123046875,-0.609375,-8.12109375,0.8125,1.0
655954,,,,,,,,-0.5703125,1.578125,-0.25,0.189453125,-0.47265625,-0.08203125,-0.53125,-8.08203125,0.8125,1.0
655955,,,,,,,,-0.5,1.60546875,-0.390625,0.169921875,-0.494140625,-0.052734375,-0.453125,-8.04296875,0.6953125,1.0
655956,,,,,,,,-0.39453125,1.64453125,-0.4375,0.162109375,-0.50390625,-0.03515625,-0.33984375,-8.00390625,0.65625,1.0
655957,,,,,,,,-0.2109375,1.59765625,-0.52734375,0.15625,-0.5390625,-0.009765625,-0.1484375,-8.04296875,0.58203125,1.0
655958,,,,,,,,-0.02734375,1.33203125,-0.58203125,0.154296875,-0.54296875,0.015625,0.04296875,-8.3046875,0.54296875,1.0
655959,,,,,,,,0.078125,1.0234375,-0.51953125,0.166015625,-0.52734375,0.037109375,0.15625,-8.6171875,0.62109375,1.0
655960,36.01326383333333,129.31925933333332,59.43796843369027,95.85048998857647,1.0,255.0,,0.109375,0.55859375,-0.4375,0.1953125,-0.50390625,0.07421875,0.1953125,-9.0703125,0.734375,1.0
655961,,,,,,,,-0.03515625,0.01171875,-0.1640625,0.130859375,-0.45703125,0.091796875,0.04296875,-9.61328125,1.0390625,1.0
655962,,,,,,,,-0.1796875,-0.1875,-0.1015625,0.06640625,-0.4453125,0.083984375,-0.109375,-9.80859375,1.1171875,1.0
655963,,,,,,,,0.203125,-0.5703125,-0.26171875,0.001953125,-0.423828125,0.0546875,0.2734375,-10.1875,0.96484375,1.0
655964,,,,,,,,0.34765625,-0.65234375,-0.22265625,-0.009765625,-0.41015625,0.037109375,0.42578125,-10.26171875,1.00390625,1.0
655965,,,,,,,,0.69140625,-0.69140625,-0.37890625,-0.005859375,-0.376953125,0.015625,0.76953125,-10.296875,0.84765625,1.0
655966,,,,,,,,0.73046875,-0.73046875,-0.33984375,0.001953125,-0.36328125,-0.00390625,0.80859375,-10.33984375,0.88671875,1.0
655967,,,,,,,,0.68359375,-0.76953125,-0.30078125,0.005859375,-0.341796875,-0.029296875,0.76953125,-10.375,0.92578125,1.0
655968,,,,,,,,0.6015625,-0.73046875,-0.33984375,-0.001953125,-0.341796875,-0.0390625,0.6953125,-10.3359375,0.88671875,1.0
655969,,,,,,,,0.515625,-0.65234375,-0.37890625,-0.0234375,-0.33203125,-0.056640625,0.6171875,-10.26171875,0.84765625,1.0
655970,36.01326366666667,129.31925816666666,59.33279520671145,95.83199606966912,1.0,256.0,,0.39453125,-0.6171875,-0.4140625,0.1953125,-0.50390625,0.07421875,0.50390625,-10.23046875,0.8125,1.0
655971,,,,,,,,0.109375,0.11328125,-0.5234375,-0.080078125,-0.283203125,-0.078125,0.234375,-9.49609375,0.6953125,1.0
655972,,,,,,,,-0.51953125,0.6796875,-0.66796875,-0.1171875,-0.20703125,-0.09765625,-0.37890625,-8.92578125,0.54296875,1.0
655973,,,,,,,,-1.1015625,0.87109375,-0.5390625,-0.138671875,-0.11328125,-0.111328125,-0.953125,-8.7265625,0.65625,1.0
655974,,,,,,,,-1.76171875,0.87890625,-0.18359375,-0.171875,-0.03125,-0.10546875,-1.60546875,-8.7265625,1.00390625,1.0
655975,,,,,,,,-2.0078125,0.5625,0.0234375,-0.212890625,0.017578125,-0.095703125,-1.8359375,-9.04296875,1.1953125,1.0
655976,,,,,,,,-2.16796875,-0.078125,0.046875,-0.23828125,0.087890625,-0.0703125,-2.02734375,-10.1484375,1.1953125,1.0
655977,,,,,,,,-2.05859375,-1.45703125,0.14453125,-0.291015625,0.09765625,-0.046875,-1.87109375,-11.06640625,1.26953125,1.0
655978,,,,,,,,-1.79296875,-2.453125,0.62890625,-0.40234375,0.041015625,-0.017578125,-1.48828125,-12.5234375,1.9609375,1.0
655979,,,,,,,,-1.0625,-4.015625,1.1640625,-0.521484375,-0.078125,0.0,-0.875,-13.6328125,2.2265625,1.0
655980,36.013263333333335,129.3192571666667,59.242646872994214,95.7950090459716,1.1,253.0,,0.0390625,-5.6640625,1.13671875,-0.638671875,-0.208984375,0.02734375,0.92578125,-16.3125,2.03515625,1.0
655981,,,,,,,,1.83984375,-7.3515625,1.66015625,-0.716796875,-0.283203125,0.05078125,2.49609375,-15.46875,3.72265625,1.0
655982,,,,,,,,3.5234375,-3.12890625,3.4453125,-0.70703125,-0.421875,0.107421875,3.71875,-12.75390625,4.3359375,1.0
655983,,,,,,,,2.73828125,-2.0078125,3.171875,-0.669921875,-0.66015625,0.17578125,2.41796875,-11.60546875,3.9140625,1.0
655984,,,,,,,,0.9453125,-2.73046875,3.43359375,-0.677734375,-0.873046875,0.20703125,-0.26171875,-13.09765625,4.6796875,1.0
655985,,,,,,,,-0.95703125,-3.5625,4.1015625,-0.5859375,-0.869140625,0.12890625,-1.10546875,-13.2890625,4.48828125,1.0
655986,,,,,,,,-1.140625,-3.05078125,3.04296875,-0.04296875,-0.755859375,0.0703125,-0.9921875,-12.71484375,3.64453125,1.0
655987,,,,,,,,-0.6484375,-1.75,2.1015625,0.353515625,-0.630859375,-0.083984375,-0.4921875,-11.41796875,2.7265625,1.0
655988,,,,,,,,-0.55078125,-0.953125,2.03125,0.337890625,-0.70703125,-0.12109375,-0.37890625,-10.609375,2.6875,1.0
655989,,,,,,,,-0.2578125,0.015625,1.41796875,0.3671875,-0.90234375,-0.09375,-0.0703125,-9.6484375,2.11328125,1.0
655990,36.01326316666667,129.31925616666666,59.152498407364874,95.77651523071536,1.1,255.0,,-0.11328125,0.234375,1.265625,-0.638671875,-0.208984375,0.02734375,0.08203125,-9.42578125,2.0,1.0
655991,,,,,,,,0.13671875,0.50390625,1.15625,0.783203125,-1.072265625,0.015625,0.34765625,-9.15234375,1.9609375,1.0
655992,,,,,,,,0.29296875,0.6171875,1.078125,0.84765625,-1.037109375,0.046875,0.50390625,-9.04296875,1.921875,1.0
655993,,,,,,,,0.59765625,0.95703125,0.5234375,0.84765625,-0.974609375,0.15234375,0.80859375,-8.69140625,1.4609375,1.0
655994,,,,,,,,0.60546875,1.109375,0.33984375,0.71484375,-0.966796875,0.26171875,0.80859375,-8.5390625,1.34765625,1.0
655995,,,,,,,,0.62890625,1.484375,0.09375,0.498046875,-1.001953125,0.34375,0.80859375,-8.16015625,1.15625,1.0
655996,,,,,,,,0.67578125,1.62890625,0.0625,0.40234375,-1.0234375,0.36328125,0.84765625,-8.0,1.15625,1.0
655997,,,,,,,,1.04296875,2.08984375,-0.078125,0.18359375,-1.08984375,0.427734375,1.15234375,-7.5390625,1.078125,1.0
655998,,,,,,,,1.12890625,2.12890625,-0.20703125,0.162109375,-1.083984375,0.421875,1.23046875,-7.5,0.96484375,1.0
655999,,,,,,,,1.2890625,2.359375,-0.421875,0.1171875,-1.041015625,0.4140625,1.34375,-7.2734375,0.7734375,1.0
656000,36.01326266666667,129.31925483333333,59.03230066356849,95.7210347988634,1.2000000000000002,255.0,0.0,1.3828125,2.51171875,-0.46875,0.109375,-1.033203125,0.404296875,1.421875,-7.12109375,0.734375,1.0
656001,,,,,,,,1.68359375,2.75,-0.5625,0.12109375,-1.029296875,0.380859375,1.69140625,-6.89453125,0.65625,1.0
656002,,,,,,,,1.765625,2.7421875,-0.60546875,0.13671875,-1.005859375,0.375,1.765625,-6.890625,0.62109375,1.0
656003,,,,,,,,2.02734375,2.65625,-0.63671875,0.19140625,-0.904296875,0.380859375,1.99609375,-6.96875,0.62109375,1.0
656004,,,,,,,,2.17578125,2.3125,-0.578125,0.201171875,-0.84375,0.3828125,2.11328125,-7.3125,0.6953125,1.0
656005,,,,,,,,2.12109375,1.99609375,-0.44921875,0.20703125,-0.810546875,0.3828125,2.03515625,-7.62109375,0.84765625,1.0
656006,,,,,,,,2.08984375,1.8828125,-0.42578125,0.1953125,-0.798828125,0.37890625,1.99609375,-7.73828125,0.88671875,1.0
656007,,,,,,,,1.8828125,1.65234375,-0.44140625,0.171875,-0.7734375,0.34765625,1.765625,-7.9609375,0.88671875,1.0
656008,,,,,,,,1.75390625,1.56640625,-0.46484375,0.140625,-0.740234375,0.318359375,1.61328125,-8.0390625,0.88671875,1.0
656009,,,,,,,,1.73046875,1.56640625,-0.48046875,0.109375,-0.6875,0.267578125,1.57421875,-8.04296875,0.88671875,1.0
656010,36.013262166666664,129.3192535,58.91210291725033,95.66555436860249,1.2000000000000002,254.0,,1.546875,1.33203125,-0.45703125,0.109375,-1.033203125,0.404296875,1.421875,-7.12109375,0.734375,1.0
656011,,,,,,,,1.48046875,1.21484375,-0.54296875,0.130859375,-0.572265625,0.169921875,1.30859375,-8.3828125,0.84765625,1.0
656012,,,,,,,,1.32421875,1.015625,-0.48046875,0.16015625,-0.515625,0.119140625,1.15234375,-8.58203125,0.92578125,1.0
656013,,,,,,,,1.36328125,0.86328125,-0.49609375,0.173828125,-0.470703125,0.1015625,1.19140625,-8.7265625,0.92578125,1.0
656014,,,,,,,,1.48046875,0.43359375,-0.51171875,0.203125,-0.3828125,0.078125,1.30859375,-9.1484375,0.92578125,1.0
656015,,,,,,,,1.47265625,-0.02734375,-0.421875,0.203125,-0.298828125,0.060546875,1.30859375,-9.609375,1.0390625,1.0
656016,,,,,,,,1.40234375,-0.2265625,-0.359375,0.19921875,-0.232421875,0.0546875,1.23046875,-9.80859375,1.1171875,1.0
656017,,,,,,,,1.125,-0.234375,-0.15234375,0.1953125,-0.14453125,0.04296875,0.9609375,-9.80859375,1.34765625,1.0
656018,,,,,,,,1.01953125,-0.234375,-0.16796875,0.19140625,-0.078125,0.037109375,0.84765625,-9.8046875,1.34765625,1.0
656019,,,,,,,,0.8984375,-0.2421875,-0.26953125,0.189453125,-0.037109375,0.0234375,0.734375,-9.8046875,1.26953125,1.0
656020,36.01326133333334,129.3192525,58.82195494788651,95.57308772664506,1.2000000000000002,245.0,,1.05078125,-0.125,-0.4375,0.109375,-1.033203125,0.404296875,1.421875,-7.12109375,0.734375,1.0
656021,,,,,,,,1.04296875,-0.01953125,-0.57421875,0.20703125,0.07421875,0.001953125,0.88671875,-9.57421875,1.00390625,1.0
656022,,,,,,,,1.00390625,0.01953125,-0.74609375,0.173828125,0.076171875,0.00390625,0.84765625,-9.53125,0.84765625,1.0
656023,,,,,,,,0.3515625,-0.5234375,-0.8046875,0.111328125,0.0234375,0.005859375,0.1953125,-10.07421875,0.8125,1.0
656024,,,,,,,,0.16015625,-0.72265625,-0.62890625,0.025390625,-0.033203125,0.025390625,0.00390625,-10.2578125,1.00390625,1.0
656025,,,,,,,,-0.0390625,-0.48828125,-0.29296875,-0.0078125,-0.001953125,0.03125,-0.1875,-10.03515625,1.34765625,1.0
656026,,,,,,,,-0.0390625,-0.41796875,-0.25390625,-0.046875,0.009765625,0.033203125,-0.1875,-9.95703125,1.38671875,1.0
656027,,,,,,,,0.0390625,0.04296875,-0.125,-0.1328125,0.015625,0.044921875,-0.109375,-9.49609375,1.5,1.0
656028,,,,,,,,0.26953125,0.04296875,-0.109375,-0.201171875,-0.017578125,0.052734375,0.12109375,-9.49609375,1.5,1.0
656029,,,,,,,,0.61328125,-0.6484375,-0.17578125,-0.228515625,-0.05078125,0.056640625,0.46484375,-10.1875,1.42578125,1.0
656030,36.013260833333334,129.3192515,58.73180672800024,95.51760749967434,1.2000000000000002,239.0,,0.8125,-1.98046875,0.6875,-0.26953125,-0.125,0.046875,0.65625,-11.5234375,2.265625,1.0
656031,,,,,,,,0.421875,-3.3984375,1.1328125,-0.271484375,-0.171875,0.05078125,0.2734375,-12.9453125,2.6875,1.0
656032,,,,,,,,-0.078125,-3.4296875,2.0390625,-0.271484375,-0.205078125,0.060546875,-0.2265625,-12.98828125,3.5703125,1.0
656033,,,,,,,,-0.3828125,-3.23828125,2.3984375,-0.279296875,-0.22265625,0.064453125,-0.53125,-12.79296875,3.9140625,1.0
656034,,,,,,,,-1.140625,-3.49609375,2.58203125,-0.376953125,-0.220703125,0.078125,-1.296875,-13.0546875,4.06640625,1.0
656035,,,,,,,,-1.2265625,-3.22265625,3.80859375,-0.6484375,-0.201171875,0.09765625,-1.375,-12.79296875,5.25390625,1.0
656036,,,,,,,,-1.21875,-2.4765625,3.8359375,-0.693359375,-0.12109375,0.06640625,-1.375,-12.06640625,5.1796875,1.0
656037,,,,,,,,-0.64453125,-2.23828125,3.97265625,-0.595703125,-0.12109375,0.01953125,-0.80078125,-11.83203125,5.25390625,1.0
656038,,,,,,,,-0.15234375,-2.15625,4.11328125,-0.546875,-0.158203125,-0.005859375,-0.30078125,-11.7578125,5.37109375,1.0
656039,,,,,,,,0.91015625,-1.7734375,3.73828125,-0.484375,-0.298828125,0.00390625,0.76953125,-11.375,4.94921875,1.0
656040,36.01326016666667,129.31925033333334,58.626633866198176,95.44363396666577,1.3,236.0,,0.98046875,-1.02734375,2.98046875,-0.26953125,-0.125,0.046875,0.84765625,-10.64453125,4.14453125,1.0
656041,,,,,,,,1.28515625,-0.22265625,2.94921875,0.03515625,-0.32421875,0.00390625,1.15234375,-9.8359375,4.10546875,1.0
656042,,,,,,,,0.93359375,-0.1015625,2.13671875,0.15625,-0.263671875,0.0234375,0.80859375,-9.7265625,3.30078125,1.0
656043,,,,,,,,0.62890625,-0.30078125,1.859375,0.232421875,-0.1875,0.01171875,0.50390625,-9.9140625,3.03125,1.0
656044,,,,,,,,0.0078125,-0.64453125,2.16796875,0.349609375,0.037109375,-0.00390625,-0.109375,-10.26171875,3.37890625,1.0
656045,,,,,,,,-0.18359375,-0.73046875,2.2265625,0.29296875,0.234375,-0.046875,-0.30078125,-10.3359375,3.4921875,1.0
656046,,,,,,,,-0.23046875,-0.453125,1.859375,0.177734375,0.248046875,-0.111328125,-0.33984375,-10.0703125,3.1484375,1.0
656047,,,,,,,,-0.046875,0.15234375,1.1171875,0.0,0.220703125,-0.142578125,-0.1484375,-9.453125,2.421875,1.0
656048,,,,,,,,-0.0234375,0.3125,0.9609375,-0.1171875,0.20703125,-0.181640625,-0.109375,-9.3046875,2.265625,1.0
656049,,,,,,,,0.06640625,0.50390625,0.74609375,-0.240234375,0.166015625,-0.23828125,0.00390625,-9.11328125,2.03515625,1.0
656050,36.01325966666666,129.31924933333332,58.536485644184665,95.38815374135893,1.2000000000000002,235.0,,0.16015625,0.89453125,0.49609375,-0.26953125,-0.125,0.046875,0.84765625,-10.64453125,4.14453125,1.0
656051,,,,,,,,0.09765625,1.19921875,0.2890625,-0.19921875,0.1015625,-0.306640625,0.08203125,-8.42578125,1.5390625,1.0
656052,,,,,,,,0.140625,1.5546875,0.19140625,-0.19140625,0.07421875,-0.326171875,0.15625,-8.08203125,1.42578125,1.0
656053,,,,,,,,0.07421875,1.9375,0.0078125,-0.193359375,0.0546875,-0.318359375,0.12109375,-7.6953125,1.234375,1.0
656054,,,,,,,,-0.04296875,2.203125,0.03125,-0.1953125,0.07421875,-0.296875,0.04296875,-7.43359375,1.234375,1.0
656055,,,,,,,,-0.265625,2.51953125,-0.0703125,-0.177734375,0.111328125,-0.283203125,-0.1484375,-7.12109375,1.1171875,1.0
656056,,,,,,,,-0.3515625,2.55859375,-0.0703125,-0.17578125,0.125,-0.26953125,-0.2265625,-7.078125,1.1171875,1.0
656057,,,,,,,,-0.640625,2.671875,-0.0546875,-0.16015625,0.1484375,-0.2578125,-0.4921875,-6.96875,1.1171875,1.0
656058,,,,,,,,-0.91015625,2.79296875,-0.0859375,-0.126953125,0.123046875,-0.25390625,-0.72265625,-6.85546875,1.078125,1.0
656059,,,,,,,,-1.32421875,2.6796875,-0.19140625,-0.10546875,0.095703125,-0.2578125,-1.10546875,-6.96875,0.96484375,1.0
656060,36.013259166666664,129.31924866666668,58.47638695358138,95.33267371805218,1.1,233.0,,-1.43359375,2.48828125,-0.328125,-0.056640625,0.0390625,-0.2578125,-1.18359375,-7.15625,0.8125,1.0
656061,,,,,,,,-1.5390625,2.40234375,-0.52734375,-0.013671875,0.021484375,-0.248046875,-1.2578125,-7.234375,0.62109375,1.0
656062,,,,,,,,-1.640625,2.2109375,-0.52734375,0.02734375,0.017578125,-0.236328125,-1.3359375,-7.4296875,0.62109375,1.0
656063,,,,,,,,-1.609375,2.17578125,-0.56640625,0.0546875,0.0078125,-0.232421875,-1.296875,-7.46484375,0.58203125,1.0
656064,,,,,,,,-1.6328125,1.8984375,-0.5078125,0.1015625,-0.00390625,-0.201171875,-1.296875,-7.734375,0.65625,1.0
656065,,,,,,,,-1.46484375,1.66015625,-0.5234375,0.12109375,0.001953125,-0.169921875,-1.10546875,-7.9609375,0.65625,1.0
656066,,,,,,,,-1.25,1.58203125,-0.5,0.115234375,-0.013671875,-0.09375,-0.875,-8.04296875,0.6953125,1.0
656067,,,,,,,,-1.02734375,1.546875,-0.515625,0.1171875,-0.041015625,-0.03515625,-0.64453125,-8.08203125,0.6953125,1.0
656068,,,,,,,,-0.9140625,1.4296875,-0.5625,0.099609375,-0.06640625,-0.01171875,-0.53125,-8.19921875,0.65625,1.0
656069,,,,,,,,-0.80078125,1.1171875,-0.578125,0.09375,-0.169921875,0.048828125,-0.41796875,-8.50390625,0.65625,1.0
656070,36.0132585,129.31924750000002,58.371214086835266,95.25870018733342,1.1,233.0,,-0.68359375,0.6953125,-0.62890625,0.103515625,-0.220703125,0.0625,-1.18359375,-7.15625,0.8125,1.0
656071,,,,,,,,-0.6015625,0.41796875,-0.5703125,0.1171875,-0.25390625,0.076171875,-0.2265625,-9.1875,0.6953125,1.0
656072,,,,,,,,-0.63671875,0.1875,-0.4609375,0.12109375,-0.28125,0.078125,-0.26171875,-9.42578125,0.8125,1.0
656073,,,,,,,,-0.75390625,-0.23828125,-0.32421875,0.11328125,-0.291015625,0.0703125,-0.37890625,-9.83984375,0.96484375,1.0
656074,,,,,,,,-0.74609375,-0.59375,-0.09375,0.076171875,-0.291015625,0.064453125,-0.37890625,-10.1875,1.1953125,1.0
656075,,,,,,,,-0.70703125,-0.82421875,-0.0625,0.05859375,-0.291015625,0.05859375,-0.33984375,-10.4140625,1.234375,1.0
656076,,,,,,,,-0.5078125,-0.74609375,-0.03515625,0.0546875,-0.26171875,0.037109375,-0.1484375,-10.33984375,1.26953125,1.0
656077,,,,,,,,-0.31640625,-0.36328125,-0.1640625,0.0546875,-0.236328125,0.0078125,0.04296875,-9.95703125,1.15625,1.0
656078,,,,,,,,-0.4375,-0.0546875,-0.39453125,0.052734375,-0.232421875,-0.015625,-0.0703125,-9.6484375,0.92578125,1.0
656079,,,,,,,,-0.5234375,0.05078125,-0.48046875,0.076171875,-0.234375,-0.033203125,-0.1484375,-9.53125,0.84765625,1.0
656080,36.013258,129.31924650000002,58.28106586453008,95.20321996608273,1.2000000000000002,233.0,,-0.41796875,-0.1796875,-0.6015625,0.076171875,-0.216796875,-0.052734375,0.12109375,-9.91796875,0.734375,1.0
656081,,,,,,,,-0.234375,-0.30078125,-0.609375,0.0859375,-0.20703125,-0.064453125,0.2734375,-9.65234375,1.00390625,1.0
656082,,,,,,,,-0.1171875,-0.0703125,-0.34765625,0.080078125,-0.189453125,-0.078125,0.2734375,-9.453125,1.0390625,1.0
656083,,,,,,,,-0.36328125,0.6484375,-0.35546875,-0.009765625,-0.134765625,-0.09375,-0.1484375,-8.65234375,1.0390625,1.0
656084,,,,,,,,-0.5625,0.91796875,-0.3203125,-0.048828125,-0.126953125,-0.09375,-0.37890625,-8.421875,1.078125,1.0
656085,,,,,,,,-1.10546875,1.30078125,-0.1953125,-0.185546875,-0.09375,-0.080078125,-1.18359375,-8.16015625,1.34765625,1.0
656086,,,,,,,,-1.84375,1.26953125,0.00390625,-0.283203125,-0.05078125,-0.0703125,-1.60546875,-8.5390625,1.38671875,1.0
656087,,,,,,,,-2.03515625,1.0390625,0.05859375,-0.2890625,-0.03515625,-0.068359375,-1.6796875,-8.96484375,1.26953125,1.0
656088,,,,,,,,-2.234375,-0.03515625,0.08984375,-0.294921875,0.025390625,-0.0703125,-1.6796875,-10.07421875,1.4609375,1.0
656089,,,,,,,,-2.125,-0.4921875,0.171875,-0.296875,0.056640625,-0.068359375,-1.44921875,-10.57421875,1.4609375,1.0
