time,latitude,longitude,enu_x,enu_y,speed,course,ecg,accX,accY,accZ,gyrX,gyrY,gyrZ,eulR,eulP,eulY,validity
664180,36.013237499999995,129.31927566666667,60.91041561923137,92.92857325468316,1.2000000000000002,45.0,,-0.1328125,0.171875,0.43359375,-0.009765625,-0.19921875,-0.060546875,-0.1484375,-9.42578125,1.80859375,1.0
664181,,,,,,,,0.05078125,0.25,0.28515625,-0.044921875,-0.279296875,-0.138671875,0.04296875,-9.34375,1.65234375,1.0
664182,,,,,,,,0.51953125,0.6015625,-0.140625,-0.029296875,-0.34375,-0.177734375,0.54296875,-9.0,1.234375,1.0
664183,,,,,,,,0.59375,0.71875,-0.1796875,-0.01953125,-0.361328125,-0.18359375,0.6171875,-8.8828125,1.1953125,1.0
664184,,,,,,,,0.6875,1.0625,-0.3359375,-0.048828125,-0.37109375,-0.177734375,0.734375,-8.54296875,1.0390625,1.0
664185,,,,,,,,0.73828125,1.5234375,-0.51953125,-0.076171875,-0.373046875,-0.15234375,0.80859375,-8.078125,0.84765625,1.0
664186,,,,,,,,0.67578125,1.9453125,-0.546875,-0.107421875,-0.369140625,-0.123046875,0.76953125,-7.66015625,0.8125,1.0
664187,,,,,,,,0.546875,2.14453125,-0.578125,-0.099609375,-0.365234375,-0.09375,0.65625,-7.4609375,0.7734375,1.0
664188,,,,,,,,0.4609375,2.21875,-0.609375,-0.08984375,-0.365234375,-0.0859375,0.578125,-7.390625,0.734375,1.0
664189,,,,,,,,0.1015625,2.3359375,-0.640625,-0.076171875,-0.37109375,-0.078125,0.234375,-7.27734375,0.6953125,1.0
664190,36.01323816666666,129.3192765,60.98553895143124,93.00254660616687,1.0,45.0,,-0.21875,2.41015625,-0.5234375,-0.009765625,-0.19921875,-0.060546875,-0.0703125,-7.1953125,0.8125,1.0
664191,,,,,,,,-0.49609375,2.44921875,-0.6328125,-0.0859375,-0.431640625,-0.099609375,-0.33984375,-7.16015625,0.6953125,1.0
664192,,,,,,,,-0.703125,2.41015625,-0.73046875,-0.072265625,-0.46484375,-0.10546875,-0.53125,-7.19921875,0.58203125,1.0
664193,,,,,,,,-1.0625,2.37109375,-0.80859375,-0.046875,-0.484375,-0.1015625,-0.875,-7.234375,0.50390625,1.0
664194,,,,,,,,-1.15625,2.2265625,-0.80078125,-0.029296875,-0.5078125,-0.07421875,-0.953125,-7.390625,0.50390625,1.0
664195,,,,,,,,-1.171875,1.796875,-0.68359375,0.01171875,-0.5,-0.0546875,-0.953125,-7.81640625,0.62109375,1.0
664196,,,,,,,,-1.1015625,1.68359375,-0.72265625,0.044921875,-0.48828125,-0.03515625,-0.875,-7.92578125,0.58203125,1.0
664197,,,,,,,,-0.8515625,1.453125,-0.69140625,0.103515625,-0.46484375,0.025390625,-0.609375,-8.16015625,0.62109375,1.0
664198,,,,,,,,-0.4296875,1.55859375,-0.85546875,0.109375,-0.447265625,0.07421875,-0.1875,-8.0390625,0.46484375,1.0
664199,,,,,,,,-0.26953125,1.55859375,-1.0625,0.1015625,-0.443359375,0.111328125,-0.03515625,-8.04296875,0.2734375,1.0
664200,36.013238666666666,129.31927750000003,61.075687184499,93.05802685649286,1.1,43.0,0.0,-0.26171875,1.484375,-1.14453125,0.08984375,-0.470703125,0.140625,-0.03515625,-8.12109375,0.19921875,1.0
664201,,,,,,,,-0.328125,1.33203125,-1.19921875,0.10546875,-0.482421875,0.169921875,-0.109375,-8.265625,0.16015625,1.0
664202,,,,,,,,-0.390625,0.93359375,-1.16796875,0.1484375,-0.5,0.201171875,-0.1875,-8.6484375,0.19921875,1.0
664203,,,,,,,,-0.421875,0.5859375,-1.1015625,0.15234375,-0.505859375,0.201171875,-0.2265625,-9.00390625,0.2734375,1.0
664204,,,,,,,,-0.3671875,0.28125,-1.0390625,0.14453125,-0.49609375,0.201171875,-0.1875,-9.30859375,0.3515625,1.0
664205,,,,,,,,-0.359375,-0.0625,-1.09375,0.115234375,-0.49609375,0.189453125,-0.1875,-9.65234375,0.3125,1.0
664206,,,,,,,,-0.34375,-0.25390625,-0.9765625,0.0703125,-0.50390625,0.173828125,-0.1875,-9.8359375,0.4296875,1.0
664207,,,,,,,,-0.21875,-0.26171875,-0.87109375,0.021484375,-0.513671875,0.158203125,-0.0703125,-9.83984375,0.54296875,1.0
664208,,,,,,,,-0.09765625,-0.37890625,-0.78515625,-0.01171875,-0.533203125,0.1328125,0.04296875,-9.953125,0.62109375,1.0
664209,,,,,,,,-0.01953125,-0.578125,-0.59375,-0.02734375,-0.54296875,0.11328125,0.12109375,-10.1484375,0.8125,1.0
664210,36.01323916666667,129.3192785,61.16583541176847,93.11350710633491,1.1,43.0,,0.1015625,-0.5,-0.51953125,-0.017578125,-0.5390625,0.095703125,0.234375,-10.0703125,0.88671875,1.0
664211,,,,,,,,0.0625,-0.1953125,-0.6328125,0.00390625,-0.517578125,0.078125,0.1953125,-9.76953125,0.7734375,1.0
664212,,,,,,,,-0.28125,0.1875,-0.7421875,0.005859375,-0.494140625,0.06640625,-0.1484375,-9.3828125,0.65625,1.0
664213,,,,,,,,-0.40234375,0.1484375,-0.82421875,-0.001953125,-0.4765625,0.060546875,-0.26171875,-9.42578125,0.58203125,1.0
664214,,,,,,,,-0.5859375,-0.00390625,-1.078125,-0.015625,-0.44140625,0.0390625,-0.453125,-9.57421875,0.3125,1.0
664215,,,,,,,,-0.48046875,-0.15625,-1.078125,-0.005859375,-0.427734375,0.025390625,-0.33984375,-9.7265625,0.3125,1.0
664216,,,,,,,,-0.25,-0.234375,-0.9609375,0.01171875,-0.39453125,0.013671875,-0.03515625,-9.73046875,0.390625,1.0
664217,,,,,,,,-0.21875,0.1484375,-0.84765625,-0.033203125,-0.36328125,0.0234375,-0.109375,-9.3046875,0.62109375,1.0
664218,,,,,,,,-0.2578125,0.265625,-0.76953125,-0.08203125,-0.345703125,0.0390625,-0.26171875,-9.19140625,0.65625,1.0
664219,,,,,,,,-0.57421875,0.296875,-0.6484375,-0.216796875,-0.33203125,0.087890625,-0.9140625,-9.80859375,0.734375,1.0
664220,36.01323983333334,129.31927966666666,61.271008280596845,93.18748066966955,1.2000000000000002,45.0,,0.1015625,-0.5,-0.51953125,-0.3125,-0.306640625,0.140625,-1.22265625,-10.6796875,1.00390625,1.0
664221,,,,,,,,-1.15625,-2.109375,0.1484375,-0.34375,-0.26171875,0.193359375,-1.03125,-11.6796875,1.4609375,1.0
664222,,,,,,,,-0.10546875,-3.60546875,0.83984375,-0.373046875,-0.21875,0.220703125,0.00390625,-13.17578125,2.11328125,1.0
664223,,,,,,,,0.82421875,-4.59375,1.35546875,-0.373046875,-0.203125,0.228515625,0.92578125,-14.171875,2.61328125,1.0
664224,,,,,,,,1.52734375,-5.46484375,1.23828125,-0.458984375,-0.2265625,0.236328125,1.61328125,-15.05078125,2.45703125,1.0
664225,,,,,,,,2.515625,-4.69140625,2.4453125,-0.703125,-0.34765625,0.2265625,2.5703125,-14.28515625,3.609375,1.0
664226,,,,,,,,2.68359375,-2.9921875,2.53125,-0.796875,-0.56640625,0.232421875,2.72265625,-12.6015625,3.5703125,1.0
664227,,,,,,,,0.6640625,-2.515625,2.9921875,-0.5078125,-0.61328125,0.298828125,0.65625,-12.140625,3.9140625,1.0
664228,,,,,,,,-0.36328125,-3.01171875,3.28515625,-0.4765625,-0.599609375,0.283203125,-0.37890625,-12.6328125,4.18359375,1.0
664229,,,,,,,,-1.18359375,-3.43359375,3.359375,-0.34765625,-0.54296875,0.236328125,-1.22265625,-13.05859375,4.21875,1.0
664230,36.0132405,129.31928083333332,61.37618114510222,93.26145423470935,1.2000000000000002,46.0,,-0.58984375,-2.8046875,2.625,0.29296875,-0.4375,0.09375,-0.64453125,-12.4453125,3.4921875,1.0
664231,,,,,,,,0.40234375,-1.16796875,1.75,0.36328125,-0.515625,0.03125,0.34765625,-10.80078125,2.6484375,1.0
664232,,,,,,,,0.51953125,-0.859375,1.4296875,0.337890625,-0.615234375,0.029296875,0.46484375,-10.49609375,2.34375,1.0
664233,,,,,,,,0.25,-0.171875,0.8984375,0.3125,-0.8125,0.05859375,0.1953125,-9.80859375,1.84375,1.0
664234,,,,,,,,0.09765625,-0.0859375,0.90625,0.376953125,-0.958984375,0.111328125,0.04296875,-9.7265625,1.8828125,1.0
664235,,,,,,,,0.01953125,-0.36328125,1.05078125,0.51953125,-1.048828125,0.18359375,-0.03515625,-9.99609375,2.07421875,1.0
664236,,,,,,,,0.296875,-0.36328125,0.875,0.609375,-1.060546875,0.208984375,0.234375,-9.99609375,1.921875,1.0
664237,,,,,,,,0.49609375,-0.0625,0.5078125,0.685546875,-0.9765625,0.27734375,0.42578125,-9.69140625,1.6171875,1.0
664238,,,,,,,,0.58203125,0.38671875,0.078125,0.66015625,-0.92578125,0.318359375,0.50390625,-9.2265625,1.234375,1.0
664239,,,,,,,,0.390625,1.19140625,-0.421875,0.3515625,-0.8515625,0.4140625,0.2734375,-8.42578125,0.8125,1.0
664240,36.01324133333333,129.31928183333332,61.46632911192012,93.35392090399877,1.2000000000000002,43.0,,0.40625,1.5,-0.36328125,0.29296875,-0.4375,0.09375,-0.64453125,-12.4453125,3.4921875,1.0
664241,,,,,,,,0.52734375,2.10546875,-0.34765625,0.1640625,-0.9921875,0.462890625,0.34765625,-7.50390625,0.92578125,1.0
664242,,,,,,,,0.828125,2.41015625,-0.29296875,0.19140625,-0.98046875,0.466796875,0.6171875,-7.1953125,1.00390625,1.0
664243,,,,,,,,1.203125,2.640625,-0.5078125,0.19140625,-0.908203125,0.46484375,0.9609375,-6.96875,0.8125,1.0
664244,,,,,,,,1.44140625,2.90234375,-0.6953125,0.115234375,-0.85546875,0.4453125,1.15234375,-6.69921875,0.65625,1.0
664245,,,,,,,,1.62890625,3.1328125,-0.89453125,0.072265625,-0.861328125,0.4375,1.30859375,-6.46875,0.46484375,1.0
664246,,,,,,,,1.6796875,3.1328125,-1.0546875,0.0703125,-0.865234375,0.427734375,1.34375,-6.46875,0.3125,1.0
664247,,,,,,,,1.98046875,3.0078125,-1.17578125,0.09765625,-0.84765625,0.4296875,1.61328125,-6.58984375,0.19921875,1.0
664248,,,,,,,,2.2734375,2.6640625,-1.26953125,0.1328125,-0.818359375,0.419921875,1.8828125,-6.93359375,0.12109375,1.0
664249,,,,,,,,2.3125,2.51171875,-1.25390625,0.150390625,-0.767578125,0.416015625,1.8828125,-7.08203125,0.16015625,1.0
664250,36.01324183333334,129.31928266666668,61.541452570274814,93.40940105270278,1.1,41.0,,2.15234375,2.28125,-1.23828125,0.29296875,-0.4375,0.09375,-0.64453125,-12.4453125,3.4921875,1.0
664251,,,,,,,,1.9140625,2.1484375,-1.0625,0.1015625,-0.68359375,0.34375,1.421875,-7.43359375,0.390625,1.0
664252,,,,,,,,1.82421875,2.03515625,-0.96484375,0.0546875,-0.61328125,0.2734375,1.30859375,-7.54296875,0.50390625,1.0
664253,,,,,,,,1.53125,1.52734375,-0.97265625,0.01171875,-0.48046875,0.18359375,1.0,-8.0390625,0.50390625,1.0
664254,,,,,,,,1.45703125,1.4140625,-0.93359375,0.009765625,-0.431640625,0.154296875,0.92578125,-8.15625,0.54296875,1.0
664255,,,,,,,,1.30859375,1.14453125,-0.97265625,0.005859375,-0.357421875,0.08984375,0.76953125,-8.42578125,0.50390625,1.0
664256,,,,,,,,1.1875,0.33203125,-0.94140625,0.00390625,-0.2578125,0.001953125,0.65625,-9.2265625,0.54296875,1.0
664257,,,,,,,,1.1484375,0.1796875,-0.86328125,0.005859375,-0.228515625,-0.013671875,0.6171875,-9.3828125,0.62109375,1.0
664258,,,,,,,,1.05859375,-0.203125,-0.55859375,0.005859375,-0.185546875,-0.04296875,0.54296875,-9.76953125,0.92578125,1.0
664259,,,,,,,,1.01953125,-0.1640625,-0.48828125,0.013671875,-0.15625,-0.041015625,0.50390625,-9.73046875,1.00390625,1.0
664260,36.013242500000004,129.31928366666668,61.63160066409505,93.48337451608698,1.1,40.0,,1.00390625,0.02734375,-0.453125,0.021484375,-0.060546875,-0.064453125,0.50390625,-9.53515625,1.0390625,1.0
664261,,,,,,,,0.99609375,0.1796875,-0.60546875,0.037109375,0.001953125,-0.06640625,0.50390625,-9.38671875,0.88671875,1.0
664262,,,,,,,,1.0625,0.1328125,-0.91015625,0.056640625,0.037109375,-0.06640625,0.578125,-9.42578125,0.58203125,1.0
664263,,,,,,,,1.0546875,0.05859375,-1.03515625,0.080078125,0.048828125,-0.060546875,0.578125,-9.49609375,0.46484375,1.0
664264,,,,,,,,0.98046875,-0.05859375,-1.234375,0.130859375,0.03125,-0.064453125,0.50390625,-9.61328125,0.2734375,1.0
664265,,,,,,,,0.703125,-0.29296875,-1.25,0.1796875,-0.033203125,-0.056640625,0.234375,-9.8359375,0.2734375,1.0
664266,,,,,,,,0.53515625,-0.6796875,-1.30078125,0.1875,-0.09765625,-0.041015625,0.08203125,-10.23046875,0.23828125,1.0
664267,,,,,,,,0.328125,-1.0703125,-1.1328125,0.138671875,-0.15234375,-0.015625,-0.109375,-10.61328125,0.4296875,1.0
664268,,,,,,,,0.2890625,-1.3359375,-0.94921875,0.10546875,-0.158203125,-0.00390625,-0.1484375,-10.875,0.62109375,1.0
664269,,,,,,,,-0.015625,-1.48828125,-0.69140625,0.048828125,-0.1328125,0.001953125,-0.453125,-11.02734375,0.88671875,1.0
664270,36.013243333333335,129.31928416666668,61.67667431901215,93.57584087047158,1.1,30.0,,-0.37109375,-1.0390625,-0.5390625,0.0078125,-0.08203125,0.017578125,-0.80078125,-10.5703125,1.0390625,1.0
664271,,,,,,,,-0.140625,-0.45703125,-0.67578125,-0.126953125,-0.10546875,0.05859375,-0.5703125,-9.99609375,0.88671875,1.0
664272,,,,,,,,0.39453125,0.234375,-0.78125,-0.205078125,-0.162109375,0.08984375,-0.03515625,-9.3046875,0.7734375,1.0
664273,,,,,,,,0.85546875,0.2734375,-0.8046875,-0.244140625,-0.193359375,0.09765625,0.42578125,-9.265625,0.734375,1.0
664274,,,,,,,,1.20703125,-0.265625,-0.97265625,-0.27734375,-0.27734375,0.11328125,0.76953125,-9.80859375,0.54296875,1.0
664275,,,,,,,,1.33203125,-1.64453125,-1.21875,-0.25390625,-0.357421875,0.125,0.88671875,-11.1796875,0.2734375,1.0
664276,,,,,,,,0.71875,-2.67578125,-0.84765625,-0.224609375,-0.435546875,0.158203125,0.2734375,-12.2109375,0.62109375,1.0
664277,,,,,,,,0.3828125,-2.36328125,-0.2890625,-0.2265625,-0.46484375,0.193359375,-0.0703125,-11.91015625,1.15625,1.0
664278,,,,,,,,0.390625,-2.0859375,0.0390625,-0.330078125,-0.4453125,0.228515625,-0.0703125,-11.64453125,1.4609375,1.0
664279,,,,,,,,-0.3984375,-2.43359375,1.53515625,-0.5625,-0.396484375,0.25390625,-0.875,-11.984375,2.91796875,1.0
664280,36.01324416666667,129.31928483333334,61.73677274393151,93.66830733024298,1.2000000000000002,27.0,,-1.37890625,-4.02734375,2.75390625,0.0078125,-0.08203125,0.017578125,-1.87109375,-13.59375,4.06640625,1.0
664281,,,,,,,,-1.9375,-3.87109375,4.05859375,-0.859375,-0.25,0.205078125,-2.4453125,-13.44140625,5.29296875,1.0
664282,,,,,,,,-1.88671875,-2.70703125,3.6484375,-0.765625,-0.28515625,0.162109375,-2.41015625,-12.2890625,4.796875,1.0
664283,,,,,,,,-1.76171875,-2.40234375,3.37109375,-0.73828125,-0.263671875,0.134765625,-2.29296875,-11.98828125,4.48828125,1.0
664284,,,,,,,,-0.26171875,-1.92578125,3.39453125,-0.7421875,-0.130859375,0.109375,-0.80078125,-11.52734375,4.41015625,1.0
664285,,,,,,,,0.12890625,-1.640625,3.15234375,-0.65625,-0.337890625,0.0859375,-0.41796875,-11.2578125,4.06640625,1.0
664286,,,,,,,,0.51171875,-1.17578125,2.6171875,-0.2265625,-0.564453125,0.068359375,-0.03515625,-10.796875,3.4921875,1.0
664287,,,,,,,,0.55078125,-0.75390625,1.546875,0.12890625,-0.703125,0.107421875,0.00390625,-10.375,2.421875,1.0
664288,,,,,,,,0.3671875,-0.75390625,1.421875,0.20703125,-0.69921875,0.123046875,-0.1875,-10.37890625,2.3046875,1.0
664289,,,,,,,,0.0625,-0.79296875,1.54296875,0.3203125,-0.54296875,0.140625,-0.4921875,-10.41796875,2.45703125,1.0
664290,36.01324516666667,129.31928516666667,61.76682150014558,93.77926678788236,1.2000000000000002,23.0,,0.0703125,-0.828125,1.7734375,0.0078125,-0.08203125,0.017578125,-0.4921875,-10.45703125,2.7265625,1.0
664291,,,,,,,,0.1171875,-0.8359375,1.65625,0.4453125,-0.302734375,0.076171875,-0.453125,-10.453125,2.6484375,1.0
664292,,,,,,,,0.15234375,-0.63671875,1.58203125,0.349609375,-0.36328125,0.0078125,-0.41796875,-10.2578125,2.61328125,1.0
664293,,,,,,,,0.26171875,-0.33984375,1.13671875,0.251953125,-0.400390625,-0.02734375,-0.30078125,-9.953125,2.19140625,1.0
664294,,,,,,,,0.29296875,0.00390625,0.765625,0.0546875,-0.466796875,-0.083984375,-0.26171875,-9.609375,1.84375,1.0
664295,,,,,,,,0.54296875,0.42578125,0.34765625,-0.0703125,-0.572265625,-0.15234375,0.00390625,-9.1875,1.42578125,1.0
664296,,,,,,,,0.8046875,1.0078125,0.0859375,-0.09375,-0.6953125,-0.201171875,0.3125,-8.6171875,1.15625,1.0
664297,,,,,,,,0.97265625,1.546875,-0.10546875,-0.04296875,-0.689453125,-0.2109375,0.50390625,-8.08203125,0.96484375,1.0
664298,,,,,,,,0.95703125,1.890625,-0.296875,-0.02734375,-0.689453125,-0.208984375,0.50390625,-7.73828125,0.7734375,1.0
664299,,,,,,,,0.91015625,2.203125,-0.421875,-0.041015625,-0.673828125,-0.177734375,0.50390625,-7.43359375,0.65625,1.0
664300,36.013246,129.3192858333333,61.826919917400176,93.87173324917583,1.1,22.0,0.0,0.76953125,2.43359375,-0.375,0.0078125,-0.08203125,0.017578125,-0.4921875,-10.45703125,2.7265625,1.0
664301,,,,,,,,0.53125,2.3671875,-0.40625,-0.05078125,-0.6328125,-0.123046875,0.1953125,-7.27734375,0.65625,1.0
664302,,,,,,,,0.29296875,2.2578125,-0.40625,-0.046875,-0.6328125,-0.12109375,-0.03515625,-7.390625,0.65625,1.0
664303,,,,,,,,0.04296875,2.328125,-0.4140625,-0.025390625,-0.671875,-0.123046875,-0.26171875,-7.31640625,0.65625,1.0
664304,,,,,,,,-0.203125,2.44140625,-0.4140625,-0.01171875,-0.689453125,-0.125,-0.4921875,-7.1953125,0.65625,1.0
664305,,,,,,,,-0.2578125,2.44140625,-0.48828125,0.02734375,-0.681640625,-0.12890625,-0.53125,-7.19921875,0.58203125,1.0
664306,,,,,,,,-0.47265625,2.52734375,-0.49609375,0.0625,-0.658203125,-0.12109375,-0.72265625,-7.12109375,0.58203125,1.0
664307,,,,,,,,-0.44921875,2.40234375,-0.45703125,0.080078125,-0.650390625,-0.11328125,-0.68359375,-7.234375,0.62109375,1.0
664308,,,,,,,,-0.46484375,2.17578125,-0.51171875,0.1171875,-0.6328125,-0.0859375,-0.68359375,-7.4609375,0.58203125,1.0
664309,,,,,,,,-0.48046875,2.05859375,-0.52734375,0.154296875,-0.61328125,-0.06640625,-0.68359375,-7.578125,0.58203125,1.0
664310,36.01324683333333,129.319286,61.84194403687236,93.96419939305802,1.1,19.0,,-0.421875,1.828125,-0.55078125,0.0078125,-0.08203125,0.017578125,-0.609375,-7.81640625,0.58203125,1.0
664311,,,,,,,,-0.2734375,1.74609375,-0.52734375,0.18359375,-0.587890625,0.005859375,-0.453125,-7.8828125,0.62109375,1.0
664312,,,,,,,,-0.16015625,1.78125,-0.65234375,0.1875,-0.57421875,0.029296875,-0.33984375,-7.8515625,0.50390625,1.0
664313,,,,,,,,-0.015625,1.8125,-0.68359375,0.17578125,-0.548828125,0.064453125,-0.1875,-7.8125,0.50390625,1.0
664314,,,,,,,,0.13671875,1.7734375,-0.8515625,0.16015625,-0.537109375,0.08203125,-0.03515625,-7.8515625,0.3515625,1.0
664315,,,,,,,,0.109375,1.5,-0.9453125,0.150390625,-0.53125,0.103515625,-0.0703125,-8.12109375,0.2734375,1.0
664316,,,,,,,,0.17578125,1.3828125,-1.01953125,0.142578125,-0.529296875,0.107421875,0.00390625,-8.234375,0.19921875,1.0
664317,,,,,,,,0.109375,1.03125,-0.8828125,0.15234375,-0.52734375,0.119140625,-0.0703125,-8.578125,0.3515625,1.0
664318,,,,,,,,0.0703125,0.765625,-0.859375,0.1484375,-0.4921875,0.12109375,-0.109375,-9.07421875,0.50390625,1.0
664319,,,,,,,,0.078125,0.53515625,-0.75390625,0.13671875,-0.484375,0.125,-0.1484375,-9.109375,0.62109375,1.0
664320,36.013247666666665,129.31928633333334,61.87199292271001,94.05666564419218,1.1,18.0,,-0.421875,1.828125,-0.55078125,0.0078125,-0.08203125,0.017578125,-0.0703125,-9.34765625,0.734375,1.0
664321,,,,,,,,0.19921875,0.10546875,-0.59375,-0.021484375,-0.41796875,0.099609375,0.04296875,-9.61328125,0.65625,1.0
664322,,,,,,,,0.27734375,-0.0859375,-0.6328125,-0.080078125,-0.41015625,0.087890625,0.12109375,-9.76953125,0.65625,1.0
664323,,,,,,,,0.46875,-0.44140625,-0.625,-0.1328125,-0.40234375,0.0625,0.3125,-10.109375,0.6953125,1.0
664324,,,,,,,,0.5078125,-0.6328125,-0.53125,-0.14453125,-0.41015625,0.046875,0.38671875,-10.375,0.84765625,1.0
664325,,,,,,,,0.58203125,-0.890625,-0.37109375,-0.14453125,-0.40234375,0.025390625,0.38671875,-10.49609375,0.92578125,1.0
664326,,,,,,,,0.57421875,-0.890625,-0.32421875,-0.162109375,-0.396484375,0.0234375,0.38671875,-10.53125,0.88671875,1.0
664327,,,,,,,,0.61328125,-0.859375,-0.421875,-0.181640625,-0.3671875,0.01171875,0.42578125,-10.3359375,0.734375,1.0
664328,,,,,,,,0.52734375,-0.625,-0.515625,-0.20703125,-0.322265625,0.013671875,0.15625,-9.80859375,0.54296875,1.0
664329,,,,,,,,0.03125,0.21875,-0.765625,-0.22265625,-0.263671875,0.015625,-0.41796875,-9.23046875,0.390625,1.0
664330,36.01324866666666,129.31928666666667,61.90204167506079,94.16762510096422,1.1,16.0,,-0.421875,1.828125,-0.55078125,0.0078125,-0.08203125,0.017578125,-1.22265625,-8.8046875,0.390625,1.0
664331,,,,,,,,-1.39453125,0.87109375,-0.71875,-0.236328125,-0.140625,0.0234375,-1.796875,-8.7265625,0.50390625,1.0
664332,,,,,,,,-1.890625,0.87109375,-0.58203125,-0.22265625,-0.087890625,0.029296875,-2.41015625,-9.265625,0.50390625,1.0
664333,,,,,,,,-2.4296875,-0.01171875,-0.71875,-0.205078125,-0.037109375,0.04296875,-2.4453125,-10.1484375,0.3515625,1.0
664334,,,,,,,,-2.12109375,-1.16015625,-0.7734375,-0.228515625,-0.0234375,0.052734375,-2.0625,-11.37890625,0.2734375,1.0
664335,,,,,,,,-1.26953125,-3.296875,-0.359375,-0.310546875,-0.05078125,0.05859375,-1.06640625,-13.859375,1.1171875,1.0
664336,,,,,,,,-0.88671875,-4.25390625,0.078125,-0.3671875,-0.08984375,0.07421875,-0.64453125,-14.74609375,1.6171875,1.0
664337,,,,,,,,0.0,-5.9765625,1.21875,-0.498046875,-0.205078125,0.0859375,0.38671875,-17.19921875,2.87890625,1.0
664338,,,,,,,,0.8515625,-8.19140625,2.2265625,-0.73046875,-0.36328125,0.099609375,0.92578125,-18.26953125,3.1484375,1.0
664339,,,,,,,,1.28125,-8.56640625,2.10546875,-0.98046875,-0.501953125,0.15234375,1.8046875,-14.515625,3.4921875,1.0
664340,36.01324966666667,129.31928683333334,61.91706565980404,94.27858445429027,1.1,13.0,,-0.421875,1.828125,-0.55078125,-0.953125,-0.685546875,0.228515625,0.80859375,-11.52734375,2.2265625,1.0
664341,,,,,,,,-0.40234375,-2.15625,2.578125,-0.560546875,-0.76171875,0.228515625,-1.640625,-12.14453125,3.76171875,1.0
664342,,,,,,,,-1.375,-2.484375,3.26171875,-0.37109375,-0.77734375,0.193359375,-2.25390625,-12.37109375,3.80078125,1.0
664343,,,,,,,,-2.04296875,-2.62890625,3.1015625,0.2265625,-0.765625,0.0859375,-2.29296875,-12.1796875,3.1875,1.0
664344,,,,,,,,-1.546875,-1.94921875,1.58203125,0.439453125,-0.806640625,-0.021484375,-1.8359375,-11.6015625,2.07421875,1.0
664345,,,,,,,,-1.0546875,-1.296875,0.76953125,0.29296875,-1.021484375,-0.046875,-1.3359375,-10.95703125,1.30859375,1.0
664346,,,,,,,,-0.609375,-0.90625,0.73828125,0.267578125,-1.12109375,-0.044921875,-0.875,-10.5703125,1.30859375,1.0
664347,,,,,,,,-0.00390625,-0.59765625,1.2421875,0.35546875,-1.291015625,0.013671875,-0.26171875,-10.2578125,1.84375,1.0
664348,,,,,,,,0.33984375,-0.21484375,1.11328125,0.576171875,-1.396484375,0.09375,0.08203125,-9.87890625,1.76953125,1.0
664349,,,,,,,,0.37890625,-0.03125,0.8984375,0.669921875,-1.416015625,0.123046875,0.12109375,-9.6875,1.578125,1.0
664350,36.013250500000005,129.31928716666667,61.94711454190879,94.37105070529317,1.2000000000000002,15.0,,0.65234375,0.54296875,0.21484375,-0.953125,-0.685546875,0.228515625,0.80859375,-11.52734375,2.2265625,1.0
664351,,,,,,,,0.73828125,0.84765625,-0.1328125,0.6328125,-1.40625,0.25390625,0.46484375,-8.8046875,0.6953125,1.0
664352,,,,,,,,1.05859375,0.99609375,-0.109375,0.48046875,-1.404296875,0.33203125,0.76953125,-8.6484375,0.7734375,1.0
664353,,,,,,,,1.3046875,1.26171875,0.109375,0.3671875,-1.4140625,0.37109375,1.0,-8.38671875,1.0390625,1.0
664354,,,,,,,,1.47265625,1.33984375,0.203125,0.322265625,-1.423828125,0.3828125,1.15234375,-8.3046875,1.15625,1.0
664355,,,,,,,,1.64453125,1.5625,-0.01953125,0.228515625,-1.443359375,0.392578125,1.30859375,-8.078125,0.96484375,1.0
664356,,,,,,,,1.58984375,1.68359375,-0.15234375,0.17578125,-1.4609375,0.392578125,1.23046875,-7.9609375,0.84765625,1.0
664357,,,,,,,,2.04296875,2.2578125,-0.55859375,0.0625,-1.43359375,0.36328125,1.65234375,-7.39453125,0.46484375,1.0
664358,,,,,,,,2.265625,2.51953125,-0.58984375,0.138671875,-1.35546875,0.330078125,1.84375,-7.12109375,0.46484375,1.0
664359,,,,,,,,2.43359375,2.51953125,-0.61328125,0.2109375,-1.314453125,0.306640625,1.99609375,-7.12109375,0.46484375,1.0
664360,36.01325133333333,129.31928716666667,61.94711388964599,94.46351674288857,1.2000000000000002,11.0,,2.51953125,2.55078125,-0.65625,-0.953125,-0.685546875,0.228515625,0.80859375,-11.52734375,2.2265625,1.0
664361,,,,,,,,2.49609375,2.55078125,-0.8125,0.255859375,-1.26953125,0.306640625,2.03515625,-7.08203125,0.3125,1.0
664362,,,,,,,,2.625,2.50390625,-0.8359375,0.2421875,-1.216796875,0.310546875,2.1484375,-7.1171875,0.3125,1.0
664363,,,,,,,,2.55859375,2.16015625,-0.796875,0.224609375,-1.11328125,0.322265625,2.07421875,-7.46484375,0.390625,1.0
664364,,,,,,,,2.49609375,1.9609375,-0.828125,0.2265625,-1.04296875,0.298828125,1.99609375,-7.65625,0.390625,1.0
664365,,,,,,,,2.24609375,1.8046875,-0.73828125,0.234375,-0.982421875,0.2734375,1.73046875,-7.81640625,0.50390625,1.0
664366,,,,,,,,1.9140625,1.72265625,-0.6171875,0.232421875,-0.892578125,0.23828125,1.3828125,-7.8828125,0.65625,1.0
664367,,,,,,,,1.953125,1.66796875,-0.5703125,0.220703125,-0.826171875,0.197265625,1.421875,-7.921875,0.734375,1.0
664368,,,,,,,,2.14453125,1.24609375,-0.6953125,0.19140625,-0.662109375,0.119140625,1.61328125,-8.34765625,0.65625,1.0
664369,,,,,,,,2.10546875,0.89453125,-0.86328125,0.17578125,-0.580078125,0.09375,1.57421875,-8.69140625,0.50390625,1.0
664370,36.01325216666667,129.31928716666667,61.94711323784294,94.55598278280821,1.1,8.0,,2.03125,0.47265625,-0.88671875,0.19140625,-0.5,0.083984375,1.5,-9.11328125,0.50390625,1.0
664371,,,,,,,,1.9140625,0.203125,-0.90234375,0.2109375,-0.45703125,0.07421875,1.3828125,-9.3828125,0.50390625,1.0
664372,,,,,,,,1.83203125,-0.15625,-0.71875,0.21875,-0.326171875,0.068359375,1.30859375,-9.73046875,0.734375,1.0
664373,,,,,,,,1.75390625,-0.30859375,-0.6484375,0.203125,-0.291015625,0.06640625,1.23046875,-9.875,0.8125,1.0
664374,,,,,,,,1.40234375,-0.30859375,-0.3125,0.16796875,-0.228515625,0.0625,0.88671875,-9.87890625,1.15625,1.0
664375,,,,,,,,1.2578125,-0.31640625,-0.21484375,0.12109375,-0.193359375,0.0625,0.734375,-9.875,1.26953125,1.0
664376,,,,,,,,1.21875,-0.27734375,-0.18359375,0.09375,-0.177734375,0.060546875,0.6953125,-9.83984375,1.30859375,1.0
664377,,,,,,,,1.171875,-0.25,-0.23046875,0.0703125,-0.158203125,0.0625,0.65625,-9.8046875,1.26953125,1.0
664378,,,,,,,,1.2578125,-0.28515625,-0.3125,0.056640625,-0.123046875,0.05859375,0.734375,-9.83984375,1.1953125,1.0
664379,,,,,,,,1.2109375,-0.25,-0.58203125,0.08984375,-0.064453125,0.0625,0.6953125,-9.80859375,0.92578125,1.0
664380,36.013253,129.31928699999997,61.932087817087464,94.64844871481554,1.0,0.0,,1.1328125,-0.32421875,-0.7734375,0.095703125,-0.0390625,0.056640625,0.6171875,-9.875,0.734375,1.0
664381,,,,,,,,0.98046875,-0.41015625,-0.91015625,0.125,-0.017578125,0.07421875,0.46484375,-9.953125,0.62109375,1.0
664382,,,,,,,,0.6875,-0.53125,-0.91796875,0.095703125,-0.05078125,0.1171875,0.15625,-10.0703125,0.62109375,1.0
664383,,,,,,,,0.57421875,-0.6015625,-0.66015625,0.05859375,-0.08984375,0.158203125,0.04296875,-10.1484375,0.88671875,1.0
664384,,,,,,,,0.4765625,-0.6484375,-0.5078125,-0.060546875,-0.095703125,0.21875,-0.0703125,-10.19140625,1.0390625,1.0
664385,,,,,,,,0.5078125,-0.5625,-0.17578125,-0.19140625,-0.0703125,0.2734375,-0.0703125,-10.11328125,1.34765625,1.0
664386,,,,,,,,0.66796875,-0.9921875,-0.24609375,-0.232421875,-0.06640625,0.283203125,0.08203125,-10.53515625,1.26953125,1.0
664387,,,,,,,,0.62109375,-1.75,-0.2890625,-0.306640625,-0.08203125,0.30078125,0.00390625,-11.30078125,1.1953125,1.0
664388,,,,,,,,0.1875,-3.015625,-0.19140625,-0.365234375,-0.125,0.32421875,-0.453125,-12.56640625,1.26953125,1.0
664389,,,,,,,,-0.21875,-3.47265625,0.5859375,-0.421875,-0.177734375,0.33203125,-0.875,-13.01953125,2.0,1.0
664390,36.013253999999996,129.31928633333334,61.87198797358171,94.75940753667774,1.1,348.0,,-1.26171875,-3.12109375,2.234375,-0.4609375,-0.205078125,0.345703125,-1.94921875,-12.67578125,3.609375,1.0
664391,,,,,,,,-2.04296875,-3.07421875,2.5078125,-0.6015625,-0.23828125,0.373046875,-2.75390625,-12.63671875,3.8359375,1.0
664392,,,,,,,,-2.28125,-2.53125,2.80078125,-0.763671875,-0.203125,0.390625,-3.0234375,-12.1015625,4.06640625,1.0
664393,,,,,,,,-2.01953125,-1.61328125,3.22265625,-0.8359375,-0.18359375,0.390625,-2.79296875,-11.18359375,4.41015625,1.0
664394,,,,,,,,-1.640625,-1.3671875,3.1875,-0.787109375,-0.185546875,0.34765625,-2.4453125,-10.95703125,4.296875,1.0
664395,,,,,,,,-0.69140625,-1.40625,3.44921875,-0.646484375,-0.271484375,0.310546875,-1.52734375,-10.9921875,4.48828125,1.0
664396,,,,,,,,-0.421875,-1.43359375,3.42578125,-0.59765625,-0.361328125,0.298828125,-1.2578125,-11.0234375,4.44921875,1.0
664397,,,,,,,,0.05859375,-1.43359375,3.21484375,-0.498046875,-0.564453125,0.26171875,-0.80078125,-11.02734375,4.18359375,1.0
664398,,,,,,,,0.53515625,-1.0078125,2.78515625,-0.265625,-0.693359375,0.23046875,-0.33984375,-10.609375,3.72265625,1.0
664399,,,,,,,,0.75,-0.81640625,2.5625,-0.06640625,-0.7421875,0.205078125,-0.1484375,-10.4140625,3.4921875,1.0
664400,36.013255,129.3192858333333,61.82691288910264,94.87036646614087,1.1,344.0,0.0,0.375,-0.9296875,2.1640625,0.056640625,-0.73046875,0.162109375,-1.94921875,-12.67578125,3.609375,1.0
664401,,,,,,,,-0.26953125,-0.81640625,2.45703125,0.126953125,-0.619140625,0.109375,-1.18359375,-10.41796875,3.41796875,1.0
664402,,,,,,,,-0.3515625,-0.625,2.23828125,0.154296875,-0.5546875,0.06640625,-1.2578125,-10.2265625,3.22265625,1.0
664403,,,,,,,,-0.23828125,-0.39453125,1.7578125,0.05078125,-0.521484375,-0.01953125,-1.14453125,-9.9921875,2.765625,1.0
664404,,,,,,,,-0.03125,-0.125,1.25,-0.115234375,-0.521484375,-0.08203125,-0.9140625,-9.73046875,2.265625,1.0
664405,,,,,,,,0.19140625,-0.0390625,0.9921875,-0.2265625,-0.5546875,-0.146484375,-0.68359375,-9.65234375,2.0,1.0
664406,,,,,,,,0.3671875,0.12109375,0.8515625,-0.240234375,-0.599609375,-0.173828125,-0.4921875,-9.49609375,1.84375,1.0
664407,,,,,,,,0.56640625,0.28125,0.66796875,-0.212890625,-0.669921875,-0.197265625,-0.26171875,-9.34765625,1.65234375,1.0
664408,,,,,,,,0.76953125,0.78125,0.37890625,-0.203125,-0.677734375,-0.20703125,-0.03515625,-8.84375,1.34765625,1.0
664409,,,,,,,,0.73046875,1.1328125,0.234375,-0.212890625,-0.671875,-0.205078125,-0.03515625,-8.5,1.1953125,1.0
664410,36.01325583333333,129.31928533333334,61.7818379434181,94.96283218838079,1.1,343.0,,0.83203125,1.74609375,-0.05859375,-0.228515625,-0.66796875,-0.181640625,0.08203125,-7.8828125,0.88671875,1.0
664411,,,,,,,,0.79296875,2.328125,-0.2734375,-0.205078125,-0.669921875,-0.162109375,0.08203125,-7.3125,0.65625,1.0
664412,,,,,,,,0.73828125,2.44921875,-0.33203125,-0.193359375,-0.67578125,-0.158203125,0.04296875,-7.19921875,0.58203125,1.0
664413,,,,,,,,0.25390625,2.6484375,-0.171875,-0.14453125,-0.6875,-0.15625,-0.41796875,-7.01171875,0.734375,1.0
664414,,,,,,,,0.171875,2.57421875,-0.171875,-0.123046875,-0.6953125,-0.154296875,-0.4921875,-7.08203125,0.734375,1.0
664415,,,,,,,,-0.05859375,2.34375,-0.125,-0.11328125,-0.75390625,-0.154296875,-0.68359375,-7.3125,0.7734375,1.0
664416,,,,,,,,-0.14453125,2.19140625,-0.1953125,-0.107421875,-0.779296875,-0.15234375,-0.76171875,-7.46484375,0.6953125,1.0
664417,,,,,,,,-0.17578125,2.0078125,-0.1953125,-0.125,-0.810546875,-0.1484375,-0.76171875,-7.66015625,0.6953125,1.0
664418,,,,,,,,-0.24609375,2.04296875,-0.1875,-0.1171875,-0.8046875,-0.126953125,-0.80078125,-7.6171875,0.6953125,1.0
664419,,,,,,,,-0.5,2.08203125,-0.37890625,-0.08203125,-0.8203125,-0.107421875,-1.03125,-7.578125,0.50390625,1.0
664420,36.013256500000004,129.31928483333334,61.73676312640342,95.03680470261072,1.0,340.0,,-0.58984375,2.04296875,-0.33203125,-0.228515625,-0.66796875,-0.181640625,0.08203125,-7.8828125,0.88671875,1.0
664421,,,,,,,,-0.796875,1.890625,-0.41796875,-0.0234375,-0.896484375,-0.05859375,-1.296875,-7.77734375,0.46484375,1.0
664422,,,,,,,,-0.7734375,1.73828125,-0.41796875,0.0234375,-0.908203125,-0.025390625,-1.2578125,-7.92578125,0.46484375,1.0
664423,,,,,,,,-0.58984375,1.73828125,-0.5390625,0.048828125,-0.912109375,0.0,-1.06640625,-7.921875,0.3515625,1.0
664424,,,,,,,,-0.33203125,1.8828125,-0.70703125,0.1171875,-0.9453125,0.052734375,-0.80078125,-7.77734375,0.19921875,1.0
664425,,,,,,,,-0.0234375,1.953125,-0.84765625,0.126953125,-0.98046875,0.09375,-0.4921875,-7.69921875,0.08203125,1.0
664426,,,,,,,,0.19921875,1.796875,-0.86328125,0.142578125,-1.00390625,0.12890625,-0.26171875,-7.8515625,0.08203125,1.0
664427,,,,,,,,0.3203125,1.5703125,-0.84765625,0.171875,-1.01171875,0.16796875,-0.1484375,-8.08203125,0.12109375,1.0
664428,,,,,,,,0.328125,1.26171875,-0.81640625,0.1875,-1.021484375,0.181640625,-0.1484375,-8.38671875,0.16015625,1.0
664429,,,,,,,,0.3359375,0.91015625,-0.80859375,0.22265625,-1.015625,0.208984375,-0.1484375,-8.7265625,0.19921875,1.0
664430,36.01325716666667,129.31928433333331,61.6916883058514,95.1107772170602,1.0,336.0,,0.22265625,0.2109375,-0.65625,0.20703125,-1.0078125,0.232421875,-0.26171875,-9.421875,0.390625,1.0
664431,,,,,,,,0.08203125,-0.29296875,-0.6796875,0.154296875,-0.98828125,0.232421875,-0.41796875,-9.9140625,0.390625,1.0
664432,,,,,,,,0.015625,-0.37109375,-0.6484375,0.12890625,-0.978515625,0.240234375,-0.4921875,-9.99609375,0.4296875,1.0
664433,,,,,,,,-0.046875,-0.4921875,-0.47265625,0.0625,-0.95703125,0.2265625,-0.5703125,-10.11328125,0.62109375,1.0
664434,,,,,,,,0.26953125,-0.578125,-0.93359375,0.01171875,-0.93359375,0.208984375,-0.26171875,-10.1875,0.16015625,1.0
664435,,,,,,,,0.57421875,-0.30859375,-0.828125,-0.021484375,-0.921875,0.193359375,0.04296875,-9.91796875,0.2734375,1.0
664436,,,,,,,,0.765625,-0.1953125,-0.75,-0.017578125,-0.916015625,0.177734375,0.234375,-9.80859375,0.3515625,1.0
664437,,,,,,,,0.96484375,-0.23046875,-0.6796875,-0.021484375,-0.89453125,0.15625,0.42578125,-9.8359375,0.4296875,1.0
664438,,,,,,,,0.97265625,-0.84375,-0.3359375,-0.046875,-0.83203125,0.130859375,0.42578125,-10.453125,0.7734375,1.0
664439,,,,,,,,0.66796875,-0.81640625,-0.3359375,-0.060546875,-0.806640625,0.12109375,0.12109375,-10.41796875,0.7734375,1.0
664440,36.01325816666667,129.31928366666668,61.631588468051234,95.22173604130121,1.1,336.0,,0.20703125,-0.31640625,-0.4453125,-0.12109375,-0.73828125,0.109375,-0.33984375,-9.9140625,0.65625,1.0
664441,,,,,,,,-0.0625,0.2265625,-0.6640625,-0.16015625,-0.630859375,0.087890625,-0.609375,-9.3828125,0.4296875,1.0
664442,,,,,,,,-0.21484375,0.41796875,-0.65625,-0.197265625,-0.560546875,0.078125,-0.76171875,-9.19140625,0.4296875,1.0
664443,,,,,,,,-1.05859375,0.95703125,-0.51953125,-0.279296875,-0.421875,0.060546875,-1.60546875,-8.65234375,0.54296875,1.0
664444,,,,,,,,-1.70703125,0.91796875,-0.2890625,-0.279296875,-0.259765625,0.033203125,-2.25390625,-8.6875,0.734375,1.0
664445,,,,,,,,-2.0625,0.7265625,-0.07421875,-0.267578125,-0.189453125,0.013671875,-2.6015625,-8.8828125,0.92578125,1.0
664446,,,,,,,,-2.21484375,0.53515625,0.0859375,-0.267578125,-0.171875,0.0078125,-2.75390625,-9.0703125,1.078125,1.0
664447,,,,,,,,-2.25390625,-0.33984375,0.04296875,-0.30078125,-0.16015625,0.005859375,-2.79296875,-9.953125,1.00390625,1.0
664448,,,,,,,,-1.9140625,-1.796875,-0.32421875,-0.427734375,-0.251953125,-0.01171875,-2.4453125,-11.4140625,0.58203125,1.0
664449,,,,,,,,-1.9140625,-2.37109375,-0.0703125,-0.48046875,-0.298828125,-0.01953125,-2.4453125,-11.98828125,0.8125,1.0
664450,36.013259166666664,129.31928299999998,61.571488624387555,95.33269486582023,1.1,333.0,,-0.7734375,-5.80859375,0.55078125,-0.12109375,-0.73828125,0.109375,-1.296875,-15.4296875,1.38671875,1.0
664451,,,,,,,,0.7578125,-8.30078125,0.765625,-0.732421875,-0.505859375,-0.025390625,0.234375,-17.921875,1.5390625,1.0
664452,,,,,,,,2.85546875,-9.05859375,2.1015625,-0.763671875,-0.595703125,0.009765625,2.33984375,-18.6875,2.8046875,1.0
664453,,,,,,,,4.734375,-3.76171875,4.00390625,-0.689453125,-0.765625,0.078125,4.21875,-13.40234375,4.60546875,1.0
664454,,,,,,,,2.328125,-2.84375,3.0703125,-0.76171875,-1.095703125,0.16015625,1.8046875,-12.48828125,3.609375,1.0
664455,,,,,,,,-0.19140625,-2.75390625,3.90625,-0.94140625,-1.51953125,0.1953125,-0.72265625,-12.40625,4.375,1.0
664456,,,,,,,,-0.7265625,-2.71484375,3.7890625,-0.982421875,-1.681640625,0.19140625,-1.2578125,-12.37109375,4.21875,1.0
664457,,,,,,,,-1.21875,-2.3984375,3.45703125,-0.896484375,-1.673828125,0.134765625,-1.7578125,-12.0625,3.80078125,1.0
664458,,,,,,,,-0.8671875,-1.51953125,2.16796875,-0.205078125,-1.359375,0.01953125,-1.4140625,-11.1796875,2.45703125,1.0
664459,,,,,,,,-0.57421875,-0.70703125,1.44921875,0.42578125,-1.013671875,-0.1953125,-1.10546875,-10.375,1.76953125,1.0
664460,36.01326016666667,129.31928233333335,61.51138878947276,95.44365369181133,1.2000000000000002,332.0,,-0.0859375,0.44140625,0.91015625,0.5234375,-1.24609375,-0.265625,-0.5703125,-9.23046875,1.30859375,1.0
664461,,,,,,,,0.55078125,1.2109375,1.0703125,0.744140625,-1.685546875,-0.12890625,0.12109375,-8.4609375,1.6171875,1.0
664462,,,,,,,,1.30078125,0.2421875,0.98828125,0.8515625,-1.419921875,0.01953125,0.88671875,-9.42578125,1.65234375,1.0
664463,,,,,,,,1.58984375,0.04296875,0.8671875,0.796875,-1.314453125,0.08984375,1.19140625,-9.61328125,1.578125,1.0
664464,,,,,,,,1.71484375,0.42578125,0.63671875,0.60546875,-1.142578125,0.2421875,1.30859375,-9.23046875,1.42578125,1.0
664465,,,,,,,,1.46875,1.1171875,0.2421875,0.27734375,-1.05078125,0.318359375,1.0390625,-8.54296875,1.078125,1.0
664466,,,,,,,,1.26171875,1.796875,-0.01171875,0.048828125,-1.125,0.390625,0.80859375,-7.8515625,0.84765625,1.0
664467,,,,,,,,1.24609375,2.11328125,-0.01953125,-0.029296875,-1.21875,0.416015625,0.76953125,-7.54296875,0.84765625,1.0
664468,,,,,,,,1.26171875,2.2265625,-0.0625,-0.029296875,-1.23046875,0.404296875,0.76953125,-7.43359375,0.8125,1.0
664469,,,,,,,,1.5625,2.265625,-0.0625,0.01171875,-1.2109375,0.365234375,1.0390625,-7.39453125,0.8125,1.0
664470,36.013260833333334,129.31928166666665,61.451289208031,95.51762610192054,1.1,331.0,,1.65625,2.21875,-0.01171875,0.08984375,-1.12890625,0.28515625,1.1171875,-7.43359375,0.88671875,1.0
664471,,,,,,,,1.74609375,2.06640625,-0.09375,0.087890625,-1.123046875,0.263671875,1.19140625,-7.578125,0.8125,1.0
664472,,,,,,,,2.0234375,1.953125,-0.33984375,0.056640625,-1.1171875,0.240234375,1.4609375,-7.6953125,0.58203125,1.0
664473,,,,,,,,2.26171875,2.0,-0.5,0.04296875,-1.12109375,0.2421875,1.69140625,-7.66015625,0.4296875,1.0
664474,,,,,,,,2.375,1.9921875,-0.625,0.03125,-1.1171875,0.236328125,1.8046875,-7.65625,0.3125,1.0
664475,,,,,,,,2.70703125,2.18359375,-0.87109375,0.056640625,-1.068359375,0.26171875,2.11328125,-7.46484375,0.08203125,1.0
664476,,,,,,,,2.65234375,2.296875,-0.9296875,0.087890625,-1.046875,0.26171875,2.03515625,-7.35546875,0.046875,1.0
664477,,,,,,,,2.65234375,2.2890625,-0.86328125,0.1015625,-1.025390625,0.25,2.03515625,-7.3515625,0.12109375,1.0
664478,,,,,,,,2.4609375,2.25,-0.79296875,0.109375,-1.0,0.232421875,1.84375,-7.390625,0.19921875,1.0
664479,,,,,,,,2.24609375,2.17578125,-0.6171875,0.126953125,-0.966796875,0.201171875,1.61328125,-7.4609375,0.390625,1.0
664480,36.01326133333334,129.31928133333335,61.421239292573816,95.57310551565408,0.9,329.0,,1.9765625,2.09765625,-0.5859375,0.08984375,-1.12890625,0.28515625,1.34375,-7.5390625,0.4296875,1.0
664481,,,,,,,,1.82421875,1.9375,-0.50390625,0.140625,-0.837890625,0.13671875,1.19140625,-7.69921875,0.54296875,1.0
664482,,,,,,,,1.671875,1.8125,-0.51171875,0.150390625,-0.751953125,0.087890625,1.0390625,-7.8125,0.54296875,1.0
664483,,,,,,,,1.6640625,1.34765625,-0.53515625,0.14453125,-0.6484375,0.048828125,1.0390625,-8.26953125,0.54296875,1.0
664484,,,,,,,,1.734375,1.0390625,-0.51171875,0.142578125,-0.546875,0.025390625,1.1171875,-8.578125,0.58203125,1.0
664485,,,,,,,,1.91796875,0.2734375,-0.453125,0.140625,-0.46875,0.001953125,1.30859375,-9.34765625,0.65625,1.0
664486,,,,,,,,1.9453125,0.16015625,-0.4375,0.130859375,-0.400390625,-0.0078125,1.34375,-9.45703125,0.6953125,1.0
664487,,,,,,,,1.9375,-0.22265625,-0.3359375,0.109375,-0.36328125,-0.009765625,1.34375,-9.83984375,0.8125,1.0
664488,,,,,,,,1.76953125,-0.546875,-0.23828125,0.072265625,-0.291015625,-0.005859375,1.19140625,-10.15234375,0.92578125,1.0
664489,,,,,,,,1.6171875,-0.5859375,-0.16015625,0.0625,-0.265625,-0.01171875,1.0390625,-10.1875,1.00390625,1.0
664490,36.013262166666664,129.31928033333332,61.33109005465114,95.66557092388705,1.0,319.0,,1.44921875,-0.77734375,0.0234375,0.08984375,-1.12890625,0.28515625,0.88671875,-10.375,1.1953125,1.0
664491,,,,,,,,1.36328125,-0.73828125,0.12890625,0.107421875,-0.109375,-0.013671875,0.80859375,-10.3359375,1.30859375,1.0
664492,,,,,,,,1.2890625,-0.69921875,0.07421875,0.142578125,-0.037109375,-0.033203125,0.734375,-10.30078125,1.26953125,1.0
664493,,,,,,,,1.1953125,-0.77734375,-0.125,0.150390625,-0.017578125,-0.033203125,0.65625,-10.375,1.078125,1.0
664494,,,,,,,,0.99609375,-1.04296875,-0.30078125,0.140625,-0.001953125,-0.037109375,0.46484375,-10.640625,0.92578125,1.0
664495,,,,,,,,0.796875,-1.08203125,-0.39453125,0.08203125,-0.09765625,-0.044921875,0.2734375,-10.6796875,0.84765625,1.0
664496,,,,,,,,0.47265625,-0.74609375,-0.5078125,0.06640625,-0.142578125,-0.048828125,-0.03515625,-10.3359375,0.734375,1.0
664497,,,,,,,,0.421875,-0.32421875,-0.32421875,0.056640625,-0.16015625,-0.03515625,-0.0703125,-9.9140625,0.92578125,1.0
664498,,,,,,,,0.44140625,-0.0546875,-0.25390625,-0.01171875,-0.1484375,-0.005859375,-0.03515625,-9.65234375,1.00390625,1.0
664499,,,,,,,,0.59765625,0.1640625,-0.29296875,-0.078125,-0.169921875,0.033203125,0.12109375,-9.421875,0.96484375,1.0
664500,36.0132625,129.3192795,61.25596597214678,95.70255681631866,1.0,309.0,0.0,0.90234375,-0.25390625,-0.39453125,0.08984375,-1.12890625,0.28515625,0.42578125,-9.83984375,0.84765625,1.0
664501,,,,,,,,1.0546875,-0.9375,-0.69140625,-0.1484375,-0.15625,0.087890625,0.578125,-10.53515625,0.54296875,1.0
664502,,,,,,,,0.98046875,-1.20703125,-0.53125,-0.154296875,-0.146484375,0.111328125,0.50390625,-10.80078125,0.6953125,1.0
664503,,,,,,,,0.48828125,-1.703125,-0.0546875,-0.19140625,-0.150390625,0.142578125,0.00390625,-11.296875,1.15625,1.0
664504,,,,,,,,0.48828125,-1.43359375,0.06640625,-0.2265625,-0.166015625,0.15625,0.00390625,-11.0234375,1.26953125,1.0
664505,,,,,,,,0.08203125,-0.43359375,0.7109375,-0.32421875,-0.205078125,0.173828125,-0.41796875,-10.03125,1.8828125,1.0
664506,,,,,,,,-0.0625,-0.578125,1.01953125,-0.51953125,-0.279296875,0.208984375,-0.5703125,-10.19140625,2.15234375,1.0
664507,,,,,,,,-0.859375,-1.84765625,1.96875,-0.646484375,-0.306640625,0.220703125,-1.375,-11.44921875,3.0703125,1.0
664508,,,,,,,,-1.34765625,-2.22265625,2.65234375,-0.798828125,-0.21484375,0.169921875,-2.8671875,-12.6015625,5.0234375,1.0
664509,,,,,,,,-2.3359375,-2.984375,4.03125,-0.763671875,-0.25390625,0.15625,-3.40625,-12.98828125,5.90625,1.0
664510,36.013263,129.3192785,61.16581699854234,95.75803581061622,1.1,298.0,,-2.7109375,-3.42578125,4.81640625,-0.521484375,-0.119140625,0.06640625,-2.79296875,-12.63671875,5.1015625,1.0
664511,,,,,,,,-1.8984375,-2.62109375,4.05859375,-0.51171875,-0.015625,0.095703125,-2.0625,-11.828125,4.6796875,1.0
664512,,,,,,,,-1.01171875,-1.81640625,3.73046875,-0.703125,-0.0546875,0.083984375,-0.80078125,-11.14453125,4.14453125,1.0
664513,,,,,,,,-0.24609375,-1.50390625,3.41015625,-0.69921875,-0.22265625,0.0703125,-0.4921875,-11.140625,4.06640625,1.0
664514,,,,,,,,0.3671875,-1.34375,2.9296875,-0.41796875,-0.5,0.068359375,-0.0703125,-10.99609375,3.453125,1.0
664515,,,,,,,,0.40625,-1.34375,2.69921875,-0.107421875,-0.708984375,0.060546875,-0.1484375,-10.9140625,3.30078125,1.0
664516,,,,,,,,0.3671875,-1.1875,2.62890625,0.12890625,-0.74609375,0.052734375,-0.33984375,-10.6796875,3.1484375,1.0
664517,,,,,,,,0.0546875,-0.953125,2.359375,0.287109375,-0.6640625,0.02734375,-0.4921875,-10.609375,3.03125,1.0
664518,,,,,,,,0.24609375,-0.8046875,1.984375,0.30859375,-0.611328125,-0.029296875,-0.30078125,-10.45703125,2.6875,1.0
664519,,,,,,,,0.828125,-0.1484375,1.2109375,0.091796875,-0.6875,-0.13671875,0.3125,-9.80859375,1.9609375,1.0
664520,36.0132635,129.31927750000003,61.075668026708236,95.81351480656133,1.0,298.0,,0.95703125,0.20703125,0.93359375,-0.521484375,-0.119140625,0.06640625,-2.79296875,-12.63671875,5.1015625,1.0
664521,,,,,,,,1.0625,0.8203125,0.7109375,-0.0859375,-0.89453125,-0.251953125,0.6171875,-8.84765625,1.4609375,1.0
664522,,,,,,,,1.0859375,0.97265625,0.59765625,-0.080078125,-0.9140625,-0.259765625,0.65625,-8.6875,1.34765625,1.0
664523,,,,,,,,1.09375,1.62890625,0.24609375,-0.056640625,-0.93359375,-0.25390625,0.6953125,-8.04296875,1.00390625,1.0
664524,,,,,,,,1.0546875,1.8984375,0.12890625,-0.02734375,-0.890625,-0.236328125,0.6953125,-7.7734375,0.88671875,1.0
664525,,,,,,,,1.08203125,2.2890625,-0.14453125,-0.02734375,-0.78515625,-0.1953125,0.76953125,-7.39453125,0.62109375,1.0
664526,,,,,,,,0.9609375,2.51953125,-0.22265625,-0.0390625,-0.765625,-0.17578125,0.65625,-7.16015625,0.54296875,1.0
664527,,,,,,,,0.81640625,2.59765625,-0.26171875,-0.056640625,-0.720703125,-0.154296875,0.54296875,-7.078125,0.50390625,1.0
664528,,,,,,,,0.25390625,2.2890625,-0.03125,-0.08203125,-0.728515625,-0.099609375,0.00390625,-7.39453125,0.734375,1.0
664529,,,,,,,,-0.06640625,2.25,0.16015625,-0.0703125,-0.724609375,-0.09375,-0.30078125,-7.43359375,0.92578125,1.0
664530,36.01326383333333,129.31927666666667,61.00054394430336,95.85050069960731,0.9,300.0,,-0.3125,2.2890625,0.12890625,-0.521484375,-0.119140625,0.06640625,-0.53125,-7.390625,0.88671875,1.0
664531,,,,,,,,-0.43359375,2.3359375,0.0234375,-0.064453125,-0.763671875,-0.052734375,-0.64453125,-7.3515625,0.7734375,1.0
664532,,,,,,,,-0.53515625,2.17578125,-0.13671875,-0.033203125,-0.77734375,-0.029296875,-0.72265625,-7.50390625,0.62109375,1.0
664533,,,,,,,,-0.62109375,1.90625,-0.13671875,-0.001953125,-0.767578125,-0.0078125,-0.80078125,-7.7734375,0.62109375,1.0
664534,,,,,,,,-0.50390625,1.5703125,-0.0625,0.0625,-0.767578125,0.009765625,-0.68359375,-8.12109375,0.6953125,1.0
664535,,,,,,,,-0.4453125,1.41015625,0.11328125,0.12890625,-0.796875,0.0390625,-0.609375,-8.265625,0.88671875,1.0
664536,,,,,,,,-0.328125,1.41015625,0.09765625,0.1796875,-0.802734375,0.072265625,-0.4921875,-8.265625,0.88671875,1.0
664537,,,,,,,,-0.25390625,1.4765625,-0.078125,0.197265625,-0.806640625,0.111328125,-0.41796875,-8.1953125,0.734375,1.0
664538,,,,,,,,-0.09765625,1.5078125,-0.40625,0.1640625,-0.802734375,0.146484375,-0.26171875,-8.16015625,0.4296875,1.0
664539,,,,,,,,0.17578125,1.23828125,-0.5,0.142578125,-0.822265625,0.177734375,0.00390625,-8.421875,0.3515625,1.0
664540,36.013264166666666,129.3192755,60.895370336152816,95.88748638613313,1.0,293.0,,0.3359375,1.01171875,-0.515625,-0.521484375,-0.119140625,0.06640625,0.15625,-8.65234375,0.3515625,1.0
664541,,,,,,,,0.421875,0.6953125,-0.38671875,0.19140625,-0.822265625,0.216796875,0.234375,-8.9609375,0.50390625,1.0
664542,,,,,,,,0.4296875,0.6171875,-0.43359375,0.2109375,-0.810546875,0.23046875,0.234375,-9.0390625,0.46484375,1.0
664543,,,,,,,,0.5234375,0.51171875,-0.5,0.220703125,-0.80859375,0.236328125,0.3125,-9.15234375,0.4296875,1.0
664544,,,,,,,,0.60546875,0.46484375,-0.546875,0.201171875,-0.80859375,0.2421875,0.38671875,-9.1875,0.390625,1.0
664545,,,,,,,,0.8203125,0.57421875,-0.5390625,0.10546875,-0.76953125,0.2421875,0.578125,-9.07421875,0.4296875,1.0
664546,,,,,,,,0.80078125,0.21875,-0.59375,0.017578125,-0.677734375,0.220703125,0.54296875,-9.42578125,0.390625,1.0
664547,,,,,,,,0.81640625,0.09765625,-0.6328125,-0.005859375,-0.640625,0.205078125,0.54296875,-9.53125,0.3515625,1.0
664548,,,,,,,,1.015625,-0.171875,-0.43359375,-0.0234375,-0.595703125,0.177734375,0.734375,-9.80859375,0.54296875,1.0
664549,,,,,,,,1.08984375,-0.20703125,-0.328125,-0.02734375,-0.576171875,0.169921875,0.80859375,-9.8359375,0.65625,1.0
664550,36.01326466666667,129.3192745,60.80522136743398,95.94296538442543,1.0,291.0,,1.18359375,-0.32421875,-0.171875,-0.521484375,-0.119140625,0.06640625,0.15625,-8.65234375,0.3515625,1.0
664551,,,,,,,,1.14453125,-0.5234375,-0.2109375,-0.037109375,-0.466796875,0.111328125,0.84765625,-10.15234375,0.7734375,1.0
664552,,,,,,,,0.68359375,-0.8203125,-0.12890625,-0.09765625,-0.421875,0.078125,0.38671875,-10.453125,0.84765625,1.0
664553,,,,,,,,0.4921875,-0.8984375,0.03515625,-0.142578125,-0.388671875,0.052734375,0.1953125,-10.53125,1.00390625,1.0
664554,,,,,,,,0.33203125,-0.71484375,-0.1875,-0.1328125,-0.3359375,0.03125,0.04296875,-10.33984375,0.7734375,1.0
664555,,,,,,,,0.140625,-0.33203125,-0.40234375,-0.107421875,-0.244140625,0.0078125,-0.1484375,-9.953125,0.54296875,1.0
664556,,,,,,,,-0.12890625,0.17578125,-0.546875,-0.15234375,-0.150390625,-0.0078125,-0.41796875,-9.453125,0.390625,1.0
664557,,,,,,,,-0.625,0.48046875,-0.609375,-0.19921875,-0.078125,-0.009765625,-0.9140625,-9.1484375,0.3125,1.0
664558,,,,,,,,-1.0234375,0.48046875,-0.59375,-0.19921875,-0.013671875,-0.00390625,-1.296875,-9.15234375,0.3125,1.0
664559,,,,,,,,-1.40625,0.48046875,-0.53125,-0.166015625,0.060546875,0.005859375,-1.6796875,-9.15234375,0.3515625,1.0
664560,36.01326516666666,129.31927333333334,60.700047633008346,95.9984442793954,1.1,286.0,,-1.58984375,0.3671875,-0.484375,-0.521484375,-0.119140625,0.06640625,0.15625,-8.65234375,0.3515625,1.0
664561,,,,,,,,-1.78125,-0.20703125,-0.67578125,-0.265625,0.1484375,0.05078125,-2.0625,-9.8359375,0.16015625,1.0
664562,,,,,,,,-1.546875,-0.8515625,-0.53125,-0.361328125,0.072265625,0.052734375,-1.8359375,-10.49609375,0.2734375,1.0
664563,,,,,,,,-1.4296875,-1.05078125,-0.29296875,-0.4296875,0.021484375,0.0546875,-1.71875,-10.68359375,0.50390625,1.0
664564,,,,,,,,-0.77734375,-1.96484375,0.75,-0.537109375,-0.099609375,0.056640625,-1.06640625,-11.6015625,1.5,1.0
664565,,,,,,,,-0.1953125,-3.45703125,1.11328125,-0.65234375,-0.20703125,0.0625,-0.4921875,-13.09375,1.80859375,1.0
664566,,,,,,,,1.3671875,-6.28515625,1.14453125,-0.794921875,-0.302734375,0.06640625,1.078125,-15.93359375,1.76953125,1.0
664567,,,,,,,,2.9921875,-4.7421875,2.6171875,-0.912109375,-0.4375,0.126953125,2.6875,-14.40234375,3.109375,1.0
664568,,,,,,,,2.76171875,-2.8671875,2.50390625,-0.908203125,-0.482421875,0.14453125,2.45703125,-12.52734375,2.95703125,1.0
664569,,,,,,,,1.28125,-2.24609375,2.7734375,-0.8984375,-0.607421875,0.18359375,0.9609375,-11.90625,3.1484375,1.0
664570,36.0132655,129.31927216666665,60.59487402646684,96.03542997085431,1.0,282.0,,-0.37890625,-2.8125,3.05859375,-0.8671875,-0.720703125,0.20703125,-0.72265625,-12.484375,3.30078125,1.0
664571,,,,,,,,-1.0625,-3.15625,3.20703125,-0.677734375,-0.765625,0.154296875,-1.4140625,-12.828125,3.37890625,1.0
664572,,,,,,,,-0.9296875,-2.57421875,2.78515625,-0.130859375,-0.689453125,0.064453125,-1.296875,-12.25390625,2.91796875,1.0
664573,,,,,,,,-0.74609375,-1.3203125,1.734375,0.302734375,-0.642578125,-0.064453125,-1.10546875,-10.9921875,1.8828125,1.0
664574,,,,,,,,-0.640625,-0.4296875,1.2734375,0.3046875,-0.84765625,-0.12890625,-0.9921875,-10.11328125,1.4609375,1.0
664575,,,,,,,,-0.65625,0.14453125,1.16796875,0.2109375,-1.1015625,-0.1328125,-0.9921875,-9.53125,1.38671875,1.0
664576,,,,,,,,-0.51171875,0.22265625,1.08203125,0.2578125,-1.1796875,-0.1015625,-0.83984375,-9.453125,1.30859375,1.0
664577,,,,,,,,0.0859375,0.48828125,0.921875,0.478515625,-1.23046875,-0.03125,-0.2265625,-9.1875,1.1953125,1.0
664578,,,,,,,,0.42578125,0.640625,0.8203125,0.6875,-1.224609375,0.0390625,0.12109375,-9.0390625,1.15625,1.0
664579,,,,,,,,0.6171875,0.796875,0.6640625,0.763671875,-1.14453125,0.1484375,0.3125,-8.8828125,1.078125,1.0
664580,36.013265833333335,129.31927083333332,60.47467565808524,96.0724155580995,1.2000000000000002,284.0,,0.609375,1.1015625,0.32421875,0.572265625,-1.052734375,0.294921875,0.2734375,-8.578125,0.84765625,1.0
664581,,,,,,,,0.515625,1.5625,0.15625,0.345703125,-1.1171875,0.369140625,0.15625,-8.12109375,0.734375,1.0
664582,,,,,,,,0.80859375,2.16796875,-0.04296875,0.130859375,-1.203125,0.4296875,0.38671875,-7.5,0.58203125,1.0
664583,,,,,,,,0.98046875,2.28125,-0.203125,0.125,-1.205078125,0.43359375,0.54296875,-7.39453125,0.4296875,1.0
664584,,,,,,,,1.109375,2.43359375,-0.2578125,0.1015625,-1.205078125,0.435546875,0.65625,-7.234375,0.390625,1.0
664585,,,,,,,,1.30859375,2.42578125,-0.3984375,0.087890625,-1.1796875,0.4296875,0.80859375,-7.234375,0.2734375,1.0
664586,,,,,,,,1.44140625,2.3515625,-0.48046875,0.08203125,-1.1875,0.427734375,0.92578125,-7.31640625,0.19921875,1.0
664587,,,,,,,,1.546875,2.234375,-0.57421875,0.087890625,-1.193359375,0.419921875,1.0,-7.43359375,0.12109375,1.0
664588,,,,,,,,1.75390625,2.0078125,-0.65625,0.08984375,-1.1796875,0.42578125,1.19140625,-7.66015625,0.046875,1.0
664589,,,,,,,,1.953125,1.8828125,-0.6875,0.09765625,-1.154296875,0.439453125,1.34375,-7.7734375,0.046875,1.0
664590,36.013266333333334,129.31926983333332,60.384526691630754,96.12789456023324,1.1,285.0,,2.0859375,1.73046875,-0.62109375,0.572265625,-1.052734375,0.294921875,0.2734375,-8.578125,0.84765625,1.0
664591,,,,,,,,2.24609375,1.5703125,-0.52734375,0.099609375,-1.1328125,0.44921875,1.57421875,-8.08203125,0.23828125,1.0
664592,,,,,,,,2.30078125,1.453125,-0.5,0.083984375,-1.125,0.443359375,1.61328125,-8.1953125,0.2734375,1.0
664593,,,,,,,,2.25390625,1.33203125,-0.515625,0.046875,-1.09765625,0.419921875,1.53515625,-8.3046875,0.2734375,1.0
664594,,,,,,,,2.26953125,1.33203125,-0.5234375,0.037109375,-1.072265625,0.40625,1.53515625,-8.3046875,0.2734375,1.0
664595,,,,,,,,2.1796875,1.29296875,-0.64453125,0.0234375,-1.005859375,0.357421875,1.421875,-8.34765625,0.16015625,1.0
664596,,,,,,,,2.1875,1.28515625,-0.64453125,0.03515625,-0.9609375,0.3359375,1.421875,-8.34765625,0.16015625,1.0
664597,,,,,,,,2.171875,1.20703125,-0.67578125,0.099609375,-0.8671875,0.251953125,1.3828125,-8.42578125,0.16015625,1.0
664598,,,,,,,,2.1875,1.0546875,-0.61328125,0.162109375,-0.80859375,0.19921875,1.3828125,-8.578125,0.23828125,1.0
664599,,,,,,,,2.12109375,0.2734375,-0.73828125,0.228515625,-0.71484375,0.13671875,1.30859375,-9.34375,0.16015625,1.0
664600,36.013266333333334,129.31926883333333,60.29437810725057,96.12789394099579,1.1,279.0,0.0,2.15625,0.12109375,-0.76171875,0.24609375,-0.626953125,0.107421875,0.2734375,-8.578125,0.84765625,1.0
664601,,,,,,,,2.04296875,-0.34765625,-0.6796875,0.244140625,-0.53125,0.083984375,1.23046875,-9.95703125,0.2734375,1.0
664602,,,,,,,,1.8515625,-0.6171875,-0.51171875,0.24609375,-0.41796875,0.064453125,1.0390625,-10.2265625,0.46484375,1.0
664603,,,,,,,,1.8515625,-0.6171875,-0.52734375,0.248046875,-0.373046875,0.05859375,0.92578125,-10.2265625,0.54296875,1.0
664604,,,,,,,,1.421875,-0.5859375,-0.28125,0.24609375,-0.26953125,0.048828125,0.6171875,-10.19140625,0.734375,1.0
664605,,,,,,,,1.1171875,-0.36328125,0.0390625,0.234375,-0.173828125,0.037109375,0.3125,-9.95703125,1.078125,1.0
664606,,,,,,,,1.22265625,-0.44140625,0.09375,0.2265625,-0.0390625,0.025390625,0.54296875,-10.0703125,1.15625,1.0
664607,,,,,,,,1.4140625,-0.6015625,-0.0078125,0.2109375,0.083984375,0.03125,0.6953125,-10.2578125,1.00390625,1.0
664608,,,,,,,,1.4921875,-0.67578125,-0.09765625,0.1953125,0.1015625,0.029296875,0.84765625,-10.375,0.8125,1.0
664609,,,,,,,,1.60546875,-0.83203125,-0.390625,0.1484375,0.0625,0.033203125,0.84765625,-10.4140625,0.58203125,1.0
664610,36.01326616666667,129.31926733333333,60.159155357761605,96.10939980697768,1.3,269.0,,2.15625,0.12109375,-0.76171875,0.24609375,-0.626953125,0.107421875,0.65625,-10.19140625,0.2734375,1.0
664611,,,,,,,,1.33984375,-0.484375,-0.875,0.064453125,-0.05078125,0.03515625,0.46484375,-9.9140625,0.3125,1.0
664612,,,,,,,,0.9453125,-0.109375,-0.7265625,0.044921875,-0.0546875,0.033203125,0.04296875,-9.5703125,0.4296875,1.0
664613,,,,,,,,0.6796875,0.08203125,-0.65234375,0.0078125,-0.037109375,0.046875,-0.1875,-9.3828125,0.50390625,1.0
664614,,,,,,,,0.48828125,0.12109375,-0.30859375,-0.041015625,-0.013671875,0.0625,-0.30078125,-9.453125,0.84765625,1.0
664615,,,,,,,,0.6015625,-1.71875,0.24609375,-0.166015625,0.048828125,0.0859375,-0.1875,-11.296875,1.38671875,1.0
664616,,,,,,,,0.11328125,-3.359375,0.8359375,-0.193359375,0.1171875,0.099609375,-0.68359375,-12.94921875,1.9609375,1.0
664617,,,,,,,,-0.84375,-3.40625,1.81640625,-0.259765625,0.13671875,0.12109375,-1.640625,-12.98828125,2.91796875,1.0
664618,,,,,,,,-1.81640625,-2.6015625,2.765625,-0.33984375,0.125,0.12890625,-2.63671875,-12.18359375,3.8359375,1.0
664619,,,,,,,,-2.1484375,-2.8984375,3.296875,-0.625,0.052734375,0.181640625,-2.984375,-12.48828125,4.296875,1.0
664620,36.013265833333335,129.319266,60.03895749884779,96.0724125691547,1.3,259.0,,-1.671875,-2.5,4.1171875,-0.69921875,0.08984375,0.15625,-2.5234375,-12.10546875,5.0625,1.0
664621,,,,,,,,-1.203125,-2.23046875,3.875,-0.650390625,0.048828125,0.13671875,-2.0625,-11.83203125,4.7578125,1.0
664622,,,,,,,,-0.96875,-2.078125,3.8671875,-0.623046875,0.01171875,0.12890625,-1.8359375,-11.68359375,4.71875,1.0
664623,,,,,,,,-0.046875,-1.60546875,3.84375,-0.53125,-0.115234375,0.08984375,-0.9140625,-11.22265625,4.640625,1.0
664624,,,,,,,,0.34375,-1.41015625,3.73828125,-0.44140625,-0.34375,0.099609375,-0.53125,-11.02734375,4.48828125,1.0
664625,,,,,,,,0.57421875,-0.67578125,3.1171875,-0.34375,-0.5546875,0.064453125,-0.30078125,-10.30078125,3.8359375,1.0
664626,,,,,,,,0.57421875,-0.37109375,2.97265625,-0.2109375,-0.599609375,0.064453125,-0.30078125,-9.9921875,3.68359375,1.0
664627,,,,,,,,0.53515625,0.00390625,2.58984375,0.03515625,-0.5703125,0.0546875,-0.33984375,-9.61328125,3.30078125,1.0
664628,,,,,,,,-0.0859375,-0.5625,2.09765625,0.265625,-0.484375,0.0234375,-0.953125,-10.1875,2.83984375,1.0
664629,,,,,,,,-0.23828125,-0.828125,2.2734375,0.337890625,-0.4296875,0.001953125,-1.10546875,-10.45703125,3.03125,1.0
664630,36.01326566666667,129.31926483333334,59.93378427549902,96.0539186428596,1.2000000000000002,256.0,,-0.20703125,-1.2890625,2.45703125,0.41015625,-0.3359375,-0.025390625,-1.06640625,-10.9140625,3.26171875,1.0
664631,,,,,,,,0.04296875,-1.17578125,2.203125,0.26171875,-0.291015625,-0.076171875,-0.80078125,-10.796875,3.0703125,1.0
664632,,,,,,,,0.45703125,-0.5625,1.65234375,-0.00390625,-0.2578125,-0.095703125,-0.37890625,-10.19140625,2.53515625,1.0
664633,,,,,,,,0.82421875,0.09765625,1.125,-0.28515625,-0.26953125,-0.12890625,0.00390625,-9.53515625,2.0,1.0
664634,,,,,,,,0.91796875,0.3671875,0.84765625,-0.361328125,-0.353515625,-0.154296875,0.12109375,-9.265625,1.69140625,1.0
664635,,,,,,,,0.85546875,0.71875,0.56640625,-0.30078125,-0.421875,-0.181640625,0.08203125,-8.921875,1.38671875,1.0
664636,,,,,,,,0.75390625,1.109375,0.50390625,-0.193359375,-0.46484375,-0.224609375,0.00390625,-8.5390625,1.30859375,1.0
664637,,,,,,,,0.76171875,1.38671875,0.359375,-0.125,-0.517578125,-0.25,0.04296875,-8.26953125,1.15625,1.0
664638,,,,,,,,0.9609375,1.84375,0.16796875,-0.09375,-0.521484375,-0.26171875,0.2734375,-7.8125,0.96484375,1.0
664639,,,,,,,,1.11328125,2.16015625,0.09765625,-0.068359375,-0.4765625,-0.25,0.46484375,-7.5,0.88671875,1.0
664640,36.01326566666667,129.319264,59.85866045610851,96.05391813080611,1.1,258.0,,1.00390625,2.3125,0.05078125,0.41015625,-0.3359375,-0.025390625,-1.06640625,-10.9140625,3.26171875,1.0
664641,,,,,,,,0.67578125,2.390625,0.05078125,-0.00390625,-0.365234375,-0.212890625,0.08203125,-7.2734375,0.84765625,1.0
664642,,,,,,,,0.21484375,2.43359375,0.16015625,0.029296875,-0.412109375,-0.20703125,-0.33984375,-7.23828125,0.96484375,1.0
664643,,,,,,,,0.0,2.43359375,0.11328125,0.041015625,-0.431640625,-0.203125,-0.53125,-7.23828125,0.92578125,1.0
664644,,,,,,,,-0.29296875,2.55078125,0.18359375,0.05078125,-0.42578125,-0.19921875,-0.80078125,-7.1171875,1.00390625,1.0
664645,,,,,,,,-0.4375,2.6640625,0.08984375,0.080078125,-0.41015625,-0.1953125,-0.9140625,-7.0078125,0.92578125,1.0
664646,,,,,,,,-0.61328125,2.703125,-0.00390625,0.09375,-0.408203125,-0.18359375,-1.06640625,-6.96875,0.84765625,1.0
664647,,,,,,,,-0.79296875,2.6953125,-0.203125,0.109375,-0.4296875,-0.15625,-1.22265625,-6.97265625,0.65625,1.0
664648,,,,,,,,-0.921875,2.703125,-0.37890625,0.13671875,-0.466796875,-0.1171875,-1.3359375,-6.97265625,0.50390625,1.0
664649,,,,,,,,-0.9453125,2.50390625,-0.625,0.169921875,-0.498046875,-0.0703125,-1.3359375,-7.16015625,0.2734375,1.0
664650,36.01326516666666,129.31926266666667,59.738462720591166,95.99843768793478,1.2000000000000002,253.0,,-0.953125,2.3125,-0.80078125,0.224609375,-0.513671875,-0.013671875,-1.06640625,-10.9140625,3.26171875,1.0
664651,,,,,,,,-0.9140625,2.2265625,-0.85546875,0.234375,-0.517578125,0.015625,-1.296875,-7.43359375,0.08203125,1.0
664652,,,,,,,,-0.6171875,2.15234375,-0.83984375,0.26953125,-0.515625,0.099609375,-0.80078125,-7.50390625,0.046875,1.0
664653,,,,,,,,-0.42578125,2.14453125,-0.9296875,0.271484375,-0.501953125,0.11328125,-0.53125,-7.46484375,0.046875,1.0
664654,,,,,,,,0.00390625,2.21875,-0.92578125,0.25,-0.544921875,0.203125,-0.1484375,-7.50390625,0.046875,1.0
664655,,,,,,,,0.25,2.13671875,-1.0,0.244140625,-0.5625,0.232421875,0.04296875,-7.77734375,0.046875,1.0
664656,,,,,,,,0.44921875,1.8671875,-1.015625,0.24609375,-0.6796875,0.28515625,0.00390625,-8.26953125,0.2734375,1.0
664657,,,,,,,,0.3671875,1.1640625,-0.765625,0.25,-0.73046875,0.3125,-0.109375,-8.65234375,0.4296875,1.0
664658,,,,,,,,0.328125,0.96484375,-0.703125,0.2421875,-0.744140625,0.318359375,-0.2265625,-9.109375,0.734375,1.0
664659,,,,,,,,0.234375,-0.1171875,-0.5078125,0.203125,-0.7421875,0.32421875,-0.1875,-9.9921875,0.65625,1.0
664660,36.013265000000004,129.31926166666665,59.64831425807033,95.97994386799654,1.2000000000000002,252.0,,-0.953125,2.3125,-0.80078125,0.224609375,-0.513671875,-0.013671875,-0.1484375,-10.26171875,0.734375,1.0
664661,,,,,,,,0.3046875,-1.0078125,-0.26953125,0.107421875,-0.673828125,0.30859375,-0.1484375,-10.68359375,1.00390625,1.0
664662,,,,,,,,0.4453125,-1.234375,-0.20703125,0.037109375,-0.6328125,0.279296875,-0.03515625,-10.95703125,1.00390625,1.0
664663,,,,,,,,0.49609375,-1.3515625,-0.21484375,-0.015625,-0.634765625,0.248046875,0.08203125,-11.0625,0.96484375,1.0
664664,,,,,,,,0.78125,-1.55078125,-0.03125,-0.046875,-0.65234375,0.203125,0.234375,-11.140625,1.1953125,1.0
664665,,,,,,,,0.484375,-1.28125,0.12890625,-0.060546875,-0.62109375,0.158203125,-0.0703125,-10.87890625,1.34765625,1.0
664666,,,,,,,,0.1015625,-0.83203125,-0.25390625,-0.0390625,-0.580078125,0.12890625,-0.453125,-10.4140625,0.96484375,1.0
664667,,,,,,,,-0.0078125,-0.25390625,-0.71484375,0.009765625,-0.4765625,0.109375,-0.5703125,-9.83984375,0.50390625,1.0
664668,,,,,,,,-0.0078125,0.08203125,-0.68359375,-0.00390625,-0.421875,0.119140625,-0.5703125,-9.49609375,0.54296875,1.0
664669,,,,,,,,-0.19140625,0.38671875,-0.64453125,-0.044921875,-0.18359375,0.068359375,-0.76171875,-9.1875,0.58203125,1.0
664670,36.01326466666667,129.31926033333332,59.52811639428104,95.942956637476,1.3,247.0,,-0.57421875,0.3125,-0.37109375,-0.037109375,-0.025390625,0.03125,-1.14453125,-9.265625,0.84765625,1.0
664671,,,,,,,,-0.87890625,0.00390625,-0.0625,-0.060546875,0.052734375,-0.015625,-1.44921875,-9.57421875,1.15625,1.0
664672,,,,,,,,-1.1953125,-0.33984375,0.21484375,-0.18359375,0.078125,-0.06640625,-1.7578125,-9.91796875,1.42578125,1.0
664673,,,,,,,,-1.42578125,-0.83984375,0.23046875,-0.259765625,0.0859375,-0.087890625,-1.98828125,-10.41796875,1.42578125,1.0
664674,,,,,,,,-1.69921875,-1.3671875,0.4140625,-0.41015625,0.060546875,-0.14453125,-2.25390625,-10.95703125,1.578125,1.0
664675,,,,,,,,-1.83984375,-2.82421875,0.4609375,-0.564453125,-0.001953125,-0.201171875,-2.37109375,-12.40625,1.578125,1.0
664676,,,,,,,,-1.48046875,-4.38671875,1.08984375,-0.716796875,-0.078125,-0.25,-1.98828125,-13.9765625,2.15234375,1.0
664677,,,,,,,,0.3984375,-7.93359375,1.58984375,-0.873046875,-0.138671875,-0.28515625,-0.0703125,-17.54296875,2.53515625,1.0
664678,,,,,,,,1.03125,-8.9296875,2.05078125,-0.87109375,-0.169921875,-0.27734375,0.578125,-18.54296875,2.95703125,1.0
664679,,,,,,,,4.6875,-7.12109375,5.9296875,-0.82421875,-0.23828125,-0.23046875,4.2578125,-16.734375,6.75,1.0
664680,36.013264166666666,129.31925883333332,59.39289389086785,95.88747609948283,1.4000000000000001,248.0,,6.38671875,-5.2265625,7.609375,-0.037109375,-0.025390625,0.03125,-1.14453125,-9.265625,0.84765625,1.0
664681,,,,,,,,2.34765625,-3.53515625,5.953125,-0.779296875,-0.720703125,-0.060546875,1.95703125,-13.171875,6.6328125,1.0
664682,,,,,,,,-0.609375,-2.64453125,5.48828125,-0.79296875,-0.94140625,-0.03125,-0.9921875,-12.29296875,6.13671875,1.0
664683,,,,,,,,-1.66015625,-1.57421875,2.875,-0.75390625,-1.392578125,-0.0390625,-2.02734375,-11.21875,3.453125,1.0
664684,,,,,,,,-1.98046875,-1.10546875,2.6640625,-0.52734375,-1.7265625,-0.072265625,-2.33203125,-10.76171875,3.1875,1.0
664685,,,,,,,,-1.62109375,-0.03125,2.36328125,0.310546875,-1.251953125,-0.1953125,-1.94921875,-9.69140625,2.87890625,1.0
664686,,,,,,,,-1.59765625,0.28125,1.64453125,0.7421875,-0.751953125,-0.296875,-1.91015625,-9.38671875,2.19140625,1.0
664687,,,,,,,,-1.3671875,0.734375,-0.05859375,1.076171875,-0.599609375,-0.30859375,-1.640625,-8.92578125,0.58203125,1.0
664688,,,,,,,,-0.6875,1.26953125,0.015625,0.955078125,-1.203125,-0.1953125,-0.9140625,-8.38671875,0.8125,1.0
664689,,,,,,,,0.53125,0.0,1.109375,0.87109375,-1.244140625,-0.171875,0.3125,-9.65234375,1.9609375,1.0
664690,36.01326366666667,129.31925766666666,59.287720914051235,95.83199576576226,1.4000000000000001,247.0,,1.53125,-0.39453125,1.671875,0.775390625,-0.931640625,0.1328125,1.34375,-10.03125,2.6875,1.0
664691,,,,,,,,0.74609375,0.59375,0.66796875,0.16796875,-0.853515625,0.35546875,0.54296875,-9.0390625,1.76953125,1.0
664692,,,,,,,,0.546875,1.24609375,0.21484375,-0.26953125,-1.076171875,0.505859375,0.3125,-8.3828125,1.30859375,1.0
664693,,,,,,,,0.69921875,1.7890625,0.0859375,-0.439453125,-1.18359375,0.564453125,0.42578125,-7.85546875,1.15625,1.0
664694,,,,,,,,0.96875,1.984375,0.203125,-0.41796875,-0.990234375,0.5703125,0.65625,-7.65625,1.234375,1.0
664695,,,,,,,,1.390625,2.02734375,-0.04296875,-0.248046875,-0.80859375,0.517578125,1.0390625,-7.62109375,0.96484375,1.0
664696,,,,,,,,1.51953125,2.10546875,-0.1875,-0.173828125,-0.751953125,0.4765625,1.15234375,-7.54296875,0.8125,1.0
664697,,,,,,,,1.62890625,2.48828125,-0.48828125,-0.119140625,-0.73828125,0.41015625,1.23046875,-7.15625,0.50390625,1.0
664698,,,,,,,,1.8125,2.79296875,-0.51953125,-0.1640625,-0.80078125,0.3359375,1.3828125,-6.8515625,0.46484375,1.0
664699,,,,,,,,1.921875,3.0703125,-0.51171875,-0.21484375,-0.828125,0.27734375,1.4609375,-6.5859375,0.46484375,1.0
664700,36.013263333333335,129.31925666666666,59.197572576041885,95.79500874200824,1.1,247.0,0.0,2.11328125,3.0703125,-0.73046875,0.775390625,-0.931640625,0.1328125,1.65234375,-6.5859375,0.23828125,1.0
664701,,,,,,,,2.3984375,2.95703125,-0.984375,-0.125,-0.65234375,0.234375,1.921875,-6.69921875,-0.03125,1.0
664702,,,,,,,,2.48828125,2.91015625,-1.0625,-0.046875,-0.501953125,0.212890625,1.99609375,-6.73828125,-0.109375,1.0
664703,,,,,,,,2.45703125,2.91015625,-1.0546875,0.037109375,-0.412109375,0.1796875,1.95703125,-6.73828125,-0.109375,1.0
664704,,,,,,,,2.3125,2.87109375,-0.9609375,0.11328125,-0.39453125,0.146484375,1.8046875,-6.7734375,0.0078125,1.0
664705,,,,,,,,1.9765625,2.79296875,-0.9375,0.171875,-0.384765625,0.08203125,1.4609375,-6.85546875,0.046875,1.0
664706,,,,,,,,1.82421875,2.59375,-0.87890625,0.181640625,-0.36328125,0.060546875,1.30859375,-7.05078125,0.12109375,1.0
664707,,,,,,,,1.66796875,2.39453125,-0.77734375,0.15625,-0.26953125,0.001953125,1.15234375,-7.23828125,0.23828125,1.0
664708,,,,,,,,1.546875,1.8203125,-0.765625,0.15234375,-0.15625,-0.05859375,1.0390625,-7.81640625,0.2734375,1.0
664709,,,,,,,,1.453125,1.09375,-0.81640625,0.1640625,-0.025390625,-0.103515625,0.9609375,-8.5390625,0.23828125,1.0
664710,36.013262833333336,129.3192555,59.09239959680297,95.73952841049307,1.2000000000000002,243.0,,1.32421875,0.44140625,-0.6796875,0.775390625,-0.931640625,0.1328125,0.84765625,-9.1875,0.390625,1.0
664711,,,,,,,,1.33984375,-0.25390625,-0.4375,0.150390625,0.181640625,-0.158203125,0.88671875,-9.87890625,0.65625,1.0
664712,,,,,,,,1.29296875,-1.2890625,-0.25390625,0.119140625,0.2734375,-0.1640625,0.84765625,-10.9140625,0.84765625,1.0
664713,,,,,,,,0.7421875,-1.87109375,0.046875,0.08984375,0.369140625,-0.166015625,0.3125,-11.484375,1.15625,1.0
664714,,,,,,,,0.34375,-1.56640625,0.23046875,0.0703125,0.478515625,-0.150390625,-0.0703125,-11.1796875,1.34765625,1.0
664715,,,,,,,,-0.171875,-0.5703125,0.63671875,0.076171875,0.568359375,-0.154296875,-0.5703125,-10.19140625,1.76953125,1.0
664716,,,,,,,,0.01171875,-0.41796875,0.453125,0.09375,0.595703125,-0.154296875,-0.37890625,-10.03125,1.578125,1.0
664717,,,,,,,,0.953125,-0.41796875,-0.25390625,0.17578125,0.619140625,-0.15234375,0.578125,-10.03515625,0.88671875,1.0
664718,,,,,,,,1.63671875,-0.30859375,-0.5,0.23828125,0.607421875,-0.14453125,1.26953125,-9.9140625,0.65625,1.0
664719,,,,,,,,1.734375,-0.078125,-0.72265625,0.25390625,0.53125,-0.130859375,1.3828125,-9.6875,0.46484375,1.0
664720,36.013262166666664,129.31925433333333,58.987226740270906,95.66555487289158,1.3,236.0,,1.61328125,0.11328125,-1.08984375,0.263671875,0.427734375,-0.1328125,1.26953125,-9.49609375,0.12109375,1.0
664721,,,,,,,,1.40625,0.14453125,-1.45703125,0.28125,0.2578125,-0.103515625,1.078125,-9.453125,-0.22265625,1.0
664722,,,,,,,,1.328125,0.05859375,-1.58984375,0.271484375,0.212890625,-0.087890625,1.0,-9.53125,-0.33984375,1.0
664723,,,,,,,,1.08203125,-0.09375,-1.49609375,0.23046875,0.244140625,-0.064453125,0.76953125,-9.69140625,-0.22265625,1.0
664724,,,,,,,,0.5078125,-0.140625,-0.8671875,0.173828125,0.3515625,-0.041015625,0.1953125,-9.7265625,0.4296875,1.0
664725,,,,,,,,-0.03515625,-0.33203125,-0.234375,0.08984375,0.36328125,-0.025390625,-0.33984375,-9.9140625,1.078125,1.0
664726,,,,,,,,-0.1875,-0.71484375,0.02734375,0.0234375,0.357421875,-0.021484375,-0.4921875,-10.30078125,1.34765625,1.0
664727,,,,,,,,-0.11328125,-2.1328125,0.15625,-0.244140625,0.38671875,-0.01953125,-0.41796875,-11.71875,1.4609375,1.0
664728,,,,,,,,-0.265625,-4.046875,0.734375,-0.392578125,0.431640625,-0.03515625,-0.5703125,-13.63671875,2.0,1.0
664729,,,,,,,,-0.54296875,-4.4609375,1.21484375,-0.427734375,0.453125,-0.03515625,-0.83984375,-14.0546875,2.45703125,1.0
664730,36.0132615,129.3192535,58.91210341364286,95.59158153761607,1.3,231.0,,-2.49609375,-2.84375,3.59375,0.263671875,0.427734375,-0.1328125,1.26953125,-9.49609375,0.12109375,1.0
664731,,,,,,,,-2.7265625,-1.62109375,3.33203125,-0.576171875,0.322265625,-0.03125,-3.0234375,-11.22265625,4.48828125,1.0
664732,,,,,,,,-2.83984375,-1.3828125,2.4765625,-0.724609375,0.197265625,-0.013671875,-3.13671875,-10.99609375,3.5703125,1.0
664733,,,,,,,,-2.50390625,-2.015625,3.28125,-0.94140625,0.091796875,0.013671875,-2.79296875,-11.640625,4.296875,1.0
664734,,,,,,,,-1.8515625,-2.73828125,4.484375,-0.931640625,0.12109375,0.0078125,-2.140625,-12.37109375,5.40625,1.0
664735,,,,,,,,-0.96875,-2.98828125,4.7265625,-0.302734375,0.041015625,-0.03125,-1.2578125,-12.63671875,5.5625,1.0
664736,,,,,,,,-0.2421875,-2.109375,3.74609375,0.033203125,-0.197265625,-0.00390625,-0.53125,-11.76171875,4.56640625,1.0
664737,,,,,,,,-0.2890625,-1.15234375,3.1171875,-0.07421875,-0.33984375,0.060546875,-0.5703125,-10.796875,3.953125,1.0
664738,,,,,,,,-0.39453125,0.0,2.6640625,-0.021484375,-0.275390625,0.119140625,-0.68359375,-9.6484375,3.4921875,1.0
664739,,,,,,,,-0.89453125,-0.22265625,2.54296875,0.162109375,-0.12890625,0.09375,-1.18359375,-9.87890625,3.37890625,1.0
664740,36.013260833333334,129.3192525,58.82195531911561,95.51760810257404,1.4000000000000001,228.0,,-1.421875,-0.69140625,2.77734375,0.376953125,-0.126953125,0.0546875,-1.71875,-10.3359375,3.64453125,1.0
664741,,,,,,,,-1.4921875,-0.99609375,2.6875,0.576171875,-0.08203125,0.001953125,-1.796875,-10.640625,3.609375,1.0
664742,,,,,,,,-1.0859375,-0.9296875,2.36328125,0.541015625,-0.091796875,-0.037109375,-1.375,-10.5703125,3.33984375,1.0
664743,,,,,,,,-0.5859375,-0.69921875,1.94921875,0.443359375,-0.125,-0.052734375,-0.875,-10.33984375,2.95703125,1.0
664744,,,,,,,,-0.1796875,-0.31640625,1.609375,0.162109375,-0.181640625,-0.1015625,-0.453125,-9.953125,2.6484375,1.0
664745,,,,,,,,0.1171875,0.02734375,1.14453125,-0.056640625,-0.1875,-0.123046875,-0.1484375,-9.609375,2.19140625,1.0
664746,,,,,,,,0.33203125,0.15234375,0.9140625,-0.087890625,-0.2109375,-0.111328125,0.08203125,-9.49609375,1.9609375,1.0
664747,,,,,,,,0.5078125,0.49609375,0.73046875,-0.046875,-0.21875,-0.111328125,0.2734375,-9.1484375,1.76953125,1.0
664748,,,,,,,,0.57421875,0.8125,0.4921875,0.009765625,-0.20703125,-0.11328125,0.34765625,-8.84375,1.5390625,1.0
664749,,,,,,,,0.58984375,1.33984375,0.37109375,0.056640625,-0.203125,-0.125,0.38671875,-8.30859375,1.42578125,1.0
664750,36.01326016666667,129.3192515,58.73180722259151,95.44363466917866,1.2000000000000002,229.0,,0.66015625,1.8828125,0.27734375,0.376953125,-0.126953125,0.0546875,-1.71875,-10.3359375,3.64453125,1.0
664751,,,,,,,,0.51171875,2.34375,0.19140625,0.041015625,-0.177734375,-0.1875,0.34765625,-7.3125,1.26953125,1.0
664752,,,,,,,,0.3359375,2.609375,0.03125,0.025390625,-0.177734375,-0.2109375,0.1953125,-7.05078125,1.1171875,1.0
664753,,,,,,,,0.24609375,2.6875,-0.015625,0.021484375,-0.1640625,-0.23046875,0.12109375,-6.96875,1.078125,1.0
664754,,,,,,,,-0.0859375,2.95703125,-0.0234375,0.01171875,-0.140625,-0.2421875,-0.1875,-6.69921875,1.078125,1.0
664755,,,,,,,,-0.421875,3.03125,-0.13671875,0.009765625,-0.142578125,-0.259765625,-0.4921875,-6.62890625,0.96484375,1.0
664756,,,,,,,,-0.74609375,3.1484375,-0.4140625,0.04296875,-0.142578125,-0.2734375,-0.80078125,-6.51171875,0.6953125,1.0
664757,,,,,,,,-0.9765625,3.26171875,-0.49609375,0.078125,-0.166015625,-0.279296875,-0.9921875,-6.390625,0.62109375,1.0
664758,,,,,,,,-1.03125,3.30078125,-0.46875,0.09765625,-0.166015625,-0.279296875,-1.03125,-6.3515625,0.65625,1.0
664759,,,,,,,,-1.10546875,3.21484375,-0.4140625,0.16796875,-0.162109375,-0.2578125,-1.06640625,-6.4296875,0.734375,1.0
664760,36.013259500000004,129.3192505,58.64165912718246,95.36966123588583,1.1,231.0,,-1.1015625,3.140625,-0.515625,0.376953125,-0.126953125,0.0546875,-1.71875,-10.3359375,3.64453125,1.0
664761,,,,,,,,-1.16796875,2.94140625,-0.765625,0.21875,-0.150390625,-0.212890625,-1.06640625,-6.69921875,0.4296875,1.0
664762,,,,,,,,-1.140625,2.87109375,-0.69921875,0.220703125,-0.146484375,-0.19921875,-1.03125,-6.7734375,0.50390625,1.0
664763,,,,,,,,-1.15625,2.7421875,-0.8046875,0.2109375,-0.12890625,-0.154296875,-1.03125,-6.89453125,0.4296875,1.0
664764,,,,,,,,-0.91015625,2.42578125,-0.8359375,0.1953125,-0.146484375,-0.091796875,-0.76171875,-7.19921875,0.4296875,1.0
664765,,,,,,,,-0.6875,1.7578125,-0.71484375,0.1640625,-0.203125,-0.03515625,-0.53125,-7.85546875,0.58203125,1.0
664766,,,,,,,,-0.65625,1.64453125,-0.68359375,0.154296875,-0.205078125,-0.0234375,-0.4921875,-7.9609375,0.62109375,1.0
664767,,,,,,,,-0.6953125,0.9921875,-0.6171875,0.126953125,-0.228515625,0.00390625,-0.53125,-8.62109375,0.6953125,1.0
664768,,,,,,,,-0.80859375,0.6875,-0.44140625,0.072265625,-0.29296875,0.03125,-0.68359375,-9.109375,1.00390625,1.0
664769,,,,,,,,-0.85546875,0.48828125,-0.33203125,0.048828125,-0.302734375,0.03515625,-0.76171875,-9.42578125,1.1953125,1.0
664770,36.013258666666665,129.31924933333332,58.53648638366475,95.27719449486835,1.3,229.0,,-1.1015625,3.140625,-0.515625,0.376953125,-0.126953125,0.0546875,-0.83984375,-9.7265625,1.38671875,1.0
664771,,,,,,,,-1.046875,-0.43359375,0.1953125,-0.025390625,-0.31640625,0.060546875,-0.83984375,-10.1484375,1.5390625,1.0
664772,,,,,,,,-0.96484375,-0.66796875,0.109375,-0.048828125,-0.28515625,0.0703125,-0.76171875,-10.11328125,1.34765625,1.0
664773,,,,,,,,-0.92578125,-0.515625,0.00390625,-0.06640625,-0.265625,0.06640625,-0.64453125,-10.11328125,1.234375,1.0
664774,,,,,,,,-0.80078125,-0.40234375,-0.37109375,-0.078125,-0.267578125,0.068359375,-0.5703125,-9.8359375,0.92578125,1.0
664775,,,,,,,,-0.6484375,-0.1015625,-0.32421875,-0.056640625,-0.25390625,0.056640625,-0.453125,-9.65234375,1.078125,1.0
664776,,,,,,,,-0.6484375,-0.0625,-0.44140625,-0.03125,-0.228515625,0.0390625,-0.4921875,-9.6484375,0.88671875,1.0
664777,,,,,,,,-0.7265625,-0.37109375,-0.69921875,-0.009765625,-0.19140625,0.025390625,-0.5703125,-9.95703125,0.62109375,1.0
664778,,,,,,,,-0.6875,-0.5234375,-0.69921875,-0.005859375,-0.18359375,0.015625,-0.53125,-10.109375,0.62109375,1.0
664779,,,,,,,,-0.6796875,-0.68359375,-0.671875,-0.037109375,-0.181640625,-0.01171875,-0.53125,-10.26171875,0.65625,1.0
664780,36.013257833333334,129.31924816666665,58.431313640050945,95.1847277571278,1.3,230.0,,-0.609375,-0.33203125,-0.46484375,-0.09765625,-0.201171875,-0.04296875,-0.453125,-9.9140625,0.84765625,1.0
664781,,,,,,,,-0.7734375,0.34765625,-0.1953125,-0.14453125,-0.19140625,-0.080078125,-0.609375,-9.2265625,1.1171875,1.0
664782,,,,,,,,-1.171875,0.15625,0.01953125,-0.265625,-0.138671875,-0.09765625,-0.9921875,-9.42578125,1.30859375,1.0
664783,,,,,,,,-1.5625,-1.55859375,0.1953125,-0.390625,-0.115234375,-0.08984375,-1.375,-11.140625,1.4609375,1.0
664784,,,,,,,,-1.2265625,-3.12109375,0.625,-0.453125,-0.099609375,-0.08203125,-1.03125,-12.7109375,1.84375,1.0
664785,,,,,,,,-0.12109375,-5.03515625,1.69921875,-0.4453125,-0.099609375,-0.083984375,0.08203125,-14.62890625,2.87890625,1.0
664786,,,,,,,,2.3125,-5.52734375,1.87109375,-0.4609375,-0.10546875,-0.10546875,2.53125,-15.12890625,2.99609375,1.0
664787,,,,,,,,4.26171875,-4.140625,3.1484375,-0.64453125,-0.1640625,-0.111328125,4.48828125,-13.75390625,4.21875,1.0
664788,,,,,,,,3.09375,-2.984375,3.765625,-0.8671875,-0.30078125,-0.099609375,3.3359375,-12.6015625,4.7578125,1.0
664789,,,,,,,,0.703125,-2.4765625,3.99609375,-0.767578125,-0.513671875,-0.0390625,0.9609375,-12.10546875,4.87109375,1.0
664790,36.01325716666667,129.319247,58.326140772028495,95.11075422733202,1.4000000000000001,232.0,,-0.14453125,-2.69140625,3.70703125,-0.576171875,-0.45703125,-0.05859375,0.12109375,-12.33203125,4.48828125,1.0
664791,,,,,,,,-0.46875,-2.9609375,2.328125,-0.25390625,-0.13671875,-0.126953125,-0.1875,-12.6015625,3.0703125,1.0
664792,,,,,,,,-0.4453125,-2.76953125,2.21484375,0.072265625,0.095703125,-0.244140625,-0.1484375,-12.40625,2.95703125,1.0
664793,,,,,,,,-0.0546875,-1.45703125,2.23828125,0.22265625,-0.021484375,-0.314453125,0.2734375,-11.1015625,2.99609375,1.0
664794,,,,,,,,0.03515625,-0.66015625,1.74609375,0.33984375,-0.216796875,-0.314453125,0.38671875,-10.296875,2.53515625,1.0
664795,,,,,,,,-0.109375,-0.0859375,1.21484375,0.341796875,-0.2890625,-0.251953125,0.2734375,-9.73046875,2.03515625,1.0
664796,,,,,,,,-0.2421875,-0.0859375,1.19140625,0.32421875,-0.265625,-0.21875,0.15625,-9.73046875,2.03515625,1.0
664797,,,,,,,,-0.2578125,-0.1640625,1.19921875,0.26953125,-0.158203125,-0.1015625,0.15625,-9.80859375,2.07421875,1.0
664798,,,,,,,,-0.21875,0.01953125,0.87109375,0.27734375,-0.087890625,0.013671875,0.1953125,-9.61328125,1.76953125,1.0
664799,,,,,,,,-0.33984375,0.296875,0.5390625,0.291015625,-0.05078125,0.0703125,0.08203125,-9.34375,1.4609375,1.0
