time,latitude,longitude,enu_x,enu_y,speed,course,ecg,accX,accY,accZ,gyrX,gyrY,gyrZ,eulR,eulP,eulY,validity
605140,36.01325733333333,129.31924750000002,58.37121494741653,95.12924773296135,1.3,51.0,,-1.22265625,-6.4921875,2.14453125,0.076171875,0.427734375,-0.201171875,-1.52734375,-16.0078125,3.68359375,1.0
605141,,,,,,,,-1.63671875,-8.25390625,2.5,-0.5078125,0.09375,0.083984375,-1.94921875,-17.76953125,3.9921875,1.0
605142,,,,,,,,-2.30859375,-5.8125,4.30859375,-0.619140625,0.25390625,0.1328125,-2.63671875,-15.359375,5.71484375,1.0
605143,,,,,,,,-0.5234375,-3.23828125,2.71484375,-0.6953125,0.298828125,0.083984375,-0.875,-12.79296875,4.02734375,1.0
605144,,,,,,,,0.79296875,-3.07421875,2.93359375,-0.703125,0.193359375,0.056640625,0.42578125,-12.6328125,4.18359375,1.0
605145,,,,,,,,1.8359375,-3.18359375,2.6484375,-0.55859375,0.01953125,0.08203125,1.5,-12.63671875,3.72265625,1.0
605146,,,,,,,,1.56640625,-2.36328125,2.53515625,-0.248046875,0.0625,0.0390625,1.19140625,-11.9453125,3.68359375,1.0
605147,,,,,,,,1.03125,-1.44140625,1.76953125,0.265625,0.09765625,0.0234375,0.65625,-11.02734375,2.91796875,1.0
605148,,,,,,,,0.38671875,-0.8671875,0.89453125,0.435546875,0.23046875,-0.001953125,0.00390625,-10.453125,2.07421875,1.0
605149,,,,,,,,-0.26171875,-0.37890625,0.55859375,0.4609375,0.8125,-0.03515625,-0.64453125,-9.95703125,1.80859375,1.0
605150,36.013258,129.31924883333335,58.49141258081643,95.20322136411467,1.3,52.0,,-0.67578125,-0.45703125,1.27734375,0.43359375,0.953125,-0.126953125,-1.06640625,-10.03515625,2.57421875,1.0
605151,,,,,,,,-0.76171875,-0.41796875,1.0859375,0.51953125,0.900390625,-0.23046875,-1.14453125,-9.9921875,2.421875,1.0
605152,,,,,,,,-0.72265625,-0.234375,0.83203125,0.5625,0.857421875,-0.28125,-1.10546875,-9.80859375,2.19140625,1.0
605153,,,,,,,,-0.671875,0.1875,0.32421875,0.533203125,0.80078125,-0.349609375,-1.03125,-9.38671875,1.73046875,1.0
605154,,,,,,,,-0.609375,0.83984375,-0.01171875,0.435546875,0.7890625,-0.384765625,-0.953125,-8.7265625,1.42578125,1.0
605155,,,,,,,,-0.40234375,1.52734375,-0.2734375,0.212890625,0.81640625,-0.412109375,-0.72265625,-8.0390625,1.1953125,1.0
605156,,,,,,,,-0.00390625,2.09765625,-0.47265625,0.09765625,0.8046875,-0.408203125,-0.30078125,-7.4609375,1.00390625,1.0
605157,,,,,,,,-0.09765625,2.32421875,-0.48046875,0.095703125,0.783203125,-0.408203125,-0.37890625,-7.23828125,1.00390625,1.0
605158,,,,,,,,-0.08984375,2.71484375,-0.64453125,0.16015625,0.73828125,-0.3984375,-0.33984375,-6.8515625,0.84765625,1.0
605159,,,,,,,,-0.10546875,2.83203125,-0.65234375,0.1796875,0.728515625,-0.384765625,-0.33984375,-6.73828125,0.84765625,1.0
605160,36.01325883333333,129.31924983333334,58.5815605581367,95.29568800313052,1.3,49.0,,-0.2578125,3.25390625,-0.3828125,0.142578125,0.759765625,-0.33203125,-0.453125,-6.3125,1.15625,1.0
605161,,,,,,,,-0.63671875,3.0625,-0.4375,0.123046875,0.78125,-0.3203125,-0.80078125,-6.5078125,1.1171875,1.0
605162,,,,,,,,-0.91796875,3.0625,-0.53125,0.11328125,0.8125,-0.3203125,-1.06640625,-6.51171875,1.0390625,1.0
605163,,,,,,,,-1.39453125,3.0546875,-0.5390625,0.126953125,0.818359375,-0.3359375,-1.52734375,-6.5078125,1.0390625,1.0
605164,,,,,,,,-1.6875,3.015625,-0.58203125,0.173828125,0.80078125,-0.361328125,-1.796875,-6.55078125,1.00390625,1.0
605165,,,,,,,,-2.03125,2.9296875,-0.66796875,0.2578125,0.76171875,-0.40234375,-2.1015625,-6.62890625,0.96484375,1.0
605166,,,,,,,,-2.0390625,2.77734375,-0.67578125,0.2734375,0.759765625,-0.412109375,-2.1015625,-6.7734375,0.96484375,1.0
605167,,,,,,,,-2.03125,2.546875,-0.73828125,0.27734375,0.744140625,-0.41796875,-2.0625,-7.0078125,0.92578125,1.0
605168,,,,,,,,-1.94140625,2.46484375,-0.72265625,0.26171875,0.763671875,-0.408203125,-1.94921875,-7.08203125,0.96484375,1.0
605169,,,,,,,,-1.6953125,2.33984375,-0.70703125,0.24609375,0.75,-0.38671875,-1.6796875,-7.1953125,1.00390625,1.0
605170,36.013259500000004,129.31925066666665,58.65668389000386,95.36966133632808,1.1,48.0,,-1.48828125,2.21875,-0.76953125,0.142578125,0.759765625,-0.33203125,-0.453125,-6.3125,1.15625,1.0
605171,,,,,,,,-1.3203125,1.94921875,-0.83984375,0.18359375,0.66015625,-0.28515625,-1.2578125,-7.58203125,0.92578125,1.0
605172,,,,,,,,-1.29296875,1.40625,-0.78515625,0.189453125,0.62890625,-0.236328125,-1.22265625,-8.1171875,1.00390625,1.0
605173,,,,,,,,-1.4140625,1.015625,-0.734375,0.20703125,0.578125,-0.201171875,-1.3359375,-8.5,1.078125,1.0
605174,,,,,,,,-1.57421875,0.32421875,-0.6328125,0.216796875,0.494140625,-0.17578125,-1.48828125,-9.19140625,1.1953125,1.0
605175,,,,,,,,-1.61328125,-0.2265625,-0.54296875,0.193359375,0.412109375,-0.16796875,-1.52734375,-9.7265625,1.30859375,1.0
605176,,,,,,,,-1.58203125,-0.3046875,-0.47265625,0.1796875,0.3828125,-0.166015625,-1.48828125,-9.8046875,1.38671875,1.0
605177,,,,,,,,-1.4375,-0.6484375,-0.52734375,0.123046875,0.341796875,-0.162109375,-1.3359375,-10.1484375,1.34765625,1.0
605178,,,,,,,,-1.4453125,-0.703125,-0.57421875,0.076171875,0.306640625,-0.1484375,-1.3359375,-10.1875,1.30859375,1.0
605179,,,,,,,,-1.56640625,-0.50390625,-0.61328125,0.021484375,0.267578125,-0.14453125,-1.44921875,-9.9921875,1.26953125,1.0
605180,36.013259833333336,129.31925199999998,58.77688176472434,95.4066485549743,1.2000000000000002,56.0,,-1.57421875,-0.38671875,-0.6953125,0.142578125,0.759765625,-0.33203125,-1.44921875,-9.87890625,1.1953125,1.0
605181,,,,,,,,-1.4609375,-0.39453125,-0.734375,0.03125,0.1953125,-0.11328125,-1.3359375,-9.87890625,1.15625,1.0
605182,,,,,,,,-1.34765625,-0.55078125,-0.8515625,0.044921875,0.203125,-0.10546875,-1.22265625,-10.03125,1.0390625,1.0
605183,,,,,,,,-1.19921875,-0.703125,-0.97265625,0.05859375,0.203125,-0.09765625,-1.06640625,-10.19140625,0.92578125,1.0
605184,,,,,,,,-1.0859375,-0.82421875,-1.2421875,0.037109375,0.21875,-0.08203125,-0.953125,-10.296875,0.65625,1.0
605185,,,,,,,,-0.81640625,-0.94140625,-1.44140625,-0.017578125,0.193359375,-0.060546875,-0.68359375,-10.4140625,0.46484375,1.0
605186,,,,,,,,-0.671875,-0.94140625,-1.546875,-0.02734375,0.19140625,-0.052734375,-0.53125,-10.4140625,0.3515625,1.0
605187,,,,,,,,-0.55078125,-0.75,-1.26953125,-0.130859375,0.19921875,-0.052734375,-0.41796875,-10.2265625,0.62109375,1.0
605188,,,,,,,,-0.5859375,-0.51953125,-0.98828125,-0.20703125,0.19921875,-0.064453125,-0.453125,-9.9921875,0.88671875,1.0
605189,,,,,,,,-1.0,-0.05859375,-0.6640625,-0.25,0.197265625,-0.068359375,-0.875,-9.53125,1.1953125,1.0
605190,36.013259833333336,129.319253,58.86703035679007,95.40664915812415,1.1,64.0,,-1.57421875,-0.38671875,-0.6953125,0.142578125,0.759765625,-0.33203125,-1.44921875,-9.69140625,1.26953125,1.0
605191,,,,,,,,-1.58203125,-0.203125,-0.55078125,-0.37890625,0.24609375,-0.10546875,-1.48828125,-10.03515625,0.7734375,1.0
605192,,,,,,,,-1.5078125,-0.54296875,-1.125,-0.41015625,0.267578125,-0.126953125,-1.2578125,-9.9921875,0.8125,1.0
605193,,,,,,,,-1.390625,-0.50390625,-0.953125,-0.40625,0.26953125,-0.14453125,-0.953125,-9.73046875,1.1953125,1.0
605194,,,,,,,,-0.98828125,-0.21875,-0.31640625,-0.392578125,0.232421875,-0.181640625,-0.453125,-10.57421875,1.69140625,1.0
605195,,,,,,,,-0.6015625,-1.0703125,0.00390625,-0.4296875,0.177734375,-0.19140625,0.578125,-13.13671875,2.45703125,1.0
605196,,,,,,,,0.40625,-3.62109375,0.83203125,-0.580078125,0.1328125,-0.1875,2.87890625,-16.046875,4.375,1.0
605197,,,,,,,,3.91796875,-7.16796875,4.3203125,-0.58984375,0.087890625,-0.0703125,4.2578125,-15.12890625,6.3671875,1.0
605198,,,,,,,,4.0703125,-5.58984375,4.890625,-0.56640625,0.072265625,-0.048828125,3.7578125,-13.8984375,5.9453125,1.0
605199,,,,,,,,2.30078125,-2.2421875,3.6328125,-0.751953125,-0.005859375,-0.0546875,2.49609375,-11.80078125,5.0234375,1.0
605200,36.013259999999995,129.3192545,59.002253121824936,95.42514327300003,1.2000000000000002,73.0,0.0,1.1875,-1.46484375,3.25390625,-0.923828125,-0.0546875,-0.060546875,1.3828125,-11.02734375,4.60546875,1.0
605201,,,,,,,,-0.15234375,-1.71875,3.0,-0.998046875,-0.0703125,0.0,0.04296875,-11.30078125,4.2578125,1.0
605202,,,,,,,,-0.421875,-1.671875,2.390625,-0.58203125,0.212890625,-0.02734375,-0.2265625,-11.2578125,3.5703125,1.0
605203,,,,,,,,-0.34375,-1.359375,2.18359375,-0.19140625,0.384765625,-0.052734375,-0.1484375,-10.95703125,3.33984375,1.0
605204,,,,,,,,-0.15234375,-0.59375,1.5078125,0.57421875,0.599609375,-0.16015625,0.04296875,-10.1875,2.6875,1.0
605205,,,,,,,,-0.09765625,-0.1484375,0.48046875,0.76953125,0.36328125,-0.298828125,0.12109375,-9.7265625,1.76953125,1.0
605206,,,,,,,,-0.12109375,-0.5703125,0.66796875,0.6171875,0.1484375,-0.32421875,0.12109375,-10.15234375,2.03515625,1.0
605207,,,,,,,,-0.0703125,-1.16015625,1.3046875,0.501953125,0.119140625,-0.259765625,0.1953125,-10.72265625,2.7265625,1.0
605208,,,,,,,,-0.0859375,-1.19921875,1.44140625,0.48046875,0.154296875,-0.228515625,0.1953125,-10.76171875,2.87890625,1.0
605209,,,,,,,,-0.32421875,-0.86328125,1.2421875,0.458984375,0.26171875,-0.126953125,-0.03515625,-10.4140625,2.7265625,1.0
605210,36.01326033333333,129.3192555,59.092401462682005,95.46213029398987,1.1,71.0,,-0.58984375,-0.01953125,0.58984375,0.291015625,0.34375,-0.041015625,-0.30078125,-9.5703125,2.11328125,1.0
605211,,,,,,,,-0.66015625,0.5546875,0.18359375,0.021484375,0.40625,0.1015625,-0.37890625,-9.0,1.73046875,1.0
605212,,,,,,,,-0.453125,1.28515625,-0.15234375,-0.158203125,0.4765625,0.203125,-0.1875,-8.26953125,1.38671875,1.0
605213,,,,,,,,-0.23046875,1.64453125,-0.22265625,-0.15625,0.513671875,0.2578125,0.00390625,-7.921875,1.30859375,1.0
605214,,,,,,,,-0.09765625,1.8359375,-0.3984375,0.005859375,0.55859375,0.25,0.08203125,-7.73828125,1.1171875,1.0
605215,,,,,,,,-0.05078125,2.1484375,-0.7578125,0.037109375,0.5,0.201171875,0.08203125,-7.43359375,0.7734375,1.0
605216,,,,,,,,0.171875,2.48828125,-0.796875,-0.005859375,0.423828125,0.173828125,0.2734375,-7.078125,0.734375,1.0
605217,,,,,,,,0.34765625,2.71484375,-0.796875,-0.013671875,0.427734375,0.15234375,0.42578125,-6.85546875,0.734375,1.0
605218,,,,,,,,0.5625,3.0625,-0.91015625,0.01953125,0.494140625,0.138671875,0.6171875,-6.5078125,0.62109375,1.0
605219,,,,,,,,0.84765625,3.17578125,-1.02734375,0.04296875,0.5703125,0.13671875,0.88671875,-6.390625,0.50390625,1.0
605220,36.01326066666666,129.31925666666666,59.19757456967132,95.49911741736662,1.1,70.0,,0.984375,2.984375,-1.265625,0.0625,0.642578125,0.140625,1.0,-6.58984375,0.2734375,1.0
605221,,,,,,,,0.96875,2.71484375,-1.2734375,0.10546875,0.70703125,0.12890625,0.9609375,-6.85546875,0.2734375,1.0
605222,,,,,,,,0.87890625,2.44140625,-1.2578125,0.15234375,0.736328125,0.09375,0.84765625,-7.1171875,0.3125,1.0
605223,,,,,,,,0.59765625,2.05859375,-1.00390625,0.19140625,0.75390625,0.048828125,0.54296875,-7.5,0.58203125,1.0
605224,,,,,,,,0.3359375,1.828125,-0.828125,0.201171875,0.76953125,0.001953125,0.2734375,-7.734375,0.7734375,1.0
605225,,,,,,,,-0.1015625,1.703125,-0.69140625,0.17578125,0.75,-0.029296875,-0.1875,-7.85546875,0.92578125,1.0
605226,,,,,,,,-0.17578125,1.703125,-0.8125,0.142578125,0.736328125,-0.05078125,-0.26171875,-7.8515625,0.8125,1.0
605227,,,,,,,,-0.1328125,1.50390625,-0.8984375,0.091796875,0.716796875,-0.09375,-0.2265625,-8.04296875,0.734375,1.0
605228,,,,,,,,0.09765625,1.3125,-1.02734375,0.060546875,0.740234375,-0.158203125,0.00390625,-8.23828125,0.62109375,1.0
605229,,,,,,,,0.3203125,0.96875,-1.02734375,0.0859375,0.748046875,-0.18359375,0.234375,-8.578125,0.62109375,1.0
605230,36.01326066666666,129.319258,59.31777268990837,95.49911822796918,1.2000000000000002,75.0,,0.16796875,0.578125,-0.80859375,0.130859375,0.740234375,-0.203125,0.08203125,-8.96484375,0.84765625,1.0
605231,,,,,,,,0.12109375,0.53125,-0.78515625,0.173828125,0.703125,-0.2109375,0.04296875,-9.00390625,0.88671875,1.0
605232,,,,,,,,0.07421875,0.2265625,-0.76171875,0.185546875,0.669921875,-0.2109375,0.00390625,-9.30859375,0.92578125,1.0
605233,,,,,,,,-0.0078125,0.06640625,-0.73046875,0.173828125,0.64453125,-0.203125,-0.0703125,-9.45703125,0.96484375,1.0
605234,,,,,,,,-0.015625,-0.1640625,-0.71484375,0.1484375,0.646484375,-0.1953125,-0.0703125,-9.6875,1.00390625,1.0
605235,,,,,,,,-0.25390625,-0.2109375,-0.578125,0.140625,0.658203125,-0.16015625,-0.30078125,-9.7265625,1.15625,1.0
605236,,,,,,,,-0.33203125,-0.25,-0.640625,0.126953125,0.625,-0.115234375,-0.37890625,-9.765625,1.1171875,1.0
605237,,,,,,,,-0.1796875,-0.48828125,-0.609375,0.09375,0.60546875,-0.072265625,-0.2265625,-9.9921875,1.15625,1.0
605238,,,,,,,,-0.140625,-0.609375,-0.5390625,0.080078125,0.6015625,-0.06640625,-0.1875,-10.109375,1.234375,1.0
605239,,,,,,,,-0.171875,-0.91796875,-0.50390625,0.060546875,0.59375,-0.048828125,-0.2265625,-10.4140625,1.26953125,1.0
605240,36.01326100000001,129.31925916666665,59.422945795786,95.53610535551135,1.1,76.0,,-0.19921875,-0.9609375,-0.43359375,0.06640625,0.572265625,-0.0390625,-0.26171875,-10.45703125,1.34765625,1.0
605241,,,,,,,,-0.19140625,-0.50390625,-0.5859375,0.021484375,0.46875,-0.0234375,-0.26171875,-9.99609375,1.1953125,1.0
605242,,,,,,,,0.03515625,-0.1953125,-0.85546875,-0.0625,0.41015625,-0.017578125,-0.03515625,-9.69140625,0.92578125,1.0
605243,,,,,,,,0.46484375,0.1171875,-1.0078125,-0.09765625,0.3828125,-0.017578125,0.38671875,-9.3828125,0.7734375,1.0
605244,,,,,,,,1.0390625,0.26953125,-0.87109375,-0.16015625,0.32421875,-0.0234375,0.9609375,-9.2265625,0.88671875,1.0
605245,,,,,,,,1.39453125,-0.33984375,-1.11328125,-0.1796875,0.265625,-0.033203125,1.30859375,-9.83984375,0.62109375,1.0
605246,,,,,,,,1.5078125,-1.60546875,-0.6796875,-0.17578125,0.21875,-0.037109375,1.421875,-11.10546875,1.0390625,1.0
605247,,,,,,,,1.01171875,-2.90234375,-0.27734375,-0.201171875,0.197265625,-0.0390625,0.92578125,-12.41015625,1.42578125,1.0
605248,,,,,,,,0.05078125,-4.05078125,0.45703125,-0.228515625,0.20703125,-0.037109375,-0.03515625,-13.5546875,2.15234375,1.0
605249,,,,,,,,-0.67578125,-4.890625,1.71484375,-0.3125,0.296875,-0.03125,-0.76171875,-14.3984375,3.37890625,1.0
605250,36.013261166666666,129.31926049999998,59.54314379122325,95.55459937674713,1.2000000000000002,79.0,,-1.625,-6.0703125,2.28125,0.06640625,0.572265625,-0.0390625,-0.26171875,-10.45703125,1.34765625,1.0
605251,,,,,,,,-1.88671875,-5.375,3.2265625,-0.767578125,0.5390625,0.005859375,-1.98828125,-14.90234375,4.796875,1.0
605252,,,,,,,,-2.375,-3.3671875,3.34765625,-0.919921875,0.70703125,-0.0078125,-2.484375,-12.90625,4.83203125,1.0
605253,,,,,,,,-2.3359375,-2.6328125,2.9296875,-0.89453125,0.74609375,-0.02734375,-2.4453125,-12.18359375,4.375,1.0
605254,,,,,,,,-1.7109375,-1.54296875,2.05859375,-0.794921875,0.71484375,-0.0859375,-1.8359375,-11.10546875,3.41796875,1.0
605255,,,,,,,,-0.64453125,-1.64453125,2.08984375,-0.73046875,0.56640625,-0.119140625,-0.76171875,-11.21875,3.37890625,1.0
605256,,,,,,,,0.2734375,-2.515625,2.44921875,-0.56640625,0.333984375,-0.060546875,0.15625,-12.10546875,3.64453125,1.0
605257,,,,,,,,0.50390625,-2.65234375,2.328125,-0.03125,0.326171875,-0.072265625,0.38671875,-12.25390625,3.4921875,1.0
605258,,,,,,,,0.58203125,-2.125,2.12890625,0.25390625,0.306640625,-0.03515625,0.46484375,-11.71875,3.30078125,1.0
605259,,,,,,,,-0.22265625,-0.74609375,1.5078125,0.248046875,0.62890625,0.001953125,-0.33984375,-10.3359375,2.7265625,1.0
605260,36.01326133333334,129.31926183333334,59.663341787284885,95.57309340053621,1.2000000000000002,78.0,,-0.8203125,-0.1640625,1.1875,0.25,0.87890625,0.00390625,-0.953125,-9.765625,2.421875,1.0
605261,,,,,,,,-0.8828125,-0.1328125,1.0390625,0.27734375,0.955078125,0.00390625,-1.03125,-9.73046875,2.3046875,1.0
605262,,,,,,,,-0.71875,-0.09375,0.96875,0.390625,0.9140625,-0.056640625,-0.875,-9.69140625,2.265625,1.0
605263,,,,,,,,-0.67578125,0.01171875,0.83984375,0.44921875,0.880859375,-0.078125,-0.83984375,-9.57421875,2.15234375,1.0
605264,,,,,,,,-0.71875,0.44140625,0.37109375,0.51171875,0.806640625,-0.13671875,-0.875,-9.1484375,1.73046875,1.0
605265,,,,,,,,-0.56640625,0.89453125,0.1328125,0.431640625,0.734375,-0.189453125,-0.72265625,-8.69140625,1.5390625,1.0
605266,,,,,,,,-0.49609375,1.4296875,-0.3203125,0.283203125,0.666015625,-0.212890625,-0.64453125,-8.15625,1.1171875,1.0
605267,,,,,,,,-0.27734375,2.03515625,-0.46484375,0.208984375,0.638671875,-0.232421875,-0.41796875,-7.54296875,1.00390625,1.0
605268,,,,,,,,-0.24609375,2.38671875,-0.51171875,0.203125,0.63671875,-0.23046875,-0.37890625,-7.1953125,0.96484375,1.0
605269,,,,,,,,-0.25390625,2.5703125,-0.48828125,0.232421875,0.646484375,-0.2265625,-0.37890625,-7.0078125,1.00390625,1.0
605270,36.01326166666667,129.31926299999998,59.76851488815329,95.61008053037679,1.2000000000000002,77.0,,-0.30859375,2.76171875,-0.4921875,0.25,0.87890625,0.00390625,-0.953125,-9.765625,2.421875,1.0
605271,,,,,,,,-0.515625,2.87109375,-0.3671875,0.201171875,0.66796875,-0.19921875,-0.609375,-6.69921875,1.1953125,1.0
605272,,,,,,,,-0.828125,2.9453125,-0.62109375,0.17578125,0.671875,-0.208984375,-0.9140625,-6.62890625,0.96484375,1.0
605273,,,,,,,,-1.06640625,3.09375,-0.7890625,0.173828125,0.677734375,-0.224609375,-1.14453125,-6.47265625,0.8125,1.0
605274,,,,,,,,-1.1875,3.0546875,-0.8359375,0.177734375,0.66796875,-0.232421875,-1.2578125,-6.5078125,0.7734375,1.0
605275,,,,,,,,-1.47265625,2.86328125,-0.9765625,0.19921875,0.64453125,-0.255859375,-1.52734375,-6.6953125,0.65625,1.0
605276,,,,,,,,-1.51953125,2.515625,-0.9609375,0.23828125,0.623046875,-0.275390625,-1.56640625,-7.05078125,0.6953125,1.0
605277,,,,,,,,-1.53515625,2.44140625,-0.96875,0.2578125,0.609375,-0.283203125,-1.56640625,-7.12109375,0.6953125,1.0
605278,,,,,,,,-1.3203125,1.91796875,-0.8984375,0.265625,0.591796875,-0.29296875,-1.3359375,-7.6171875,0.8125,1.0
605279,,,,,,,,-1.21484375,1.8828125,-0.87109375,0.259765625,0.59765625,-0.29296875,-1.22265625,-7.66015625,0.84765625,1.0
605280,36.01326166666667,129.31926416666664,59.87368824285498,95.61008124679864,1.1,79.0,,-1.12109375,1.7265625,-0.5859375,0.25,0.87890625,0.00390625,-1.10546875,-7.81640625,1.15625,1.0
605281,,,,,,,,-1.17578125,1.6796875,-0.50390625,0.171875,0.61328125,-0.244140625,-1.14453125,-7.8515625,1.26953125,1.0
605282,,,,,,,,-1.10546875,1.59765625,-0.703125,0.130859375,0.61328125,-0.220703125,-1.06640625,-7.92578125,1.078125,1.0
605283,,,,,,,,-1.14453125,1.4453125,-0.82421875,0.11328125,0.619140625,-0.203125,-1.10546875,-8.078125,0.96484375,1.0
605284,,,,,,,,-1.34375,1.09765625,-1.03125,0.083984375,0.607421875,-0.181640625,-1.296875,-8.421875,0.7734375,1.0
605285,,,,,,,,-1.421875,0.74609375,-0.9921875,0.095703125,0.583984375,-0.166015625,-1.375,-8.765625,0.8125,1.0
605286,,,,,,,,-1.62109375,0.2421875,-0.82421875,0.1484375,0.537109375,-0.162109375,-1.56640625,-9.26953125,1.00390625,1.0
605287,,,,,,,,-1.703125,-0.10546875,-0.640625,0.154296875,0.5234375,-0.169921875,-1.640625,-9.61328125,1.1953125,1.0
605288,,,,,,,,-1.703125,-0.1484375,-0.6484375,0.134765625,0.517578125,-0.166015625,-1.640625,-9.65234375,1.1953125,1.0
605289,,,,,,,,-1.8203125,-0.265625,-0.7421875,0.078125,0.5078125,-0.166015625,-1.7578125,-9.76953125,1.1171875,1.0
605290,36.01326166666667,129.3192655,59.99388636450887,95.61008206662817,1.1,85.0,,-1.828125,-0.265625,-0.7421875,0.0,0.47265625,-0.158203125,-1.7578125,-9.76953125,1.1171875,1.0
605291,,,,,,,,-1.7890625,-0.3125,-0.8203125,-0.048828125,0.42578125,-0.1484375,-1.71875,-9.80859375,1.0390625,1.0
605292,,,,,,,,-1.7109375,-0.50390625,-0.8125,-0.05078125,0.380859375,-0.150390625,-1.640625,-9.9921875,1.0390625,1.0
605293,,,,,,,,-1.68359375,-0.53515625,-0.7734375,-0.046875,0.365234375,-0.150390625,-1.60546875,-10.03125,1.078125,1.0
605294,,,,,,,,-1.4921875,-0.80859375,-0.92578125,-0.021484375,0.341796875,-0.154296875,-1.4140625,-10.296875,0.92578125,1.0
605295,,,,,,,,-1.30859375,-0.88671875,-1.00390625,-0.01171875,0.30859375,-0.16015625,-1.22265625,-10.37890625,0.84765625,1.0
605296,,,,,,,,-0.96875,-0.734375,-1.140625,-0.025390625,0.244140625,-0.146484375,-0.875,-10.23046875,0.6953125,1.0
605297,,,,,,,,-0.671875,-0.35546875,-1.40625,-0.0625,0.193359375,-0.150390625,-0.5703125,-9.8359375,0.4296875,1.0
605298,,,,,,,,-0.59375,-0.234375,-1.4375,-0.08984375,0.171875,-0.15234375,-0.4921875,-9.7265625,0.390625,1.0
605299,,,,,,,,-0.37109375,-0.04296875,-1.4609375,-0.14453125,0.134765625,-0.14453125,-0.26171875,-9.53515625,0.3515625,1.0
605300,36.01326133333334,129.31926683333333,60.11408473658909,95.5730964736179,1.3,95.0,0.0,-0.37890625,0.30078125,-1.20703125,0.0,0.47265625,-0.158203125,-0.26171875,-9.1875,0.58203125,1.0
605301,,,,,,,,-0.89453125,0.578125,-0.53125,-0.236328125,0.142578125,-0.146484375,-0.76171875,-8.921875,1.234375,1.0
605302,,,,,,,,-1.046875,0.2265625,-0.5234375,-0.255859375,0.158203125,-0.140625,-0.9140625,-9.26953125,1.234375,1.0
605303,,,,,,,,-1.20703125,-0.80078125,-0.83984375,-0.3203125,0.177734375,-0.134765625,-1.06640625,-10.296875,0.88671875,1.0
605304,,,,,,,,-1.1796875,-1.375,-0.671875,-0.35546875,0.189453125,-0.130859375,-1.03125,-10.87890625,1.0390625,1.0
605305,,,,,,,,0.9296875,-3.12890625,1.5390625,-0.455078125,0.23828125,-0.11328125,1.078125,-12.63671875,3.1875,1.0
605306,,,,,,,,3.6484375,-6.40234375,2.58203125,-0.671875,0.283203125,-0.04296875,3.796875,-15.93359375,4.10546875,1.0
605307,,,,,,,,4.03125,-7.3125,3.5703125,-0.814453125,0.27734375,-0.017578125,4.1796875,-16.85546875,5.0625,1.0
605308,,,,,,,,3.80859375,-6.5390625,4.30859375,-1.001953125,0.24609375,0.01953125,3.94921875,-16.08984375,5.71484375,1.0
605309,,,,,,,,3.76953125,-5.296875,4.5546875,-1.0,0.23046875,0.052734375,3.91015625,-14.86328125,5.90625,1.0
605310,36.013260833333334,129.31926800000002,60.219258474449205,95.51761756977942,1.2000000000000002,103.0,,2.40625,-2.5234375,3.7578125,-0.89453125,0.279296875,0.08203125,2.53125,-12.10546875,5.0234375,1.0
605311,,,,,,,,0.69140625,-2.515625,3.8828125,-0.853515625,0.525390625,0.0859375,0.80859375,-12.10546875,5.0625,1.0
605312,,,,,,,,-0.51953125,-2.27734375,3.30859375,-0.724609375,0.78515625,0.0546875,-0.41796875,-11.8671875,4.41015625,1.0
605313,,,,,,,,-0.42578125,-1.57421875,2.015625,-0.28515625,0.86328125,0.001953125,-0.33984375,-11.18359375,3.0703125,1.0
605314,,,,,,,,-0.33984375,-1.0,1.52734375,0.572265625,0.791015625,-0.17578125,-0.26171875,-10.609375,2.61328125,1.0
605315,,,,,,,,-0.38671875,-0.078125,0.93359375,0.658203125,0.712890625,-0.224609375,-0.30078125,-9.69140625,2.07421875,1.0
605316,,,,,,,,-0.6015625,0.52734375,0.34375,0.599609375,0.65625,-0.1796875,-0.4921875,-9.0703125,1.578125,1.0
605317,,,,,,,,-0.7265625,0.48046875,0.48046875,0.576171875,0.673828125,-0.099609375,-0.609375,-9.11328125,1.76953125,1.0
605318,,,,,,,,-0.78515625,0.51171875,0.5,0.498046875,0.75,-0.0234375,-0.68359375,-9.0703125,1.84375,1.0
605319,,,,,,,,-0.73046875,0.546875,0.53125,0.361328125,0.810546875,0.0625,-0.64453125,-9.04296875,1.921875,1.0
605320,36.01326066666666,129.3192691666667,60.3244319571036,95.49912508280622,1.2000000000000002,101.0,,-0.640625,0.625,0.5390625,0.15234375,0.80859375,0.1484375,-0.5703125,-8.96484375,1.9609375,1.0
605321,,,,,,,,-0.68359375,1.046875,0.37890625,-0.037109375,0.8125,0.2265625,-0.64453125,-8.5390625,1.80859375,1.0
605322,,,,,,,,-0.70703125,1.515625,0.046875,-0.19921875,0.802734375,0.25,-0.72265625,-8.08203125,1.4609375,1.0
605323,,,,,,,,-0.60546875,1.7421875,-0.1640625,-0.22265625,0.794921875,0.25,-0.64453125,-7.8515625,1.234375,1.0
605324,,,,,,,,-0.4609375,2.2109375,-0.48828125,-0.21484375,0.765625,0.228515625,-0.53125,-7.390625,0.88671875,1.0
605325,,,,,,,,-0.23046875,2.48046875,-0.59375,-0.123046875,0.748046875,0.19140625,-0.33984375,-7.1171875,0.7734375,1.0
605326,,,,,,,,0.0234375,2.59375,-0.5859375,-0.001953125,0.75,0.154296875,-0.109375,-7.0078125,0.7734375,1.0
605327,,,,,,,,0.19921875,2.74609375,-0.51953125,0.107421875,0.7734375,0.125,0.04296875,-6.85546875,0.84765625,1.0
605328,,,,,,,,0.21484375,2.73828125,-0.48046875,0.13671875,0.78125,0.115234375,0.04296875,-6.85546875,0.88671875,1.0
605329,,,,,,,,0.15234375,2.51171875,-0.5703125,0.16796875,0.8125,0.107421875,-0.03515625,-7.08203125,0.8125,1.0
605330,36.01326033333333,129.31927,60.399556032787345,95.46213918412656,1.0,102.0,,0.18359375,2.39453125,-0.59375,0.15234375,0.80859375,0.1484375,-0.5703125,-8.96484375,1.9609375,1.0
605331,,,,,,,,0.24609375,2.203125,-0.52734375,0.1953125,0.888671875,0.07421875,0.00390625,-7.390625,0.88671875,1.0
605332,,,,,,,,0.29296875,2.12890625,-0.53515625,0.1953125,0.904296875,0.05859375,0.04296875,-7.4609375,0.88671875,1.0
605333,,,,,,,,0.34765625,1.9296875,-0.328125,0.19921875,0.943359375,0.021484375,0.08203125,-7.66015625,1.1171875,1.0
605334,,,,,,,,0.31640625,1.8515625,-0.296875,0.216796875,0.962890625,0.01171875,0.04296875,-7.73828125,1.15625,1.0
605335,,,,,,,,0.109375,1.7265625,-0.21484375,0.2265625,0.953125,-0.03515625,-0.1875,-7.85546875,1.26953125,1.0
605336,,,,,,,,-0.03515625,1.7265625,-0.3046875,0.203125,0.927734375,-0.0546875,-0.33984375,-7.8515625,1.1953125,1.0
605337,,,,,,,,-0.33203125,1.796875,-0.54296875,0.154296875,0.880859375,-0.103515625,-0.64453125,-7.7734375,0.96484375,1.0
605338,,,,,,,,-0.37109375,1.7890625,-0.8203125,0.095703125,0.83984375,-0.189453125,-0.68359375,-7.7734375,0.6953125,1.0
605339,,,,,,,,-0.38671875,1.55859375,-1.1015625,0.12109375,0.80859375,-0.244140625,-0.68359375,-8.0,0.4296875,1.0
605340,36.01326016666667,129.31927116666665,60.504729516491565,95.44364670103121,1.1,104.0,,-0.39453125,1.40625,-1.06640625,0.1484375,0.7890625,-0.255859375,-0.68359375,-8.16015625,0.46484375,1.0
605341,,,,,,,,-0.36328125,1.17578125,-1.08984375,0.185546875,0.73828125,-0.27734375,-0.64453125,-8.38671875,0.46484375,1.0
605342,,,,,,,,-0.2265625,0.90234375,-0.98828125,0.197265625,0.671875,-0.28125,-0.4921875,-8.6484375,0.58203125,1.0
605343,,,,,,,,-0.13671875,0.625,-1.04296875,0.1328125,0.63671875,-0.2734375,-0.37890625,-8.92578125,0.54296875,1.0
605344,,,,,,,,-0.15234375,0.203125,-1.01171875,0.0703125,0.6171875,-0.265625,-0.37890625,-9.34375,0.58203125,1.0
605345,,,,,,,,-0.234375,0.1640625,-0.7890625,0.025390625,0.59765625,-0.248046875,-0.453125,-9.38671875,0.8125,1.0
605346,,,,,,,,-0.51171875,0.125,-0.71484375,0.015625,0.58984375,-0.23828125,-0.72265625,-9.42578125,0.88671875,1.0
605347,,,,,,,,-0.828125,-0.03515625,-0.515625,-0.009765625,0.5625,-0.19140625,-1.03125,-9.5703125,1.078125,1.0
605348,,,,,,,,-1.0625,-0.265625,-0.359375,-0.029296875,0.548828125,-0.15234375,-1.2578125,-9.80859375,1.234375,1.0
605349,,,,,,,,-0.91796875,-0.87109375,-0.4296875,-0.041015625,0.564453125,-0.095703125,-1.10546875,-10.4140625,1.15625,1.0
605350,36.01325966666666,129.31927233333332,60.60990325599502,95.38816780199551,1.1,107.0,,-0.796875,-0.9921875,-0.34375,0.1484375,0.7890625,-0.255859375,-0.68359375,-8.16015625,0.46484375,1.0
605351,,,,,,,,-0.6796875,-0.87109375,-0.23046875,-0.0390625,0.5,-0.052734375,-0.875,-10.4140625,1.34765625,1.0
605352,,,,,,,,-0.48828125,-0.6875,-0.109375,-0.0546875,0.4296875,-0.0625,-0.68359375,-10.2265625,1.4609375,1.0
605353,,,,,,,,-0.2578125,-0.37109375,-0.21484375,-0.072265625,0.384765625,-0.068359375,-0.453125,-9.9140625,1.34765625,1.0
605354,,,,,,,,0.33203125,0.234375,-0.55078125,-0.099609375,0.28515625,-0.06640625,0.12109375,-9.3046875,1.00390625,1.0
605355,,,,,,,,1.01171875,0.84765625,-0.8515625,-0.126953125,0.23046875,-0.060546875,0.80859375,-8.6875,0.6953125,1.0
605356,,,,,,,,1.43359375,1.12109375,-1.02734375,-0.15234375,0.1953125,-0.060546875,1.23046875,-8.421875,0.50390625,1.0
605357,,,,,,,,1.9609375,1.0390625,-1.42578125,-0.18359375,0.123046875,-0.078125,1.765625,-8.50390625,0.08203125,1.0
605358,,,,,,,,2.421875,0.5,-1.5625,-0.205078125,0.1171875,-0.076171875,2.2265625,-9.04296875,-0.0703125,1.0
605359,,,,,,,,2.3359375,-0.07421875,-1.5078125,-0.23046875,0.1484375,-0.068359375,2.1484375,-9.609375,-0.03125,1.0
605360,36.01325933333333,129.31927349999998,60.715076868403386,95.35118211226651,1.1,110.0,,2.26171875,-1.75,-0.7890625,0.1484375,0.7890625,-0.255859375,-0.68359375,-8.16015625,0.46484375,1.0
605361,,,,,,,,2.26171875,-2.27734375,-0.3359375,-0.388671875,0.43359375,-0.01953125,2.07421875,-11.828125,1.078125,1.0
605362,,,,,,,,1.08203125,-4.8828125,0.9765625,-0.59375,0.587890625,0.025390625,0.88671875,-14.4375,2.34375,1.0
605363,,,,,,,,0.20703125,-6.37890625,1.09375,-0.740234375,0.6640625,0.044921875,0.00390625,-15.93359375,2.421875,1.0
605364,,,,,,,,-2.11328125,-9.54296875,2.48046875,-1.03125,0.771484375,0.009765625,-2.33203125,-19.11328125,3.72265625,1.0
605365,,,,,,,,-2.48828125,-9.296875,4.03515625,-1.0859375,0.787109375,-0.033203125,-2.71484375,-18.88671875,5.21484375,1.0
605366,,,,,,,,-2.56640625,-7.56640625,5.31640625,-1.07421875,0.73046875,-0.1015625,-2.79296875,-17.15625,6.40234375,1.0
605367,,,,,,,,-0.3203125,-2.8984375,1.8515625,-1.115234375,0.970703125,-0.232421875,-0.53125,-12.5234375,2.7265625,1.0
605368,,,,,,,,0.62890625,-2.859375,2.08984375,-1.12109375,0.9765625,-0.25,0.42578125,-12.48828125,2.91796875,1.0
605369,,,,,,,,1.2109375,-2.953125,3.2578125,-0.29296875,0.85546875,-0.2109375,1.0390625,-12.60546875,3.9140625,1.0
605370,36.013258666666665,129.31927466666667,60.820250740772664,95.2772100089309,1.1,112.0,,1.08984375,-2.4140625,3.14453125,0.1484375,0.7890625,-0.255859375,0.92578125,-12.06640625,3.80078125,1.0
605371,,,,,,,,0.53515625,-1.265625,2.12109375,0.810546875,0.83203125,-0.162109375,0.38671875,-10.91796875,2.83984375,1.0
605372,,,,,,,,0.16015625,-0.421875,1.09375,0.822265625,1.275390625,-0.125,0.00390625,-10.0703125,1.8828125,1.0
605373,,,,,,,,-0.60546875,0.44921875,0.3046875,0.62109375,1.6484375,-0.107421875,-0.76171875,-9.19140625,1.15625,1.0
605374,,,,,,,,-0.91015625,0.52734375,0.44140625,0.580078125,1.71484375,-0.140625,-1.06640625,-9.11328125,1.34765625,1.0
605375,,,,,,,,-1.109375,0.75,0.37109375,0.748046875,1.609375,-0.2265625,-1.2578125,-8.88671875,1.34765625,1.0
605376,,,,,,,,-1.04296875,0.90234375,0.33203125,0.89453125,1.431640625,-0.30078125,-1.18359375,-8.73046875,1.38671875,1.0
605377,,,,,,,,-0.67578125,1.35546875,0.0625,0.7734375,1.240234375,-0.35546875,-0.80078125,-8.265625,1.1953125,1.0
605378,,,,,,,,-0.46875,1.7734375,-0.23046875,0.45703125,1.16015625,-0.408203125,-0.5703125,-7.8515625,0.96484375,1.0
605379,,,,,,,,-0.1171875,2.34375,-0.4921875,0.21484375,1.138671875,-0.40625,-0.1875,-7.2734375,0.734375,1.0
605380,36.01325816666667,129.31927583333334,60.92542448437602,95.22173111537553,1.2000000000000002,114.0,,-0.1796875,2.80078125,-0.62890625,0.15625,1.15234375,-0.375,-0.2265625,-6.8125,0.62109375,1.0
605381,,,,,,,,-0.35546875,3.03125,-0.453125,0.216796875,1.228515625,-0.3359375,-0.37890625,-6.5859375,0.8125,1.0
605382,,,,,,,,-0.70703125,2.84765625,-0.1640625,0.2421875,1.263671875,-0.3203125,-0.72265625,-6.7734375,1.1171875,1.0
605383,,,,,,,,-1.49609375,2.7265625,0.01171875,0.259765625,1.341796875,-0.28125,-1.48828125,-6.890625,1.34765625,1.0
605384,,,,,,,,-1.62109375,2.71875,-0.08203125,0.208984375,1.30078125,-0.279296875,-1.60546875,-6.890625,1.26953125,1.0
605385,,,,,,,,-1.859375,2.75390625,-0.3359375,0.16796875,1.2578125,-0.28515625,-1.8359375,-6.8515625,1.0390625,1.0
605386,,,,,,,,-2.1640625,2.83203125,-0.50390625,0.17578125,1.17578125,-0.30078125,-2.140625,-6.77734375,0.88671875,1.0
605387,,,,,,,,-2.2109375,2.83203125,-0.51171875,0.19921875,1.146484375,-0.30859375,-2.1796875,-6.77734375,0.88671875,1.0
605388,,,,,,,,-2.30859375,2.78515625,-0.47265625,0.318359375,1.083984375,-0.302734375,-2.25390625,-6.81640625,0.96484375,1.0
605389,,,,,,,,-2.39453125,2.77734375,-0.49609375,0.365234375,1.078125,-0.30078125,-2.33203125,-6.81640625,0.96484375,1.0
605390,36.01325766666666,129.3192765,60.98552393056056,95.16625190737332,0.9,115.0,,-2.31640625,2.73046875,-0.4609375,0.423828125,1.080078125,-0.28125,-0.2265625,-6.8125,0.62109375,1.0
605391,,,,,,,,-2.171875,2.609375,-0.421875,0.423828125,1.0703125,-0.251953125,-2.1015625,-6.96875,1.1171875,1.0
605392,,,,,,,,-2.03515625,2.37109375,-0.27734375,0.412109375,1.0703125,-0.21875,-1.94921875,-7.19921875,1.30859375,1.0
605393,,,,,,,,-1.99609375,2.2578125,-0.25390625,0.40234375,1.052734375,-0.193359375,-1.91015625,-7.31640625,1.34765625,1.0
605394,,,,,,,,-1.9140625,1.7890625,-0.21484375,0.37890625,1.00390625,-0.162109375,-1.8359375,-7.77734375,1.42578125,1.0
605395,,,,,,,,-1.9140625,1.4375,-0.29296875,0.37890625,0.90625,-0.126953125,-1.8359375,-8.12109375,1.38671875,1.0
605396,,,,,,,,-1.97265625,0.84765625,-0.45703125,0.322265625,0.701171875,-0.107421875,-1.91015625,-8.6875,1.26953125,1.0
605397,,,,,,,,-1.8984375,-0.00390625,-0.44140625,0.259765625,0.546875,-0.099609375,-1.8359375,-9.53515625,1.30859375,1.0
605398,,,,,,,,-1.8203125,-0.234375,-0.33984375,0.236328125,0.482421875,-0.09765625,-1.7578125,-9.76953125,1.42578125,1.0
605399,,,,,,,,-1.54296875,-0.88671875,-0.28125,0.171875,0.39453125,-0.087890625,-1.48828125,-10.41796875,1.5,1.0
605400,36.013256999999996,129.31927716666667,61.04562350843072,95.0922794949773,0.8,121.0,0.0,-1.4296875,-1.0546875,-0.265625,0.080078125,0.353515625,-0.060546875,-1.375,-10.5703125,1.5390625,1.0
605401,,,,,,,,-1.23046875,-0.9765625,-0.1953125,0.064453125,0.33984375,-0.048828125,-1.18359375,-10.49609375,1.6171875,1.0
605402,,,,,,,,-1.14453125,-0.6015625,-0.1953125,0.013671875,0.302734375,-0.0234375,-1.10546875,-10.109375,1.6171875,1.0
605403,,,,,,,,-1.18359375,-0.44921875,-0.3515625,-0.0078125,0.2421875,-0.01171875,-1.14453125,-9.95703125,1.4609375,1.0
605404,,,,,,,,-1.3671875,-0.36328125,-0.53515625,-0.01171875,0.173828125,-0.017578125,-1.44921875,-9.875,1.234375,1.0
605405,,,,,,,,-1.59765625,-0.41015625,-0.6171875,0.001953125,0.140625,-0.01171875,-1.56640625,-9.91796875,1.1953125,1.0
605406,,,,,,,,-1.671875,-0.33203125,-0.80078125,0.009765625,0.125,-0.017578125,-1.640625,-9.83984375,1.00390625,1.0
605407,,,,,,,,-1.390625,-0.21875,-1.5390625,0.029296875,0.158203125,-0.02734375,-1.375,-9.7265625,0.2734375,1.0
605408,,,,,,,,-0.921875,0.01171875,-1.8515625,0.03515625,0.173828125,-0.0390625,-0.9140625,-9.4921875,-0.03125,1.0
605409,,,,,,,,-0.26953125,0.30859375,-1.765625,-0.068359375,0.18359375,-0.060546875,-0.26171875,-9.19140625,0.046875,1.0
605410,36.01325633333333,129.31927783333333,61.10572308492507,95.01830708251327,0.8,134.0,,-0.1953125,0.38671875,-1.68359375,-0.111328125,0.171875,-0.05859375,-0.1875,-9.11328125,0.12109375,1.0
605411,,,,,,,,0.06640625,0.578125,-1.21484375,-0.19140625,0.15234375,-0.052734375,0.08203125,-8.921875,0.58203125,1.0
605412,,,,,,,,0.07421875,0.546875,-0.65625,-0.28515625,0.14453125,-0.03515625,0.08203125,-8.9609375,1.1171875,1.0
605413,,,,,,,,-0.15625,-1.015625,-0.46484375,-0.388671875,0.126953125,-0.021484375,-0.1484375,-10.53515625,1.26953125,1.0
605414,,,,,,,,-0.1015625,-1.7421875,0.11328125,-0.498046875,0.125,0.00390625,-0.109375,-11.26171875,1.80859375,1.0
605415,,,,,,,,0.625,-2.234375,1.390625,-0.603515625,0.125,0.01171875,0.6171875,-11.76171875,3.03125,1.0
605416,,,,,,,,1.0078125,-2.45703125,1.84375,-0.642578125,0.13671875,0.01953125,1.0,-11.984375,3.453125,1.0
605417,,,,,,,,1.71484375,-3.4375,2.2890625,-0.705078125,0.203125,0.037109375,1.69140625,-12.98828125,3.8359375,1.0
605418,,,,,,,,2.48828125,-5.57421875,3.08984375,-0.798828125,0.3203125,0.048828125,2.45703125,-15.125,4.56640625,1.0
605419,,,,,,,,2.76953125,-7.01953125,4.03125,-1.005859375,0.443359375,0.06640625,2.72265625,-16.58203125,5.40625,1.0
605420,36.013255666666666,129.31927833333333,61.15079789859465,94.94433456458566,0.8,141.0,,3.0625,-5.390625,4.89453125,-0.990234375,0.404296875,0.111328125,2.9921875,-14.98046875,6.13671875,1.0
605421,,,,,,,,2.19921875,-2.30859375,4.25,-0.794921875,0.3984375,0.1015625,2.11328125,-11.91015625,5.40625,1.0
605422,,,,,,,,0.18359375,-1.10546875,4.29296875,-0.734375,0.54296875,0.06640625,0.08203125,-10.71875,5.37109375,1.0
605423,,,,,,,,-1.2109375,-0.79296875,2.96875,-0.42578125,0.779296875,0.029296875,-1.3359375,-10.4140625,3.953125,1.0
605424,,,,,,,,-1.125,-0.78515625,2.32421875,0.078125,0.857421875,-0.021484375,-1.2578125,-10.4140625,3.30078125,1.0
605425,,,,,,,,-0.93359375,-0.63671875,1.6328125,0.923828125,0.978515625,-0.18359375,-1.06640625,-10.2578125,2.6875,1.0
605426,,,,,,,,-0.66796875,-0.5703125,1.28125,0.955078125,0.9609375,-0.193359375,-0.80078125,-10.1875,2.3828125,1.0
605427,,,,,,,,-0.40625,-0.5390625,0.84765625,0.765625,0.796875,-0.16796875,-0.53125,-10.15234375,2.03515625,1.0
605428,,,,,,,,-0.1015625,-0.66015625,1.09375,0.513671875,0.6484375,-0.10546875,-0.2265625,-10.2578125,2.34375,1.0
605429,,,,,,,,-0.21484375,-0.43359375,1.16796875,0.3515625,0.642578125,-0.044921875,-0.33984375,-10.03125,2.45703125,1.0
605430,36.013255,129.31927883333336,61.195872713314046,94.87036204789923,0.8,145.0,,-0.3984375,-0.046875,0.9453125,-0.990234375,0.404296875,0.111328125,2.9921875,-14.98046875,6.13671875,1.0
605431,,,,,,,,-0.421875,0.36328125,0.625,0.05859375,0.662109375,0.0859375,-0.5703125,-9.23046875,1.9609375,1.0
605432,,,,,,,,-0.328125,0.6328125,0.47265625,-0.04296875,0.625,0.13671875,-0.4921875,-8.9609375,1.80859375,1.0
605433,,,,,,,,0.20703125,1.375,-0.01171875,-0.220703125,0.630859375,0.251953125,0.00390625,-8.234375,1.30859375,1.0
605434,,,,,,,,0.34765625,1.453125,-0.03515625,-0.240234375,0.642578125,0.267578125,0.12109375,-8.15625,1.26953125,1.0
605435,,,,,,,,0.453125,1.875,-0.125,-0.224609375,0.69140625,0.279296875,0.1953125,-7.73828125,1.15625,1.0
605436,,,,,,,,0.4375,2.03515625,-0.1953125,-0.201171875,0.6953125,0.265625,0.15625,-7.578125,1.078125,1.0
605437,,,,,,,,0.2421875,2.41796875,-0.41015625,-0.171875,0.64453125,0.228515625,-0.0703125,-7.1953125,0.84765625,1.0
605438,,,,,,,,0.1796875,2.578125,-0.40234375,-0.169921875,0.59765625,0.205078125,-0.1484375,-7.046875,0.84765625,1.0
605439,,,,,,,,0.3125,2.80078125,-0.5234375,-0.166015625,0.583984375,0.146484375,-0.0703125,-6.8125,0.6953125,1.0
605440,36.01325416666667,129.31927933333333,61.240947653131705,94.77789632392937,0.8,149.0,,0.41796875,2.7265625,-0.58203125,-0.072265625,0.73046875,0.109375,0.00390625,-6.890625,0.62109375,1.0
605441,,,,,,,,0.703125,2.6484375,-0.69140625,-0.021484375,0.822265625,0.095703125,0.2734375,-6.96875,0.50390625,1.0
605442,,,,,,,,0.75,2.609375,-0.68359375,0.009765625,0.845703125,0.09375,0.3125,-7.01171875,0.50390625,1.0
605443,,,,,,,,0.80859375,2.2265625,-0.53125,0.064453125,0.87890625,0.078125,0.34765625,-7.39453125,0.65625,1.0
605444,,,,,,,,0.765625,1.73046875,-0.30859375,0.10546875,0.904296875,0.04296875,0.2734375,-7.88671875,0.88671875,1.0
605445,,,,,,,,0.58984375,1.421875,-0.20703125,0.09375,0.91796875,0.029296875,0.08203125,-8.1953125,1.00390625,1.0
605446,,,,,,,,0.328125,1.3828125,-0.24609375,0.076171875,0.91796875,0.01953125,-0.1875,-8.234375,0.96484375,1.0
605447,,,,,,,,0.26171875,1.421875,-0.28515625,-0.041015625,0.90625,-0.01171875,-0.33984375,-8.15625,0.88671875,1.0
605448,,,,,,,,0.11328125,1.57421875,-0.4296875,-0.095703125,0.89453125,-0.046875,-0.453125,-8.04296875,0.6953125,1.0
605449,,,,,,,,0.0859375,1.57421875,-0.5,-0.103515625,0.900390625,-0.064453125,-0.41796875,-8.0390625,0.58203125,1.0
605450,36.013253666666664,129.31927983333333,61.28602234108201,94.72241701386989,0.8,150.0,,0.12890625,1.4609375,-0.67578125,-0.07421875,0.908203125,-0.095703125,-0.37890625,-8.421875,0.390625,1.0
605451,,,,,,,,0.12890625,0.91796875,-0.7421875,0.0,0.92578125,-0.126953125,-0.41796875,-8.69140625,0.4296875,1.0
605452,,,,,,,,-0.0234375,0.6484375,-0.58203125,0.09375,0.931640625,-0.146484375,-0.5703125,-8.9609375,0.58203125,1.0
605453,,,,,,,,-0.09765625,0.49609375,-0.58984375,0.138671875,0.921875,-0.158203125,-0.64453125,-9.109375,0.58203125,1.0
605454,,,,,,,,-0.26171875,0.48828125,-0.53125,0.126953125,0.912109375,-0.166015625,-0.80078125,-9.11328125,0.65625,1.0
605455,,,,,,,,-0.375,0.5625,-0.5390625,0.0703125,0.900390625,-0.162109375,-0.9140625,-9.0390625,0.65625,1.0
605456,,,,,,,,-0.453125,0.52734375,-0.53125,0.0546875,0.89453125,-0.154296875,-0.9921875,-9.0703125,0.65625,1.0
605457,,,,,,,,-0.5,0.44921875,-0.53125,0.017578125,0.890625,-0.1484375,-1.03125,-9.15234375,0.65625,1.0
605458,,,,,,,,-0.4609375,0.34375,-0.4140625,0.009765625,0.8671875,-0.125,-0.9921875,-9.26953125,0.7734375,1.0
605459,,,,,,,,-0.3828125,0.13671875,-0.33203125,0.01953125,0.83203125,-0.08984375,-0.9140625,-9.453125,0.84765625,1.0
605460,36.01325283333333,129.31928066666666,61.36114681752818,94.62995150024427,1.0,153.0,,-0.328125,-0.4765625,-0.20703125,-0.015625,0.78515625,-0.0234375,-0.875,-10.07421875,0.96484375,1.0
605461,,,,,,,,-0.66796875,-0.83203125,-0.125,-0.056640625,0.748046875,-0.01171875,-1.22265625,-10.4140625,1.0390625,1.0
605462,,,,,,,,-0.734375,-0.5625,-0.03125,-0.095703125,0.708984375,-0.01171875,-1.296875,-10.1484375,1.1171875,1.0
605463,,,,,,,,-0.4609375,0.09765625,-0.24609375,-0.1640625,0.646484375,-0.013671875,-1.03125,-9.4921875,0.88671875,1.0
605464,,,,,,,,0.0,0.48046875,-0.50390625,-0.19921875,0.61328125,-0.021484375,-0.5703125,-9.11328125,0.62109375,1.0
605465,,,,,,,,0.859375,0.90234375,-0.7734375,-0.234375,0.515625,-0.046875,0.2734375,-8.6875,0.3125,1.0
605466,,,,,,,,1.12890625,0.984375,-0.83203125,-0.23828125,0.482421875,-0.056640625,0.54296875,-8.62109375,0.23828125,1.0
605467,,,,,,,,1.9296875,-0.01953125,-1.23828125,-0.216796875,0.427734375,-0.076171875,1.34375,-9.61328125,-0.18359375,1.0
605468,,,,,,,,1.9296875,-0.515625,-1.33984375,-0.189453125,0.404296875,-0.083984375,1.34375,-10.11328125,-0.30078125,1.0
605469,,,,,,,,1.42578125,-1.42578125,-1.20703125,-0.171875,0.373046875,-0.09375,0.84765625,-11.02734375,-0.18359375,1.0
605470,36.01325216666667,129.31928116666668,61.40622163824486,94.55597898527054,0.9,155.0,,1.1953125,-2.0390625,-1.0,-0.015625,0.78515625,-0.0234375,0.6171875,-11.640625,0.0078125,1.0
605471,,,,,,,,-0.07421875,-4.53125,1.03125,-0.322265625,0.494140625,-0.11328125,-0.64453125,-14.1328125,2.0,1.0
605472,,,,,,,,-0.3515625,-5.14453125,1.62109375,-0.396484375,0.55859375,-0.111328125,-0.9140625,-14.7421875,2.57421875,1.0
605473,,,,,,,,-1.34765625,-6.66796875,1.796875,-0.630859375,0.6796875,-0.08984375,-1.91015625,-16.2734375,2.6875,1.0
605474,,,,,,,,-1.65625,-7.00390625,1.78125,-0.806640625,0.759765625,-0.08984375,-2.21875,-16.62109375,2.6484375,1.0
605475,,,,,,,,-1.81640625,-4.62109375,2.56640625,-1.041015625,0.87890625,-0.111328125,-2.37109375,-14.24609375,3.33984375,1.0
605476,,,,,,,,-1.96875,-3.12109375,1.984375,-1.033203125,0.896484375,-0.142578125,-2.5234375,-12.75,2.6484375,1.0
605477,,,,,,,,-1.74609375,-2.5390625,1.55078125,-0.90234375,0.89453125,-0.177734375,-2.29296875,-12.1796875,2.11328125,1.0
605478,,,,,,,,-0.4609375,-2.8359375,2.2890625,-0.75,0.861328125,-0.189453125,-0.9921875,-12.48828125,2.765625,1.0
605479,,,,,,,,0.61328125,-3.21875,2.6328125,-0.6640625,0.841796875,-0.16796875,0.08203125,-12.8671875,3.0703125,1.0
605480,36.01325166666666,129.31928150000002,61.43627155881751,94.50049957085551,0.8,156.0,,1.4765625,-3.40234375,2.83203125,-0.015625,0.78515625,-0.0234375,0.9609375,-13.0546875,3.22265625,1.0
605481,,,,,,,,1.28515625,-2.9453125,2.50390625,0.15625,0.908203125,-0.10546875,0.76953125,-12.6015625,2.87890625,1.0
605482,,,,,,,,0.3984375,-1.6328125,1.890625,0.390625,1.146484375,-0.041015625,-0.109375,-11.30078125,2.3046875,1.0
605483,,,,,,,,-0.17578125,-0.33203125,1.35546875,0.416015625,1.322265625,-0.0546875,-0.68359375,-9.99609375,1.80859375,1.0
605484,,,,,,,,-0.40625,0.55078125,0.90234375,0.466796875,1.453125,-0.107421875,-0.9140625,-9.109375,1.38671875,1.0
605485,,,,,,,,-0.71484375,0.90234375,0.6640625,0.62890625,1.5234375,-0.197265625,-1.22265625,-8.76953125,1.1953125,1.0
605486,,,,,,,,-0.8828125,1.046875,0.6015625,0.826171875,1.5,-0.30078125,-1.375,-8.62109375,1.1953125,1.0
605487,,,,,,,,-0.921875,1.46875,0.3125,0.94140625,1.357421875,-0.392578125,-1.375,-8.19921875,1.0390625,1.0
605488,,,,,,,,-0.5703125,2.16015625,-0.18359375,0.76953125,1.2734375,-0.42578125,-0.9921875,-7.5,0.62109375,1.0
605489,,,,,,,,-0.40234375,2.45703125,-0.23828125,0.51953125,1.25390625,-0.427734375,-0.80078125,-7.19921875,0.62109375,1.0
605490,36.01325083333334,129.31928166666665,61.45129696990802,94.40803363812563,0.7000000000000001,162.0,,-0.27734375,2.6875,-0.39453125,-0.015625,0.78515625,-0.0234375,0.9609375,-13.0546875,3.22265625,1.0
605491,,,,,,,,-0.47265625,2.91796875,-0.44140625,0.3203125,1.314453125,-0.3984375,-0.80078125,-6.734375,0.50390625,1.0
605492,,,,,,,,-0.7421875,2.83203125,-0.44140625,0.326171875,1.392578125,-0.38671875,-1.03125,-6.81640625,0.54296875,1.0
605493,,,,,,,,-1.26953125,2.53515625,-0.56640625,0.2734375,1.4296875,-0.392578125,-1.52734375,-7.1171875,0.46484375,1.0
605494,,,,,,,,-1.4296875,2.375,-0.49609375,0.248046875,1.435546875,-0.404296875,-1.6796875,-7.27734375,0.54296875,1.0
605495,,,,,,,,-1.68359375,2.2578125,-0.47265625,0.1953125,1.423828125,-0.40234375,-1.91015625,-7.390625,0.58203125,1.0
605496,,,,,,,,-1.9375,1.8359375,-0.2578125,0.169921875,1.3828125,-0.416015625,-2.140625,-7.8125,0.8125,1.0
605497,,,,,,,,-1.984375,1.796875,-0.23046875,0.16796875,1.361328125,-0.427734375,-2.1796875,-7.8515625,0.84765625,1.0
605498,,,,,,,,-2.0546875,1.59765625,-0.12890625,0.158203125,1.318359375,-0.4375,-2.21875,-8.04296875,0.96484375,1.0
605499,,,,,,,,-2.0625,1.5234375,-0.12890625,0.15234375,1.2890625,-0.435546875,-2.21875,-8.12109375,0.96484375,1.0
605500,36.013250166666666,129.31928183333332,61.46632225406474,94.33406091104025,0.7000000000000001,164.0,0.0,-2.0078125,1.4140625,0.0,-0.015625,0.78515625,-0.0234375,-2.140625,-8.23828125,1.1171875,1.0
605501,,,,,,,,-1.9609375,1.484375,-0.0859375,0.119140625,1.1875,-0.41015625,-2.0625,-8.15625,1.0390625,1.0
605502,,,,,,,,-1.89453125,1.515625,-0.09375,0.11328125,1.15625,-0.3984375,-1.98828125,-8.1171875,1.0390625,1.0
605503,,,,,,,,-1.79296875,1.58984375,-0.1015625,0.125,1.109375,-0.357421875,-1.87109375,-8.0390625,1.0390625,1.0
605504,,,,,,,,-1.7421875,1.66796875,-0.14453125,0.1640625,1.0859375,-0.322265625,-1.796875,-7.96484375,1.00390625,1.0
605505,,,,,,,,-1.83984375,1.4296875,-0.140625,0.259765625,1.044921875,-0.291015625,-1.87109375,-8.19921875,1.0390625,1.0
605506,,,,,,,,-1.85546875,1.23828125,-0.1328125,0.3203125,0.98046875,-0.2734375,-1.87109375,-8.3828125,1.078125,1.0
605507,,,,,,,,-2.1328125,0.42578125,-0.30078125,0.37890625,0.859375,-0.26171875,-2.140625,-9.1875,0.96484375,1.0
605508,,,,,,,,-2.26171875,0.3046875,-0.4921875,0.390625,0.779296875,-0.2578125,-2.25390625,-9.3046875,0.8125,1.0
605509,,,,,,,,-2.234375,0.265625,-0.5078125,0.388671875,0.75,-0.255859375,-2.21875,-9.34765625,0.8125,1.0
605510,36.013249333333334,129.31928183333332,61.466322900954665,94.24159487315544,0.9,174.0,,-2.01171875,0.01953125,-0.7109375,0.36328125,0.638671875,-0.244140625,-1.98828125,-9.5703125,0.65625,1.0
605511,,,,,,,,-1.6796875,-0.29296875,-0.59375,0.353515625,0.578125,-0.236328125,-1.640625,-9.87890625,0.8125,1.0
605512,,,,,,,,-1.4609375,-0.41015625,-0.48046875,0.361328125,0.533203125,-0.22265625,-1.4140625,-9.9921875,0.96484375,1.0
605513,,,,,,,,-1.19921875,-0.4921875,-0.20703125,0.357421875,0.48046875,-0.19921875,-1.14453125,-10.0703125,1.26953125,1.0
605514,,,,,,,,-1.19921875,-0.42578125,-0.10546875,0.34765625,0.439453125,-0.1875,-1.14453125,-9.9921875,1.38671875,1.0
605515,,,,,,,,-1.328125,-0.05078125,-0.046875,0.3046875,0.318359375,-0.142578125,-1.2578125,-9.61328125,1.5,1.0
605516,,,,,,,,-1.4921875,-0.01953125,-0.4140625,0.1953125,0.232421875,-0.111328125,-1.4140625,-9.5703125,1.15625,1.0
605517,,,,,,,,-1.4140625,0.01953125,-0.57421875,0.171875,0.21484375,-0.1015625,-1.3359375,-9.53125,1.00390625,1.0
605518,,,,,,,,-1.29296875,-0.05859375,-0.7890625,0.150390625,0.21484375,-0.08203125,-1.22265625,-9.61328125,0.8125,1.0
605519,,,,,,,,-1.14453125,-0.1015625,-0.98828125,0.162109375,0.2109375,-0.080078125,-1.06640625,-9.65234375,0.62109375,1.0
605520,36.0132485,129.31928150000002,61.436274015936995,94.14912862417202,0.9,182.0,,-0.91796875,-0.109375,-1.01171875,0.1953125,0.19921875,-0.095703125,-0.83984375,-9.65234375,0.62109375,1.0
605521,,,,,,,,-0.76171875,0.1953125,-0.5703125,0.1328125,0.17578125,-0.091796875,-0.68359375,-9.34375,1.078125,1.0
605522,,,,,,,,-0.76953125,0.1875,-0.30859375,0.021484375,0.146484375,-0.091796875,-0.68359375,-9.34765625,1.34765625,1.0
605523,,,,,,,,-0.6875,-1.078125,-0.1875,-0.12109375,0.13671875,-0.103515625,-0.609375,-10.61328125,1.4609375,1.0
605524,,,,,,,,-0.65625,-2.02734375,0.09765625,-0.23828125,0.140625,-0.10546875,-0.5703125,-11.56640625,1.73046875,1.0
605525,,,,,,,,0.140625,-2.9765625,1.1171875,-0.337890625,0.14453125,-0.10546875,0.234375,-12.52734375,2.7265625,1.0
605526,,,,,,,,0.5234375,-3.015625,1.37109375,-0.361328125,0.1484375,-0.107421875,0.6171875,-12.5625,2.95703125,1.0
605527,,,,,,,,1.828125,-3.359375,1.83203125,-0.41015625,0.125,-0.111328125,1.921875,-12.90625,3.37890625,1.0
605528,,,,,,,,2.4296875,-5.3046875,2.90234375,-0.54296875,0.111328125,-0.095703125,2.53125,-14.859375,4.41015625,1.0
605529,,,,,,,,2.77734375,-6.0546875,4.19921875,-0.8046875,0.099609375,-0.07421875,2.87890625,-15.62890625,5.63671875,1.0
605530,36.01324733333333,129.319281,61.391200617374935,94.01967585515436,1.2000000000000002,193.0,,2.9296875,-4.24609375,5.42578125,-0.9296875,0.08984375,-0.025390625,3.03125,-13.8203125,6.78515625,1.0
605531,,,,,,,,2.125,-2.69921875,4.77734375,-0.787109375,0.1015625,0.015625,2.2265625,-12.29296875,6.05859375,1.0
605532,,,,,,,,1.55859375,-2.1953125,4.55078125,-0.69921875,0.154296875,0.0234375,1.65234375,-11.796875,5.79296875,1.0
605533,,,,,,,,-0.05078125,-1.19140625,4.3828125,-0.61328125,0.345703125,-0.0078125,0.04296875,-10.80078125,5.5625,1.0
605534,,,,,,,,-1.078125,-0.9453125,3.6484375,-0.443359375,0.517578125,-0.033203125,-0.9921875,-10.57421875,4.7578125,1.0
605535,,,,,,,,-0.41796875,-0.41015625,1.81640625,0.341796875,0.6328125,-0.134765625,-0.33984375,-10.03125,2.91796875,1.0
605536,,,,,,,,-0.12890625,0.05078125,1.45703125,0.720703125,0.66015625,-0.189453125,-0.03515625,-9.57421875,2.61328125,1.0
605537,,,,,,,,-0.12890625,0.7734375,1.0703125,0.7578125,0.619140625,-0.166015625,-0.03515625,-8.84375,2.3046875,1.0
605538,,,,,,,,-0.171875,0.83984375,0.9609375,0.654296875,0.50390625,-0.123046875,-0.0703125,-8.76953125,2.265625,1.0
605539,,,,,,,,-0.328125,0.49609375,1.0078125,0.580078125,0.46484375,-0.08984375,-0.2265625,-9.109375,2.34375,1.0
605540,36.01324616666667,129.31928083333332,61.37617675216485,93.89022329628928,1.3,192.0,,-0.40234375,0.21875,1.19140625,0.41796875,0.49609375,-0.01953125,-0.30078125,-9.38671875,2.57421875,1.0
605541,,,,,,,,-0.65625,0.14453125,1.19140625,0.251953125,0.58203125,0.056640625,-0.5703125,-9.453125,2.61328125,1.0
605542,,,,,,,,-0.76171875,0.21875,1.18359375,0.162109375,0.609375,0.09765625,-0.68359375,-9.3828125,2.61328125,1.0
605543,,,,,,,,-0.77734375,0.40234375,1.09765625,-0.072265625,0.650390625,0.19921875,-0.72265625,-9.19140625,2.53515625,1.0
605544,,,,,,,,-0.6015625,0.86328125,0.71484375,-0.193359375,0.6796875,0.240234375,-0.5703125,-8.73046875,2.15234375,1.0
605545,,,,,,,,-0.15625,1.73046875,0.109375,-0.466796875,0.779296875,0.341796875,-0.2265625,-7.8828125,1.4609375,1.0
605546,,,,,,,,-0.03125,2.1953125,-0.1875,-0.39453125,0.810546875,0.3125,-0.1484375,-7.43359375,1.1171875,1.0
605547,,,,,,,,-0.12109375,2.46484375,-0.37109375,-0.34765625,0.8125,0.283203125,-0.26171875,-7.15625,0.92578125,1.0
605548,,,,,,,,-0.19921875,2.703125,-0.484375,-0.248046875,0.767578125,0.2265625,-0.37890625,-6.9296875,0.7734375,1.0
605549,,,,,,,,-0.20703125,2.734375,-0.46875,-0.18359375,0.71875,0.171875,-0.41796875,-6.890625,0.7734375,1.0
605550,36.013245500000004,129.31928066666666,61.361152501041346,93.81625036081391,1.1,191.0,,-0.02734375,2.6640625,-0.53125,-0.12890625,0.681640625,0.138671875,-0.26171875,-6.96875,0.6953125,1.0
605551,,,,,,,,0.30859375,2.43359375,-0.58984375,-0.060546875,0.703125,0.107421875,0.04296875,-7.19921875,0.62109375,1.0
605552,,,,,,,,0.546875,2.359375,-0.66796875,-0.046875,0.73828125,0.09765625,0.2734375,-7.27734375,0.54296875,1.0
605553,,,,,,,,0.8828125,2.16796875,-0.74609375,-0.0390625,0.783203125,0.095703125,0.578125,-7.46484375,0.46484375,1.0
605554,,,,,,,,1.046875,2.01171875,-0.73828125,-0.01953125,0.802734375,0.099609375,0.734375,-7.62109375,0.46484375,1.0
605555,,,,,,,,1.0703125,2.01171875,-0.73828125,-0.009765625,0.8125,0.0703125,0.734375,-7.62109375,0.46484375,1.0
605556,,,,,,,,0.6796875,2.1953125,-0.73046875,-0.001953125,0.796875,0.03125,0.3125,-7.4296875,0.46484375,1.0
605557,,,,,,,,0.609375,2.2421875,-0.73828125,0.01171875,0.802734375,0.005859375,0.234375,-7.39453125,0.46484375,1.0
605558,,,,,,,,0.12109375,2.04296875,-0.8125,0.029296875,0.814453125,-0.064453125,-0.26171875,-7.578125,0.390625,1.0
605559,,,,,,,,0.04296875,1.890625,-0.890625,0.03515625,0.8203125,-0.1015625,-0.33984375,-7.73828125,0.3125,1.0
605560,36.013244500000006,129.3192801666667,61.31607897495876,93.70529080015508,1.2000000000000002,196.0,,-0.1484375,1.421875,-0.73828125,-0.12890625,0.681640625,0.138671875,-0.26171875,-6.96875,0.6953125,1.0
605561,,,,,,,,-0.26953125,1.046875,-0.70703125,0.10546875,0.779296875,-0.24609375,-0.64453125,-8.58203125,0.50390625,1.0
605562,,,,,,,,-0.40234375,0.80859375,-0.75390625,0.171875,0.755859375,-0.296875,-0.76171875,-8.80859375,0.46484375,1.0
605563,,,,,,,,-0.45703125,0.34375,-0.73046875,0.185546875,0.73046875,-0.3203125,-0.80078125,-9.265625,0.50390625,1.0
605564,,,,,,,,-0.45703125,0.11328125,-0.62890625,0.1328125,0.65625,-0.322265625,-0.76171875,-9.49609375,0.62109375,1.0
605565,,,,,,,,-0.51171875,-0.00390625,-0.4921875,0.095703125,0.58203125,-0.30859375,-0.80078125,-9.61328125,0.7734375,1.0
605566,,,,,,,,-0.55859375,0.10546875,-0.37890625,0.09765625,0.548828125,-0.291015625,-0.83984375,-9.49609375,0.88671875,1.0
605567,,,,,,,,-0.65625,0.1796875,-0.39453125,0.126953125,0.572265625,-0.24609375,-0.9140625,-9.421875,0.88671875,1.0
605568,,,,,,,,-0.7421875,0.21875,-0.44140625,0.14453125,0.58203125,-0.1953125,-0.9921875,-9.38671875,0.84765625,1.0
605569,,,,,,,,-0.671875,0.21875,-0.45703125,0.13671875,0.52734375,-0.142578125,-0.9140625,-9.38671875,0.84765625,1.0
605570,36.01324366666667,129.31927966666666,61.27100531378363,93.61282444710567,1.2000000000000002,200.0,,-0.328125,0.01953125,-0.39453125,0.13671875,0.423828125,-0.06640625,-0.5703125,-9.57421875,0.92578125,1.0
605571,,,,,,,,0.33203125,-0.8671875,-0.42578125,0.177734375,0.33984375,-0.001953125,0.08203125,-10.45703125,0.92578125,1.0
605572,,,,,,,,0.5703125,-0.75390625,-0.48046875,0.169921875,0.23828125,0.052734375,0.3125,-10.3359375,0.88671875,1.0
605573,,,,,,,,0.84375,-0.5234375,-0.49609375,0.154296875,0.205078125,0.064453125,0.578125,-10.11328125,0.88671875,1.0
605574,,,,,,,,0.9296875,-0.26171875,-0.65625,0.091796875,0.126953125,0.091796875,0.65625,-9.8359375,0.734375,1.0
605575,,,,,,,,0.984375,-0.1171875,-0.77734375,0.044921875,0.08203125,0.10546875,0.6953125,-9.69140625,0.62109375,1.0
605576,,,,,,,,0.9921875,-0.38671875,-0.7421875,-0.015625,0.037109375,0.123046875,0.6953125,-9.95703125,0.65625,1.0
605577,,,,,,,,1.16015625,-1.0390625,-0.15625,-0.083984375,0.001953125,0.13671875,0.84765625,-10.61328125,1.234375,1.0
605578,,,,,,,,1.17578125,-1.265625,-0.07421875,-0.140625,-0.0234375,0.14453125,0.84765625,-10.83984375,1.30859375,1.0
605579,,,,,,,,0.83984375,-2.33984375,-0.01953125,-0.2265625,-0.04296875,0.130859375,0.50390625,-11.91015625,1.34765625,1.0
605580,36.01324266666666,129.31927916666666,61.22593178082199,93.50186488572999,1.3,199.0,,0.35546875,-3.14453125,0.05078125,0.13671875,0.423828125,-0.06640625,0.00390625,-12.71484375,1.38671875,1.0
605581,,,,,,,,-0.27734375,-3.7890625,0.42578125,-0.4375,0.017578125,0.1328125,-0.64453125,-13.37109375,1.73046875,1.0
605582,,,,,,,,-0.68359375,-3.47265625,1.515625,-0.525390625,0.11328125,0.14453125,-1.06640625,-13.05859375,2.765625,1.0
605583,,,,,,,,-0.83203125,-3.12890625,2.03515625,-0.560546875,0.17578125,0.15625,-1.22265625,-12.71484375,3.26171875,1.0
605584,,,,,,,,-1.234375,-2.9296875,2.4375,-0.623046875,0.310546875,0.1796875,-1.640625,-12.5234375,3.609375,1.0
605585,,,,,,,,-1.359375,-2.61328125,2.57421875,-0.650390625,0.3515625,0.193359375,-1.796875,-12.2109375,3.68359375,1.0
605586,,,,,,,,-1.3359375,-2.26171875,2.90625,-0.60546875,0.275390625,0.189453125,-1.796875,-11.8671875,3.953125,1.0
605587,,,,,,,,-0.46875,-2.140625,3.19140625,-0.57421875,0.205078125,0.177734375,-0.953125,-11.7578125,4.18359375,1.0
605588,,,,,,,,-0.1171875,-2.25390625,3.3359375,-0.55859375,0.203125,0.177734375,-0.609375,-11.8671875,4.296875,1.0
605589,,,,,,,,0.90234375,-2.66796875,3.0390625,-0.451171875,0.23828125,0.1796875,0.38671875,-12.29296875,3.953125,1.0
605590,36.013241666666666,129.31927833333333,61.15080871235024,93.39090511725055,1.3,202.0,,1.07421875,-2.515625,2.953125,-0.294921875,0.2421875,0.177734375,0.54296875,-12.14453125,3.8359375,1.0
605591,,,,,,,,0.703125,-1.82421875,2.81640625,-0.080078125,0.244140625,0.16796875,0.15625,-11.44921875,3.68359375,1.0
605592,,,,,,,,0.3828125,-1.43359375,2.3203125,0.080078125,0.314453125,0.15234375,-0.1875,-11.0625,3.1875,1.0
605593,,,,,,,,-0.13671875,-1.203125,2.2265625,0.154296875,0.4765625,0.1328125,-0.72265625,-10.83984375,3.109375,1.0
605594,,,,,,,,-0.4296875,-1.203125,2.37109375,0.171875,0.66796875,0.130859375,-1.03125,-10.83984375,3.26171875,1.0
605595,,,,,,,,-0.6640625,-1.05078125,2.234375,0.27734375,0.794921875,0.037109375,-1.296875,-10.6796875,3.1484375,1.0
605596,,,,,,,,-0.703125,-0.70703125,1.8671875,0.326171875,0.771484375,0.0078125,-1.3359375,-10.3359375,2.8046875,1.0
605597,,,,,,,,-0.54296875,-0.32421875,1.48828125,0.32421875,0.69140625,-0.0703125,-1.18359375,-9.95703125,2.45703125,1.0
605598,,,,,,,,0.0234375,0.2890625,0.8828125,0.185546875,0.634765625,-0.181640625,-0.609375,-9.34375,1.8828125,1.0
605599,,,,,,,,0.515625,0.86328125,0.5234375,0.169921875,0.603515625,-0.224609375,-0.109375,-8.76953125,1.5390625,1.0
605600,36.0132405,129.31927783333333,61.10573530524499,93.2614523497454,1.3,203.0,0.0,0.63671875,1.5234375,0.30859375,-0.294921875,0.2421875,0.177734375,0.04296875,-8.12109375,1.34765625,1.0
605601,,,,,,,,0.515625,2.05859375,0.20703125,0.240234375,0.564453125,-0.21875,-0.0703125,-7.578125,1.26953125,1.0
605602,,,,,,,,0.4296875,2.25,0.23046875,0.25,0.580078125,-0.205078125,-0.1484375,-7.39453125,1.30859375,1.0
605603,,,,,,,,0.0234375,2.671875,0.19921875,0.220703125,0.63671875,-0.189453125,-0.53125,-6.96875,1.30859375,1.0
605604,,,,,,,,-0.17578125,2.85546875,0.109375,0.197265625,0.66796875,-0.203125,-0.72265625,-6.7734375,1.234375,1.0
605605,,,,,,,,-0.453125,3.015625,-0.0234375,0.1875,0.6953125,-0.224609375,-0.9921875,-6.625,1.1171875,1.0
605606,,,,,,,,-0.5,2.9765625,-0.0703125,0.177734375,0.689453125,-0.2421875,-1.03125,-6.6640625,1.078125,1.0
605607,,,,,,,,-0.8671875,3.20703125,-0.20703125,0.15625,0.638671875,-0.267578125,-1.375,-6.4296875,0.96484375,1.0
605608,,,,,,,,-1.11328125,3.31640625,-0.26171875,0.16796875,0.55078125,-0.294921875,-1.60546875,-6.31640625,0.92578125,1.0
605609,,,,,,,,-1.3125,3.34765625,-0.3828125,0.1796875,0.521484375,-0.30859375,-1.796875,-6.27734375,0.8125,1.0
605610,36.01323983333334,129.319277,61.030611976122714,93.18747899647127,1.2000000000000002,208.0,,-1.44140625,3.390625,-0.4375,0.20703125,0.490234375,-0.32421875,-1.91015625,-6.2421875,0.7734375,1.0
605611,,,,,,,,-1.359375,3.390625,-0.53125,0.224609375,0.48828125,-0.31640625,-1.796875,-6.2421875,0.6953125,1.0
605612,,,,,,,,-1.265625,3.26953125,-0.63671875,0.240234375,0.509765625,-0.294921875,-1.6796875,-6.3515625,0.62109375,1.0
605613,,,,,,,,-1.14453125,2.80078125,-0.72265625,0.25,0.525390625,-0.185546875,-1.52734375,-6.81640625,0.58203125,1.0
605614,,,,,,,,-1.0390625,2.6875,-0.77734375,0.234375,0.515625,-0.115234375,-1.4140625,-6.9296875,0.54296875,1.0
605615,,,,,,,,-0.84765625,2.41015625,-0.6953125,0.208984375,0.484375,-0.056640625,-1.22265625,-7.19921875,0.65625,1.0
605616,,,,,,,,-0.80078125,2.1796875,-0.6328125,0.17578125,0.4765625,-0.015625,-1.18359375,-7.43359375,0.734375,1.0
605617,,,,,,,,-0.75390625,2.06640625,-0.5625,0.1640625,0.470703125,-0.0078125,-1.14453125,-7.5390625,0.8125,1.0
605618,,,,,,,,-0.859375,1.70703125,-0.5703125,0.1171875,0.455078125,0.0234375,-1.2578125,-7.8828125,0.8125,1.0
605619,,,,,,,,-0.890625,1.484375,-0.578125,0.083984375,0.4296875,0.029296875,-1.296875,-8.1171875,0.8125,1.0
605620,36.013238666666666,129.31927616666664,60.955489026038194,93.05802602147523,1.3,208.0,,-1.0,1.015625,-0.51171875,0.037109375,0.36328125,0.044921875,-1.4140625,-8.58203125,0.88671875,1.0
605621,,,,,,,,-1.17578125,0.2421875,-0.359375,0.017578125,0.2734375,0.048828125,-1.60546875,-9.34765625,1.0390625,1.0
605622,,,,,,,,-1.12890625,-0.5703125,-0.05859375,0.013671875,0.26171875,0.0546875,-1.56640625,-10.15234375,1.34765625,1.0
605623,,,,,,,,-0.99609375,-1.22265625,0.171875,-0.017578125,0.251953125,0.04296875,-1.44921875,-10.80078125,1.578125,1.0
605624,,,,,,,,-0.9140625,-1.49609375,0.1796875,-0.06640625,0.244140625,0.037109375,-1.375,-11.06640625,1.578125,1.0
605625,,,,,,,,-0.59765625,-1.10546875,-0.03515625,-0.14453125,0.18359375,0.015625,-1.06640625,-10.6796875,1.34765625,1.0
605626,,,,,,,,-0.58984375,-0.8828125,-0.25,-0.142578125,0.119140625,0.001953125,-1.06640625,-10.453125,1.1171875,1.0
605627,,,,,,,,-0.58203125,-0.68359375,-0.39453125,-0.1015625,0.0625,-0.01171875,-1.06640625,-10.26171875,0.96484375,1.0
605628,,,,,,,,-0.390625,-0.6484375,-0.6953125,-0.044921875,0.0234375,-0.02734375,-0.875,-10.2265625,0.65625,1.0
605629,,,,,,,,-0.19921875,-0.68359375,-0.84765625,0.025390625,0.021484375,-0.04296875,-0.68359375,-10.2578125,0.50390625,1.0
605630,36.013238,129.31927516666667,60.86534092469031,92.98405256587176,1.2000000000000002,213.0,,0.10546875,-0.9609375,-1.0390625,0.037109375,0.36328125,0.044921875,-0.37890625,-10.53515625,0.3125,1.0
605631,,,,,,,,0.17578125,-0.76953125,-0.85546875,0.056640625,0.10546875,-0.08984375,-0.30078125,-10.3359375,0.50390625,1.0
605632,,,,,,,,-0.0546875,-0.2421875,-0.73828125,-0.017578125,0.109375,-0.103515625,-0.53125,-9.8046875,0.62109375,1.0
605633,,,,,,,,-0.17578125,-0.05078125,-0.625,-0.060546875,0.1015625,-0.115234375,-0.64453125,-9.61328125,0.734375,1.0
605634,,,,,,,,-0.5703125,0.11328125,-0.1953125,-0.1640625,0.0859375,-0.125,-1.03125,-9.45703125,1.15625,1.0
605635,,,,,,,,-0.84375,-0.73046875,-0.38671875,-0.337890625,0.1171875,-0.1484375,-1.296875,-10.30078125,0.92578125,1.0
605636,,,,,,,,-0.8984375,-2.21875,-0.1640625,-0.40625,0.142578125,-0.15234375,-1.3359375,-11.796875,1.1171875,1.0
605637,,,,,,,,-0.30078125,-2.59375,0.87890625,-0.44921875,0.19921875,-0.173828125,-0.72265625,-12.18359375,2.11328125,1.0
605638,,,,,,,,-0.1171875,-2.5546875,1.09375,-0.470703125,0.22265625,-0.17578125,-0.53125,-12.14453125,2.3046875,1.0
605639,,,,,,,,0.52734375,-2.66015625,1.5078125,-0.5859375,0.212890625,-0.1796875,0.12109375,-12.25390625,2.6484375,1.0
