time,latitude,longitude,enu_x,enu_y,speed,course,ecg,accX,accY,accZ,gyrX,gyrY,gyrZ,eulR,eulP,eulY,validity
620230,36.0132605,129.3192425,57.92046965642175,95.48061569665214,1.2000000000000002,47.0,,-1.3671875,2.72265625,-1.08203125,0.15234375,0.546875,-0.47265625,-1.3359375,-6.77734375,0.92578125,1.0
620231,,,,,,,,-1.390625,2.484375,-1.13671875,0.16015625,0.55859375,-0.45703125,-1.3359375,-7.01171875,0.88671875,1.0
620232,,,,,,,,-1.3671875,2.36328125,-1.10546875,0.16015625,0.572265625,-0.451171875,-1.296875,-7.1171875,0.92578125,1.0
620233,,,,,,,,-1.33984375,2.24609375,-1.17578125,0.126953125,0.60546875,-0.421875,-1.22265625,-7.23828125,0.88671875,1.0
620234,,,,,,,,-1.35546875,2.1640625,-1.17578125,0.12109375,0.62890625,-0.3984375,-1.22265625,-7.3125,0.88671875,1.0
620235,,,,,,,,-1.22265625,1.734375,-1.14453125,0.08984375,0.63671875,-0.373046875,-1.06640625,-7.734375,0.92578125,1.0
620236,,,,,,,,-1.23828125,1.54296875,-1.11328125,0.083984375,0.625,-0.36328125,-1.06640625,-7.921875,0.96484375,1.0
620237,,,,,,,,-1.21875,0.546875,-1.0078125,0.08203125,0.611328125,-0.333984375,-1.03125,-8.92578125,1.078125,1.0
620238,,,,,,,,-1.203125,0.0390625,-0.9453125,0.0703125,0.587890625,-0.29296875,-0.9921875,-9.42578125,1.15625,1.0
620239,,,,,,,,-1.234375,-0.54296875,-0.6484375,-0.013671875,0.546875,-0.26171875,-0.9921875,-9.99609375,1.4609375,1.0
620240,36.01326133333334,129.3192435,58.01061763681961,95.57308233161758,1.2000000000000002,49.0,,-1.28125,-0.50390625,-0.68359375,-0.05078125,0.53125,-0.255859375,-1.03125,-9.95703125,1.42578125,1.0
620241,,,,,,,,-1.36328125,-0.51171875,-0.71484375,-0.109375,0.4921875,-0.23828125,-1.10546875,-9.95703125,1.38671875,1.0
620242,,,,,,,,-1.48828125,-0.50390625,-0.74609375,-0.1328125,0.4765625,-0.234375,-1.22265625,-9.95703125,1.34765625,1.0
620243,,,,,,,,-1.42578125,-0.42578125,-0.84375,-0.10546875,0.431640625,-0.220703125,-1.14453125,-9.87890625,1.234375,1.0
620244,,,,,,,,-1.28125,-0.50390625,-0.8359375,-0.037109375,0.42578125,-0.2109375,-0.9921875,-9.95703125,1.234375,1.0
620245,,,,,,,,-0.875,-0.625,-0.8828125,0.05859375,0.439453125,-0.20703125,-0.5703125,-10.0703125,1.1953125,1.0
620246,,,,,,,,-0.7578125,-0.625,-0.9609375,0.064453125,0.423828125,-0.203125,-0.453125,-10.0703125,1.1171875,1.0
620247,,,,,,,,-0.546875,-0.47265625,-1.3515625,0.05859375,0.396484375,-0.201171875,-0.2265625,-9.9140625,0.734375,1.0
620248,,,,,,,,-0.5078125,-0.3671875,-1.51171875,0.037109375,0.376953125,-0.193359375,-0.1875,-9.80859375,0.58203125,1.0
620249,,,,,,,,-0.5546875,-0.48046875,-1.58984375,0.013671875,0.36328125,-0.197265625,-0.2265625,-9.91796875,0.50390625,1.0
620250,36.01326183333333,129.31924466666666,58.11579062515419,95.62856264886618,1.2000000000000002,56.0,,-0.5625,-0.75,-1.51171875,-0.05078125,0.53125,-0.255859375,-0.2265625,-10.1875,0.58203125,1.0
620251,,,,,,,,-0.4609375,-0.7109375,-1.265625,-0.103515625,0.30078125,-0.20703125,-0.109375,-10.1484375,0.8125,1.0
620252,,,,,,,,-0.66796875,-0.58984375,-0.609375,-0.166015625,0.310546875,-0.21875,-0.30078125,-10.03515625,1.4609375,1.0
620253,,,,,,,,-0.8203125,-0.671875,-0.41015625,-0.203125,0.322265625,-0.21875,-0.453125,-10.11328125,1.65234375,1.0
620254,,,,,,,,-1.44140625,-1.5078125,-0.00390625,-0.302734375,0.365234375,-0.21875,-1.06640625,-10.953125,2.03515625,1.0
620255,,,,,,,,-1.19921875,-2.37890625,0.97265625,-0.484375,0.3828125,-0.19921875,-0.80078125,-11.828125,2.95703125,1.0
620256,,,,,,,,-0.32421875,-2.75390625,1.80859375,-0.521484375,0.3828125,-0.1953125,0.08203125,-12.2109375,3.72265625,1.0
620257,,,,,,,,1.0,-4.12109375,2.09375,-0.525390625,0.380859375,-0.19921875,1.421875,-13.59765625,3.953125,1.0
620258,,,,,,,,1.3828125,-4.84765625,2.23046875,-0.568359375,0.353515625,-0.19140625,1.8046875,-14.3203125,4.06640625,1.0
620259,,,,,,,,2.6328125,-6.44921875,3.13671875,-0.6875,0.234375,-0.154296875,3.0703125,-15.9296875,4.91015625,1.0
620260,36.013262166666664,129.319246,58.23598849859158,95.66554986065283,1.3,62.0,,3.62109375,-4.5546875,4.15625,-0.05078125,0.53125,-0.255859375,4.06640625,-14.0546875,5.8671875,1.0
620261,,,,,,,,2.26953125,-2.69921875,3.7734375,-0.44921875,0.13671875,-0.091796875,2.72265625,-12.21484375,5.40625,1.0
620262,,,,,,,,0.34765625,-1.890625,3.9296875,-0.416015625,0.220703125,-0.1015625,0.80859375,-11.4140625,5.5234375,1.0
620263,,,,,,,,-0.5390625,-1.7265625,3.39453125,-0.357421875,0.27734375,-0.111328125,-0.0703125,-11.2578125,4.94921875,1.0
620264,,,,,,,,-0.76953125,-1.796875,2.26171875,-0.10546875,0.31640625,-0.15625,-0.30078125,-11.3359375,3.80078125,1.0
620265,,,,,,,,-0.44921875,-1.26171875,1.74609375,0.3515625,0.4296875,-0.248046875,0.04296875,-10.80078125,3.30078125,1.0
620266,,,,,,,,-0.34375,-0.9921875,1.5703125,0.5,0.466796875,-0.2890625,0.15625,-10.53515625,3.1484375,1.0
620267,,,,,,,,-0.203125,-0.50390625,1.015625,0.61328125,0.43359375,-0.30859375,0.3125,-10.03125,2.6484375,1.0
620268,,,,,,,,-0.265625,0.1796875,0.45703125,0.57421875,0.310546875,-0.283203125,0.2734375,-9.34765625,2.15234375,1.0
620269,,,,,,,,-0.51171875,0.46875,0.44921875,0.435546875,0.23828125,-0.189453125,0.04296875,-9.04296875,2.19140625,1.0
620270,36.013262833333336,129.319247,58.32613659701303,95.7395232895272,1.2000000000000002,60.0,,-0.43359375,0.43359375,0.29296875,0.314453125,0.240234375,-0.076171875,0.12109375,-9.07421875,2.07421875,1.0
620271,,,,,,,,-0.58984375,0.65625,-0.05078125,0.23828125,0.328125,0.025390625,-0.03515625,-8.84765625,1.76953125,1.0
620272,,,,,,,,-0.6171875,0.73046875,-0.13671875,0.19921875,0.3984375,0.0703125,-0.0703125,-8.76953125,1.69140625,1.0
620273,,,,,,,,-0.83203125,0.921875,-0.2265625,0.052734375,0.5078125,0.154296875,-0.30078125,-8.578125,1.6171875,1.0
620274,,,,,,,,-0.9921875,1.19921875,-0.2265625,-0.099609375,0.57421875,0.24609375,-0.4921875,-8.30859375,1.6171875,1.0
620275,,,,,,,,-1.03125,1.51171875,-0.296875,-0.2109375,0.5703125,0.302734375,-0.5703125,-8.00390625,1.5390625,1.0
620276,,,,,,,,-0.875,2.01171875,-0.46484375,-0.263671875,0.55859375,0.3125,-0.453125,-7.5,1.34765625,1.0
620277,,,,,,,,-0.70703125,2.35546875,-0.578125,-0.271484375,0.55859375,0.31640625,-0.30078125,-7.16015625,1.234375,1.0
620278,,,,,,,,-0.5078125,2.71484375,-0.78515625,-0.244140625,0.58203125,0.296875,-0.1484375,-6.81640625,1.00390625,1.0
620279,,,,,,,,-0.25390625,2.9453125,-0.85546875,-0.220703125,0.583984375,0.283203125,0.08203125,-6.5859375,0.92578125,1.0
620280,36.0132635,129.319248,58.416284693863105,95.8134967198661,1.1,59.0,,0.4765625,3.3359375,-0.89453125,-0.109375,0.552734375,0.205078125,0.734375,-6.203125,0.84765625,1.0
620281,,,,,,,,0.8046875,2.76953125,-1.0,-0.033203125,0.62109375,0.18359375,1.0,-6.7734375,0.734375,1.0
620282,,,,,,,,0.7734375,2.73046875,-1.0390625,-0.025390625,0.646484375,0.177734375,0.9609375,-6.8125,0.6953125,1.0
620283,,,,,,,,0.76953125,2.46484375,-1.12109375,-0.01953125,0.689453125,0.15625,0.92578125,-7.08203125,0.62109375,1.0
620284,,,,,,,,0.64453125,2.15625,-1.046875,-0.009765625,0.724609375,0.125,0.76953125,-7.39453125,0.6953125,1.0
620285,,,,,,,,0.5078125,1.92578125,-0.85546875,0.0,0.751953125,0.1015625,0.6171875,-7.62109375,0.88671875,1.0
620286,,,,,,,,0.41796875,1.61328125,-0.73828125,0.001953125,0.755859375,0.083984375,0.50390625,-7.92578125,1.00390625,1.0
620287,,,,,,,,0.36328125,1.421875,-0.73046875,-0.021484375,0.767578125,0.021484375,0.42578125,-8.1171875,1.00390625,1.0
620288,,,,,,,,0.37890625,1.3515625,-0.9609375,-0.025390625,0.775390625,-0.03515625,0.42578125,-8.1953125,0.7734375,1.0
620289,,,,,,,,0.33984375,1.26953125,-1.0,-0.033203125,0.7890625,-0.06640625,0.38671875,-8.26953125,0.734375,1.0
620290,36.01326400000001,129.31924933333332,58.536482440339185,95.86897714332684,1.2000000000000002,62.0,,0.2734375,0.84765625,-1.26953125,-0.015625,0.814453125,-0.123046875,0.3125,-8.69140625,0.46484375,1.0
620291,,,,,,,,0.1171875,0.42578125,-1.23046875,0.029296875,0.82421875,-0.158203125,0.15625,-9.11328125,0.50390625,1.0
620292,,,,,,,,-0.1171875,0.30078125,-1.046875,0.134765625,0.82421875,-0.201171875,-0.0703125,-9.2265625,0.6953125,1.0
620293,,,,,,,,-0.2734375,0.265625,-0.82421875,0.162109375,0.8203125,-0.208984375,-0.2265625,-9.265625,0.92578125,1.0
620294,,,,,,,,-0.578125,0.1796875,-0.83984375,0.189453125,0.849609375,-0.224609375,-0.53125,-9.34375,0.92578125,1.0
620295,,,,,,,,-0.73828125,0.33203125,-0.9765625,0.17578125,0.86328125,-0.21875,-0.68359375,-9.19140625,0.8125,1.0
620296,,,,,,,,-0.86328125,0.36328125,-1.03125,0.154296875,0.884765625,-0.220703125,-0.80078125,-9.15234375,0.7734375,1.0
620297,,,,,,,,-0.90234375,0.27734375,-0.96484375,0.142578125,0.861328125,-0.212890625,-0.83984375,-9.2265625,0.84765625,1.0
620298,,,,,,,,-0.90234375,0.27734375,-0.97265625,0.1328125,0.81640625,-0.216796875,-0.9140625,-9.1484375,0.88671875,1.0
620299,,,,,,,,-1.0625,0.30859375,-0.94921875,0.12890625,0.740234375,-0.203125,-0.9921875,-9.19140625,0.88671875,1.0
620300,36.0132645,129.3192505,58.6416554235375,95.92445746791239,1.2000000000000002,64.0,0.0,0.2734375,0.84765625,-1.26953125,0.1328125,0.673828125,-0.18359375,0.3125,-8.69140625,0.46484375,1.0
620301,,,,,,,,-0.73046875,-0.3125,-1.01171875,0.140625,0.646484375,-0.158203125,-0.64453125,-9.8046875,0.84765625,1.0
620302,,,,,,,,-0.72265625,-0.3125,-1.01953125,0.12890625,0.623046875,-0.146484375,-0.609375,-9.875,0.88671875,1.0
620303,,,,,,,,-0.609375,-0.55078125,-0.91015625,0.095703125,0.5703125,-0.123046875,-0.41796875,-10.23046875,1.0390625,1.0
620304,,,,,,,,-0.50390625,-0.734375,-0.8359375,0.08984375,0.54296875,-0.099609375,-0.33984375,-10.2265625,1.00390625,1.0
620305,,,,,,,,-0.42578125,-0.55078125,-0.87890625,0.033203125,0.4609375,-0.068359375,-0.2265625,-9.6484375,0.92578125,1.0
620306,,,,,,,,0.05078125,0.1796875,-0.99609375,-0.1328125,0.28125,-0.013671875,0.80859375,-9.26953125,0.8125,1.0
620307,,,,,,,,0.73828125,0.21875,-1.0625,-0.142578125,0.1953125,-0.0234375,1.26953125,-9.73046875,1.0390625,1.0
620308,,,,,,,,1.55078125,-0.96875,-0.46484375,-0.15625,0.1171875,-0.029296875,1.69140625,-11.1015625,1.38671875,1.0
620309,,,,,,,,1.62890625,-1.61328125,-0.45703125,-0.16796875,0.083984375,-0.041015625,1.57421875,-11.72265625,1.30859375,1.0
620310,36.01326483333333,129.31925199999998,58.7768780528897,95.96144478658404,1.2000000000000002,67.0,,0.6328125,-4.33984375,-0.43359375,-0.201171875,0.046875,-0.048828125,0.6953125,-13.82421875,1.38671875,1.0
620311,,,,,,,,-0.296875,-5.09765625,0.35546875,-0.2890625,0.08984375,-0.0546875,-0.2265625,-14.5859375,2.15234375,1.0
620312,,,,,,,,-1.51953125,-4.9765625,1.95703125,-0.4140625,0.2109375,-0.041015625,-1.44921875,-14.48046875,3.72265625,1.0
620313,,,,,,,,-1.7890625,-4.31640625,2.640625,-0.51953125,0.3828125,-0.017578125,-1.71875,-13.82421875,4.375,1.0
620314,,,,,,,,-1.55078125,-4.5390625,2.42578125,-0.544921875,0.537109375,-0.01953125,-1.48828125,-14.05859375,4.10546875,1.0
620315,,,,,,,,-2.2734375,-2.265625,3.00390625,-0.53125,0.5625,-0.041015625,-2.21875,-11.796875,4.60546875,1.0
620316,,,,,,,,-1.8828125,-1.94140625,2.86328125,-0.52734375,0.4765625,-0.0703125,-1.8359375,-11.48828125,4.41015625,1.0
620317,,,,,,,,-0.1171875,-2.43359375,2.94921875,-0.517578125,0.412109375,-0.052734375,-0.0703125,-11.98828125,4.44921875,1.0
620318,,,,,,,,0.9140625,-2.890625,2.73046875,-0.41796875,0.384765625,-0.01953125,0.9609375,-12.44921875,4.18359375,1.0
620319,,,,,,,,1.26953125,-2.53125,2.27734375,-0.078125,0.453125,-0.044921875,1.30859375,-12.10546875,3.68359375,1.0
620320,36.01326533333334,129.3192535,58.912100561144065,96.01692531627509,1.3,69.0,,0.81640625,-1.91796875,2.1953125,-0.201171875,0.046875,-0.048828125,0.6953125,-13.82421875,1.38671875,1.0
620321,,,,,,,,-0.2578125,-1.3828125,1.671875,0.2578125,0.552734375,-0.0546875,-0.2265625,-10.95703125,3.109375,1.0
620322,,,,,,,,-0.5625,-1.18359375,1.6171875,0.232421875,0.580078125,-0.072265625,-0.53125,-10.76171875,3.0703125,1.0
620323,,,,,,,,-0.83203125,-0.69140625,1.44921875,0.203125,0.720703125,-0.09375,-0.80078125,-10.26171875,2.91796875,1.0
620324,,,,,,,,-0.6328125,-0.30859375,1.234375,0.189453125,0.783203125,-0.109375,-0.609375,-9.87890625,2.7265625,1.0
620325,,,,,,,,-0.4765625,-0.078125,1.140625,0.23828125,0.869140625,-0.185546875,-0.453125,-9.6484375,2.6484375,1.0
620326,,,,,,,,-0.44921875,0.21875,0.75,0.35546875,0.845703125,-0.255859375,-0.41796875,-9.34375,2.3046875,1.0
620327,,,,,,,,-0.5703125,0.48828125,0.46484375,0.353515625,0.8125,-0.28125,-0.53125,-9.0703125,2.03515625,1.0
620328,,,,,,,,-0.48046875,1.0625,0.03515625,0.23828125,0.77734375,-0.32421875,-0.41796875,-8.50390625,1.65234375,1.0
620329,,,,,,,,-0.33203125,1.328125,-0.31640625,0.189453125,0.775390625,-0.32421875,-0.26171875,-8.23828125,1.30859375,1.0
620330,36.01326566666667,129.3192546666667,59.01727366456177,96.05391243811839,1.2000000000000002,68.0,,-0.171875,1.8984375,-0.69140625,0.1328125,0.794921875,-0.32421875,-0.0703125,-7.66015625,0.96484375,1.0
620331,,,,,,,,-0.11328125,2.125,-0.6328125,0.150390625,0.83203125,-0.318359375,0.00390625,-7.43359375,1.0390625,1.0
620332,,,,,,,,-0.12890625,2.5546875,-0.72265625,0.14453125,0.84375,-0.30859375,0.00390625,-7.01171875,0.96484375,1.0
620333,,,,,,,,-0.25,2.74609375,-0.73046875,0.126953125,0.8515625,-0.302734375,-0.109375,-6.81640625,0.96484375,1.0
620334,,,,,,,,-0.48828125,2.9765625,-0.73828125,0.0703125,0.857421875,-0.3046875,-0.33984375,-6.5859375,0.96484375,1.0
620335,,,,,,,,-0.734375,3.0078125,-0.86328125,0.0078125,0.861328125,-0.302734375,-0.5703125,-6.55078125,0.84765625,1.0
620336,,,,,,,,-0.98046875,2.9296875,-0.86328125,0.001953125,0.884765625,-0.322265625,-0.80078125,-6.62890625,0.84765625,1.0
620337,,,,,,,,-1.234375,2.69921875,-0.87109375,0.0234375,0.8828125,-0.36328125,-1.03125,-6.85546875,0.84765625,1.0
620338,,,,,,,,-1.38671875,2.46484375,-0.87109375,0.0390625,0.880859375,-0.376953125,-1.18359375,-7.078125,0.84765625,1.0
620339,,,,,,,,-1.77734375,2.08203125,-0.84765625,0.09375,0.833984375,-0.4140625,-1.52734375,-7.4609375,0.88671875,1.0
620340,36.01326616666667,129.31925566666666,59.107421872395065,96.1093926675716,1.1,69.0,,-1.9296875,1.8515625,-0.75390625,0.126953125,0.8515625,-0.41796875,-1.640625,-7.6953125,1.00390625,1.0
620341,,,,,,,,-1.91796875,1.8828125,-0.6953125,0.12890625,0.849609375,-0.396484375,-1.60546875,-7.65625,1.078125,1.0
620342,,,,,,,,-1.92578125,1.8828125,-0.6171875,0.130859375,0.849609375,-0.37890625,-1.60546875,-7.65625,1.15625,1.0
620343,,,,,,,,-1.83203125,1.91015625,-0.6875,0.115234375,0.8359375,-0.3203125,-1.48828125,-7.62109375,1.1171875,1.0
620344,,,,,,,,-1.7265625,1.875,-0.80859375,0.11328125,0.80078125,-0.26953125,-1.375,-7.65625,1.00390625,1.0
620345,,,,,,,,-1.65625,1.7890625,-0.94140625,0.13671875,0.76171875,-0.236328125,-1.296875,-7.73828125,0.88671875,1.0
620346,,,,,,,,-1.54296875,1.58984375,-1.0234375,0.15234375,0.736328125,-0.2109375,-1.18359375,-7.92578125,0.8125,1.0
620347,,,,,,,,-1.3203125,1.08203125,-1.01953125,0.197265625,0.669921875,-0.171875,-0.953125,-8.421875,0.84765625,1.0
620348,,,,,,,,-1.3203125,0.73828125,-0.99609375,0.197265625,0.615234375,-0.150390625,-0.953125,-8.765625,0.88671875,1.0
620349,,,,,,,,-1.3984375,0.625,-0.88671875,0.19140625,0.59375,-0.142578125,-1.03125,-8.88671875,1.00390625,1.0
620350,36.01326616666667,129.3192571666667,59.24264475283229,96.10939357846311,1.3,76.0,,-1.54296875,0.1875,-0.875,0.126953125,0.8515625,-0.41796875,-1.18359375,-9.30859375,1.0390625,1.0
620351,,,,,,,,-1.78125,-0.12109375,-0.93359375,0.091796875,0.4609375,-0.115234375,-1.4140625,-9.609375,1.00390625,1.0
620352,,,,,,,,-1.81640625,-0.1953125,-0.8984375,0.06640625,0.443359375,-0.111328125,-1.44921875,-9.69140625,1.0390625,1.0
620353,,,,,,,,-1.96484375,-0.47265625,-0.8671875,0.025390625,0.419921875,-0.10546875,-1.60546875,-9.953125,1.078125,1.0
620354,,,,,,,,-1.96484375,-0.78515625,-0.828125,0.0234375,0.373046875,-0.1171875,-1.60546875,-10.2578125,1.1171875,1.0
620355,,,,,,,,-2.046875,-0.94140625,-0.75,0.025390625,0.30078125,-0.125,-1.6796875,-10.41796875,1.1953125,1.0
620356,,,,,,,,-2.0859375,-0.9765625,-0.7890625,0.0234375,0.2734375,-0.140625,-1.71875,-10.45703125,1.15625,1.0
620357,,,,,,,,-2.0859375,-1.21484375,-1.02734375,0.01953125,0.19140625,-0.1484375,-1.71875,-10.6796875,0.92578125,1.0
620358,,,,,,,,-1.7578125,-1.3671875,-1.33203125,-0.009765625,0.115234375,-0.154296875,-1.375,-10.8359375,0.62109375,1.0
620359,,,,,,,,-1.3359375,-1.3671875,-1.48046875,-0.033203125,0.083984375,-0.154296875,-0.953125,-10.8359375,0.46484375,1.0
620360,36.013266333333334,129.31925833333335,59.34781797643508,96.12788749543444,1.2000000000000002,81.0,,-0.69921875,-1.359375,-1.6640625,0.126953125,0.8515625,-0.41796875,-0.30078125,-10.83984375,0.2734375,1.0
620361,,,,,,,,-0.35546875,-1.17578125,-1.73046875,-0.115234375,-0.037109375,-0.111328125,0.04296875,-10.640625,0.19921875,1.0
620362,,,,,,,,-0.29296875,-0.78515625,-1.5625,-0.1796875,-0.068359375,-0.087890625,0.12109375,-10.2578125,0.3515625,1.0
620363,,,,,,,,-0.75390625,-0.01953125,-1.26953125,-0.259765625,-0.08984375,-0.0625,-0.33984375,-9.49609375,0.62109375,1.0
620364,,,,,,,,-1.64453125,0.29296875,-1.01171875,-0.333984375,-0.076171875,-0.046875,-1.22265625,-9.1875,0.84765625,1.0
620365,,,,,,,,-1.71875,-0.88671875,-1.59765625,-0.439453125,-0.013671875,-0.05078125,-1.296875,-10.375,0.19921875,1.0
620366,,,,,,,,-1.52734375,-1.23046875,-1.65234375,-0.462890625,0.021484375,-0.0546875,-1.10546875,-10.72265625,0.12109375,1.0
620367,,,,,,,,-0.72265625,-1.21484375,-0.6328125,-0.474609375,0.080078125,-0.083984375,-0.30078125,-10.72265625,1.078125,1.0
620368,,,,,,,,0.2734375,-1.3203125,0.265625,-0.5,0.044921875,-0.08984375,0.6953125,-10.8359375,1.921875,1.0
620369,,,,,,,,0.73046875,-1.66015625,0.6328125,-0.54296875,0.001953125,-0.0859375,1.15234375,-11.1796875,2.265625,1.0
620370,36.013266,129.31925950000002,59.45299157280747,96.0909017916452,1.2000000000000002,92.0,,1.8828125,-4.30078125,2.15234375,-0.724609375,-0.11328125,-0.060546875,2.3046875,-13.8203125,3.72265625,1.0
620371,,,,,,,,3.51953125,-8.1875,3.50390625,-0.95703125,-0.20703125,-0.009765625,3.94921875,-17.734375,4.98828125,1.0
620372,,,,,,,,3.75,-8.21484375,3.76953125,-0.9765625,-0.20703125,0.0078125,4.1796875,-17.76953125,5.21484375,1.0
620373,,,,,,,,3.90234375,-5.98046875,4.09375,-0.763671875,-0.154296875,0.072265625,4.33203125,-15.546875,5.40625,1.0
620374,,,,,,,,2.921875,-2.79296875,3.0234375,-0.775390625,-0.08984375,0.09765625,3.3359375,-12.3671875,4.296875,1.0
620375,,,,,,,,2.2421875,-1.13671875,2.765625,-0.88671875,0.037109375,0.1015625,2.6484375,-10.71875,3.953125,1.0
620376,,,,,,,,-0.15625,-1.41796875,4.18359375,-0.673828125,0.283203125,0.087890625,0.234375,-11.0234375,5.25390625,1.0
620377,,,,,,,,-0.609375,-1.14453125,2.921875,-0.169921875,0.421875,0.046875,-0.2265625,-10.76171875,3.953125,1.0
620378,,,,,,,,-0.62890625,-0.1484375,1.48828125,0.49609375,0.5625,-0.046875,-0.26171875,-9.765625,2.53515625,1.0
620379,,,,,,,,-0.62890625,0.16015625,1.03515625,0.7109375,0.669921875,-0.140625,-0.26171875,-9.453125,2.11328125,1.0
620380,36.01326566666667,129.319261,59.588214703050014,96.05391629216493,1.4000000000000001,101.0,,-0.75390625,0.53515625,0.421875,-0.724609375,-0.11328125,-0.060546875,2.3046875,-13.8203125,3.72265625,1.0
620381,,,,,,,,-0.5390625,0.02734375,0.78125,0.521484375,0.396484375,-0.21875,-0.1484375,-9.5703125,2.0,1.0
620382,,,,,,,,-0.44140625,-0.35546875,1.1171875,0.509765625,0.2109375,-0.158203125,-0.03515625,-9.953125,2.3828125,1.0
620383,,,,,,,,-0.40234375,-0.515625,1.20703125,0.5390625,0.181640625,-0.138671875,0.00390625,-10.11328125,2.49609375,1.0
620384,,,,,,,,-0.5625,-0.33203125,0.8515625,0.396484375,0.298828125,-0.03125,-0.1484375,-9.91796875,2.2265625,1.0
620385,,,,,,,,-0.859375,0.48046875,0.37109375,0.1171875,0.369140625,0.068359375,-0.453125,-9.11328125,1.76953125,1.0
620386,,,,,,,,-0.80859375,1.015625,0.21875,-0.123046875,0.38671875,0.185546875,-0.41796875,-8.58203125,1.6171875,1.0
620387,,,,,,,,-0.5859375,1.484375,0.1171875,-0.201171875,0.423828125,0.28125,-0.2265625,-8.12109375,1.5,1.0
620388,,,,,,,,-0.390625,1.828125,-0.06640625,-0.154296875,0.47265625,0.302734375,-0.0703125,-7.7734375,1.30859375,1.0
620389,,,,,,,,-0.16015625,2.14453125,-0.328125,-0.060546875,0.525390625,0.287109375,0.12109375,-7.46484375,1.0390625,1.0
620390,36.01326566666667,129.31926216666668,59.693388049263575,96.05391700595018,1.2000000000000002,99.0,,-0.03125,2.2890625,-0.6640625,-0.01953125,0.484375,0.220703125,0.1953125,-7.31640625,0.6953125,1.0
620391,,,,,,,,0.03125,2.296875,-0.65625,-0.048828125,0.3828125,0.171875,0.234375,-7.3125,0.6953125,1.0
620392,,,,,,,,0.27734375,2.2578125,-0.6953125,-0.060546875,0.345703125,0.15234375,0.46484375,-7.3515625,0.65625,1.0
620393,,,,,,,,0.53125,2.1796875,-0.76953125,-0.068359375,0.36328125,0.11328125,0.6953125,-7.4296875,0.58203125,1.0
620394,,,,,,,,0.73828125,2.265625,-0.72265625,-0.05859375,0.458984375,0.095703125,0.88671875,-7.35546875,0.62109375,1.0
620395,,,,,,,,0.64453125,2.37890625,-0.79296875,-0.025390625,0.56640625,0.078125,0.76953125,-7.23828125,0.54296875,1.0
620396,,,,,,,,0.609375,2.37890625,-0.79296875,0.001953125,0.611328125,0.0625,0.734375,-7.23828125,0.54296875,1.0
620397,,,,,,,,0.43359375,2.45703125,-0.87890625,0.060546875,0.671875,0.029296875,0.54296875,-7.15625,0.46484375,1.0
620398,,,,,,,,0.41015625,2.44921875,-0.82421875,0.15625,0.751953125,-0.03515625,0.50390625,-7.15625,0.54296875,1.0
620399,,,,,,,,0.2265625,2.37109375,-0.79296875,0.181640625,0.7734375,-0.060546875,0.3125,-7.234375,0.58203125,1.0
620400,36.01326533333334,129.31926333333334,59.798561650521556,96.01693130577902,1.1,101.0,0.0,0.234375,2.05859375,-0.76953125,-0.01953125,0.484375,0.220703125,0.3125,-7.5390625,0.62109375,1.0
620401,,,,,,,,0.03515625,1.98046875,-0.83203125,0.20703125,0.791015625,-0.189453125,0.12109375,-7.6171875,0.58203125,1.0
620402,,,,,,,,0.02734375,1.859375,-0.92578125,0.1953125,0.775390625,-0.255859375,0.12109375,-7.734375,0.50390625,1.0
620403,,,,,,,,-0.11328125,1.7421875,-1.0625,0.181640625,0.75,-0.35546875,0.00390625,-7.8515625,0.390625,1.0
620404,,,,,,,,-0.09765625,1.66015625,-1.1171875,0.177734375,0.7578125,-0.376953125,0.04296875,-7.92578125,0.3515625,1.0
620405,,,,,,,,-0.04296875,1.5078125,-1.1796875,0.18359375,0.740234375,-0.41015625,0.12109375,-8.08203125,0.3125,1.0
620406,,,,,,,,0.015625,1.3828125,-1.1484375,0.185546875,0.72265625,-0.412109375,0.1953125,-8.1953125,0.3515625,1.0
620407,,,,,,,,0.0703125,1.109375,-1.203125,0.20703125,0.720703125,-0.41015625,0.2734375,-8.4609375,0.3125,1.0
620408,,,,,,,,0.19140625,0.7265625,-1.1484375,0.22265625,0.716796875,-0.392578125,0.42578125,-8.84765625,0.390625,1.0
620409,,,,,,,,0.12890625,0.33203125,-1.2109375,0.220703125,0.701171875,-0.37890625,0.38671875,-9.23046875,0.3515625,1.0
620410,36.013265000000004,129.31926466666667,59.918760016110525,95.97994570848554,1.2000000000000002,106.0,,-0.125,0.1796875,-1.34765625,0.1953125,0.689453125,-0.3515625,0.15625,-9.3828125,0.23828125,1.0
620411,,,,,,,,-0.1640625,0.08203125,-1.3046875,0.12109375,0.693359375,-0.298828125,0.15625,-9.45703125,0.3125,1.0
620412,,,,,,,,0.00390625,-0.6875,-1.04296875,0.072265625,0.736328125,-0.248046875,0.34765625,-10.23046875,0.58203125,1.0
620413,,,,,,,,-0.078125,-1.18359375,-0.59375,0.03515625,0.6796875,-0.201171875,0.2734375,-10.71875,1.0390625,1.0
620414,,,,,,,,-0.23046875,-1.23046875,-0.37109375,0.0390625,0.6640625,-0.193359375,0.12109375,-10.76171875,1.26953125,1.0
620415,,,,,,,,-0.125,-0.88671875,-0.33984375,0.05859375,0.66015625,-0.181640625,0.234375,-10.4140625,1.30859375,1.0
620416,,,,,,,,0.01953125,-0.6953125,-0.4921875,0.04296875,0.658203125,-0.169921875,0.38671875,-10.2265625,1.15625,1.0
620417,,,,,,,,0.48828125,-0.203125,-0.64453125,-0.013671875,0.662109375,-0.162109375,0.84765625,-9.73046875,1.00390625,1.0
620418,,,,,,,,0.6328125,-0.01171875,-0.64453125,-0.0546875,0.65625,-0.154296875,1.0,-9.53515625,1.00390625,1.0
620419,,,,,,,,0.94140625,0.33984375,-0.70703125,-0.14453125,0.62109375,-0.12890625,1.30859375,-9.19140625,0.92578125,1.0
620420,36.01326466666667,129.319266,60.038958383339434,95.94296011398686,1.3,107.0,,1.20703125,0.71484375,-0.69921875,0.1953125,0.689453125,-0.3515625,0.15625,-9.3828125,0.23828125,1.0
620421,,,,,,,,1.5546875,0.83984375,-0.796875,-0.130859375,0.46875,-0.1015625,1.921875,-8.69140625,0.8125,1.0
620422,,,,,,,,1.859375,0.4921875,-0.98046875,-0.119140625,0.416015625,-0.087890625,2.41796875,-9.765625,0.2734375,1.0
620423,,,,,,,,1.9296875,-1.11328125,-1.39453125,-0.12109375,0.478515625,-0.076171875,2.3046875,-10.640625,0.19921875,1.0
620424,,,,,,,,1.5234375,-2.9921875,-1.140625,-0.19921875,0.626953125,-0.04296875,1.8828125,-12.52734375,0.4296875,1.0
620425,,,,,,,,-0.546875,-6.546875,2.66015625,-0.439453125,0.71484375,0.01171875,-0.1875,-16.08984375,4.18359375,1.0
620426,,,,,,,,-3.55859375,-9.6796875,4.97265625,-0.732421875,0.744140625,0.048828125,-3.21484375,-19.23046875,6.44140625,1.0
620427,,,,,,,,-4.34375,-8.0234375,7.265625,-0.904296875,0.919921875,0.021484375,-4.015625,-17.578125,8.6640625,1.0
620428,,,,,,,,-3.83203125,-5.2890625,6.4765625,-0.91015625,1.103515625,-0.0390625,-3.51953125,-14.86328125,7.78125,1.0
620429,,,,,,,,-0.03125,-3.05078125,3.64453125,-0.896484375,1.38671875,-0.12109375,0.2734375,-12.6328125,4.87109375,1.0
620430,36.01326433333334,129.3192675,60.17418151493362,95.9059746244955,1.3,106.0,,1.203125,-3.19140625,3.5390625,-0.923828125,1.59375,-0.130859375,1.5,-12.79296875,4.640625,1.0
620431,,,,,,,,0.94921875,-3.2421875,3.09765625,-0.298828125,0.953125,-0.115234375,1.23046875,-12.8671875,4.10546875,1.0
620432,,,,,,,,0.7890625,-2.859375,3.03515625,0.6328125,0.677734375,-0.103515625,1.078125,-12.48828125,4.06640625,1.0
620433,,,,,,,,0.22265625,-1.21875,1.6171875,0.826171875,1.099609375,-0.029296875,0.50390625,-10.8359375,2.765625,1.0
620434,,,,,,,,-0.16015625,-0.609375,1.4921875,0.720703125,1.34765625,-0.05859375,0.12109375,-10.2265625,2.6875,1.0
620435,,,,,,,,-0.375,-0.5,1.62109375,0.51171875,1.505859375,-0.044921875,-0.109375,-10.11328125,2.87890625,1.0
620436,,,,,,,,-0.3671875,-0.625,1.375,0.548828125,1.388671875,-0.103515625,-0.109375,-10.2265625,2.6875,1.0
620437,,,,,,,,-0.328125,-0.66015625,1.078125,0.607421875,1.322265625,-0.154296875,-0.0703125,-10.26171875,2.421875,1.0
620438,,,,,,,,-0.16796875,0.10546875,0.203125,0.623046875,1.1875,-0.22265625,0.08203125,-9.49609375,1.6171875,1.0
620439,,,,,,,,-0.0546875,0.40234375,-0.01171875,0.51953125,1.126953125,-0.248046875,0.1953125,-9.1875,1.42578125,1.0
620440,36.01326383333333,129.31926866666666,60.279355246895946,95.85049572144203,1.3,108.0,,0.08984375,1.390625,-0.47265625,-0.923828125,1.59375,-0.130859375,0.34765625,-8.1953125,1.00390625,1.0
620441,,,,,,,,0.15234375,2.08984375,-0.84375,0.1015625,1.09375,-0.3125,0.42578125,-7.5,0.65625,1.0
620442,,,,,,,,0.17578125,2.47265625,-0.88671875,0.12890625,1.076171875,-0.326171875,0.46484375,-7.1171875,0.62109375,1.0
620443,,,,,,,,0.12890625,2.703125,-0.67578125,0.1640625,1.0703125,-0.337890625,0.42578125,-6.89453125,0.84765625,1.0
620444,,,,,,,,-0.15625,2.88671875,-0.57421875,0.208984375,1.087890625,-0.337890625,0.15625,-6.6953125,0.96484375,1.0
620445,,,,,,,,-0.35546875,3.0390625,-0.56640625,0.1875,1.103515625,-0.34765625,-0.03515625,-6.55078125,1.00390625,1.0
620446,,,,,,,,-0.53125,3.30078125,-0.71484375,0.09375,1.181640625,-0.33203125,-0.1875,-6.27734375,0.88671875,1.0
620447,,,,,,,,-0.84375,3.4609375,-0.5703125,0.01953125,1.236328125,-0.32421875,-0.4921875,-6.125,1.0390625,1.0
620448,,,,,,,,-1.08203125,3.53515625,-0.53125,0.01171875,1.25,-0.326171875,-0.72265625,-6.046875,1.078125,1.0
620449,,,,,,,,-1.14453125,3.5,-0.5390625,0.080078125,1.21484375,-0.33984375,-0.76171875,-6.08984375,1.078125,1.0
620450,36.013263333333335,129.31926983333332,60.38452897977771,95.79501682040035,1.2000000000000002,110.0,,-1.49609375,3.52734375,-0.64453125,0.16015625,1.123046875,-0.349609375,-1.10546875,-6.05078125,1.00390625,1.0
620451,,,,,,,,-1.8359375,3.359375,-0.546875,0.28125,1.08203125,-0.34375,-1.4140625,-6.203125,1.15625,1.0
620452,,,,,,,,-1.99609375,3.046875,-0.37109375,0.306640625,1.068359375,-0.3359375,-1.56640625,-6.5078125,1.34765625,1.0
620453,,,,,,,,-2.125,2.8828125,-0.46484375,0.3515625,1.0625,-0.306640625,-1.6796875,-6.66796875,1.30859375,1.0
620454,,,,,,,,-2.05078125,2.65625,-0.52734375,0.33984375,1.060546875,-0.283203125,-1.60546875,-6.890625,1.26953125,1.0
620455,,,,,,,,-2.01953125,2.33984375,-0.59375,0.29296875,1.0625,-0.23828125,-1.56640625,-7.19921875,1.234375,1.0
620456,,,,,,,,-1.98046875,2.06640625,-0.53515625,0.27734375,1.05078125,-0.2109375,-1.52734375,-7.46484375,1.30859375,1.0
620457,,,,,,,,-1.8671875,1.94921875,-0.52734375,0.2265625,1.015625,-0.154296875,-1.4140625,-7.578125,1.34765625,1.0
620458,,,,,,,,-1.8203125,1.7890625,-0.53515625,0.208984375,0.9765625,-0.1328125,-1.375,-7.734375,1.34765625,1.0
620459,,,,,,,,-1.65234375,1.46484375,-0.734375,0.154296875,0.849609375,-0.0625,-1.22265625,-8.0390625,1.1953125,1.0
620460,36.013262833333336,129.31927083333332,60.47467794973862,95.7395378175487,1.2000000000000002,113.0,,-1.56640625,1.08203125,-0.8125,0.16015625,1.123046875,-0.349609375,-1.14453125,-8.42578125,1.1171875,1.0
620461,,,,,,,,-1.55078125,0.5078125,-0.7421875,0.083984375,0.720703125,-0.021484375,-1.14453125,-9.00390625,1.1953125,1.0
620462,,,,,,,,-1.55078125,0.35546875,-0.7109375,0.064453125,0.677734375,-0.017578125,-1.14453125,-9.15234375,1.234375,1.0
620463,,,,,,,,-1.3671875,-0.1484375,-0.57421875,0.04296875,0.5625,-0.001953125,-0.9921875,-9.6484375,1.38671875,1.0
620464,,,,,,,,-1.2890625,-0.2734375,-0.53515625,0.0234375,0.5234375,0.005859375,-0.9140625,-9.76953125,1.42578125,1.0
620465,,,,,,,,-1.234375,-0.38671875,-0.61328125,-0.025390625,0.47265625,0.017578125,-0.875,-9.875,1.34765625,1.0
620466,,,,,,,,-1.21875,-0.38671875,-0.69140625,-0.05078125,0.44921875,0.03125,-0.875,-9.87890625,1.26953125,1.0
620467,,,,,,,,-1.2109375,-0.2734375,-0.828125,-0.130859375,0.3671875,0.03515625,-0.875,-9.76953125,1.1171875,1.0
620468,,,,,,,,-1.12890625,-0.2265625,-0.90625,-0.150390625,0.337890625,0.03515625,-0.80078125,-9.7265625,1.0390625,1.0
620469,,,,,,,,-0.99609375,-0.03515625,-1.265625,-0.1640625,0.287109375,0.03125,-0.68359375,-9.53515625,0.65625,1.0
620470,36.013262000000005,129.31927166666668,60.549802413819904,95.64707229653071,1.1,122.0,,-0.98828125,-0.08203125,-1.265625,0.16015625,1.123046875,-0.349609375,-1.14453125,-8.42578125,1.1171875,1.0
620471,,,,,,,,-0.8671875,-0.15625,-1.32421875,-0.1328125,0.259765625,0.01171875,-0.5703125,-9.65234375,0.58203125,1.0
620472,,,,,,,,-0.46875,-0.2265625,-1.546875,-0.119140625,0.2421875,0.0078125,-0.1875,-9.7265625,0.3515625,1.0
620473,,,,,,,,-0.390625,-0.1484375,-1.6171875,-0.130859375,0.24609375,0.01171875,-0.109375,-9.65234375,0.2734375,1.0
620474,,,,,,,,-0.23046875,-0.1875,-1.71484375,-0.158203125,0.265625,0.017578125,0.04296875,-9.69140625,0.16015625,1.0
620475,,,,,,,,-0.17578125,-0.1875,-1.39453125,-0.23046875,0.302734375,0.03515625,0.08203125,-9.69140625,0.46484375,1.0
620476,,,,,,,,-0.3515625,0.05078125,-1.0390625,-0.388671875,0.3671875,0.064453125,-0.109375,-9.45703125,0.7734375,1.0
620477,,,,,,,,-1.1640625,0.02734375,-0.40234375,-0.541015625,0.44921875,0.09375,-0.953125,-9.4921875,1.34765625,1.0
620478,,,,,,,,-1.30078125,-0.9609375,-0.5,-0.642578125,0.494140625,0.087890625,-1.10546875,-10.49609375,1.1953125,1.0
620479,,,,,,,,-0.45703125,-1.828125,0.2890625,-0.701171875,0.5078125,0.046875,-0.30078125,-11.37890625,1.84375,1.0
620480,36.013261166666666,129.31927249999998,60.62492687203768,95.55460677579072,1.2000000000000002,129.0,,0.5546875,-3.34375,1.38671875,-0.67578125,0.5,0.03515625,0.6953125,-12.90625,2.87890625,1.0
620481,,,,,,,,2.1328125,-6.41015625,2.26171875,-0.705078125,0.4453125,0.041015625,2.265625,-15.96875,3.68359375,1.0
620482,,,,,,,,3.2265625,-8.34765625,3.17578125,-0.845703125,0.39453125,0.06640625,3.3359375,-17.921875,4.52734375,1.0
620483,,,,,,,,3.6953125,-8.8359375,4.2578125,-0.9140625,0.369140625,0.087890625,3.796875,-18.42578125,5.5625,1.0
620484,,,,,,,,3.56640625,-6.37109375,5.1953125,-0.95703125,0.34765625,0.166015625,3.64453125,-15.97265625,6.3671875,1.0
620485,,,,,,,,0.37109375,-2.76171875,5.140625,-1.001953125,0.40625,0.197265625,0.42578125,-12.37109375,6.2109375,1.0
620486,,,,,,,,-1.4375,-2.0859375,4.171875,-1.10546875,0.4921875,0.181640625,-1.4140625,-11.72265625,5.140625,1.0
620487,,,,,,,,-1.765625,-1.6953125,3.109375,-0.9296875,0.634765625,0.15625,-1.7578125,-11.3359375,3.9921875,1.0
620488,,,,,,,,-1.60546875,-1.41796875,2.6875,-0.6953125,0.71875,0.134765625,-1.60546875,-11.06640625,3.53125,1.0
620489,,,,,,,,-0.66015625,-0.921875,1.484375,0.44921875,0.90234375,-0.03125,-0.68359375,-10.57421875,2.3046875,1.0
620490,36.01326033333333,129.31927316666668,60.68502657431311,95.46214115155865,1.1,134.0,,-0.34765625,-0.65234375,1.22265625,0.88671875,0.8984375,-0.123046875,-0.37890625,-10.30078125,2.11328125,1.0
620491,,,,,,,,-0.31640625,-0.39453125,0.9453125,0.890625,0.697265625,-0.11328125,-0.33984375,-10.03515625,1.921875,1.0
620492,,,,,,,,-0.35546875,-0.32421875,0.68359375,0.724609375,0.609375,-0.05078125,-0.37890625,-9.95703125,1.73046875,1.0
620493,,,,,,,,-0.35546875,-0.32421875,0.68359375,0.63671875,0.599609375,-0.009765625,-0.37890625,-9.953125,1.76953125,1.0
620494,,,,,,,,-0.53125,-0.0625,0.4296875,0.453125,0.640625,0.04296875,-0.5703125,-9.69140625,1.578125,1.0
620495,,,,,,,,-0.5078125,0.2421875,0.54296875,0.150390625,0.7734375,0.12109375,-0.5703125,-9.3828125,1.73046875,1.0
620496,,,,,,,,-0.33203125,0.55078125,0.57421875,-0.05859375,0.791015625,0.216796875,-0.41796875,-9.07421875,1.76953125,1.0
620497,,,,,,,,-0.28515625,0.94140625,0.3515625,-0.232421875,0.8046875,0.265625,-0.41796875,-8.69140625,1.5390625,1.0
620498,,,,,,,,-0.26953125,0.98046875,0.2890625,-0.27734375,0.810546875,0.26953125,-0.41796875,-8.6484375,1.4609375,1.0
620499,,,,,,,,-0.3125,1.33203125,-0.015625,-0.353515625,0.837890625,0.27734375,-0.4921875,-8.30859375,1.1171875,1.0
620500,36.013259500000004,129.3192738333333,60.74512627115049,95.36967552930582,1.1,135.0,0.0,-0.3125,1.796875,-0.22265625,-0.302734375,0.849609375,0.228515625,-0.5703125,-7.8515625,0.84765625,1.0
620501,,,,,,,,-0.08203125,2.34375,-0.2265625,-0.17578125,0.8515625,0.162109375,-0.37890625,-7.3125,0.8125,1.0
620502,,,,,,,,0.1640625,2.45703125,-0.2109375,-0.146484375,0.859375,0.15625,-0.1484375,-7.19921875,0.8125,1.0
620503,,,,,,,,0.37890625,2.49609375,-0.1953125,-0.123046875,0.91015625,0.138671875,0.04296875,-7.15625,0.8125,1.0
620504,,,,,,,,0.515625,2.53515625,-0.1875,-0.107421875,0.9453125,0.138671875,0.15625,-7.12109375,0.8125,1.0
620505,,,,,,,,0.76171875,2.54296875,-0.2265625,-0.0859375,1.03515625,0.14453125,0.38671875,-7.12109375,0.7734375,1.0
620506,,,,,,,,0.95703125,2.50390625,-0.2890625,-0.029296875,1.17578125,0.134765625,0.54296875,-7.15625,0.6953125,1.0
620507,,,,,,,,0.93359375,2.50390625,-0.3203125,0.0078125,1.21875,0.12890625,0.50390625,-7.16015625,0.65625,1.0
620508,,,,,,,,0.97265625,2.11328125,-0.40234375,0.08203125,1.3125,0.0859375,0.50390625,-7.5390625,0.58203125,1.0
620509,,,,,,,,0.90234375,1.9609375,-0.40234375,0.1171875,1.34375,0.0703125,0.42578125,-7.6953125,0.58203125,1.0
620510,36.013259166666664,129.31927433333334,60.790200826135475,95.33268942481519,0.8,132.0,,0.50390625,1.72265625,-0.3359375,0.16796875,1.3828125,0.02734375,0.00390625,-7.921875,0.65625,1.0
620511,,,,,,,,-0.015625,1.4921875,-0.45703125,0.189453125,1.404296875,-0.03125,-0.53125,-8.16015625,0.54296875,1.0
620512,,,,,,,,-0.20703125,1.4921875,-0.50390625,0.1796875,1.388671875,-0.0546875,-0.72265625,-8.15625,0.50390625,1.0
620513,,,,,,,,-0.58203125,1.453125,-0.47265625,0.103515625,1.330078125,-0.134765625,-1.10546875,-8.19921875,0.54296875,1.0
620514,,,,,,,,-0.66015625,1.4921875,-0.47265625,0.076171875,1.3125,-0.16015625,-1.18359375,-8.16015625,0.54296875,1.0
620515,,,,,,,,-0.69921875,1.63671875,-0.55078125,0.060546875,1.296875,-0.201171875,-1.22265625,-8.0,0.46484375,1.0
620516,,,,,,,,-0.66015625,1.59765625,-0.55859375,0.064453125,1.287109375,-0.21484375,-1.18359375,-8.04296875,0.46484375,1.0
620517,,,,,,,,-0.66796875,1.5234375,-0.7109375,0.080078125,1.2578125,-0.244140625,-1.18359375,-8.12109375,0.3125,1.0
620518,,,,,,,,-0.72265625,1.4453125,-0.75,0.09765625,1.20703125,-0.255859375,-1.22265625,-8.1953125,0.2734375,1.0
620519,,,,,,,,-0.66015625,1.0625,-0.6796875,0.12890625,1.072265625,-0.265625,-1.14453125,-8.58203125,0.3515625,1.0
620520,36.0132585,129.3192748333333,60.83527563174237,95.25871690557555,0.8,133.0,,-0.66796875,0.6328125,-0.609375,0.1328125,1.044921875,-0.267578125,-1.14453125,-9.0,0.4296875,1.0
620521,,,,,,,,-0.69140625,0.2109375,-0.55078125,0.115234375,0.953125,-0.23046875,-1.14453125,-9.421875,0.50390625,1.0
620522,,,,,,,,-0.77734375,0.17578125,-0.43359375,0.08984375,0.908203125,-0.1875,-1.22265625,-9.45703125,0.62109375,1.0
620523,,,,,,,,-0.8203125,0.25,-0.328125,0.080078125,0.8828125,-0.166015625,-1.2578125,-9.3828125,0.734375,1.0
620524,,,,,,,,-0.66015625,0.47265625,-0.2421875,0.060546875,0.8671875,-0.126953125,-1.10546875,-9.15234375,0.8125,1.0
620525,,,,,,,,-0.40234375,0.28125,-0.25,0.037109375,0.845703125,-0.087890625,-0.83984375,-9.34375,0.8125,1.0
620526,,,,,,,,-0.23828125,-0.21484375,-0.2421875,0.017578125,0.826171875,-0.037109375,-0.68359375,-9.8359375,0.8125,1.0
620527,,,,,,,,-0.26953125,-0.484375,-0.20703125,0.041015625,0.771484375,-0.005859375,-0.72265625,-10.11328125,0.84765625,1.0
620528,,,,,,,,-0.37890625,-0.484375,-0.2421875,0.052734375,0.69921875,0.00390625,-0.83984375,-10.11328125,0.8125,1.0
620529,,,,,,,,-0.40625,-0.0234375,-0.328125,0.064453125,0.607421875,-0.00390625,-0.875,-9.65234375,0.734375,1.0
620530,36.013257833333334,129.31927533333334,60.88035044246136,95.18474438778983,0.9,139.0,,-0.20703125,0.38671875,-0.55859375,0.1328125,1.044921875,-0.267578125,-0.68359375,-9.23046875,0.50390625,1.0
620531,,,,,,,,0.296875,0.6171875,-0.86328125,0.0078125,0.45703125,-0.037109375,-0.1875,-9.00390625,0.19921875,1.0
620532,,,,,,,,0.48828125,0.6953125,-0.98046875,-0.0234375,0.404296875,-0.0546875,0.00390625,-8.921875,0.08203125,1.0
620533,,,,,,,,1.1796875,0.6875,-1.0078125,-0.037109375,0.357421875,-0.076171875,0.6953125,-8.92578125,0.046875,1.0
620534,,,,,,,,1.6015625,0.2734375,-1.0390625,-0.046875,0.341796875,-0.0859375,1.1171875,-9.34375,0.0078125,1.0
620535,,,,,,,,1.70703125,-0.30078125,-0.95703125,-0.107421875,0.30859375,-0.091796875,1.26953125,-10.37890625,0.16015625,1.0
620536,,,,,,,,1.62109375,-1.83203125,-0.79296875,-0.1796875,0.34765625,-0.08203125,0.578125,-12.5234375,0.58203125,1.0
620537,,,,,,,,1.046875,-2.9140625,-0.43359375,-0.283203125,0.4453125,-0.060546875,0.04296875,-13.48046875,1.1953125,1.0
620538,,,,,,,,0.28125,-4.36328125,0.70703125,-0.421875,0.578125,-0.04296875,-0.9140625,-15.0078125,2.57421875,1.0
620539,,,,,,,,-0.4453125,-5.39453125,1.61328125,-0.642578125,0.763671875,-0.052734375,-1.375,-15.66796875,2.61328125,1.0
620540,36.013256999999996,129.31927583333334,60.92542538227565,95.09227866068201,0.9,143.0,,-0.20703125,0.38671875,-0.55859375,-0.76953125,0.939453125,-0.052734375,-2.5625,-16.6953125,2.8046875,1.0
620541,,,,,,,,-2.125,-6.33984375,2.54296875,-0.748046875,1.015625,-0.119140625,-2.9453125,-14.5546875,3.875,1.0
620542,,,,,,,,-2.46875,-4.9140625,3.1171875,-0.734375,1.015625,-0.169921875,-3.13671875,-12.91015625,3.4921875,1.0
620543,,,,,,,,-2.4765625,-2.875,2.23828125,-0.767578125,0.994140625,-0.24609375,-2.63671875,-12.3671875,2.45703125,1.0
620544,,,,,,,,-2.17578125,-2.72265625,1.81640625,-0.806640625,0.99609375,-0.2578125,-1.48828125,-12.56640625,2.34375,1.0
620545,,,,,,,,0.703125,-3.25,2.515625,-0.7890625,0.91796875,-0.265625,0.2734375,-12.90625,3.03125,1.0
620546,,,,,,,,1.09375,-2.7734375,2.71875,0.29296875,0.796875,-0.20703125,0.6953125,-12.4453125,3.1484375,1.0
620547,,,,,,,,0.50390625,-2.24609375,2.08984375,0.404296875,0.798828125,-0.154296875,0.12109375,-11.90625,2.53515625,1.0
620548,,,,,,,,-0.33984375,-1.234375,1.66796875,0.365234375,1.0078125,-0.08984375,-0.72265625,-10.9140625,2.15234375,1.0
620549,,,,,,,,-0.6484375,-0.546875,1.5,0.32421875,1.197265625,-0.068359375,-1.03125,-10.2265625,2.0,1.0
620550,36.013256,129.3192765,60.985525214469725,94.98131983128654,1.0,147.0,,-0.875,-0.19921875,1.3203125,-0.76953125,0.939453125,-0.052734375,-2.5625,-16.6953125,2.8046875,1.0
620551,,,,,,,,-1.18359375,-0.16015625,1.08203125,0.521484375,1.564453125,-0.12890625,-1.56640625,-9.8359375,1.65234375,1.0
620552,,,,,,,,-1.3515625,0.05859375,1.00390625,0.78515625,1.419921875,-0.2265625,-1.71875,-9.61328125,1.65234375,1.0
620553,,,,,,,,-1.21484375,0.6796875,0.66796875,0.755859375,1.26171875,-0.3203125,-1.56640625,-9.00390625,1.42578125,1.0
620554,,,,,,,,-1.046875,1.4375,0.296875,0.56640625,1.15234375,-0.36328125,-1.375,-8.234375,1.1171875,1.0
620555,,,,,,,,-0.83984375,1.9375,-0.0546875,0.396484375,1.076171875,-0.376953125,-1.14453125,-7.734375,0.8125,1.0
620556,,,,,,,,-0.7421875,2.12890625,-0.1875,0.345703125,1.046875,-0.375,-1.03125,-7.5390625,0.6953125,1.0
620557,,,,,,,,-0.55078125,2.6640625,-0.34765625,0.400390625,0.990234375,-0.3515625,-0.80078125,-7.01171875,0.58203125,1.0
620558,,,,,,,,-0.52734375,2.97265625,-0.3203125,0.462890625,1.005859375,-0.318359375,-0.76171875,-6.69921875,0.65625,1.0
620559,,,,,,,,-0.7890625,3.0390625,0.0390625,0.439453125,1.005859375,-0.296875,-0.9921875,-6.625,1.078125,1.0
620560,36.013254833333335,129.319277,61.030600413198464,94.85186769058552,1.2000000000000002,153.0,,-0.94921875,3.0,0.078125,0.375,0.966796875,-0.296875,-1.14453125,-6.6640625,1.15625,1.0
620561,,,,,,,,-1.36328125,2.80859375,-0.046875,0.294921875,0.91796875,-0.3046875,-1.52734375,-6.8515625,1.078125,1.0
620562,,,,,,,,-1.5703125,2.80078125,-0.19140625,0.2578125,0.890625,-0.3125,-1.71875,-6.85546875,0.96484375,1.0
620563,,,,,,,,-1.76171875,2.6796875,-0.546875,0.333984375,0.82421875,-0.328125,-1.87109375,-6.96875,0.65625,1.0
620564,,,,,,,,-1.80078125,2.640625,-0.4921875,0.3828125,0.8125,-0.3203125,-1.91015625,-7.0078125,0.734375,1.0
620565,,,,,,,,-1.6328125,2.40234375,-0.37109375,0.43359375,0.78125,-0.314453125,-1.71875,-7.234375,0.88671875,1.0
620566,,,,,,,,-1.6015625,2.359375,-0.36328125,0.447265625,0.779296875,-0.294921875,-1.6796875,-7.2734375,0.92578125,1.0
620567,,,,,,,,-1.46484375,2.1953125,-0.2890625,0.466796875,0.78515625,-0.259765625,-1.52734375,-7.43359375,1.0390625,1.0
620568,,,,,,,,-1.359375,2.08203125,-0.1953125,0.458984375,0.78515625,-0.248046875,-1.4140625,-7.54296875,1.15625,1.0
620569,,,,,,,,-1.328125,1.921875,-0.13671875,0.388671875,0.751953125,-0.197265625,-1.375,-7.6953125,1.26953125,1.0
620570,36.013253999999996,129.31927733333333,61.06065058747063,94.75940185963108,1.0,158.0,,-1.328125,1.8359375,-0.16015625,0.375,0.73046875,-0.173828125,-1.375,-7.77734375,1.26953125,1.0
620571,,,,,,,,-1.48828125,1.5234375,-0.19140625,0.353515625,0.65234375,-0.140625,-1.52734375,-8.078125,1.26953125,1.0
620572,,,,,,,,-1.640625,1.1015625,-0.265625,0.35546875,0.564453125,-0.11328125,-1.6796875,-8.50390625,1.234375,1.0
620573,,,,,,,,-1.71875,0.9765625,-0.3671875,0.361328125,0.525390625,-0.099609375,-1.7578125,-8.6171875,1.15625,1.0
620574,,,,,,,,-1.7109375,0.6640625,-0.4765625,0.3671875,0.466796875,-0.08984375,-1.7578125,-8.92578125,1.078125,1.0
620575,,,,,,,,-1.51953125,0.53125,-0.72265625,0.359375,0.439453125,-0.068359375,-1.56640625,-9.0390625,0.88671875,1.0
620576,,,,,,,,-1.3203125,0.41796875,-0.79296875,0.333984375,0.4140625,-0.05859375,-1.375,-9.1484375,0.84765625,1.0
620577,,,,,,,,-1.203125,0.140625,-0.66796875,0.306640625,0.373046875,-0.05078125,-1.2578125,-9.421875,1.00390625,1.0
620578,,,,,,,,-1.1953125,-0.05859375,-0.6484375,0.28125,0.349609375,-0.048828125,-1.2578125,-9.61328125,1.0390625,1.0
620579,,,,,,,,-1.00390625,-0.5234375,-0.36328125,0.248046875,0.294921875,-0.041015625,-1.06640625,-10.0703125,1.34765625,1.0
620580,36.01325283333333,129.31927733333333,61.06065148720917,94.62994940594774,1.1,166.0,,-1.328125,1.8359375,-0.16015625,0.22265625,0.20703125,-0.029296875,-0.72265625,-10.11328125,1.69140625,1.0
620581,,,,,,,,-0.64453125,-0.53125,-0.01953125,0.181640625,0.1796875,-0.025390625,-0.76171875,-10.11328125,1.73046875,1.0
620582,,,,,,,,-0.69140625,-0.578125,-0.02734375,0.12890625,0.158203125,-0.0234375,-0.83984375,-10.07421875,1.5390625,1.0
620583,,,,,,,,-0.8671875,-0.42578125,-0.28125,0.095703125,0.146484375,-0.025390625,-1.06640625,-9.8359375,1.30859375,1.0
620584,,,,,,,,-1.05859375,-0.2734375,-0.51953125,0.068359375,0.13671875,-0.03125,-1.10546875,-9.69140625,1.0390625,1.0
620585,,,,,,,,-1.01171875,-0.1171875,-0.87109375,0.06640625,0.138671875,-0.046875,-1.03125,-9.609375,0.8125,1.0
620586,,,,,,,,-0.9375,-0.08984375,-0.984375,0.0703125,0.146484375,-0.056640625,-0.9921875,-9.53125,0.8125,1.0
620587,,,,,,,,-0.859375,0.06640625,-1.0703125,0.0703125,0.1875,-0.06640625,-0.953125,-9.45703125,0.734375,1.0
620588,,,,,,,,-0.96484375,0.1328125,-0.7265625,0.03515625,0.21484375,-0.080078125,-1.06640625,-9.38671875,1.078125,1.0
620589,,,,,,,,-1.05078125,0.09375,-0.578125,0.005859375,0.2265625,-0.09375,-1.14453125,-9.42578125,1.234375,1.0
620590,36.013252,129.319277,61.0306025972098,94.53748315925985,1.1,176.0,,-1.39453125,-0.59375,0.109375,-0.078125,0.23046875,-0.103515625,-0.72265625,-10.11328125,1.69140625,1.0
620591,,,,,,,,-1.51171875,-1.58984375,0.8515625,-0.166015625,0.248046875,-0.12890625,-1.60546875,-11.10546875,2.6484375,1.0
620592,,,,,,,,-1.171875,-2.9296875,1.3203125,-0.26171875,0.265625,-0.13671875,-1.2578125,-12.4453125,3.109375,1.0
620593,,,,,,,,-0.4453125,-4.2265625,1.265625,-0.333984375,0.26171875,-0.140625,-0.53125,-13.75390625,3.03125,1.0
620594,,,,,,,,0.85546875,-4.875,1.10546875,-0.396484375,0.22265625,-0.146484375,0.76953125,-14.3984375,2.83984375,1.0
620595,,,,,,,,3.0625,-4.25,1.9453125,-0.615234375,0.07421875,-0.146484375,2.9921875,-13.79296875,3.609375,1.0
620596,,,,,,,,3.4296875,-2.5078125,3.828125,-0.671875,-0.068359375,-0.111328125,3.375,-12.06640625,5.40625,1.0
620597,,,,,,,,2.04296875,-1.19921875,4.26953125,-0.533203125,-0.09765625,-0.083984375,1.99609375,-10.76171875,5.79296875,1.0
620598,,,,,,,,-0.109375,-0.53125,4.8671875,-0.42578125,0.099609375,-0.046875,-0.1484375,-10.11328125,6.328125,1.0
620599,,,,,,,,-1.09765625,0.2109375,3.640625,-0.419921875,0.37109375,-0.068359375,-1.14453125,-9.38671875,5.0625,1.0
620600,36.013251,129.31927666666667,61.00055383247333,94.42652370325757,1.1,183.0,0.0,-0.9453125,0.36328125,1.91015625,-0.130859375,0.767578125,-0.115234375,-0.9921875,-9.23046875,3.30078125,1.0
620601,,,,,,,,-0.72265625,0.328125,1.4140625,0.0546875,0.912109375,-0.16015625,-0.76171875,-9.26953125,2.8046875,1.0
620602,,,,,,,,-0.140625,-0.1328125,0.69921875,0.3203125,0.984375,-0.21875,-0.1875,-9.73046875,2.11328125,1.0
620603,,,,,,,,-0.1171875,-0.29296875,0.62109375,0.4609375,0.84765625,-0.240234375,-0.1484375,-9.875,2.07421875,1.0
620604,,,,,,,,-0.46875,-0.79296875,1.296875,0.51953125,0.490234375,-0.251953125,-0.4921875,-10.375,2.8046875,1.0
620605,,,,,,,,-0.109375,-1.0390625,1.69921875,0.12890625,0.453125,-0.12109375,-0.109375,-10.609375,3.30078125,1.0
620606,,,,,,,,-0.30859375,-0.73046875,1.4296875,0.005859375,0.51953125,-0.076171875,-0.30078125,-10.30078125,3.03125,1.0
620607,,,,,,,,-0.4921875,-0.65625,1.35546875,-0.107421875,0.5703125,-0.01171875,-0.4921875,-10.2265625,2.95703125,1.0
620608,,,,,,,,-0.82421875,-0.53125,1.25390625,-0.291015625,0.66015625,0.095703125,-0.83984375,-10.109375,2.83984375,1.0
620609,,,,,,,,-0.8359375,-0.26171875,0.98046875,-0.365234375,0.69140625,0.166015625,-0.875,-9.83984375,2.53515625,1.0
620610,36.01324983333333,129.31927616666664,60.95548042830855,94.29707093674341,1.1,187.0,,-0.69140625,-0.09375,0.97265625,-0.337890625,0.740234375,0.23046875,-0.76171875,-9.69140625,2.49609375,1.0
620611,,,,,,,,-0.3828125,0.2890625,0.54296875,-0.265625,0.83203125,0.2421875,-0.4921875,-9.30859375,2.03515625,1.0
620612,,,,,,,,-0.49609375,0.87109375,0.140625,-0.197265625,0.865234375,0.236328125,-0.64453125,-8.7265625,1.6171875,1.0
620613,,,,,,,,-0.63671875,1.1015625,0.0703125,-0.171875,0.826171875,0.212890625,-0.80078125,-8.5,1.5390625,1.0
620614,,,,,,,,-0.86328125,1.64453125,-0.14453125,-0.115234375,0.69140625,0.138671875,-1.06640625,-7.9609375,1.30859375,1.0
620615,,,,,,,,-0.734375,2.02734375,-0.2890625,-0.05078125,0.54296875,0.0859375,-0.953125,-7.58203125,1.15625,1.0
620616,,,,,,,,-0.296875,2.13671875,-0.2890625,0.029296875,0.517578125,0.037109375,-0.53125,-7.46484375,1.15625,1.0
620617,,,,,,,,0.0703125,2.2109375,-0.44921875,0.10546875,0.60546875,0.029296875,-0.1875,-7.39453125,1.00390625,1.0
620618,,,,,,,,0.4609375,2.37109375,-0.49609375,0.103515625,0.634765625,0.03125,0.1953125,-7.234375,0.96484375,1.0
620619,,,,,,,,0.62890625,2.36328125,-0.4375,0.099609375,0.66796875,0.048828125,0.34765625,-7.23828125,1.0390625,1.0
620620,36.01324866666666,129.31927583333334,60.925431795062124,94.16761827373654,1.1,189.0,,0.65234375,2.48828125,-0.59765625,0.068359375,0.6796875,0.0546875,0.34765625,-7.1171875,0.88671875,1.0
620621,,,,,,,,0.70703125,2.28125,-0.60546875,0.05078125,0.66015625,0.041015625,0.38671875,-7.31640625,0.88671875,1.0
620622,,,,,,,,0.65625,2.171875,-0.6875,0.009765625,0.681640625,0.001953125,0.3125,-7.4296875,0.8125,1.0
620623,,,,,,,,0.625,2.171875,-0.71875,0.0078125,0.69140625,-0.02734375,0.2734375,-7.4296875,0.7734375,1.0
620624,,,,,,,,0.296875,2.08984375,-0.94921875,0.009765625,0.666015625,-0.083984375,-0.0703125,-7.50390625,0.54296875,1.0
620625,,,,,,,,0.1328125,2.08984375,-0.91015625,0.01953125,0.60546875,-0.125,-0.2265625,-7.50390625,0.58203125,1.0
620626,,,,,,,,0.125,2.08984375,-0.8359375,0.05078125,0.533203125,-0.166015625,-0.2265625,-7.5,0.65625,1.0
620627,,,,,,,,0.09765625,2.05078125,-0.8125,0.08984375,0.521484375,-0.203125,-0.26171875,-7.54296875,0.6953125,1.0
620628,,,,,,,,0.1640625,1.97265625,-0.7734375,0.111328125,0.52734375,-0.2109375,-0.1875,-7.6171875,0.734375,1.0
620629,,,,,,,,0.2265625,1.734375,-0.94140625,0.1328125,0.564453125,-0.220703125,-0.109375,-7.85546875,0.58203125,1.0
620630,36.01324783333334,129.31927533333334,60.880358132281316,94.07515192378865,1.0,193.0,,0.37109375,1.421875,-1.03515625,0.150390625,0.6015625,-0.240234375,0.34765625,-7.1171875,0.88671875,1.0
620631,,,,,,,,0.4765625,1.1171875,-1.07421875,0.16796875,0.59765625,-0.234375,0.15625,-8.4609375,0.46484375,1.0
620632,,,,,,,,0.6171875,0.46484375,-0.93359375,0.203125,0.59765625,-0.23046875,0.3125,-9.109375,0.62109375,1.0
620633,,,,,,,,0.5,0.12109375,-0.8671875,0.20703125,0.5859375,-0.232421875,0.1953125,-9.453125,0.6953125,1.0
620634,,,,,,,,0.01953125,-0.234375,-0.59765625,0.18359375,0.556640625,-0.19140625,-0.26171875,-9.80859375,1.00390625,1.0
620635,,,,,,,,-0.10546875,-0.34765625,-0.53125,0.154296875,0.564453125,-0.177734375,-0.37890625,-9.9140625,1.078125,1.0
620636,,,,,,,,-0.10546875,-0.5078125,-0.31640625,0.103515625,0.59375,-0.16015625,-0.37890625,-10.07421875,1.30859375,1.0
620637,,,,,,,,0.01171875,-0.86328125,-0.125,0.05078125,0.669921875,-0.11328125,-0.26171875,-10.4140625,1.5,1.0
620638,,,,,,,,-0.02734375,-1.015625,-0.046875,0.0546875,0.681640625,-0.09765625,-0.30078125,-10.5703125,1.578125,1.0
620639,,,,,,,,-0.171875,-1.16796875,0.12890625,0.1328125,0.75,-0.05859375,-0.453125,-10.72265625,1.76953125,1.0
620640,36.013247,129.3192748333333,60.835284468419744,93.98268557285455,1.0,196.0,,-0.203125,-1.015625,0.16015625,0.150390625,0.6015625,-0.240234375,0.34765625,-7.1171875,0.88671875,1.0
620641,,,,,,,,-0.12109375,-0.640625,-0.26953125,0.15234375,0.650390625,-0.0546875,-0.41796875,-10.1875,1.38671875,1.0
620642,,,,,,,,0.30078125,-0.33984375,-0.66796875,0.08984375,0.55078125,-0.048828125,0.00390625,-9.875,1.00390625,1.0
620643,,,,,,,,0.578125,-0.2265625,-0.82421875,0.076171875,0.52734375,-0.044921875,0.2734375,-9.76953125,0.84765625,1.0
620644,,,,,,,,0.69921875,-0.2265625,-0.83203125,0.04296875,0.47265625,-0.0234375,0.38671875,-9.765625,0.84765625,1.0
620645,,,,,,,,0.8984375,-1.0,-0.72265625,0.041015625,0.423828125,0.001953125,0.578125,-10.53515625,0.96484375,1.0
620646,,,,,,,,0.83984375,-2.41796875,0.04296875,-0.009765625,0.369140625,0.0546875,0.50390625,-11.9453125,1.73046875,1.0
620647,,,,,,,,-0.265625,-4.5625,0.51171875,-0.12890625,0.39453125,0.1015625,-0.609375,-14.09765625,2.19140625,1.0
620648,,,,,,,,-1.16796875,-5.17578125,1.28515625,-0.2109375,0.421875,0.123046875,-1.52734375,-14.70703125,2.95703125,1.0
620649,,,,,,,,-2.03515625,-3.7109375,3.0390625,-0.376953125,0.466796875,0.1484375,-2.41015625,-13.25,4.6796875,1.0
620650,36.013245833333336,129.31927433333334,60.79021106429262,93.85323280708798,1.1,200.0,,-2.046875,-3.3984375,2.625,-0.5859375,0.5078125,0.1796875,-2.4453125,-12.9453125,4.21875,1.0
620651,,,,,,,,-2.5,-2.04296875,2.8046875,-0.796875,0.677734375,0.17578125,-2.9453125,-11.60546875,4.296875,1.0
620652,,,,,,,,-1.93359375,-0.953125,3.08203125,-0.71484375,0.673828125,0.16796875,-2.41015625,-10.53125,4.48828125,1.0
620653,,,,,,,,-0.64453125,-1.40625,3.453125,-0.572265625,0.560546875,0.15625,-1.14453125,-10.99609375,4.796875,1.0
620654,,,,,,,,1.44921875,-2.46875,3.078125,-0.396484375,0.47265625,0.1328125,0.92578125,-12.06640625,4.375,1.0
620655,,,,,,,,1.69921875,-2.38671875,3.0,-0.296875,0.37890625,0.16796875,1.15234375,-11.984375,4.2578125,1.0
620656,,,,,,,,1.671875,-2.1953125,2.81640625,-0.15625,0.390625,0.16796875,1.1171875,-11.80078125,4.06640625,1.0
620657,,,,,,,,0.8515625,-1.19921875,2.38671875,0.134765625,0.45703125,0.18359375,0.2734375,-10.796875,3.64453125,1.0
620658,,,,,,,,0.22265625,-1.04296875,1.72265625,0.2265625,0.548828125,0.166015625,-0.37890625,-10.64453125,2.99609375,1.0
620659,,,,,,,,-0.09765625,-1.015625,1.8203125,0.1875,0.70703125,0.119140625,-0.72265625,-10.61328125,3.109375,1.0
620660,36.01324483333334,129.31927366666665,60.730112756384656,93.74227314487528,1.2000000000000002,202.0,,-0.6875,-0.74609375,2.265625,0.126953125,0.90234375,0.046875,-1.3359375,-10.33984375,3.5703125,1.0
620661,,,,,,,,-0.79296875,-0.515625,2.10546875,0.162109375,0.974609375,-0.03125,-1.44921875,-10.109375,3.41796875,1.0
620662,,,,,,,,-0.86328125,-0.36328125,1.875,0.208984375,0.939453125,-0.064453125,-1.52734375,-9.95703125,3.1875,1.0
620663,,,,,,,,-0.5859375,0.05859375,1.23828125,0.271484375,0.82421875,-0.12890625,-1.2578125,-9.53125,2.57421875,1.0
620664,,,,,,,,-0.39453125,0.2109375,1.078125,0.236328125,0.77734375,-0.154296875,-1.06640625,-9.3828125,2.421875,1.0
620665,,,,,,,,0.01171875,0.36328125,0.71484375,0.080078125,0.755859375,-0.224609375,-0.64453125,-9.23046875,2.07421875,1.0
620666,,,,,,,,0.60546875,1.0234375,0.06640625,0.013671875,0.78515625,-0.244140625,-0.03515625,-8.58203125,1.42578125,1.0
620667,,,,,,,,0.5546875,1.33984375,-0.09765625,0.111328125,0.724609375,-0.2734375,-0.0703125,-8.265625,1.26953125,1.0
620668,,,,,,,,0.26171875,2.10546875,-0.03515625,0.1171875,0.67578125,-0.2890625,-0.33984375,-7.50390625,1.34765625,1.0
620669,,,,,,,,0.16796875,2.44921875,0.03515625,0.095703125,0.650390625,-0.291015625,-0.41796875,-7.15625,1.42578125,1.0
620670,36.013243833333334,129.31927316666668,60.685039221786425,93.63131358723277,1.2000000000000002,203.0,,0.078125,2.83203125,-0.05078125,0.048828125,0.63671875,-0.296875,-1.3359375,-10.33984375,3.5703125,1.0
620671,,,,,,,,-0.015625,3.1484375,-0.2421875,0.01171875,0.654296875,-0.30859375,-0.5703125,-6.47265625,1.15625,1.0
620672,,,,,,,,-0.30078125,3.21484375,-0.38671875,-0.001953125,0.658203125,-0.330078125,-0.83984375,-6.39453125,1.00390625,1.0
620673,,,,,,,,-0.55078125,3.30078125,-0.46484375,-0.001953125,0.642578125,-0.35546875,-1.06640625,-6.31640625,0.92578125,1.0
620674,,,,,,,,-0.7734375,3.26171875,-0.55078125,0.029296875,0.59765625,-0.369140625,-1.2578125,-6.35546875,0.84765625,1.0
620675,,,,,,,,-1.1875,3.22265625,-0.625,0.078125,0.564453125,-0.3984375,-1.640625,-6.390625,0.7734375,1.0
620676,,,,,,,,-1.234375,3.1484375,-0.6328125,0.10546875,0.546875,-0.40625,-1.6796875,-6.47265625,0.7734375,1.0
620677,,,,,,,,-1.421875,2.953125,-0.640625,0.1171875,0.484375,-0.41015625,-1.8359375,-6.6640625,0.7734375,1.0
620678,,,,,,,,-1.25,2.609375,-0.57421875,0.146484375,0.470703125,-0.412109375,-1.640625,-7.0078125,0.84765625,1.0
620679,,,,,,,,-1.16796875,2.49609375,-0.47265625,0.18359375,0.494140625,-0.390625,-1.52734375,-7.1171875,0.96484375,1.0
620680,36.01324266666666,129.31927266666668,60.639965809143646,93.50186082146917,1.2000000000000002,203.0,,-1.0546875,2.40234375,-0.4296875,0.189453125,0.501953125,-0.341796875,-1.375,-7.1953125,1.0390625,1.0
620681,,,,,,,,-1.015625,2.2890625,-0.49609375,0.16796875,0.478515625,-0.28125,-1.296875,-7.3125,1.00390625,1.0
620682,,,,,,,,-0.984375,2.2109375,-0.53515625,0.162109375,0.474609375,-0.25,-1.2578125,-7.390625,0.96484375,1.0
620683,,,,,,,,-0.9921875,1.8125,-0.7421875,0.14453125,0.451171875,-0.2109375,-1.2578125,-7.77734375,0.7734375,1.0
620684,,,,,,,,-1.046875,1.3984375,-0.8359375,0.16015625,0.4296875,-0.16796875,-1.296875,-8.19921875,0.6953125,1.0
620685,,,,,,,,-1.09375,0.80859375,-0.7734375,0.193359375,0.39453125,-0.138671875,-1.3359375,-8.76953125,0.7734375,1.0
620686,,,,,,,,-1.015625,0.5390625,-0.70703125,0.197265625,0.376953125,-0.126953125,-1.2578125,-9.04296875,0.84765625,1.0
620687,,,,,,,,-0.98046875,-0.109375,-0.65234375,0.201171875,0.322265625,-0.1015625,-1.22265625,-9.69140625,0.92578125,1.0
620688,,,,,,,,-0.90234375,-0.6171875,-0.4765625,0.181640625,0.291015625,-0.076171875,-1.14453125,-10.1875,1.1171875,1.0
620689,,,,,,,,-0.86328125,-0.65625,-0.375,0.123046875,0.265625,-0.048828125,-1.10546875,-10.23046875,1.234375,1.0
620690,36.013241666666666,129.319272,60.579867501468925,93.39090116148488,1.2000000000000002,205.0,,-0.85546875,-0.546875,-0.34765625,0.189453125,0.501953125,-0.341796875,-1.375,-7.1953125,1.0390625,1.0
620691,,,,,,,,-0.81640625,-0.625,-0.3828125,0.00390625,0.20703125,0.0078125,-1.06640625,-10.19140625,1.234375,1.0
620692,,,,,,,,-0.88671875,-0.890625,-0.5,-0.0234375,0.181640625,0.025390625,-1.14453125,-10.45703125,1.1171875,1.0
620693,,,,,,,,-0.765625,-0.8984375,-0.421875,-0.005859375,0.17578125,0.037109375,-1.03125,-10.453125,1.1953125,1.0
620694,,,,,,,,-0.671875,-0.8984375,-0.390625,0.0703125,0.181640625,0.037109375,-0.953125,-10.45703125,1.234375,1.0
620695,,,,,,,,-0.625,-0.71484375,-0.4765625,0.09375,0.185546875,0.03125,-0.9140625,-10.26171875,1.15625,1.0
620696,,,,,,,,-0.578125,-0.37109375,-0.9453125,0.076171875,0.193359375,0.015625,-0.875,-9.9140625,0.6953125,1.0
620697,,,,,,,,-0.609375,-0.2265625,-1.21875,0.03515625,0.19140625,-0.00390625,-0.9140625,-9.76953125,0.4296875,1.0
620698,,,,,,,,-0.6015625,0.08203125,-1.14453125,0.005859375,0.162109375,-0.03125,-0.9140625,-9.453125,0.50390625,1.0
620699,,,,,,,,-0.6875,0.2734375,-0.8671875,-0.05859375,0.12890625,-0.072265625,-0.9921875,-9.26953125,0.7734375,1.0
620700,36.01324066666667,129.31927083333332,60.474694881961966,93.27994119047841,1.3,212.0,0.0,-0.83984375,0.6171875,-0.74609375,0.189453125,0.501953125,-0.341796875,-1.375,-7.1953125,1.0390625,1.0
620701,,,,,,,,-1.19140625,0.85546875,-0.35546875,-0.16796875,0.095703125,-0.126953125,-1.48828125,-8.6875,1.26953125,1.0
620702,,,,,,,,-1.30859375,0.73828125,-0.22265625,-0.21484375,0.1015625,-0.130859375,-1.60546875,-8.80859375,1.38671875,1.0
620703,,,,,,,,-1.5078125,-0.41015625,-0.4296875,-0.32421875,0.109375,-0.138671875,-1.796875,-9.953125,1.15625,1.0
620704,,,,,,,,-0.83203125,-1.51171875,0.7421875,-0.453125,0.099609375,-0.10546875,-1.10546875,-11.06640625,2.265625,1.0
620705,,,,,,,,0.5078125,-2.73828125,1.78515625,-0.525390625,0.08984375,-0.078125,0.234375,-12.29296875,3.26171875,1.0
620706,,,,,,,,1.11328125,-3.265625,2.23046875,-0.5625,0.076171875,-0.056640625,0.84765625,-12.83203125,3.68359375,1.0
620707,,,,,,,,2.8828125,-5.7109375,2.78515625,-0.662109375,0.021484375,-0.0078125,2.609375,-15.28125,4.18359375,1.0
620708,,,,,,,,3.6875,-7.83984375,3.19921875,-0.8671875,-0.052734375,0.03125,3.4140625,-17.421875,4.52734375,1.0
620709,,,,,,,,3.95703125,-8.5234375,3.62890625,-0.982421875,-0.099609375,0.0546875,3.68359375,-18.12109375,4.91015625,1.0
