time,latitude,longitude,enu_x,enu_y,speed,course,Hrage,accX,accY,accZ,gyrX,gyrY,gyrZ,eulR,eulP,eulY
4014800,36.013622000000005,129.31970683333333,99.77900975635083,135.59276022712433,0.4,187.0,63.0,-1.7734375,1.515625,1.6953125,0.365234375,-0.068359375,0.015625,356.0,356.0,356.02222222222224
4014801,,,,,,,,-1.7734375,1.515625,1.6953125,0.365234375,-0.068359375,0.015625,356.0,356.0,356.0111111111111
4014802,,,,,,,,-1.7734375,1.515625,1.6953125,0.25390625,-0.189453125,-0.072265625,356.0,356.0,356.0111111111111
4014803,,,,,,,,-1.7734375,1.515625,1.6953125,0.25390625,-0.189453125,-0.072265625,356.0,356.0,356.0111111111111
4014804,,,,,,,,-1.7734375,1.515625,1.6953125,0.267578125,-0.16796875,-0.11328125,356.0,356.0,356.0111111111111
4014805,,,,,,,,-1.2421875,0.9375,1.4140625,0.267578125,-0.16796875,-0.11328125,356.0,356.0,356.0111111111111
4014806,,,,,,,,-1.2421875,0.9375,1.4140625,0.267578125,-0.16796875,-0.11328125,356.0,356.0,356.0111111111111
4014807,,,,,,,,-1.2421875,0.9375,1.4140625,0.267578125,-0.16796875,-0.11328125,356.0,356.0,356.0111111111111
4014808,,,,,,,,-1.2421875,0.9375,1.4140625,0.146484375,-0.185546875,-0.1875,356.0,356.0,356.0111111111111
4014809,,,,,,,,-1.2421875,0.9375,1.4140625,0.146484375,-0.185546875,-0.1875,356.0,356.0,356.0111111111111
4014810,36.013622000000005,129.31970666666666,99.76398505994666,135.59276005683083,0.30000000000000004,200.0,,-1.2421875,0.9375,1.4140625,0.12109375,-0.216796875,-0.248046875,356.0,356.0,356.0111111111111
4014811,,,,,,,,-1.2421875,0.9375,1.4140625,0.12109375,-0.216796875,-0.248046875,356.0,356.0,356.0111111111111
4014812,,,,,,,,-1.2421875,0.9375,1.4140625,0.005859375,-0.271484375,-0.27734375,356.0,356.0,356.0111111111111
4014813,,,,,,,,-1.2421875,0.9375,1.4140625,0.005859375,-0.271484375,-0.27734375,356.0,356.0,356.0111111111111
4014814,,,,,,,,-1.2421875,0.9375,1.4140625,-0.171875,-0.140625,-0.27734375,356.0,356.0,356.0111111111111
4014815,,,,,,,,-1.2421875,0.9375,1.4140625,-0.171875,-0.140625,-0.27734375,356.0,356.0,356.0111111111111
4014816,,,,,,,,-1.2421875,0.9375,1.4140625,-0.23828125,-0.12109375,-0.310546875,356.0,356.0,356.0111111111111
4014817,,,,,,,,-1.2421875,0.9375,1.4140625,-0.23828125,-0.12109375,-0.310546875,356.0,356.0,356.0111111111111
4014818,,,,,,,,-1.2421875,0.9375,1.4140625,-0.259765625,-0.130859375,-0.337890625,356.0,356.0,356.0111111111111
4014819,,,,,,,,-1.2421875,0.9375,1.4140625,-0.259765625,-0.130859375,-0.337890625,356.0,356.0,356.0111111111111
4014820,36.013622000000005,129.31970666666666,99.76398505994666,135.59276005683083,0.2,65535.0,,-1.2421875,0.9375,1.4140625,-0.330078125,-0.107421875,-0.33203125,356.0,356.0,356.0111111111111
4014821,,,,,,,,-1.12109375,1.31640625,1.390625,-0.330078125,-0.107421875,-0.33203125,356.0,356.0,356.0111111111111
4014822,,,,,,,,-1.12109375,1.31640625,1.390625,-0.330078125,-0.107421875,-0.33203125,356.0,356.0,356.02222222222224
4014823,,,,,,,,-1.12109375,1.31640625,1.390625,-0.34765625,-0.14453125,-0.314453125,356.0,356.0,356.02222222222224
4014824,,,,,,,,-1.12109375,1.31640625,1.390625,-0.34765625,-0.14453125,-0.314453125,356.0,356.0,356.02222222222224
4014825,,,,,,,,-1.12109375,1.31640625,1.390625,-0.388671875,-0.197265625,-0.306640625,356.0,356.0,356.02222222222224
4014826,,,,,,,,-1.12109375,1.31640625,1.390625,-0.388671875,-0.197265625,-0.306640625,356.0,356.0,356.02222222222224
4014827,,,,,,,,-1.12109375,1.31640625,1.390625,-0.357421875,-0.26171875,-0.298828125,356.0,356.0,356.02222222222224
4014828,,,,,,,,-1.12109375,1.31640625,1.390625,-0.357421875,-0.26171875,-0.298828125,356.0,356.0,356.02222222222224
4014829,,,,,,,,-1.12109375,1.31640625,1.390625,-0.37890625,-0.232421875,-0.287109375,356.0,356.0,356.02222222222224
4014830,36.01362233333334,129.31970683333333,99.7790093363724,135.62974664493842,0.1,65535.0,,-1.12109375,1.31640625,1.390625,-0.37890625,-0.232421875,-0.287109375,356.0,356.0,356.02222222222224
4014831,,,,,,,,-1.12109375,1.31640625,1.390625,-0.4296875,-0.19140625,-0.306640625,356.0,356.0,356.02222222222224
4014832,,,,,,,,-1.12109375,1.31640625,1.390625,-0.4296875,-0.19140625,-0.306640625,356.0,356.0,356.02222222222224
4014833,,,,,,,,-1.12109375,1.31640625,1.390625,-0.4140625,-0.1875,-0.298828125,356.0,356.0,356.02222222222224
4014834,,,,,,,,-1.12109375,1.31640625,1.390625,-0.4140625,-0.1875,-0.298828125,356.0,356.0,356.02222222222224
4014835,,,,,,,,-1.12109375,1.31640625,1.390625,-0.39453125,-0.115234375,-0.328125,356.0,356.0,356.02222222222224
4014836,,,,,,,,1.87890625,-2.1640625,-0.56640625,-0.39453125,-0.115234375,-0.328125,356.0,356.0,356.02222222222224
4014837,,,,,,,,1.87890625,-2.1640625,-0.56640625,-0.39453125,-0.115234375,-0.328125,356.0,356.0,356.02222222222224
4014838,,,,,,,,1.87890625,-2.1640625,-0.56640625,-0.109375,0.0078125,-0.28515625,356.0,356.0,356.02222222222224
4014839,,,,,,,,1.87890625,-2.1640625,-0.56640625,-0.109375,0.0078125,-0.28515625,356.0,356.0,356.02222222222224
4014840,36.01362266666667,129.319707,99.794033614469,135.66673323332589,0.2,65535.0,,1.87890625,-2.1640625,-0.56640625,-0.130859375,0.0859375,-0.255859375,356.0,356.0,356.02222222222224
4014841,,,,,,,,1.87890625,-2.1640625,-0.56640625,-0.130859375,0.0859375,-0.255859375,356.0,356.0,356.02222222222224
4014842,,,,,,,,1.87890625,-2.1640625,-0.56640625,-0.146484375,0.06640625,-0.197265625,356.0,356.0,356.02222222222224
4014843,,,,,,,,1.87890625,-2.1640625,-0.56640625,-0.146484375,0.06640625,-0.197265625,356.0,356.0,356.02222222222224
4014844,,,,,,,,1.87890625,-2.1640625,-0.56640625,-0.162109375,0.046875,-0.115234375,356.0,356.0,356.02222222222224
4014845,,,,,,,,1.87890625,-2.1640625,-0.56640625,-0.162109375,0.046875,-0.115234375,356.0,356.0,356.02222222222224
4014846,,,,,,,,1.87890625,-2.1640625,-0.56640625,-0.130859375,-0.001953125,-0.078125,356.0,356.0,356.02222222222224
4014847,,,,,,,,1.87890625,-2.1640625,-0.56640625,-0.130859375,-0.001953125,-0.078125,356.0,356.0,356.02222222222224
4014848,,,,,,,,1.87890625,-2.1640625,-0.56640625,-0.076171875,-0.048828125,-0.033203125,356.0,356.0,356.02222222222224
4014849,,,,,,,,1.87890625,-2.1640625,-0.56640625,-0.076171875,-0.048828125,-0.033203125,356.0,356.0,356.02222222222224
4014850,36.013623,129.3197075,99.83910728242668,135.70372016332018,0.2,65535.0,,1.87890625,-2.1640625,-0.56640625,-0.037109375,-0.103515625,0.05078125,356.0,356.0,356.02222222222224
4014851,,,,,,,,0.8125,-1.1328125,-1.51953125,-0.037109375,-0.103515625,0.05078125,356.0,356.0,356.02222222222224
4014852,,,,,,,,0.8125,-1.1328125,-1.51953125,-0.037109375,-0.103515625,0.05078125,356.0,356.0,356.02222222222224
4014853,,,,,,,,0.8125,-1.1328125,-1.51953125,0.138671875,-0.173828125,0.064453125,356.0,356.0,356.02222222222224
4014854,,,,,,,,0.8125,-1.1328125,-1.51953125,0.138671875,-0.173828125,0.064453125,356.0,356.0,356.02222222222224
4014855,,,,,,,,0.8125,-1.1328125,-1.51953125,0.271484375,-0.19140625,0.05078125,356.0,356.0,356.02222222222224
4014856,,,,,,,,0.8125,-1.1328125,-1.51953125,0.271484375,-0.19140625,0.05078125,356.0,356.0,356.02222222222224
4014857,,,,,,,,0.8125,-1.1328125,-1.51953125,0.28515625,-0.23828125,0.08984375,356.0,356.0,356.02222222222224
4014858,,,,,,,,0.8125,-1.1328125,-1.51953125,0.28515625,-0.23828125,0.08984375,356.0,356.0,356.02222222222224
4014859,,,,,,,,0.8125,-1.1328125,-1.51953125,0.328125,-0.251953125,0.09375,356.0,356.0,356.02222222222224
4014860,36.01362316666667,129.31970766666666,99.8541317680062,135.7222135423808,0.2,65535.0,,0.8125,-1.1328125,-1.51953125,0.328125,-0.251953125,0.09375,356.0,356.0,356.02222222222224
4014861,,,,,,,,0.8125,-1.1328125,-1.51953125,0.330078125,-0.21875,0.115234375,356.0,356.0,356.02222222222224
4014862,,,,,,,,0.8125,-1.1328125,-1.51953125,0.330078125,-0.21875,0.115234375,356.0,356.0,356.02222222222224
4014863,,,,,,,,0.8125,-1.1328125,-1.51953125,0.353515625,-0.22265625,0.142578125,356.0,356.0,356.02222222222224
4014864,,,,,,,,0.8125,-1.1328125,-1.51953125,0.353515625,-0.22265625,0.142578125,356.0,356.0,356.0111111111111
4014865,,,,,,,,0.8125,-1.1328125,-1.51953125,0.40625,-0.234375,0.154296875,356.0,356.0,356.0111111111111
4014866,,,,,,,,0.37890625,-0.44140625,-0.17578125,0.40625,-0.234375,0.154296875,356.0,356.0,356.0111111111111
4014867,,,,,,,,0.37890625,-0.44140625,-0.17578125,0.40625,-0.234375,0.154296875,356.0,356.0,356.0111111111111
4014868,,,,,,,,0.37890625,-0.44140625,-0.17578125,0.427734375,-0.232421875,0.16015625,356.0,356.0,356.0111111111111
4014869,,,,,,,,0.37890625,-0.44140625,-0.17578125,0.427734375,-0.232421875,0.16015625,356.0,356.0,356.0111111111111
4014870,36.013623,129.3197075,99.83910728242668,135.70372016332018,0.0,65535.0,,0.37890625,-0.44140625,-0.17578125,0.44140625,-0.2109375,0.166015625,356.0,356.0,356.0111111111111
4014871,,,,,,,,0.37890625,-0.44140625,-0.17578125,0.44140625,-0.2109375,0.166015625,356.0,356.0,356.0111111111111
4014872,,,,,,,,0.37890625,-0.44140625,-0.17578125,0.419921875,-0.232421875,0.1640625,356.0,356.0,356.0111111111111
4014873,,,,,,,,0.37890625,-0.44140625,-0.17578125,0.419921875,-0.232421875,0.1640625,356.0,356.0,356.0111111111111
4014874,,,,,,,,0.37890625,-0.44140625,-0.17578125,0.330078125,-0.22265625,0.134765625,356.0,356.0,356.0111111111111
4014875,,,,,,,,0.37890625,-0.44140625,-0.17578125,0.330078125,-0.22265625,0.134765625,356.0,356.0,356.0111111111111
4014876,,,,,,,,0.37890625,-0.44140625,-0.17578125,0.32421875,-0.197265625,0.109375,356.0,356.0,356.0111111111111
4014877,,,,,,,,0.37890625,-0.44140625,-0.17578125,0.32421875,-0.197265625,0.109375,356.0,356.0,356.0111111111111
4014878,,,,,,,,0.37890625,-0.44140625,-0.17578125,0.322265625,-0.19921875,0.09375,356.0,356.0,356.0111111111111
4014879,,,,,,,,0.37890625,-0.44140625,-0.17578125,0.322265625,-0.19921875,0.09375,356.0,356.0,356.0111111111111
4014880,36.013623,129.31970733333335,99.82408258870896,135.7037199927947,0.1,65535.0,,0.37890625,-0.44140625,-0.17578125,0.326171875,-0.1640625,0.07421875,356.0,356.0,356.0111111111111
4014881,,,,,,,,-0.44921875,0.65234375,0.77734375,0.326171875,-0.1640625,0.07421875,356.0,356.0,356.0111111111111
4014882,,,,,,,,-0.44921875,0.65234375,0.77734375,0.326171875,-0.1640625,0.07421875,356.0,356.0,356.0111111111111
4014883,,,,,,,,-0.44921875,0.65234375,0.77734375,0.29296875,-0.142578125,0.037109375,356.0,356.0,356.0111111111111
4014884,,,,,,,,-0.44921875,0.65234375,0.77734375,0.29296875,-0.142578125,0.037109375,356.0,356.0,356.0111111111111
4014885,,,,,,,,-0.44921875,0.65234375,0.77734375,0.2421875,-0.12109375,0.05078125,356.0,356.0,356.0111111111111
4014886,,,,,,,,-0.44921875,0.65234375,0.77734375,0.2421875,-0.12109375,0.05078125,356.0,356.0,356.0111111111111
4014887,,,,,,,,-0.44921875,0.65234375,0.77734375,0.2421875,-0.10546875,0.0234375,356.0,356.0,356.0111111111111
4014888,,,,,,,,-0.44921875,0.65234375,0.77734375,0.2421875,-0.10546875,0.0234375,356.0,356.0,356.0111111111111
4014889,,,,,,,,-0.44921875,0.65234375,0.77734375,0.2421875,-0.16796875,0.021484375,356.0,356.0,356.0111111111111
4014890,36.013622833333336,129.3197071666667,99.80905810266974,135.68522661291652,0.1,65535.0,,-0.44921875,0.65234375,0.77734375,0.2421875,-0.16796875,0.021484375,356.0,356.0,356.0111111111111
4014891,,,,,,,,-0.44921875,0.65234375,0.77734375,0.208984375,-0.134765625,-0.005859375,356.0,356.0,356.0111111111111
4014892,,,,,,,,-0.44921875,0.65234375,0.77734375,0.208984375,-0.134765625,-0.005859375,356.0,356.0,356.0111111111111
4014893,,,,,,,,-0.44921875,0.65234375,0.77734375,0.1953125,-0.05078125,-0.021484375,356.0,356.0,356.0111111111111
4014894,,,,,,,,-0.44921875,0.65234375,0.77734375,0.1953125,-0.05078125,-0.021484375,356.0,356.0,356.0111111111111
4014895,,,,,,,,-0.44921875,0.65234375,0.77734375,0.18359375,-0.03125,0.00390625,356.0,356.0,356.0111111111111
4014896,,,,,,,,0.20703125,0.06640625,0.48828125,0.18359375,-0.03125,0.00390625,356.0,356.0,356.0111111111111
4014897,,,,,,,,0.20703125,0.06640625,0.48828125,0.18359375,-0.03125,0.00390625,356.0,356.0,356.0111111111111
4014898,,,,,,,,0.20703125,0.06640625,0.48828125,0.140625,0.00390625,0.00390625,356.0,356.0,356.0111111111111
4014899,,,,,,,,0.20703125,0.06640625,0.48828125,0.140625,0.00390625,0.00390625,356.0,356.0,356.0111111111111
4014900,36.013622833333336,129.3197071666667,99.80905810266974,135.68522661291652,0.1,65535.0,63.0,0.20703125,0.06640625,0.48828125,0.12890625,-0.02734375,-0.01171875,356.0,356.0,356.0111111111111
4014901,,,,,,,,0.20703125,0.06640625,0.48828125,0.12890625,-0.02734375,-0.01171875,356.0,356.0,356.0111111111111
4014902,,,,,,,,0.20703125,0.06640625,0.48828125,0.12890625,-0.02734375,-0.01171875,356.0,356.0,356.0111111111111
4014903,,,,,,,,0.20703125,0.06640625,0.48828125,0.12890625,-0.02734375,-0.01171875,356.0,356.0,356.0111111111111
4014904,,,,,,,,0.20703125,0.06640625,0.48828125,-0.119140625,0.041015625,-0.0390625,356.0,356.0,356.0111111111111
4014905,,,,,,,,0.20703125,0.06640625,0.48828125,-0.119140625,0.041015625,-0.0390625,356.0,356.0,356.0111111111111
4014906,,,,,,,,0.20703125,0.06640625,0.48828125,-0.111328125,0.015625,-0.03125,356.0,356.0,356.0111111111111
4014907,,,,,,,,-0.13671875,0.36328125,0.43359375,-0.111328125,0.015625,-0.03125,356.0,356.0,356.0111111111111
4014908,,,,,,,,-0.13671875,0.36328125,0.43359375,-0.111328125,0.015625,-0.03125,356.0,356.0,356.0111111111111
4014909,,,,,,,,-0.13671875,0.36328125,0.43359375,-0.111328125,0.015625,-0.03125,356.0,356.0,356.0111111111111
4014910,36.013622833333336,129.31970733333335,99.82408279894351,135.68522678398062,0.0,65535.0,,-0.13671875,0.36328125,0.43359375,-0.115234375,0.013671875,-0.02734375,356.0,356.0,356.0111111111111
4014911,,,,,,,,-0.13671875,0.36328125,0.43359375,-0.115234375,0.013671875,-0.02734375,356.0,356.0,356.0111111111111
4014912,,,,,,,,-0.13671875,0.36328125,0.43359375,-0.15234375,0.04296875,-0.044921875,356.0,356.0,356.0111111111111
4014913,,,,,,,,-0.13671875,0.36328125,0.43359375,-0.15234375,0.04296875,-0.044921875,356.0,356.0,356.0111111111111
4014914,,,,,,,,-0.13671875,0.36328125,0.43359375,-0.1640625,0.021484375,-0.0390625,356.0,356.0,356.0111111111111
4014915,,,,,,,,-0.13671875,0.36328125,0.43359375,-0.1640625,0.021484375,-0.0390625,356.0,356.0,356.0111111111111
4014916,,,,,,,,-0.13671875,0.36328125,0.43359375,-0.15234375,0.060546875,-0.0703125,356.0,356.0,356.0111111111111
4014917,,,,,,,,-0.13671875,0.36328125,0.43359375,-0.15234375,0.060546875,-0.0703125,356.0,356.0,356.0111111111111
4014918,,,,,,,,-0.13671875,0.36328125,0.43359375,-0.1328125,0.072265625,-0.064453125,356.0,356.0,356.0111111111111
4014919,,,,,,,,-0.13671875,0.36328125,0.43359375,-0.1328125,0.072265625,-0.064453125,356.0,356.0,356.0111111111111
4014920,36.013623,129.3197075,99.83910728242668,135.70372016332018,0.0,65535.0,,-0.13671875,0.36328125,0.43359375,-0.09765625,0.078125,-0.0546875,356.0,356.0,356.0111111111111
4014921,,,,,,,,-0.13671875,0.36328125,0.43359375,-0.09765625,0.078125,-0.0546875,356.0,356.0,356.0111111111111
4014922,,,,,,,,-0.13671875,0.36328125,0.43359375,-0.095703125,0.07421875,-0.056640625,356.0,356.0,356.0111111111111
4014923,,,,,,,,-0.11328125,0.05078125,0.14453125,-0.095703125,0.07421875,-0.056640625,356.0,356.0,356.0111111111111
4014924,,,,,,,,-0.11328125,0.05078125,0.14453125,-0.095703125,0.07421875,-0.056640625,356.0,356.0,356.0111111111111
4014925,,,,,,,,-0.11328125,0.05078125,0.14453125,-0.015625,0.08203125,-0.09765625,356.0,356.0,356.0111111111111
4014926,,,,,,,,-0.11328125,0.05078125,0.14453125,-0.015625,0.08203125,-0.09765625,356.0,356.0,356.0111111111111
4014927,,,,,,,,-0.11328125,0.05078125,0.14453125,-0.015625,0.087890625,-0.06640625,356.0,356.0,356.0111111111111
4014928,,,,,,,,-0.11328125,0.05078125,0.14453125,-0.015625,0.087890625,-0.06640625,356.0,356.0,356.0111111111111
4014929,,,,,,,,-0.11328125,0.05078125,0.14453125,-0.017578125,0.095703125,-0.08203125,356.0,356.0,356.0111111111111
4014930,36.013623,129.3197075,99.83910728242668,135.70372016332018,0.0,65535.0,,-0.11328125,0.05078125,0.14453125,-0.017578125,0.095703125,-0.08203125,356.0,356.0,356.0111111111111
4014931,,,,,,,,-0.11328125,0.05078125,0.14453125,-0.029296875,0.09375,-0.0703125,356.0,356.0,356.0111111111111
4014932,,,,,,,,-0.11328125,0.05078125,0.14453125,-0.029296875,0.09375,-0.0703125,356.0,356.0,356.0111111111111
4014933,,,,,,,,-0.11328125,0.05078125,0.14453125,-0.03515625,0.0625,-0.0546875,356.0,356.0,356.0111111111111
4014934,,,,,,,,-0.11328125,0.05078125,0.14453125,-0.03515625,0.0625,-0.0546875,356.0,356.0,356.0111111111111
4014935,,,,,,,,-0.11328125,0.05078125,0.14453125,-0.0625,0.033203125,-0.037109375,356.0,356.0,356.0111111111111
4014936,,,,,,,,-0.11328125,0.05078125,0.14453125,-0.0625,0.033203125,-0.037109375,356.0,356.0,356.0111111111111
4014937,,,,,,,,-0.11328125,0.05078125,0.14453125,-0.080078125,0.025390625,-0.00390625,356.0,356.0,356.0111111111111
4014938,,,,,,,,0.17578125,-0.25390625,-0.22265625,-0.080078125,0.025390625,-0.00390625,356.0,356.0,356.0111111111111
4014939,,,,,,,,0.17578125,-0.25390625,-0.22265625,-0.080078125,0.025390625,-0.00390625,356.0,356.0,356.0111111111111
4014940,36.01362316666667,129.3197075,99.83910707202749,135.7222133715285,0.0,65535.0,,0.17578125,-0.25390625,-0.22265625,-0.052734375,0.0,0.001953125,356.0,356.0,356.0111111111111
4014941,,,,,,,,0.17578125,-0.25390625,-0.22265625,-0.052734375,0.0,0.001953125,356.0,356.0,356.0111111111111
4014942,,,,,,,,0.17578125,-0.25390625,-0.22265625,-0.046875,0.009765625,0.0078125,356.0,356.0,356.0111111111111
4014943,,,,,,,,0.17578125,-0.25390625,-0.22265625,-0.046875,0.009765625,0.0078125,356.0,356.0,356.0111111111111
4014944,,,,,,,,0.17578125,-0.25390625,-0.22265625,-0.05859375,0.0,0.01171875,356.0,356.0,356.0111111111111
4014945,,,,,,,,0.17578125,-0.25390625,-0.22265625,-0.05859375,0.0,0.01171875,356.0,356.0,356.0111111111111
4014946,,,,,,,,0.17578125,-0.25390625,-0.22265625,-0.05859375,0.013671875,-0.001953125,356.0,356.0,356.0111111111111
4014947,,,,,,,,0.17578125,-0.25390625,-0.22265625,-0.05859375,0.013671875,-0.001953125,356.0,356.0,356.0111111111111
4014948,,,,,,,,0.17578125,-0.25390625,-0.22265625,-0.03515625,0.109375,0.0,356.0,356.0,356.0111111111111
4014949,,,,,,,,0.17578125,-0.25390625,-0.22265625,-0.03515625,0.109375,0.0,356.0,356.0,356.0111111111111
4014950,36.01362316666667,129.31970766666666,99.8541317680062,135.7222135423808,0.0,65535.0,,0.17578125,-0.25390625,-0.22265625,-0.021484375,0.115234375,-0.009765625,356.0,356.0,356.0111111111111
4014951,,,,,,,,0.17578125,-0.25390625,-0.22265625,-0.021484375,0.115234375,-0.009765625,356.0,356.0,356.0111111111111
4014952,,,,,,,,0.17578125,-0.25390625,-0.22265625,-0.0390625,0.21484375,-0.0390625,356.0,356.0,356.0111111111111
4014953,,,,,,,,0.64453125,-0.8125,-0.3203125,-0.0390625,0.21484375,-0.0390625,356.0,356.0,356.0111111111111
4014954,,,,,,,,0.64453125,-0.8125,-0.3203125,-0.0390625,0.21484375,-0.0390625,356.0,356.0,356.0111111111111
4014955,,,,,,,,0.64453125,-0.8125,-0.3203125,0.0234375,0.2109375,-0.0546875,356.0,356.0,356.0111111111111
4014956,,,,,,,,0.64453125,-0.8125,-0.3203125,0.0234375,0.2109375,-0.0546875,356.0,356.0,356.0111111111111
4014957,,,,,,,,0.64453125,-0.8125,-0.3203125,0.107421875,0.203125,-0.06640625,356.0,356.0,356.0111111111111
4014958,,,,,,,,0.64453125,-0.8125,-0.3203125,0.107421875,0.203125,-0.06640625,356.0,356.0,356.0111111111111
4014959,,,,,,,,0.64453125,-0.8125,-0.3203125,0.23828125,0.021484375,-0.0703125,356.0,356.0,356.0111111111111
4014960,36.013623333333335,129.31970783333333,99.86915625381556,135.7407069227919,0.0,65535.0,,0.64453125,-0.8125,-0.3203125,0.23828125,0.021484375,-0.0703125,356.0,356.0,356.0111111111111
4014961,,,,,,,,0.64453125,-0.8125,-0.3203125,0.423828125,-0.12109375,-0.021484375,356.0,356.0,356.0111111111111
4014962,,,,,,,,0.64453125,-0.8125,-0.3203125,0.423828125,-0.12109375,-0.021484375,356.0,356.0,356.0111111111111
4014963,,,,,,,,0.64453125,-0.8125,-0.3203125,0.31640625,-0.353515625,0.029296875,356.0,356.0,356.0111111111111
4014964,,,,,,,,0.64453125,-0.8125,-0.3203125,0.31640625,-0.353515625,0.029296875,356.0,356.0,356.0111111111111
4014965,,,,,,,,0.64453125,-0.8125,-0.3203125,0.212890625,-0.4140625,0.009765625,356.0,356.0,356.0111111111111
4014966,,,,,,,,0.64453125,-0.8125,-0.3203125,0.212890625,-0.4140625,0.009765625,356.0,356.0,356.0111111111111
4014967,,,,,,,,0.64453125,-0.8125,-0.3203125,0.041015625,-0.638671875,0.140625,356.0,356.0,356.0111111111111
4014968,,,,,,,,-1.39453125,5.7734375,-2.41015625,0.041015625,-0.638671875,0.140625,356.0,356.0,356.0111111111111
4014969,,,,,,,,-1.39453125,5.7734375,-2.41015625,0.041015625,-0.638671875,0.140625,356.0,356.0,356.0111111111111
4014970,36.01362316666667,129.31970766666666,99.8541317680062,135.7222135423808,0.1,65535.0,,-1.39453125,5.7734375,-2.41015625,-0.046875,-0.92578125,0.26171875,356.0,356.0,356.0111111111111
4014971,,,,,,,,-1.39453125,5.7734375,-2.41015625,-0.046875,-0.92578125,0.26171875,356.0111111111111,356.0,356.0111111111111
4014972,,,,,,,,-1.39453125,5.7734375,-2.41015625,0.11328125,-0.650390625,0.046875,356.0111111111111,356.0,356.0111111111111
4014973,,,,,,,,-1.39453125,5.7734375,-2.41015625,0.11328125,-0.650390625,0.046875,356.0111111111111,356.0,356.0111111111111
4014974,,,,,,,,-1.39453125,5.7734375,-2.41015625,-0.013671875,-0.828125,-0.083984375,356.0111111111111,356.0,356.0111111111111
4014975,,,,,,,,-1.39453125,5.7734375,-2.41015625,-0.013671875,-0.828125,-0.083984375,356.0111111111111,356.0,356.0111111111111
4014976,,,,,,,,-1.39453125,5.7734375,-2.41015625,-0.00390625,-0.169921875,-0.201171875,356.0111111111111,356.0,356.0111111111111
4014977,,,,,,,,-1.39453125,5.7734375,-2.41015625,-0.00390625,-0.169921875,-0.201171875,356.0111111111111,356.0,356.0111111111111
4014978,,,,,,,,-1.39453125,5.7734375,-2.41015625,0.04296875,0.2734375,-0.28125,356.0111111111111,356.0,356.0111111111111
4014979,,,,,,,,-1.39453125,5.7734375,-2.41015625,0.04296875,0.2734375,-0.28125,356.0111111111111,356.0,356.0111111111111
4014980,36.013623333333335,129.31970783333333,99.86915625381556,135.7407069227919,0.0,65535.0,,-1.39453125,5.7734375,-2.41015625,0.02734375,-0.21484375,-0.396484375,356.0111111111111,356.0,356.0111111111111
4014981,,,,,,,,-1.39453125,5.7734375,-2.41015625,0.02734375,-0.21484375,-0.396484375,356.0111111111111,356.0,356.0111111111111
4014982,,,,,,,,-1.39453125,5.7734375,-2.41015625,0.962890625,0.27734375,-0.419921875,356.0111111111111,356.0,356.0111111111111
4014983,,,,,,,,4.0859375,-8.34375,-5.75,0.962890625,0.27734375,-0.419921875,356.0111111111111,356.0,356.0111111111111
4014984,,,,,,,,4.0859375,-8.34375,-5.75,0.962890625,0.27734375,-0.419921875,356.0111111111111,356.0,356.0111111111111
4014985,,,,,,,,4.0859375,-8.34375,-5.75,0.673828125,0.814453125,-0.447265625,356.0111111111111,356.0,356.0111111111111
4014986,,,,,,,,4.0859375,-8.34375,-5.75,0.673828125,0.814453125,-0.447265625,356.0111111111111,356.0,356.0111111111111
4014987,,,,,,,,4.0859375,-8.34375,-5.75,0.578125,1.20703125,-0.255859375,356.0111111111111,356.0,356.0111111111111
4014988,,,,,,,,4.0859375,-8.34375,-5.75,0.578125,1.20703125,-0.255859375,356.0111111111111,356.0,356.0111111111111
4014989,,,,,,,,4.0859375,-8.34375,-5.75,-0.013671875,1.580078125,0.263671875,356.0111111111111,356.0,356.0111111111111
4014990,36.0136235,129.319708,99.88418073939508,135.75920030185256,0.1,65535.0,,4.0859375,-8.34375,-5.75,-0.013671875,1.580078125,0.263671875,356.0111111111111,356.0,356.0111111111111
4014991,,,,,,,,4.0859375,-8.34375,-5.75,-0.275390625,0.603515625,0.630859375,356.0111111111111,356.0,356.0111111111111
4014992,,,,,,,,4.0859375,-8.34375,-5.75,-0.275390625,0.603515625,0.630859375,356.0,356.0,356.0111111111111
4014993,,,,,,,,4.0859375,-8.34375,-5.75,-0.033203125,-0.4375,1.4140625,356.0,356.0,356.0111111111111
4014994,,,,,,,,4.0859375,-8.34375,-5.75,-0.033203125,-0.4375,1.4140625,356.0,356.0,356.0111111111111
4014995,,,,,,,,4.0859375,-8.34375,-5.75,0.451171875,-1.642578125,2.080078125,356.0,356.0,356.0111111111111
4014996,,,,,,,,4.0859375,-8.34375,-5.75,0.451171875,-1.642578125,2.080078125,356.0,356.0,356.0111111111111
4014997,,,,,,,,4.0859375,-8.34375,-5.75,0.26953125,-0.833984375,2.193359375,356.0,356.0,356.0111111111111
4014998,,,,,,,,2.3828125,-12.625,2.88671875,0.26953125,-0.833984375,2.193359375,356.0,356.0,356.0111111111111
4014999,,,,,,,,2.3828125,-12.625,2.88671875,0.26953125,-0.833984375,2.193359375,356.0,356.0,356.0111111111111
4015000,36.01362133333334,129.31970583333333,99.68886241824302,135.51878636880824,1.2000000000000002,214.0,63.0,2.3828125,-12.625,2.88671875,0.568359375,0.125,2.06640625,356.0,356.0,356.0111111111111
4015001,,,,,,,,2.3828125,-12.625,2.88671875,0.568359375,0.125,2.06640625,356.0,356.0,356.0111111111111
4015002,,,,,,,,2.3828125,-12.625,2.88671875,0.568359375,0.125,2.06640625,356.0,356.0,356.0111111111111
4015003,,,,,,,,2.3828125,-12.625,2.88671875,0.568359375,0.125,2.06640625,356.0,356.0,356.0111111111111
4015004,,,,,,,,2.3828125,-12.625,2.88671875,0.853515625,-0.685546875,1.19921875,356.0,356.0,356.0111111111111
4015005,,,,,,,,2.3828125,-12.625,2.88671875,0.853515625,-0.685546875,1.19921875,356.0,356.0,356.0111111111111
4015006,,,,,,,,2.3828125,-12.625,2.88671875,-1.61328125,-1.162109375,1.28515625,356.0,356.0,356.0111111111111
4015007,,,,,,,,2.3828125,-12.625,2.88671875,-1.61328125,-1.162109375,1.28515625,356.0,356.0,356.0111111111111
4015008,,,,,,,,2.3828125,-12.625,2.88671875,-2.494140625,-1.681640625,1.546875,356.0,356.0,356.0111111111111
4015009,,,,,,,,2.3828125,-12.625,2.88671875,-2.494140625,-1.681640625,1.546875,356.0,356.0,356.0111111111111
4015010,36.013616999999996,129.31969949999998,99.11792936879104,135.03795647693684,2.1,226.0,,2.3828125,-12.625,2.88671875,-3.5703125,-0.185546875,0.72265625,356.0,356.0,356.0111111111111
4015011,,,,,,,,2.3828125,-12.625,2.88671875,-3.5703125,-0.185546875,0.72265625,356.0111111111111,356.0,356.0111111111111
4015012,,,,,,,,2.3828125,-12.625,2.88671875,-3.97265625,0.9921875,1.10546875,356.0111111111111,356.0,356.0111111111111
4015013,,,,,,,,2.3828125,-12.625,2.88671875,-3.97265625,0.9921875,1.10546875,356.0,356.0,356.0111111111111
4015014,,,,,,,,2.3828125,-12.625,2.88671875,-1.98046875,-0.7265625,1.236328125,356.0,356.0,356.0111111111111
4015015,,,,,,,,0.8203125,-16.5,11.53515625,-1.98046875,-0.7265625,1.236328125,356.0,356.0,356.0111111111111
4015016,,,,,,,,0.8203125,-16.5,11.53515625,-1.98046875,-0.7265625,1.236328125,356.0,356.0,356.0111111111111
4015017,,,,,,,,0.8203125,-16.5,11.53515625,-1.98046875,-0.7265625,1.236328125,356.0,356.0,356.0111111111111
4015018,,,,,,,,0.8203125,-16.5,11.53515625,-1.8046875,-2.419921875,0.865234375,356.0,356.0,356.0111111111111
4015019,,,,,,,,0.8203125,-16.5,11.53515625,-1.8046875,-2.419921875,0.865234375,356.0,356.0,356.0111111111111
4015020,36.01361583333333,129.31969750000002,98.93763445811132,134.90850198226022,2.3000000000000003,229.0,,0.8203125,-16.5,11.53515625,-0.677734375,2.017578125,2.833984375,356.0,356.0,356.0111111111111
4015021,,,,,,,,0.8203125,-16.5,11.53515625,-0.677734375,2.017578125,2.833984375,356.0,356.0,356.0111111111111
4015022,,,,,,,,0.8203125,-16.5,11.53515625,-1.060546875,0.224609375,2.146484375,356.0,356.0,356.0111111111111
4015023,,,,,,,,0.8203125,-16.5,11.53515625,-1.060546875,0.224609375,2.146484375,356.0,356.0,356.0111111111111
4015024,,,,,,,,0.8203125,-16.5,11.53515625,1.453125,0.365234375,0.333984375,356.0,356.0,356.0111111111111
4015025,,,,,,,,0.8203125,-16.5,11.53515625,1.453125,0.365234375,0.333984375,356.0,356.0,356.0111111111111
4015026,,,,,,,,0.8203125,-16.5,11.53515625,4.3515625,0.005859375,0.42578125,356.0,356.0,356.0111111111111
4015027,,,,,,,,0.8203125,-16.5,11.53515625,4.3515625,0.005859375,0.42578125,356.0,356.0,356.0111111111111
4015028,,,,,,,,0.8203125,-16.5,11.53515625,3.87109375,0.2890625,-0.04296875,356.0,356.0,356.0111111111111
4015029,,,,,,,,0.8203125,-16.5,11.53515625,3.87109375,0.2890625,-0.04296875,356.0,356.0,356.0111111111111
4015030,36.013613666666664,129.3196945,98.66719259862238,134.6680872260806,2.8000000000000003,228.0,,0.8203125,-16.5,11.53515625,-0.572265625,1.17578125,-0.6640625,356.0,356.0,356.0111111111111
4015031,,,,,,,,1.19921875,17.3671875,-8.3125,-0.572265625,1.17578125,-0.6640625,356.0,356.0,356.0111111111111
4015032,,,,,,,,1.19921875,17.3671875,-8.3125,-0.572265625,1.17578125,-0.6640625,356.0,356.0,356.0111111111111
4015033,,,,,,,,1.19921875,17.3671875,-8.3125,-0.572265625,1.17578125,-0.6640625,356.0,356.0,356.0111111111111
4015034,,,,,,,,1.19921875,17.3671875,-8.3125,-2.537109375,2.927734375,-2.072265625,356.0,356.0,356.0111111111111
4015035,,,,,,,,1.19921875,17.3671875,-8.3125,-2.537109375,2.927734375,-2.072265625,356.0,356.0,356.0111111111111
4015036,,,,,,,,1.19921875,17.3671875,-8.3125,0.546875,-0.357421875,-2.310546875,356.0,356.0,356.0111111111111
4015037,,,,,,,,1.19921875,17.3671875,-8.3125,0.546875,-0.357421875,-2.310546875,356.0,356.0,356.0111111111111
4015038,,,,,,,,1.19921875,17.3671875,-8.3125,-1.244140625,2.064453125,-2.29296875,356.0,356.0,356.0111111111111
4015039,,,,,,,,1.19921875,17.3671875,-8.3125,-1.244140625,2.064453125,-2.29296875,356.0,356.0,356.0111111111111
4015040,36.01361116666667,129.31969083333334,98.33665234517588,134.3906853883645,3.3000000000000003,228.0,,1.19921875,17.3671875,-8.3125,-0.904296875,0.16796875,-1.380859375,356.0,356.0,356.0111111111111
4015041,,,,,,,,1.19921875,17.3671875,-8.3125,-0.904296875,0.16796875,-1.380859375,356.0,356.0,356.0111111111111
4015042,,,,,,,,1.19921875,17.3671875,-8.3125,0.22265625,0.76171875,-2.63671875,356.0,356.0,356.0111111111111
4015043,,,,,,,,1.19921875,17.3671875,-8.3125,0.22265625,0.76171875,-2.63671875,356.0,356.0,356.0111111111111
4015044,,,,,,,,1.19921875,17.3671875,-8.3125,-1.578125,0.576171875,-2.4375,356.0,356.0,356.0111111111111
4015045,,,,,,,,1.19921875,17.3671875,-8.3125,-1.578125,0.576171875,-2.4375,356.0,356.0,356.0111111111111
4015046,,,,,,,,1.19921875,17.3671875,-8.3125,-0.162109375,-0.560546875,-1.263671875,356.0,356.0,356.0111111111111
4015047,,,,,,,,-4.6640625,-2.50390625,-5.73828125,-0.162109375,-0.560546875,-1.263671875,356.0,356.0,356.0111111111111
4015048,,,,,,,,-4.6640625,-2.50390625,-5.73828125,-0.162109375,-0.560546875,-1.263671875,356.0,356.0,356.0111111111111
4015049,,,,,,,,-4.6640625,-2.50390625,-5.73828125,-0.162109375,-0.560546875,-1.263671875,356.0,356.0,356.0111111111111
4015050,36.01360583333334,129.3196831666667,97.6455227908736,133.7988949960892,4.2,228.0,,-4.6640625,-2.50390625,-5.73828125,4.552734375,0.33984375,0.51953125,356.0,356.0,356.0111111111111
4015051,,,,,,,,-4.6640625,-2.50390625,-5.73828125,4.552734375,0.33984375,0.51953125,356.0,356.0,356.0111111111111
4015052,,,,,,,,-4.6640625,-2.50390625,-5.73828125,-0.607421875,-1.04296875,0.240234375,356.0,356.0,356.0111111111111
4015053,,,,,,,,-4.6640625,-2.50390625,-5.73828125,-0.607421875,-1.04296875,0.240234375,356.0111111111111,356.0,356.0111111111111
4015054,,,,,,,,-4.6640625,-2.50390625,-5.73828125,-2.65625,-3.466796875,0.0390625,356.0111111111111,356.0,356.0111111111111
4015055,,,,,,,,-4.6640625,-2.50390625,-5.73828125,-2.65625,-3.466796875,0.0390625,356.0111111111111,356.0,356.0111111111111
4015056,,,,,,,,-4.6640625,-2.50390625,-5.73828125,-1.619140625,-0.482421875,0.060546875,356.0111111111111,356.0,356.0111111111111
4015057,,,,,,,,-4.6640625,-2.50390625,-5.73828125,-1.619140625,-0.482421875,0.060546875,356.0111111111111,356.0,356.0111111111111
4015058,,,,,,,,-4.6640625,-2.50390625,-5.73828125,1.34375,-1.779296875,1.59375,356.0111111111111,356.0,356.0111111111111
4015059,,,,,,,,-4.6640625,-2.50390625,-5.73828125,1.34375,-1.779296875,1.59375,356.0111111111111,356.0,356.0111111111111
4015060,36.013603333333336,129.319679,97.26990836954211,133.5214926962495,4.3,230.0,,-4.6640625,-2.50390625,-5.73828125,-2.5,-1.47265625,2.0859375,356.0111111111111,356.0,356.0111111111111
4015061,,,,,,,,-4.6640625,-2.50390625,-5.73828125,-2.5,-1.47265625,2.0859375,356.0111111111111,356.0,356.0111111111111
4015062,,,,,,,,-4.6640625,-2.50390625,-5.73828125,-1.564453125,-2.404296875,2.19921875,356.0111111111111,356.0,356.0111111111111
4015063,,,,,,,,-3.59765625,-5.28125,1.046875,-1.564453125,-2.404296875,2.19921875,356.0111111111111,356.0,356.0111111111111
4015064,,,,,,,,-3.59765625,-5.28125,1.046875,-1.564453125,-2.404296875,2.19921875,356.0111111111111,356.0,356.0111111111111
4015065,,,,,,,,-3.59765625,-5.28125,1.046875,0.443359375,-0.509765625,1.568359375,356.0111111111111,356.0,356.0111111111111
4015066,,,,,,,,-3.59765625,-5.28125,1.046875,0.443359375,-0.509765625,1.568359375,356.0111111111111,356.0,356.0111111111111
4015067,,,,,,,,-3.59765625,-5.28125,1.046875,0.56640625,0.47265625,1.041015625,356.0111111111111,356.0,356.0111111111111
4015068,,,,,,,,-3.59765625,-5.28125,1.046875,0.56640625,0.47265625,1.041015625,356.0111111111111,356.0,356.0111111111111
4015069,,,,,,,,-3.59765625,-5.28125,1.046875,2.74609375,0.28125,0.626953125,356.0111111111111,356.0,356.0111111111111
4015070,36.01360066666667,129.31967516666666,96.9243435302661,133.22559753637293,4.5,230.0,,-3.59765625,-5.28125,1.046875,2.74609375,0.28125,0.626953125,356.0111111111111,356.0,356.0111111111111
4015071,,,,,,,,-3.59765625,-5.28125,1.046875,5.359375,0.65625,0.001953125,356.0111111111111,356.0,356.0111111111111
4015072,,,,,,,,-3.59765625,-5.28125,1.046875,5.359375,0.65625,0.001953125,356.0111111111111,356.0,356.0111111111111
4015073,,,,,,,,-3.59765625,-5.28125,1.046875,2.50390625,2.099609375,-0.517578125,356.0111111111111,356.0,356.0111111111111
4015074,,,,,,,,-3.59765625,-5.28125,1.046875,2.50390625,2.099609375,-0.517578125,356.0,356.0,356.0111111111111
4015075,,,,,,,,-3.59765625,-5.28125,1.046875,1.11328125,1.791015625,-1.0,356.0,356.0,356.0111111111111
4015076,,,,,,,,-3.59765625,-5.28125,1.046875,1.11328125,1.791015625,-1.0,356.0,356.0,356.0111111111111
4015077,,,,,,,,-3.59765625,-5.28125,1.046875,-1.734375,1.326171875,-0.4140625,356.0,356.0,356.0111111111111
4015078,,,,,,,,-6.296875,9.65625,-3.26171875,-1.734375,1.326171875,-0.4140625,356.0,356.0,356.0111111111111
4015079,,,,,,,,-6.296875,9.65625,-3.26171875,-1.734375,1.326171875,-0.4140625,356.0,356.0,356.0111111111111
4015080,36.01359733333334,129.31967033333333,96.4886312781416,132.85572856415385,4.9,230.0,,-6.296875,9.65625,-3.26171875,-3.326171875,2.734375,-2.421875,356.0,356.0,356.0111111111111
4015081,,,,,,,,-6.296875,9.65625,-3.26171875,-3.326171875,2.734375,-2.421875,356.0,356.0,356.0111111111111
4015082,,,,,,,,-6.296875,9.65625,-3.26171875,-0.0703125,-1.177734375,-0.931640625,356.0,356.0,356.0111111111111
4015083,,,,,,,,-6.296875,9.65625,-3.26171875,-0.0703125,-1.177734375,-0.931640625,356.0,356.0,356.0111111111111
4015084,,,,,,,,-6.296875,9.65625,-3.26171875,-3.732421875,3.666015625,-2.17578125,356.0,356.0,356.0111111111111
4015085,,,,,,,,-6.296875,9.65625,-3.26171875,-3.732421875,3.666015625,-2.17578125,356.0,356.0,356.0111111111111
4015086,,,,,,,,-6.296875,9.65625,-3.26171875,-2.390625,1.40234375,-1.416015625,356.0,356.0,356.0111111111111
4015087,,,,,,,,-6.296875,9.65625,-3.26171875,-2.390625,1.40234375,-1.416015625,356.0,356.0,356.0111111111111
4015088,,,,,,,,-6.296875,9.65625,-3.26171875,-0.3671875,1.15625,-2.609375,356.0,356.0,356.0111111111111
4015089,,,,,,,,-6.296875,9.65625,-3.26171875,-0.3671875,1.15625,-2.609375,356.0,356.0,356.0111111111111
4015090,36.013594166666664,129.3196665,96.14306699567264,132.50435380737514,5.1000000000000005,227.0,,-6.296875,9.65625,-3.26171875,-0.029296875,-0.205078125,-1.822265625,356.0,356.0,356.0111111111111
4015091,,,,,,,,-6.296875,9.65625,-3.26171875,-0.029296875,-0.205078125,-1.822265625,356.0,356.0,356.0111111111111
4015092,,,,,,,,-6.296875,9.65625,-3.26171875,1.017578125,-1.125,0.017578125,356.0,356.0,356.0111111111111
4015093,,,,,,,,-12.34765625,5.24609375,-4.23828125,1.017578125,-1.125,0.017578125,356.0,356.0,356.0111111111111
4015094,,,,,,,,-12.34765625,5.24609375,-4.23828125,1.017578125,-1.125,0.017578125,356.0111111111111,356.0,356.0111111111111
4015095,,,,,,,,-12.34765625,5.24609375,-4.23828125,1.017578125,-1.125,0.017578125,356.0111111111111,356.0,356.0111111111111
4015096,,,,,,,,-12.34765625,5.24609375,-4.23828125,1.55859375,-1.853515625,0.48828125,356.0111111111111,356.0,356.0111111111111
4015097,,,,,,,,-12.34765625,5.24609375,-4.23828125,1.55859375,-1.853515625,0.48828125,356.0111111111111,356.0,356.0111111111111
4015098,,,,,,,,-12.34765625,5.24609375,-4.23828125,-0.923828125,-2.48828125,0.3203125,356.0111111111111,356.0,356.0111111111111
4015099,,,,,,,,-12.34765625,5.24609375,-4.23828125,-0.923828125,-2.48828125,0.3203125,356.0111111111111,356.0,356.0111111111111
4015100,36.01358783333333,129.31965733333334,95.3167160200044,131.80160286985097,5.2,229.0,63.0,-12.34765625,5.24609375,-4.23828125,-0.923828125,-2.48828125,0.3203125,356.0111111111111,356.0,356.0111111111111
4015101,,,,,,,,-12.34765625,5.24609375,-4.23828125,-0.923828125,-2.48828125,0.3203125,356.0111111111111,356.0,356.0111111111111
4015102,,,,,,,,-12.34765625,5.24609375,-4.23828125,-3.322265625,-1.7265625,0.38671875,356.0111111111111,356.0,356.0111111111111
4015103,,,,,,,,-12.34765625,5.24609375,-4.23828125,-3.322265625,-1.7265625,0.38671875,356.0111111111111,356.0,356.0111111111111
4015104,,,,,,,,-12.34765625,5.24609375,-4.23828125,0.3203125,2.18359375,-0.3515625,356.0111111111111,356.0,356.0111111111111
4015105,,,,,,,,-12.34765625,5.24609375,-4.23828125,0.3203125,2.18359375,-0.3515625,356.0111111111111,356.0,356.0111111111111
4015106,,,,,,,,-12.34765625,5.24609375,-4.23828125,-1.609375,2.802734375,-0.970703125,356.0111111111111,356.0,356.0111111111111
4015107,,,,,,,,-12.34765625,5.24609375,-4.23828125,-1.609375,2.802734375,-0.970703125,356.0111111111111,356.0,356.0111111111111
4015108,,,,,,,,-12.34765625,5.24609375,-4.23828125,-1.833984375,-0.82421875,-1.25390625,356.0111111111111,356.0,356.0111111111111
4015109,,,,,,,,-12.34765625,5.24609375,-4.23828125,-1.833984375,-0.82421875,-1.25390625,356.0111111111111,356.0,356.0111111111111
4015110,36.013581333333335,129.31964733333334,94.41524158865917,131.08035799405627,5.6000000000000005,230.0,,-12.34765625,5.24609375,-4.23828125,-2.205078125,5.4765625,-0.62890625,356.0111111111111,356.0,356.0111111111111
4015111,,,,,,,,-12.34765625,5.24609375,-4.23828125,-2.205078125,5.4765625,-0.62890625,356.0111111111111,356.0,356.0111111111111
4015112,,,,,,,,-12.34765625,5.24609375,-4.23828125,-0.470703125,1.109375,-2.357421875,356.0111111111111,356.0,356.0111111111111
4015113,,,,,,,,-12.34765625,5.24609375,-4.23828125,-0.470703125,1.109375,-2.357421875,356.0,356.0,356.0111111111111
4015114,,,,,,,,-12.34765625,5.24609375,-4.23828125,-2.83984375,3.0078125,-2.625,356.0,356.0,356.0111111111111
4015115,,,,,,,,-12.34765625,5.24609375,-4.23828125,-2.83984375,3.0078125,-2.625,356.0111111111111,356.0,356.0111111111111
4015116,,,,,,,,-12.34765625,5.24609375,-4.23828125,-3.427734375,2.20703125,-2.064453125,356.0111111111111,356.0,356.0111111111111
4015117,,,,,,,,-2.796875,0.9296875,3.7421875,-3.427734375,2.20703125,-2.064453125,356.0111111111111,356.0,356.0111111111111
4015118,,,,,,,,-2.796875,0.9296875,3.7421875,-3.427734375,2.20703125,-2.064453125,356.0111111111111,356.0,356.0111111111111
4015119,,,,,,,,-2.796875,0.9296875,3.7421875,-0.447265625,0.75,-1.53515625,356.0111111111111,356.0,356.0111111111111
4015120,36.01357766666667,129.31964283333335,94.00957892953248,130.67350305218753,5.800000000000001,228.0,,-2.796875,0.9296875,3.7421875,-0.447265625,0.75,-1.53515625,356.0111111111111,356.0,356.0111111111111
4015121,,,,,,,,-2.796875,0.9296875,3.7421875,0.478515625,0.392578125,-0.04296875,356.0111111111111,356.0,356.0111111111111
4015122,,,,,,,,-2.796875,0.9296875,3.7421875,0.478515625,0.392578125,-0.04296875,356.0111111111111,356.0,356.0111111111111
4015123,,,,,,,,-2.796875,0.9296875,3.7421875,1.541015625,0.1171875,0.8046875,356.0111111111111,356.0,356.0111111111111
4015124,,,,,,,,-2.796875,0.9296875,3.7421875,1.541015625,0.1171875,0.8046875,356.0111111111111,356.0,356.0111111111111
4015125,,,,,,,,-2.796875,0.9296875,3.7421875,1.34765625,0.33984375,-0.376953125,356.0111111111111,356.0,356.0111111111111
4015126,,,,,,,,-2.796875,0.9296875,3.7421875,1.34765625,0.33984375,-0.376953125,356.0111111111111,356.0,356.0111111111111
4015127,,,,,,,,-2.796875,0.9296875,3.7421875,1.927734375,-1.7421875,-0.662109375,356.0111111111111,356.0,356.0111111111111
4015128,,,,,,,,-2.796875,0.9296875,3.7421875,1.927734375,-1.7421875,-0.662109375,356.0111111111111,356.0,356.0111111111111
4015129,,,,,,,,-2.796875,0.9296875,3.7421875,2.857421875,-4.53125,0.71484375,356.0111111111111,356.0,356.0111111111111
4015130,36.01357383333333,129.31963733333333,93.51376819313391,130.24815395853378,6.0,229.0,,-2.796875,0.9296875,3.7421875,2.857421875,-4.53125,0.71484375,356.0111111111111,356.0,356.0111111111111
4015131,,,,,,,,-2.796875,0.9296875,3.7421875,-4.62890625,-3.162109375,0.896484375,356.0111111111111,356.0,356.0111111111111
4015132,,,,,,,,18.0078125,-43.58984375,-2.03125,-4.62890625,-3.162109375,0.896484375,356.0111111111111,356.0,356.0111111111111
4015133,,,,,,,,18.0078125,-43.58984375,-2.03125,-4.62890625,-3.162109375,0.896484375,356.0111111111111,356.0,356.0111111111111
4015134,,,,,,,,18.0078125,-43.58984375,-2.03125,1.13671875,-2.13671875,1.6171875,356.0111111111111,356.0,356.0111111111111
4015135,,,,,,,,18.0078125,-43.58984375,-2.03125,1.13671875,-2.13671875,1.6171875,356.0111111111111,356.0,356.0111111111111
4015136,,,,,,,,18.0078125,-43.58984375,-2.03125,-2.744140625,-1.4140625,3.068359375,356.0111111111111,356.0,356.0111111111111
4015137,,,,,,,,18.0078125,-43.58984375,-2.03125,-2.744140625,-1.4140625,3.068359375,356.0111111111111,356.0,356.0111111111111
4015138,,,,,,,,18.0078125,-43.58984375,-2.03125,-2.17578125,-3.0859375,2.953125,356.0111111111111,356.0,356.0111111111111
4015139,,,,,,,,18.0078125,-43.58984375,-2.03125,-2.17578125,-3.0859375,2.953125,356.0111111111111,356.0,356.0111111111111
4015140,36.01357083333333,129.31963133333332,92.97288230926827,129.91527046027977,6.1000000000000005,232.0,,18.0078125,-43.58984375,-2.03125,-0.84375,-3.431640625,2.125,356.0111111111111,356.0,356.0111111111111
4015141,,,,,,,,18.0078125,-43.58984375,-2.03125,-0.84375,-3.431640625,2.125,356.0111111111111,356.0,356.0111111111111
4015142,,,,,,,,18.0078125,-43.58984375,-2.03125,-1.7890625,-0.03125,1.41796875,356.0111111111111,356.0,356.0111111111111
4015143,,,,,,,,18.0078125,-43.58984375,-2.03125,-1.7890625,-0.03125,1.41796875,356.0111111111111,356.0,356.0111111111111
4015144,,,,,,,,18.0078125,-43.58984375,-2.03125,1.564453125,-1.228515625,1.1796875,356.0111111111111,356.0,356.0111111111111
4015145,,,,,,,,18.0078125,-43.58984375,-2.03125,1.564453125,-1.228515625,1.1796875,356.0111111111111,356.0,356.0111111111111
4015146,,,,,,,,18.0078125,-43.58984375,-2.03125,5.875,-1.34765625,0.404296875,356.0111111111111,356.0,356.0111111111111
4015147,,,,,,,,18.58203125,20.2734375,-2.52734375,5.875,-1.34765625,0.404296875,356.0111111111111,356.0,356.0111111111111
4015148,,,,,,,,18.58203125,20.2734375,-2.52734375,5.875,-1.34765625,0.404296875,356.0111111111111,356.0,356.0111111111111
4015149,,,,,,,,18.58203125,20.2734375,-2.52734375,5.875,-1.34765625,0.404296875,356.0111111111111,356.0,356.0111111111111
4015150,36.0135675,129.319626,92.49209560479542,129.5454012110429,6.1000000000000005,232.0,,18.58203125,20.2734375,-2.52734375,2.708984375,1.587890625,-0.384765625,356.0111111111111,356.0,356.0111111111111
4015151,,,,,,,,18.58203125,20.2734375,-2.52734375,2.708984375,1.587890625,-0.384765625,356.0111111111111,356.0,356.0111111111111
4015152,,,,,,,,18.58203125,20.2734375,-2.52734375,-1.9453125,0.04296875,0.193359375,356.0111111111111,356.0,356.0111111111111
4015153,,,,,,,,18.58203125,20.2734375,-2.52734375,-1.9453125,0.04296875,0.193359375,356.0,356.0,356.0111111111111
4015154,,,,,,,,18.58203125,20.2734375,-2.52734375,-0.716796875,-2.974609375,-0.369140625,356.0,356.0,356.0111111111111
4015155,,,,,,,,18.58203125,20.2734375,-2.52734375,-0.716796875,-2.974609375,-0.369140625,356.0111111111111,356.0,356.0111111111111
4015156,,,,,,,,18.58203125,20.2734375,-2.52734375,1.83984375,3.248046875,-0.333984375,356.0111111111111,356.0,356.0111111111111
4015157,,,,,,,,18.58203125,20.2734375,-2.52734375,1.83984375,3.248046875,-0.333984375,356.0,356.0,356.0111111111111
4015158,,,,,,,,18.58203125,20.2734375,-2.52734375,-3.306640625,3.185546875,-2.478515625,356.0,356.0,356.0111111111111
4015159,,,,,,,,18.58203125,20.2734375,-2.52734375,-3.306640625,3.185546875,-2.478515625,356.0,356.0,356.0111111111111
4015160,36.01356366666666,129.31962033333332,91.98126002385283,129.12005204715132,6.300000000000001,232.0,,18.58203125,20.2734375,-2.52734375,-2.59375,2.546875,-2.107421875,356.0,356.0,356.0111111111111
4015161,,,,,,,,18.58203125,20.2734375,-2.52734375,-2.59375,2.546875,-2.107421875,356.0111111111111,356.0,356.0111111111111
4015162,,,,,,,,18.58203125,20.2734375,-2.52734375,-2.421875,2.1015625,-1.541015625,356.0111111111111,356.0,356.0111111111111
4015163,,,,,,,,-2.70703125,-0.11328125,4.02734375,-2.421875,2.1015625,-1.541015625,356.0111111111111,356.0,356.0111111111111
4015164,,,,,,,,-2.70703125,-0.11328125,4.02734375,-2.421875,2.1015625,-1.541015625,356.0111111111111,356.0,356.0111111111111
4015165,,,,,,,,-2.70703125,-0.11328125,4.02734375,-2.421875,2.1015625,-1.541015625,356.0111111111111,356.0,356.0111111111111
4015166,,,,,,,,-2.70703125,-0.11328125,4.02734375,-0.66796875,1.728515625,-1.4765625,356.0111111111111,356.0,356.0111111111111
4015167,,,,,,,,-2.70703125,-0.11328125,4.02734375,-0.66796875,1.728515625,-1.4765625,356.0111111111111,356.0,356.0111111111111
4015168,,,,,,,,-2.70703125,-0.11328125,4.02734375,1.578125,0.384765625,0.865234375,356.0111111111111,356.0,356.0111111111111
4015169,,,,,,,,-2.70703125,-0.11328125,4.02734375,1.578125,0.384765625,0.865234375,356.0111111111111,356.0,356.0111111111111
4015170,36.013559666666666,129.319615,91.50047400413634,128.67621001783277,6.5,229.0,,-2.70703125,-0.11328125,4.02734375,2.19921875,0.75,0.494140625,356.0111111111111,356.0,356.0111111111111
4015171,,,,,,,,-2.70703125,-0.11328125,4.02734375,2.19921875,0.75,0.494140625,356.0111111111111,356.0,356.0111111111111
4015172,,,,,,,,-2.70703125,-0.11328125,4.02734375,2.068359375,0.328125,-0.630859375,356.0111111111111,356.0,356.0111111111111
4015173,,,,,,,,-2.70703125,-0.11328125,4.02734375,2.068359375,0.328125,-0.630859375,356.0111111111111,356.0,356.0111111111111
4015174,,,,,,,,-2.70703125,-0.11328125,4.02734375,2.328125,-3.09375,-0.451171875,356.0111111111111,356.0,356.0111111111111
4015175,,,,,,,,-2.70703125,-0.11328125,4.02734375,2.328125,-3.09375,-0.451171875,356.0111111111111,356.0,356.0111111111111
4015176,,,,,,,,-2.70703125,-0.11328125,4.02734375,-3.326171875,-2.9375,1.103515625,356.0111111111111,356.0,356.0111111111111
4015177,,,,,,,,-2.70703125,-0.11328125,4.02734375,-3.326171875,-2.9375,1.103515625,356.0111111111111,356.0,356.0111111111111
4015178,,,,,,,,-2.70703125,-0.11328125,4.02734375,0.38671875,0.41015625,-0.490234375,356.0111111111111,356.0,356.0111111111111
4015179,,,,,,,,15.96484375,-7.18359375,5.80078125,0.38671875,0.41015625,-0.490234375,356.0111111111111,356.0,356.0111111111111
4015180,36.01355566666667,129.31960966666665,91.01968793396719,128.23236801619177,6.4,229.0,,15.96484375,-7.18359375,5.80078125,0.38671875,0.41015625,-0.490234375,356.0111111111111,356.0,356.0111111111111
4015181,,,,,,,,15.96484375,-7.18359375,5.80078125,0.38671875,0.41015625,-0.490234375,356.0111111111111,356.0,356.0111111111111
4015182,,,,,,,,15.96484375,-7.18359375,5.80078125,-1.77734375,-2.279296875,1.93359375,356.0111111111111,356.0,356.0111111111111
4015183,,,,,,,,15.96484375,-7.18359375,5.80078125,-1.77734375,-2.279296875,1.93359375,356.0111111111111,356.0,356.0111111111111
4015184,,,,,,,,15.96484375,-7.18359375,5.80078125,-2.9453125,-2.966796875,2.76171875,356.0111111111111,356.0,356.0111111111111
4015185,,,,,,,,15.96484375,-7.18359375,5.80078125,-2.9453125,-2.966796875,2.76171875,356.0111111111111,356.0,356.0111111111111
4015186,,,,,,,,15.96484375,-7.18359375,5.80078125,-1.73828125,-2.16015625,2.482421875,356.0111111111111,356.0,356.0111111111111
4015187,,,,,,,,15.96484375,-7.18359375,5.80078125,-1.73828125,-2.16015625,2.482421875,356.0111111111111,356.0,356.0111111111111
4015188,,,,,,,,15.96484375,-7.18359375,5.80078125,-1.986328125,-0.14453125,1.392578125,356.0111111111111,356.0,356.0111111111111
4015189,,,,,,,,15.96484375,-7.18359375,5.80078125,-1.986328125,-0.14453125,1.392578125,356.0111111111111,356.0,356.0111111111111
4015190,36.01355183333333,129.319604,90.5088522076639,127.80701893855229,6.4,229.0,,15.96484375,-7.18359375,5.80078125,-0.619140625,-0.2109375,0.587890625,356.0111111111111,356.0,356.0111111111111
4015191,,,,,,,,15.96484375,-7.18359375,5.80078125,-0.619140625,-0.2109375,0.587890625,356.0,356.0,356.0111111111111
4015192,,,,,,,,15.96484375,-7.18359375,5.80078125,3.806640625,-1.099609375,0.685546875,356.0,356.0,356.0111111111111
4015193,,,,,,,,15.96484375,-7.18359375,5.80078125,3.806640625,-1.099609375,0.685546875,356.0,356.0,356.0111111111111
4015194,,,,,,,,15.96484375,-7.18359375,5.80078125,4.763671875,1.603515625,0.08203125,356.0,356.0,356.0111111111111
4015195,,,,,,,,9.04296875,18.0859375,-6.71875,4.763671875,1.603515625,0.08203125,356.0,356.0,356.0111111111111
4015196,,,,,,,,9.04296875,18.0859375,-6.71875,4.763671875,1.603515625,0.08203125,356.0,356.0,356.0111111111111
4015197,,,,,,,,9.04296875,18.0859375,-6.71875,1.380859375,1.9453125,-0.078125,356.0,356.0,356.0111111111111
4015198,,,,,,,,9.04296875,18.0859375,-6.71875,1.380859375,1.9453125,-0.078125,356.0,356.0,356.0111111111111
4015199,,,,,,,,9.04296875,18.0859375,-6.71875,-1.333984375,3.7421875,-0.83203125,356.0,356.0,356.0111111111111
4015200,36.013544499999995,129.3195931666667,89.53225436267765,126.9933077509227,6.4,230.0,63.0,9.04296875,18.0859375,-6.71875,-1.333984375,3.7421875,-0.83203125,356.0,356.0,356.0111111111111
4015201,,,,,,,,9.04296875,18.0859375,-6.71875,-1.333984375,3.7421875,-0.83203125,356.0,356.0,356.0111111111111
4015202,,,,,,,,9.04296875,18.0859375,-6.71875,-0.3359375,-2.3828125,-1.3046875,356.0,356.0,356.0111111111111
4015203,,,,,,,,9.04296875,18.0859375,-6.71875,-0.3359375,-2.3828125,-1.3046875,356.0,356.0,356.0111111111111
4015204,,,,,,,,9.04296875,18.0859375,-6.71875,2.74609375,0.447265625,-0.501953125,356.0,356.0,356.0111111111111
4015205,,,,,,,,9.04296875,18.0859375,-6.71875,2.74609375,0.447265625,-0.501953125,356.0111111111111,356.0,356.0111111111111
4015206,,,,,,,,9.04296875,18.0859375,-6.71875,3.849609375,0.32421875,0.421875,356.0111111111111,356.0,356.0111111111111
4015207,,,,,,,,9.04296875,18.0859375,-6.71875,3.849609375,0.32421875,0.421875,356.0111111111111,356.0,356.0111111111111
4015208,,,,,,,,9.04296875,18.0859375,-6.71875,2.451171875,-0.1328125,-1.564453125,356.0111111111111,356.0,356.0111111111111
4015209,,,,,,,,9.04296875,18.0859375,-6.71875,2.451171875,-0.1328125,-1.564453125,356.0111111111111,356.0,356.0111111111111
4015210,36.01353616666667,129.3195825,88.57068216086812,126.06863757340072,6.7,227.0,,9.04296875,18.0859375,-6.71875,1.23828125,-2.76171875,-1.046875,356.0111111111111,356.0,356.0111111111111
4015211,,,,,,,,9.04296875,18.0859375,-6.71875,1.23828125,-2.76171875,-1.046875,356.0111111111111,356.0,356.0111111111111
4015212,,,,,,,,9.04296875,18.0859375,-6.71875,-3.1171875,-1.54296875,0.56640625,356.0111111111111,356.0,356.0111111111111
4015213,,,,,,,,7.44140625,-20.01953125,7.78125,-3.1171875,-1.54296875,0.56640625,356.0111111111111,356.0,356.0111111111111
4015214,,,,,,,,7.44140625,-20.01953125,7.78125,-3.1171875,-1.54296875,0.56640625,356.0111111111111,356.0,356.0111111111111
4015215,,,,,,,,7.44140625,-20.01953125,7.78125,-3.1171875,-1.54296875,0.56640625,356.0111111111111,356.0,356.0111111111111
4015216,,,,,,,,7.44140625,-20.01953125,7.78125,1.833984375,-2.279296875,-0.439453125,356.0111111111111,356.0,356.0111111111111
4015217,,,,,,,,7.44140625,-20.01953125,7.78125,1.833984375,-2.279296875,-0.439453125,356.0111111111111,356.0,356.0111111111111
4015218,,,,,,,,7.44140625,-20.01953125,7.78125,-3.013671875,-2.314453125,2.44921875,356.0111111111111,356.0,356.0111111111111
4015219,,,,,,,,7.44140625,-20.01953125,7.78125,-3.013671875,-2.314453125,2.44921875,356.0111111111111,356.0,356.0111111111111
4015220,36.01353183333333,129.3195765,88.02979731939101,125.58780871367269,6.9,228.0,,7.44140625,-20.01953125,7.78125,-2.853515625,-2.048828125,2.623046875,356.0111111111111,356.0,356.0111111111111
4015221,,,,,,,,7.44140625,-20.01953125,7.78125,-2.853515625,-2.048828125,2.623046875,356.0111111111111,356.0,356.0111111111111
4015222,,,,,,,,7.44140625,-20.01953125,7.78125,-1.234375,-1.564453125,1.51171875,356.0111111111111,356.0,356.0111111111111
4015223,,,,,,,,7.44140625,-20.01953125,7.78125,-1.234375,-1.564453125,1.51171875,356.0111111111111,356.0,356.0111111111111
4015224,,,,,,,,7.44140625,-20.01953125,7.78125,-1.330078125,-0.546875,1.02734375,356.0111111111111,356.0,356.0111111111111
4015225,,,,,,,,7.44140625,-20.01953125,7.78125,-1.330078125,-0.546875,1.02734375,356.0111111111111,356.0,356.0111111111111
4015226,,,,,,,,7.44140625,-20.01953125,7.78125,1.75,-1.640625,1.189453125,356.0111111111111,356.0,356.0111111111111
4015227,,,,,,,,7.44140625,-20.01953125,7.78125,1.75,-1.640625,1.189453125,356.0111111111111,356.0,356.0111111111111
4015228,,,,,,,,7.44140625,-20.01953125,7.78125,3.982421875,-0.5,1.02734375,356.0111111111111,356.0,356.0111111111111
4015229,,,,,,,,14.83984375,13.421875,-3.1953125,3.982421875,-0.5,1.02734375,356.0111111111111,356.0,356.0111111111111
4015230,36.01352833333333,129.31957066666666,87.50393620770171,125.19944607915815,6.7,230.0,,14.83984375,13.421875,-3.1953125,3.982421875,-0.5,1.02734375,356.0111111111111,356.0,356.0111111111111
4015231,,,,,,,,14.83984375,13.421875,-3.1953125,3.185546875,1.78515625,0.0546875,356.0111111111111,356.0,356.0111111111111
4015232,,,,,,,,14.83984375,13.421875,-3.1953125,3.185546875,1.78515625,0.0546875,356.0111111111111,356.0,356.0111111111111
4015233,,,,,,,,14.83984375,13.421875,-3.1953125,0.1484375,1.9453125,-0.501953125,356.0111111111111,356.0,356.0111111111111
4015234,,,,,,,,14.83984375,13.421875,-3.1953125,0.1484375,1.9453125,-0.501953125,356.0,356.0,356.0111111111111
4015235,,,,,,,,14.83984375,13.421875,-3.1953125,-1.26171875,-1.064453125,-1.29296875,356.0,356.0,356.0111111111111
4015236,,,,,,,,14.83984375,13.421875,-3.1953125,-1.26171875,-1.064453125,-1.29296875,356.0111111111111,356.0,356.0111111111111
4015237,,,,,,,,14.83984375,13.421875,-3.1953125,-0.111328125,0.935546875,-1.26171875,356.0111111111111,356.0,356.0111111111111
4015238,,,,,,,,14.83984375,13.421875,-3.1953125,-0.111328125,0.935546875,-1.26171875,356.0111111111111,356.0,356.0111111111111
4015239,,,,,,,,14.83984375,13.421875,-3.1953125,0.578125,2.576171875,-1.115234375,356.0111111111111,356.0,356.0111111111111
4015240,36.013524,129.31956483333335,86.97807596918587,124.71861743391665,6.7,229.0,,14.83984375,13.421875,-3.1953125,0.578125,2.576171875,-1.115234375,356.0111111111111,356.0,356.0111111111111
4015241,,,,,,,,14.83984375,13.421875,-3.1953125,-2.966796875,3.625,-2.9453125,356.0111111111111,356.0,356.0111111111111
4015242,,,,,,,,14.83984375,13.421875,-3.1953125,-2.966796875,3.625,-2.9453125,356.0111111111111,356.0,356.0111111111111
4015243,,,,,,,,14.83984375,13.421875,-3.1953125,-3.009765625,1.921875,-1.98828125,356.0111111111111,356.0,356.0111111111111
4015244,,,,,,,,3.3828125,2.26953125,0.05078125,-3.009765625,1.921875,-1.98828125,356.0111111111111,356.0,356.0111111111111
4015245,,,,,,,,3.3828125,2.26953125,0.05078125,-3.009765625,1.921875,-1.98828125,356.0111111111111,356.0,356.0111111111111
4015246,,,,,,,,3.3828125,2.26953125,0.05078125,-0.85546875,2.427734375,-1.37109375,356.0111111111111,356.0,356.0111111111111
4015247,,,,,,,,3.3828125,2.26953125,0.05078125,-0.85546875,2.427734375,-1.37109375,356.0111111111111,356.0,356.0111111111111
4015248,,,,,,,,3.3828125,2.26953125,0.05078125,0.578125,1.439453125,0.025390625,356.0111111111111,356.0,356.0111111111111
4015249,,,,,,,,3.3828125,2.26953125,0.05078125,0.578125,1.439453125,0.025390625,356.0111111111111,356.0,356.0111111111111
4015250,36.013518999999995,129.31955883333333,86.43719168349112,124.16381583825529,7.0,226.0,,3.3828125,2.26953125,0.05078125,2.896484375,2.09375,-0.2578125,356.0111111111111,356.0,356.0111111111111
4015251,,,,,,,,3.3828125,2.26953125,0.05078125,2.896484375,2.09375,-0.2578125,356.0111111111111,356.0,356.0111111111111
4015252,,,,,,,,3.3828125,2.26953125,0.05078125,5.33984375,0.29296875,1.150390625,356.0111111111111,356.0,356.0111111111111
4015253,,,,,,,,3.3828125,2.26953125,0.05078125,5.33984375,0.29296875,1.150390625,356.0111111111111,356.0,356.0111111111111
4015254,,,,,,,,3.3828125,2.26953125,0.05078125,0.265625,-1.326171875,-0.44140625,356.0111111111111,356.0,356.0111111111111
4015255,,,,,,,,3.3828125,2.26953125,0.05078125,0.265625,-1.326171875,-0.44140625,356.0111111111111,356.0,356.0111111111111
4015256,,,,,,,,3.3828125,2.26953125,0.05078125,-1.427734375,-2.515625,-0.20703125,356.0111111111111,356.0,356.0111111111111
4015257,,,,,,,,3.3828125,2.26953125,0.05078125,-1.427734375,-2.515625,-0.20703125,356.0111111111111,356.0,356.0111111111111
4015258,,,,,,,,3.3828125,2.26953125,0.05078125,-2.48828125,-1.794921875,0.09375,356.0111111111111,356.0,356.0111111111111
4015259,,,,,,,,5.84765625,-30.94140625,21.0390625,-2.48828125,-1.794921875,0.09375,356.0111111111111,356.0,356.0111111111111
4015260,36.01351016666667,129.3195465,85.32537221113468,123.18366491753318,7.2,228.0,,5.84765625,-30.94140625,21.0390625,-2.48828125,-1.794921875,0.09375,356.0111111111111,356.0,356.0111111111111
4015261,,,,,,,,5.84765625,-30.94140625,21.0390625,-2.48828125,-1.794921875,0.09375,356.0111111111111,356.0,356.0111111111111
4015262,,,,,,,,5.84765625,-30.94140625,21.0390625,2.265625,-3.705078125,-0.208984375,356.0111111111111,356.0,356.0111111111111
4015263,,,,,,,,5.84765625,-30.94140625,21.0390625,2.265625,-3.705078125,-0.208984375,356.0111111111111,356.0,356.0111111111111
4015264,,,,,,,,5.84765625,-30.94140625,21.0390625,-2.37109375,-3.341796875,2.501953125,356.0111111111111,356.0,356.0111111111111
4015265,,,,,,,,5.84765625,-30.94140625,21.0390625,-2.37109375,-3.341796875,2.501953125,356.0111111111111,356.0,356.0111111111111
4015266,,,,,,,,5.84765625,-30.94140625,21.0390625,-2.068359375,-2.650390625,2.73046875,356.0111111111111,356.0,356.0111111111111
4015267,,,,,,,,5.84765625,-30.94140625,21.0390625,-2.068359375,-2.650390625,2.73046875,356.0111111111111,356.0,356.0111111111111
4015268,,,,,,,,5.84765625,-30.94140625,21.0390625,-1.626953125,-1.41796875,2.017578125,356.0111111111111,356.0,356.0111111111111
4015269,,,,,,,,5.84765625,-30.94140625,21.0390625,-1.626953125,-1.41796875,2.017578125,356.0111111111111,356.0,356.0111111111111
4015270,36.013507,129.31954066666668,84.79951048338212,122.83228886363645,6.7,231.0,,5.84765625,-30.94140625,21.0390625,-2.58984375,-0.908203125,0.857421875,356.0111111111111,356.0,356.0111111111111
4015271,,,,,,,,5.84765625,-30.94140625,21.0390625,-2.58984375,-0.908203125,0.857421875,356.0111111111111,356.0,356.0111111111111
4015272,,,,,,,,5.84765625,-30.94140625,21.0390625,-0.296875,-1.220703125,0.826171875,356.0111111111111,356.0,356.0111111111111
4015273,,,,,,,,5.84765625,-30.94140625,21.0390625,-0.296875,-1.220703125,0.826171875,356.0111111111111,356.0,356.0111111111111
4015274,,,,,,,,5.84765625,-30.94140625,21.0390625,5.19921875,-1.978515625,-0.328125,356.0111111111111,356.0,356.0111111111111
4015275,,,,,,,,13.14453125,13.0625,-3.1015625,5.19921875,-1.978515625,-0.328125,356.0111111111111,356.0,356.0111111111111
4015276,,,,,,,,13.14453125,13.0625,-3.1015625,5.19921875,-1.978515625,-0.328125,356.0111111111111,356.0,356.0111111111111
4015277,,,,,,,,13.14453125,13.0625,-3.1015625,5.19921875,-1.978515625,-0.328125,356.0111111111111,356.0,356.0111111111111
4015278,,,,,,,,13.14453125,13.0625,-3.1015625,3.177734375,1.400390625,0.3828125,356.0111111111111,356.0,356.0111111111111
4015279,,,,,,,,13.14453125,13.0625,-3.1015625,3.177734375,1.400390625,0.3828125,356.0111111111111,356.0,356.0111111111111
4015280,36.013503166666666,129.31953466666667,84.25862469980461,122.4069398634834,6.800000000000001,232.0,,13.14453125,13.0625,-3.1015625,0.203125,4.65625,-0.40234375,356.0111111111111,356.0,356.0111111111111
4015281,,,,,,,,13.14453125,13.0625,-3.1015625,0.203125,4.65625,-0.40234375,356.0111111111111,356.0,356.0111111111111
4015282,,,,,,,,13.14453125,13.0625,-3.1015625,-1.109375,0.5234375,-0.84765625,356.0111111111111,356.0,356.0111111111111
4015283,,,,,,,,13.14453125,13.0625,-3.1015625,-1.109375,0.5234375,-0.84765625,356.0111111111111,356.0,356.0111111111111
4015284,,,,,,,,13.14453125,13.0625,-3.1015625,0.06640625,0.02734375,-1.041015625,356.0111111111111,356.0,356.0111111111111
4015285,,,,,,,,13.14453125,13.0625,-3.1015625,0.06640625,0.02734375,-1.041015625,356.0111111111111,356.0,356.0111111111111
4015286,,,,,,,,13.14453125,13.0625,-3.1015625,0.513671875,3.54296875,-1.103515625,356.0111111111111,356.0,356.0111111111111
4015287,,,,,,,,13.14453125,13.0625,-3.1015625,0.513671875,3.54296875,-1.103515625,356.0111111111111,356.0,356.0111111111111
4015288,,,,,,,,13.14453125,13.0625,-3.1015625,-3.234375,2.751953125,-2.447265625,356.0111111111111,356.0,356.0111111111111
4015289,,,,,,,,13.14453125,13.0625,-3.1015625,-3.234375,2.751953125,-2.447265625,356.0111111111111,356.0,356.0111111111111
4015290,36.0134985,129.31952816666666,83.67266558596701,121.8891244239587,7.2,230.0,,13.14453125,13.0625,-3.1015625,-3.212890625,2.875,-2.263671875,356.0111111111111,356.0,356.0111111111111
4015291,,,,,,,,5.31640625,-1.52734375,0.359375,-3.212890625,2.875,-2.263671875,356.0111111111111,356.0,356.0111111111111
4015292,,,,,,,,5.31640625,-1.52734375,0.359375,-3.212890625,2.875,-2.263671875,356.0111111111111,356.0,356.0111111111111
4015293,,,,,,,,5.31640625,-1.52734375,0.359375,-3.212890625,2.875,-2.263671875,356.0111111111111,356.0,356.0111111111111
4015294,,,,,,,,5.31640625,-1.52734375,0.359375,-1.5234375,1.642578125,-1.912109375,356.0111111111111,356.0,356.0111111111111
4015295,,,,,,,,5.31640625,-1.52734375,0.359375,-1.5234375,1.642578125,-1.912109375,356.0111111111111,356.0,356.0111111111111
4015296,,,,,,,,5.31640625,-1.52734375,0.359375,-0.326171875,1.45703125,-0.447265625,356.0111111111111,356.0,356.0111111111111
4015297,,,,,,,,5.31640625,-1.52734375,0.359375,-0.326171875,1.45703125,-0.447265625,356.0111111111111,356.0,356.0111111111111
4015298,,,,,,,,5.31640625,-1.52734375,0.359375,3.3203125,1.263671875,1.44140625,356.0111111111111,356.0,356.0111111111111
4015299,,,,,,,,5.31640625,-1.52734375,0.359375,3.3203125,1.263671875,1.44140625,356.0111111111111,356.0,356.0111111111111
4015300,36.013490000000004,129.31951633333335,82.60591934093664,120.9459606984932,7.2,229.0,63.0,5.31640625,-1.52734375,0.359375,3.3203125,1.263671875,1.44140625,356.0111111111111,356.0,356.0111111111111
4015301,,,,,,,,5.31640625,-1.52734375,0.359375,3.3203125,1.263671875,1.44140625,356.0111111111111,356.0,356.0111111111111
4015302,,,,,,,,5.31640625,-1.52734375,0.359375,3.123046875,-1.390625,-0.171875,356.0111111111111,356.0,356.0111111111111
4015303,,,,,,,,5.31640625,-1.52734375,0.359375,3.123046875,-1.390625,-0.171875,356.0111111111111,356.0,356.0111111111111
4015304,,,,,,,,5.31640625,-1.52734375,0.359375,4.07421875,-3.5390625,1.619140625,356.0111111111111,356.0,356.0111111111111
4015305,,,,,,,,5.31640625,-1.52734375,0.359375,4.07421875,-3.5390625,1.619140625,356.0111111111111,356.0,356.0111111111111
4015306,,,,,,,,5.31640625,-1.52734375,0.359375,7.880859375,-0.19921875,-0.921875,356.0111111111111,356.0,356.0111111111111
4015307,,,,,,,,5.31640625,-1.52734375,0.359375,7.880859375,-0.19921875,-0.921875,356.0111111111111,356.0,356.0111111111111
4015308,,,,,,,,5.31640625,-1.52734375,0.359375,2.609375,0.72265625,0.181640625,356.0111111111111,356.0,356.0111111111111
4015309,,,,,,,,5.31640625,-1.52734375,0.359375,2.609375,0.72265625,0.181640625,356.0111111111111,356.0,356.0111111111111
4015310,36.0134825,129.31950416666666,81.50912238183955,120.11375607269512,6.9,232.0,,5.31640625,-1.52734375,0.359375,1.220703125,2.607421875,0.017578125,356.0111111111111,356.0,356.0111111111111
4015311,,,,,,,,5.31640625,-1.52734375,0.359375,1.220703125,2.607421875,0.017578125,356.0111111111111,356.0,356.0111111111111
4015312,,,,,,,,5.31640625,-1.52734375,0.359375,-1.751953125,1.849609375,-0.078125,356.0111111111111,356.0,356.0111111111111
4015313,,,,,,,,5.31640625,-1.52734375,0.359375,-1.751953125,1.849609375,-0.078125,356.0111111111111,356.0,356.0111111111111
4015314,,,,,,,,5.31640625,-1.52734375,0.359375,-1.85546875,-0.830078125,-1.646484375,356.0111111111111,356.0,356.0111111111111
4015315,,,,,,,,-14.921875,-38.7890625,-1.66015625,-1.85546875,-0.830078125,-1.646484375,356.0111111111111,356.0,356.0111111111111
4015316,,,,,,,,-14.921875,-38.7890625,-1.66015625,-1.85546875,-0.830078125,-1.646484375,356.0111111111111,356.0,356.0111111111111
4015317,,,,,,,,-14.921875,-38.7890625,-1.66015625,-2.208984375,3.919921875,-1.880859375,356.0111111111111,356.0,356.0111111111111
4015318,,,,,,,,-14.921875,-38.7890625,-1.66015625,-2.208984375,3.919921875,-1.880859375,356.0111111111111,356.0,356.0111111111111
4015319,,,,,,,,-14.921875,-38.7890625,-1.66015625,-2.228515625,3.869140625,-2.87890625,356.0111111111111,356.0,356.0111111111111
4015320,36.01347783333333,129.31949799999998,80.95321240241933,119.59594109538321,7.2,229.0,,-14.921875,-38.7890625,-1.66015625,-2.228515625,3.869140625,-2.87890625,356.0111111111111,356.0,356.0111111111111
4015321,,,,,,,,-14.921875,-38.7890625,-1.66015625,-2.4609375,3.12109375,-2.73046875,356.0111111111111,356.0,356.0111111111111
4015322,,,,,,,,-14.921875,-38.7890625,-1.66015625,-2.4609375,3.12109375,-2.73046875,356.0111111111111,356.0,356.0111111111111
4015323,,,,,,,,-14.921875,-38.7890625,-1.66015625,-1.73046875,2.22265625,-2.287109375,356.0111111111111,356.0,356.0111111111111
4015324,,,,,,,,-14.921875,-38.7890625,-1.66015625,-1.73046875,2.22265625,-2.287109375,356.0111111111111,356.0,356.0111111111111
4015325,,,,,,,,-14.921875,-38.7890625,-1.66015625,-0.810546875,2.09765625,-0.73046875,356.0111111111111,356.0,356.0111111111111
4015326,,,,,,,,-14.921875,-38.7890625,-1.66015625,-0.810546875,2.09765625,-0.73046875,356.0111111111111,356.0,356.0111111111111
4015327,,,,,,,,-14.921875,-38.7890625,-1.66015625,0.759765625,1.408203125,-0.8203125,356.0111111111111,356.0,356.0111111111111
4015328,,,,,,,,-14.921875,-38.7890625,-1.66015625,0.759765625,1.408203125,-0.8203125,356.0111111111111,356.0,356.0111111111111
4015329,,,,,,,,-14.921875,-38.7890625,-1.66015625,4.060546875,1.671875,1.048828125,356.0111111111111,356.0,356.0111111111111
4015330,36.013473833333336,129.31949183333333,80.39730168081095,119.15209898877939,7.1000000000000005,229.0,,-14.35546875,16.12109375,-4.6171875,4.060546875,1.671875,1.048828125,356.0111111111111,356.0,356.0111111111111
4015331,,,,,,,,-14.35546875,16.12109375,-4.6171875,4.060546875,1.671875,1.048828125,356.0111111111111,356.0,356.0111111111111
4015332,,,,,,,,-14.35546875,16.12109375,-4.6171875,0.8203125,-1.462890625,-0.68359375,356.0111111111111,356.0,356.0111111111111
4015333,,,,,,,,-14.35546875,16.12109375,-4.6171875,0.8203125,-1.462890625,-0.68359375,356.0111111111111,356.0,356.0111111111111
4015334,,,,,,,,-14.35546875,16.12109375,-4.6171875,-0.126953125,-2.36328125,-0.58984375,356.0111111111111,356.0,356.0111111111111
4015335,,,,,,,,-14.35546875,16.12109375,-4.6171875,-0.126953125,-2.36328125,-0.58984375,356.0111111111111,356.0,356.0111111111111
4015336,,,,,,,,-14.35546875,16.12109375,-4.6171875,-2.1640625,-3.294921875,0.341796875,356.0111111111111,356.0,356.0111111111111
4015337,,,,,,,,-14.35546875,16.12109375,-4.6171875,-2.1640625,-3.294921875,0.341796875,356.0111111111111,356.0,356.0111111111111
4015338,,,,,,,,-14.35546875,16.12109375,-4.6171875,1.505859375,0.146484375,-0.474609375,356.0111111111111,356.0,356.0111111111111
4015339,,,,,,,,-14.35546875,16.12109375,-4.6171875,1.505859375,0.146484375,-0.474609375,356.0111111111111,356.0,356.0111111111111
4015340,36.01346933333333,129.3194855,79.82636668149138,118.65277715507129,7.300000000000001,229.0,,-14.35546875,16.12109375,-4.6171875,1.60546875,-3.56640625,-0.021484375,356.0111111111111,356.0,356.0111111111111
4015341,,,,,,,,-14.35546875,16.12109375,-4.6171875,1.60546875,-3.56640625,-0.021484375,356.0111111111111,356.0,356.0111111111111
4015342,,,,,,,,-14.35546875,16.12109375,-4.6171875,-1.83984375,-3.88671875,2.359375,356.0111111111111,356.0,356.0111111111111
4015343,,,,,,,,-14.35546875,16.12109375,-4.6171875,-1.83984375,-3.88671875,2.359375,356.0111111111111,356.0,356.0111111111111
4015344,,,,,,,,-14.35546875,16.12109375,-4.6171875,-2.44921875,-3.310546875,2.80078125,356.0111111111111,356.0,356.0111111111111
4015345,,,,,,,,-4.265625,-1.0859375,-2.16015625,-2.44921875,-3.310546875,2.80078125,356.0111111111111,356.0,356.0111111111111
4015346,,,,,,,,-4.265625,-1.0859375,-2.16015625,-2.44921875,-3.310546875,2.80078125,356.0111111111111,356.0,356.0111111111111
4015347,,,,,,,,-4.265625,-1.0859375,-2.16015625,-2.44921875,-3.310546875,2.80078125,356.0111111111111,356.0,356.0111111111111
4015348,,,,,,,,-4.265625,-1.0859375,-2.16015625,-1.203125,-2.271484375,2.2421875,356.0111111111111,356.0,356.0111111111111
4015349,,,,,,,,-4.265625,-1.0859375,-2.16015625,-1.203125,-2.271484375,2.2421875,356.0111111111111,356.0,356.0111111111111
4015350,36.01346616666667,129.31947899999997,79.24040555218015,118.30140089075249,7.0,232.0,,-4.265625,-1.0859375,-2.16015625,-2.388671875,0.181640625,-0.591796875,356.0111111111111,356.0,356.0111111111111
4015351,,,,,,,,-4.265625,-1.0859375,-2.16015625,-2.388671875,0.181640625,-0.591796875,356.0111111111111,356.0,356.0111111111111
4015352,,,,,,,,-4.265625,-1.0859375,-2.16015625,2.15625,-3.171875,1.103515625,356.0111111111111,356.0,356.0111111111111
4015353,,,,,,,,-4.265625,-1.0859375,-2.16015625,2.15625,-3.171875,1.103515625,356.0111111111111,356.0,356.0111111111111
4015354,,,,,,,,-4.265625,-1.0859375,-2.16015625,6.783203125,0.2890625,-0.634765625,356.0111111111111,356.0,356.0111111111111
4015355,,,,,,,,-4.265625,-1.0859375,-2.16015625,6.783203125,0.2890625,-0.634765625,356.0111111111111,356.0,356.0111111111111
4015356,,,,,,,,-4.265625,-1.0859375,-2.16015625,2.986328125,1.4140625,0.537109375,356.0111111111111,356.0,356.0111111111111
4015357,,,,,,,,-4.265625,-1.0859375,-2.16015625,2.986328125,1.4140625,0.537109375,356.0111111111111,356.0,356.0111111111111
4015358,,,,,,,,-4.265625,-1.0859375,-2.16015625,1.873046875,1.337890625,0.56640625,356.0111111111111,356.0,356.0111111111111
4015359,,,,,,,,-4.265625,-1.0859375,-2.16015625,1.873046875,1.337890625,0.56640625,356.0111111111111,356.0,356.0111111111111
4015360,36.01346233333334,129.319473,78.69951922511326,117.87605223608378,6.9,233.0,,-4.265625,-1.0859375,-2.16015625,-1.294921875,2.845703125,-0.357421875,356.0111111111111,356.0,356.0111111111111
4015361,,,,,,,,5.359375,5.4453125,-2.5703125,-1.294921875,2.845703125,-0.357421875,356.0111111111111,356.0,356.0111111111111
4015362,,,,,,,,5.359375,5.4453125,-2.5703125,-1.294921875,2.845703125,-0.357421875,356.0111111111111,356.0,356.0111111111111
4015363,,,,,,,,5.359375,5.4453125,-2.5703125,-1.294921875,2.845703125,-0.357421875,356.0111111111111,356.0,356.0111111111111
4015364,,,,,,,,5.359375,5.4453125,-2.5703125,0.408203125,-0.001953125,-0.828125,356.0111111111111,356.0,356.0111111111111
4015365,,,,,,,,5.359375,5.4453125,-2.5703125,0.408203125,-0.001953125,-0.828125,356.0111111111111,356.0,356.0111111111111
4015366,,,,,,,,5.359375,5.4453125,-2.5703125,-0.287109375,4.541015625,-1.44140625,356.0111111111111,356.0,356.0111111111111
4015367,,,,,,,,5.359375,5.4453125,-2.5703125,-0.287109375,4.541015625,-1.44140625,356.0111111111111,356.0,356.0111111111111
4015368,,,,,,,,5.359375,5.4453125,-2.5703125,-4.447265625,3.50390625,-3.005859375,356.0111111111111,356.0,356.0111111111111
4015369,,,,,,,,5.359375,5.4453125,-2.5703125,-4.447265625,3.50390625,-3.005859375,356.0111111111111,356.0,356.0111111111111
4015370,36.013457833333334,129.31946699999997,78.1586334993823,117.37673078091751,7.2,231.0,,5.359375,5.4453125,-2.5703125,-3.8984375,2.703125,-2.61328125,356.0111111111111,356.0,356.0111111111111
4015371,,,,,,,,5.359375,5.4453125,-2.5703125,-3.8984375,2.703125,-2.61328125,356.0111111111111,356.0,356.0111111111111
4015372,,,,,,,,5.359375,5.4453125,-2.5703125,-2.103515625,0.638671875,-1.392578125,356.0111111111111,356.0,356.0111111111111
4015373,,,,,,,,5.359375,5.4453125,-2.5703125,-2.103515625,0.638671875,-1.392578125,356.0111111111111,356.0,356.0111111111111
4015374,,,,,,,,5.359375,5.4453125,-2.5703125,-0.99609375,1.419921875,0.20703125,356.0111111111111,356.0,356.0111111111111
4015375,,,,,,,,5.359375,5.4453125,-2.5703125,-0.99609375,1.419921875,0.20703125,356.0111111111111,356.0,356.0111111111111
4015376,,,,,,,,5.359375,5.4453125,-2.5703125,0.033203125,3.9921875,-0.78125,356.0111111111111,356.0,356.0111111111111
4015377,,,,,,,,-9.5234375,2.05859375,1.23046875,0.033203125,3.9921875,-0.78125,356.0111111111111,356.0,356.0111111111111
4015378,,,,,,,,-9.5234375,2.05859375,1.23046875,0.033203125,3.9921875,-0.78125,356.0111111111111,356.0,356.0111111111111
4015379,,,,,,,,-9.5234375,2.05859375,1.23046875,0.033203125,3.9921875,-0.78125,356.0111111111111,356.0,356.0111111111111
4015380,36.0134535,129.31946150000002,77.6628217396736,116.89590296644796,7.0,228.0,,-9.5234375,2.05859375,1.23046875,3.2734375,-0.13671875,0.373046875,356.0111111111111,356.0,356.0111111111111
4015381,,,,,,,,-9.5234375,2.05859375,1.23046875,3.2734375,-0.13671875,0.373046875,356.0111111111111,356.0,356.0111111111111
4015382,,,,,,,,-9.5234375,2.05859375,1.23046875,0.546875,-1.169921875,-1.115234375,356.0111111111111,356.0,356.0111111111111
4015383,,,,,,,,-9.5234375,2.05859375,1.23046875,0.546875,-1.169921875,-1.115234375,356.0111111111111,356.0,356.0111111111111
4015384,,,,,,,,-9.5234375,2.05859375,1.23046875,-1.158203125,-3.1328125,0.083984375,356.0111111111111,356.0,356.0111111111111
4015385,,,,,,,,-9.5234375,2.05859375,1.23046875,-1.158203125,-3.1328125,0.083984375,356.0111111111111,356.0,356.0111111111111
4015386,,,,,,,,-9.5234375,2.05859375,1.23046875,-2.318359375,-2.609375,-0.349609375,356.0111111111111,356.0,356.0111111111111
4015387,,,,,,,,-9.5234375,2.05859375,1.23046875,-2.318359375,-2.609375,-0.349609375,356.0111111111111,356.0,356.0111111111111
4015388,,,,,,,,-9.5234375,2.05859375,1.23046875,2.7265625,-3.814453125,1.572265625,356.0111111111111,356.0,356.0111111111111
4015389,,,,,,,,-9.5234375,2.05859375,1.23046875,2.7265625,-3.814453125,1.572265625,356.0111111111111,356.0,356.0111111111111
4015390,36.01344533333334,129.319449,76.53597499439816,115.98972586997425,7.1000000000000005,231.0,,-9.5234375,2.05859375,1.23046875,0.619140625,-4.11328125,3.0625,356.0111111111111,356.0,356.0111111111111
4015391,,,,,,,,-9.5234375,2.05859375,1.23046875,0.619140625,-4.11328125,3.0625,356.0111111111111,356.0,356.0111111111111
4015392,,,,,,,,-9.5234375,2.05859375,1.23046875,-2.384765625,-3.556640625,2.921875,356.0111111111111,356.0,356.0111111111111
4015393,,,,,,,,3.2734375,0.046875,-4.109375,-2.384765625,-3.556640625,2.921875,356.0111111111111,356.0,356.0111111111111
4015394,,,,,,,,3.2734375,0.046875,-4.109375,-2.384765625,-3.556640625,2.921875,356.0111111111111,356.0,356.0111111111111
4015395,,,,,,,,3.2734375,0.046875,-4.109375,-1.013671875,-1.537109375,1.791015625,356.0111111111111,356.0,356.0111111111111
4015396,,,,,,,,3.2734375,0.046875,-4.109375,-1.013671875,-1.537109375,1.791015625,356.0111111111111,356.0,356.0111111111111
4015397,,,,,,,,3.2734375,0.046875,-4.109375,0.919921875,-1.810546875,1.2109375,356.0111111111111,356.0,356.0111111111111
4015398,,,,,,,,3.2734375,0.046875,-4.109375,0.919921875,-1.810546875,1.2109375,356.0111111111111,356.0,356.0111111111111
