time,latitude,longitude,enu_x,enu_y,speed,course,Hrage,accX,accY,accZ,gyrX,gyrY,gyrZ,eulR,eulP,eulY
4111900,36.013614999999994,129.31971433333334,100.45512998452396,134.81605315946013,0.7000000000000001,184.0,48.0,-2.5390625,0.83984375,1.60546875,-0.337890625,0.220703125,0.01953125,356.0,356.0,356.0111111111111
4111901,,,,,,,,-2.5390625,0.83984375,1.60546875,-0.337890625,0.220703125,0.01953125,356.0,356.0,356.0111111111111
4111902,,,,,,,,-2.5390625,0.83984375,1.60546875,-0.328125,0.142578125,0.083984375,356.0,356.0,356.0111111111111
4111903,,,,,,,,-2.5390625,0.83984375,1.60546875,-0.328125,0.142578125,0.083984375,356.0,356.0,356.0111111111111
4111904,,,,,,,,-2.5390625,0.83984375,1.60546875,-0.201171875,0.046875,0.138671875,356.0,356.0,356.0111111111111
4111905,,,,,,,,-2.5390625,0.83984375,1.60546875,-0.201171875,0.046875,0.138671875,356.0,356.0,356.0111111111111
4111906,,,,,,,,-2.5390625,0.83984375,1.60546875,-0.06640625,0.072265625,0.181640625,356.0,356.0,356.0111111111111
4111907,,,,,,,,-2.5390625,0.83984375,1.60546875,-0.06640625,0.072265625,0.181640625,356.0,356.0,356.0111111111111
4111908,,,,,,,,-2.5390625,0.83984375,1.60546875,-0.03515625,-0.00390625,0.2578125,356.0,356.0,356.0111111111111
4111909,,,,,,,,-2.5390625,0.83984375,1.60546875,-0.03515625,-0.00390625,0.2578125,356.0,356.0,356.0111111111111
4111910,36.0136145,129.31971383333334,100.41005652588474,134.7605730183879,0.6000000000000001,191.0,,-2.5390625,0.83984375,1.60546875,0.037109375,-0.19921875,0.32421875,356.0,356.0,356.0111111111111
4111911,,,,,,,,-0.65234375,0.1015625,1.2734375,0.037109375,-0.19921875,0.32421875,356.0,356.0,356.0111111111111
4111912,,,,,,,,-0.65234375,0.1015625,1.2734375,0.037109375,-0.19921875,0.32421875,356.0,356.0,356.0111111111111
4111913,,,,,,,,-0.65234375,0.1015625,1.2734375,0.037109375,-0.19921875,0.32421875,356.0,356.0,356.0111111111111
4111914,,,,,,,,-0.65234375,0.1015625,1.2734375,0.67578125,0.1328125,0.29296875,356.0,356.0,356.0111111111111
4111915,,,,,,,,-0.65234375,0.1015625,1.2734375,0.67578125,0.1328125,0.29296875,356.0,356.0,356.0111111111111
4111916,,,,,,,,-0.65234375,0.1015625,1.2734375,0.77734375,0.005859375,0.21484375,356.0,356.0,356.0111111111111
4111917,,,,,,,,-0.65234375,0.1015625,1.2734375,0.77734375,0.005859375,0.21484375,356.0,356.0,356.0111111111111
4111918,,,,,,,,-0.65234375,0.1015625,1.2734375,0.548828125,0.095703125,0.197265625,356.0,356.0,356.0111111111111
4111919,,,,,,,,-0.65234375,0.1015625,1.2734375,0.548828125,0.095703125,0.197265625,356.0,356.0,356.0111111111111
4111920,36.01361416666667,129.31971366666667,100.39503225080391,134.7235864294733,0.5,196.0,,-0.65234375,0.1015625,1.2734375,0.298828125,0.41796875,0.248046875,356.0,356.0,356.0111111111111
4111921,,,,,,,,-0.65234375,0.1015625,1.2734375,0.298828125,0.41796875,0.248046875,356.0,356.0,356.0111111111111
4111922,,,,,,,,-0.65234375,0.1015625,1.2734375,0.259765625,0.5546875,0.2890625,356.0,356.0,356.0111111111111
4111923,,,,,,,,-0.65234375,0.1015625,1.2734375,0.259765625,0.5546875,0.2890625,356.0,356.0,356.0111111111111
4111924,,,,,,,,-0.65234375,0.1015625,1.2734375,0.375,0.43359375,0.28515625,356.0,356.0,356.0111111111111
4111925,,,,,,,,-0.65234375,0.1015625,1.2734375,0.375,0.43359375,0.28515625,356.0,356.0,356.0111111111111
4111926,,,,,,,,-0.65234375,0.1015625,1.2734375,0.529296875,0.169921875,0.296875,356.0,356.0,356.0111111111111
4111927,,,,,,,,-0.59375,0.921875,1.53515625,0.529296875,0.169921875,0.296875,356.0,356.0,356.0111111111111
4111928,,,,,,,,-0.59375,0.921875,1.53515625,0.529296875,0.169921875,0.296875,356.0,356.0,356.0111111111111
4111929,,,,,,,,-0.59375,0.921875,1.53515625,0.505859375,0.150390625,0.310546875,356.0,356.0,356.0111111111111
4111930,36.013613666666664,129.3197135,100.38000818474647,134.6681066307756,0.4,205.0,,-0.59375,0.921875,1.53515625,0.505859375,0.150390625,0.310546875,356.0,356.0,356.0111111111111
4111931,,,,,,,,-0.59375,0.921875,1.53515625,0.447265625,0.3046875,0.330078125,356.0,356.0,356.0111111111111
4111932,,,,,,,,-0.59375,0.921875,1.53515625,0.447265625,0.3046875,0.330078125,356.0,356.0,356.0111111111111
4111933,,,,,,,,-0.59375,0.921875,1.53515625,0.48046875,0.439453125,0.33984375,356.0,356.0,356.0111111111111
4111934,,,,,,,,-0.59375,0.921875,1.53515625,0.48046875,0.439453125,0.33984375,356.0,356.0,356.0111111111111
4111935,,,,,,,,-0.59375,0.921875,1.53515625,0.533203125,0.3671875,0.36328125,356.0,356.0,356.0111111111111
4111936,,,,,,,,-0.59375,0.921875,1.53515625,0.533203125,0.3671875,0.36328125,356.0,356.0,356.0111111111111
4111937,,,,,,,,-0.59375,0.921875,1.53515625,0.689453125,0.021484375,0.333984375,356.0,356.0,356.0111111111111
4111938,,,,,,,,-0.59375,0.921875,1.53515625,0.689453125,0.021484375,0.333984375,356.0,356.0,356.0111111111111
4111939,,,,,,,,-0.59375,0.921875,1.53515625,0.794921875,-0.560546875,0.287109375,356.0,356.0,356.0111111111111
4111940,36.0136135,129.31971333333334,100.36498369844645,134.6496132501786,0.30000000000000004,207.0,,-0.59375,0.921875,1.53515625,0.794921875,-0.560546875,0.287109375,356.0,356.0,356.0111111111111
4111941,,,,,,,,-0.59375,0.921875,1.53515625,0.3671875,-0.3828125,0.275390625,356.0,356.0,356.0111111111111
4111942,,,,,,,,-2.9609375,0.8828125,1.48046875,0.3671875,-0.3828125,0.275390625,356.0,356.0,356.0111111111111
4111943,,,,,,,,-2.9609375,0.8828125,1.48046875,0.3671875,-0.3828125,0.275390625,356.0,356.0,356.0111111111111
4111944,,,,,,,,-2.9609375,0.8828125,1.48046875,0.3671875,-0.3828125,0.275390625,356.0,356.0,356.0111111111111
4111945,,,,,,,,-2.9609375,0.8828125,1.48046875,0.38671875,-0.111328125,0.173828125,356.0,356.0,356.0111111111111
4111946,,,,,,,,-2.9609375,0.8828125,1.48046875,0.38671875,-0.111328125,0.173828125,356.0,356.0,356.0111111111111
4111947,,,,,,,,-2.9609375,0.8828125,1.48046875,0.462890625,-0.48828125,0.185546875,356.0,356.0,356.0111111111111
4111948,,,,,,,,-2.9609375,0.8828125,1.48046875,0.462890625,-0.48828125,0.185546875,356.0,356.0,356.0111111111111
4111949,,,,,,,,-2.9609375,0.8828125,1.48046875,0.470703125,-0.587890625,0.10546875,356.0,356.0,356.0111111111111
4111950,36.0136135,129.31971299999998,100.3349343004918,134.6496129067613,0.30000000000000004,213.0,,-2.9609375,0.8828125,1.48046875,0.470703125,-0.587890625,0.10546875,356.0,356.0,356.0111111111111
4111951,,,,,,,,-2.9609375,0.8828125,1.48046875,0.375,-0.630859375,0.00390625,356.0,356.0,356.0111111111111
4111952,,,,,,,,-2.9609375,0.8828125,1.48046875,0.375,-0.630859375,0.00390625,356.0,356.0,356.0111111111111
4111953,,,,,,,,-2.9609375,0.8828125,1.48046875,0.3125,-0.634765625,-0.033203125,356.0,356.0,356.0111111111111
4111954,,,,,,,,-2.9609375,0.8828125,1.48046875,0.3125,-0.634765625,-0.033203125,356.0,356.0,356.0111111111111
4111955,,,,,,,,-2.9609375,0.8828125,1.48046875,0.3515625,-0.703125,-0.08203125,356.0,356.0,356.0111111111111
4111956,,,,,,,,-2.9609375,0.8828125,1.48046875,0.3515625,-0.703125,-0.08203125,356.0,356.0,356.0111111111111
4111957,,,,,,,,-2.9609375,0.8828125,1.48046875,0.341796875,-0.875,-0.1015625,356.0,356.0,356.0111111111111
4111958,,,,,,,,-1.875,1.44921875,0.76953125,0.341796875,-0.875,-0.1015625,356.0,356.0,356.0111111111111
4111959,,,,,,,,-1.875,1.44921875,0.76953125,0.341796875,-0.875,-0.1015625,356.0,356.0,356.0111111111111
4111960,36.013613666666664,129.3197128333333,100.31990939145837,134.66810594409438,0.2,65535.0,,-1.875,1.44921875,0.76953125,0.328125,-0.697265625,-0.109375,356.0,356.0,356.0111111111111
4111961,,,,,,,,-1.875,1.44921875,0.76953125,0.328125,-0.697265625,-0.109375,356.0,356.0,356.0111111111111
4111962,,,,,,,,-1.875,1.44921875,0.76953125,0.458984375,-0.783203125,-0.048828125,356.0,356.0,356.0111111111111
4111963,,,,,,,,-1.875,1.44921875,0.76953125,0.458984375,-0.783203125,-0.048828125,356.0,356.0,356.0111111111111
4111964,,,,,,,,-1.875,1.44921875,0.76953125,0.419921875,-0.74609375,-0.0078125,356.0,356.0,356.0111111111111
4111965,,,,,,,,-1.875,1.44921875,0.76953125,0.419921875,-0.74609375,-0.0078125,356.0,356.0,356.0111111111111
4111966,,,,,,,,-1.875,1.44921875,0.76953125,0.314453125,-0.654296875,-0.03125,356.0,356.0,356.0111111111111
4111967,,,,,,,,-1.875,1.44921875,0.76953125,0.314453125,-0.654296875,-0.03125,356.0,356.0,356.0111111111111
4111968,,,,,,,,-1.875,1.44921875,0.76953125,0.220703125,-0.40625,-0.1328125,356.0,356.0,356.0111111111111
4111969,,,,,,,,-1.875,1.44921875,0.76953125,0.220703125,-0.40625,-0.1328125,356.0,356.0,356.0111111111111
4111970,36.013614,129.3197128333333,100.3199089689548,134.70509236149155,0.1,65535.0,,-1.875,1.44921875,0.76953125,0.33203125,-0.63671875,-0.171875,356.0,356.0,356.0111111111111
4111971,,,,,,,,-1.875,1.44921875,0.76953125,0.33203125,-0.63671875,-0.171875,356.0,356.0,356.0111111111111
4111972,,,,,,,,-1.875,1.44921875,0.76953125,0.333984375,-0.705078125,-0.3046875,356.0,356.0,356.0111111111111
4111973,,,,,,,,4.44921875,-0.53515625,0.28515625,0.333984375,-0.705078125,-0.3046875,356.0,356.0,356.0111111111111
4111974,,,,,,,,4.44921875,-0.53515625,0.28515625,0.333984375,-0.705078125,-0.3046875,356.0,356.0,356.0111111111111
4111975,,,,,,,,4.44921875,-0.53515625,0.28515625,0.55078125,-0.2421875,-0.28515625,356.0,356.0,356.0111111111111
4111976,,,,,,,,4.44921875,-0.53515625,0.28515625,0.55078125,-0.2421875,-0.28515625,356.0,356.0,356.0111111111111
4111977,,,,,,,,4.44921875,-0.53515625,0.28515625,0.283203125,0.1796875,-0.3125,356.0,356.0,356.0111111111111
4111978,,,,,,,,4.44921875,-0.53515625,0.28515625,0.283203125,0.1796875,-0.3125,356.0,356.0,356.0111111111111
4111979,,,,,,,,4.44921875,-0.53515625,0.28515625,0.353515625,0.533203125,-0.36328125,356.0,356.0,356.0111111111111
4111980,36.01361466666666,129.3197128333333,100.31990812407808,134.77906519626868,0.4,287.0,,4.44921875,-0.53515625,0.28515625,0.353515625,0.533203125,-0.36328125,356.0,356.0,356.0111111111111
4111981,,,,,,,,4.44921875,-0.53515625,0.28515625,0.26953125,0.509765625,-0.404296875,356.0,356.0,356.0111111111111
4111982,,,,,,,,4.44921875,-0.53515625,0.28515625,0.26953125,0.509765625,-0.404296875,356.0,356.0,356.0111111111111
4111983,,,,,,,,4.44921875,-0.53515625,0.28515625,0.234375,0.5234375,-0.34375,356.0,356.0,356.0111111111111
4111984,,,,,,,,4.44921875,-0.53515625,0.28515625,0.234375,0.5234375,-0.34375,356.0,356.0,356.0111111111111
4111985,,,,,,,,4.44921875,-0.53515625,0.28515625,0.27734375,0.6796875,-0.267578125,356.0,356.0,356.0111111111111
4111986,,,,,,,,4.44921875,-0.53515625,0.28515625,0.27734375,0.6796875,-0.267578125,356.0,356.0,356.0111111111111
4111987,,,,,,,,4.44921875,-0.53515625,0.28515625,0.08984375,0.69140625,-0.228515625,356.0,356.0,356.0111111111111
4111988,,,,,,,,3.3203125,-2.39453125,-0.66796875,0.08984375,0.69140625,-0.228515625,356.0,356.0,356.0111111111111
4111989,,,,,,,,3.3203125,-2.39453125,-0.66796875,0.08984375,0.69140625,-0.228515625,356.0,356.0,356.0111111111111
4111990,36.013614833333335,129.3197125,100.28985852001634,134.79755806337624,0.2,65535.0,,3.3203125,-2.39453125,-0.66796875,0.08984375,0.69140625,-0.228515625,356.0,356.0,356.0111111111111
4111991,,,,,,,,3.3203125,-2.39453125,-0.66796875,0.595703125,0.73046875,-0.2421875,356.0,356.0,356.0111111111111
4111992,,,,,,,,3.3203125,-2.39453125,-0.66796875,0.595703125,0.73046875,-0.2421875,356.0,356.0,356.0111111111111
4111993,,,,,,,,3.3203125,-2.39453125,-0.66796875,0.142578125,0.7265625,-0.162109375,356.0,356.0,356.0111111111111
4111994,,,,,,,,3.3203125,-2.39453125,-0.66796875,0.142578125,0.7265625,-0.162109375,356.0,356.0,356.0111111111111
4111995,,,,,,,,3.3203125,-2.39453125,-0.66796875,0.125,0.765625,-0.12890625,356.0,356.0,356.0111111111111
4111996,,,,,,,,3.3203125,-2.39453125,-0.66796875,0.125,0.765625,-0.12890625,356.0,356.0,356.0111111111111
4111997,,,,,,,,3.3203125,-2.39453125,-0.66796875,0.25390625,0.611328125,-0.029296875,356.0,356.0,356.0111111111111
4111998,,,,,,,,3.3203125,-2.39453125,-0.66796875,0.25390625,0.611328125,-0.029296875,356.0,356.0,356.0111111111111
4111999,,,,,,,,3.3203125,-2.39453125,-0.66796875,0.400390625,0.572265625,0.021484375,356.0,356.0,356.0111111111111
4112000,36.01361416666667,129.31971266666667,100.30488406182212,134.7235853997016,0.30000000000000004,243.0,48.0,3.3203125,-2.39453125,-0.66796875,0.400390625,0.572265625,0.021484375,356.0,356.0,356.0111111111111
4112001,,,,,,,,3.3203125,-2.39453125,-0.66796875,0.400390625,0.572265625,0.021484375,356.0,356.0,356.0111111111111
4112002,,,,,,,,3.3203125,-2.39453125,-0.66796875,0.400390625,0.572265625,0.021484375,356.0,356.0,356.0111111111111
4112003,,,,,,,,3.3203125,-2.39453125,-0.66796875,0.53515625,0.37890625,0.08984375,356.0,356.0,356.0111111111111
4112004,,,,,,,,3.3203125,-2.39453125,-0.66796875,0.53515625,0.37890625,0.08984375,356.0,356.0,356.0111111111111
4112005,,,,,,,,3.3203125,-2.39453125,-0.66796875,0.12890625,-0.443359375,0.138671875,356.0,356.0,356.0111111111111
4112006,,,,,,,,3.3203125,-2.39453125,-0.66796875,0.12890625,-0.443359375,0.138671875,356.0,356.0,356.0111111111111
4112007,,,,,,,,3.3203125,-2.39453125,-0.66796875,0.04296875,-0.505859375,0.171875,356.0,356.0,356.0111111111111
4112008,,,,,,,,3.3203125,-2.39453125,-0.66796875,0.04296875,-0.505859375,0.171875,356.0,356.0,356.0111111111111
4112009,,,,,,,,3.3203125,-2.39453125,-0.66796875,0.01171875,-0.5078125,0.166015625,356.0,356.0,356.0111111111111
4112010,36.013613666666664,129.31971216666668,100.25981060007099,134.66810525791345,0.2,215.0,,3.3203125,-2.39453125,-0.66796875,0.01171875,-0.5078125,0.166015625,356.0,356.0,356.0111111111111
4112011,,,,,,,,3.3203125,-2.39453125,-0.66796875,0.041015625,-0.533203125,0.158203125,356.0,356.0,356.0111111111111
4112012,,,,,,,,3.3203125,-2.39453125,-0.66796875,0.041015625,-0.533203125,0.158203125,356.0,356.0,356.0111111111111
4112013,,,,,,,,3.3203125,-2.39453125,-0.66796875,-0.00390625,-0.6328125,0.107421875,356.0,356.0,356.0111111111111
4112014,,,,,,,,3.3203125,-2.39453125,-0.66796875,-0.00390625,-0.6328125,0.107421875,356.0,356.0,356.0111111111111
4112015,,,,,,,,3.3203125,-2.39453125,-0.66796875,-0.005859375,-0.587890625,0.0625,356.0,356.0,356.0111111111111
4112016,,,,,,,,3.3203125,-2.39453125,-0.66796875,-0.005859375,-0.587890625,0.0625,356.0,356.0,356.0111111111111
4112017,,,,,,,,3.3203125,-2.39453125,-0.66796875,0.033203125,-0.5859375,0.0703125,356.0,356.0,356.0111111111111
4112018,,,,,,,,-0.75,0.4140625,0.5390625,0.033203125,-0.5859375,0.0703125,356.0,356.0,356.0111111111111
4112019,,,,,,,,-0.75,0.4140625,0.5390625,0.033203125,-0.5859375,0.0703125,356.0,356.0,356.0111111111111
4112020,36.013613666666664,129.31971216666668,100.25981060007099,134.66810525791345,0.1,65535.0,,-0.75,0.4140625,0.5390625,0.005859375,-0.626953125,0.064453125,356.0,356.0,356.0111111111111
4112021,,,,,,,,-0.75,0.4140625,0.5390625,0.005859375,-0.626953125,0.064453125,356.0,356.0,356.0111111111111
4112022,,,,,,,,-0.75,0.4140625,0.5390625,0.009765625,-0.658203125,0.01953125,356.0,356.0,356.0111111111111
4112023,,,,,,,,-0.75,0.4140625,0.5390625,0.009765625,-0.658203125,0.01953125,356.0,356.0,356.0111111111111
4112024,,,,,,,,-0.75,0.4140625,0.5390625,0.052734375,-0.57421875,0.0,356.0,356.0,356.0111111111111
4112025,,,,,,,,-0.75,0.4140625,0.5390625,0.052734375,-0.57421875,0.0,356.0,356.0,356.0111111111111
4112026,,,,,,,,-0.75,0.4140625,0.5390625,-0.00390625,-0.44140625,-0.029296875,356.0,356.0,356.0111111111111
4112027,,,,,,,,-0.75,0.4140625,0.5390625,-0.00390625,-0.44140625,-0.029296875,356.0,356.0,356.0111111111111
4112028,,,,,,,,-0.75,0.4140625,0.5390625,0.01171875,-0.41796875,-0.03125,356.0,356.0,356.0111111111111
4112029,,,,,,,,-0.75,0.4140625,0.5390625,0.01171875,-0.41796875,-0.03125,356.0,356.0,356.0111111111111
4112030,36.013613666666664,129.31971233333334,100.27483529991636,134.66810542938103,0.1,65535.0,,-0.75,0.4140625,0.5390625,0.009765625,-0.373046875,-0.017578125,356.0,356.0,356.0111111111111
4112031,,,,,,,,-0.75,0.4140625,0.5390625,0.009765625,-0.373046875,-0.017578125,356.0,356.0,356.0111111111111
4112032,,,,,,,,-0.75,0.4140625,0.5390625,0.0,-0.28515625,-0.017578125,356.0,356.0,356.0111111111111
4112033,,,,,,,,0.91015625,-0.4921875,0.23046875,0.0,-0.28515625,-0.017578125,356.0,356.0,356.0111111111111
4112034,,,,,,,,0.91015625,-0.4921875,0.23046875,0.0,-0.28515625,-0.017578125,356.0,356.0,356.0111111111111
4112035,,,,,,,,0.91015625,-0.4921875,0.23046875,-0.060546875,-0.087890625,-0.0234375,356.0,356.0,356.0111111111111
4112036,,,,,,,,0.91015625,-0.4921875,0.23046875,-0.060546875,-0.087890625,-0.0234375,356.0111111111111,356.0,356.0111111111111
4112037,,,,,,,,0.91015625,-0.4921875,0.23046875,-0.103515625,-0.05859375,-0.041015625,356.0111111111111,356.0,356.0111111111111
4112038,,,,,,,,0.91015625,-0.4921875,0.23046875,-0.103515625,-0.05859375,-0.041015625,356.0111111111111,356.0,356.0111111111111
4112039,,,,,,,,0.91015625,-0.4921875,0.23046875,-0.072265625,-0.044921875,-0.046875,356.0111111111111,356.0,356.0111111111111
4112040,36.01361383333334,129.31971233333334,100.27483508928731,134.68659863887558,0.0,65535.0,,0.91015625,-0.4921875,0.23046875,-0.072265625,-0.044921875,-0.046875,356.0111111111111,356.0,356.0111111111111
4112041,,,,,,,,0.91015625,-0.4921875,0.23046875,-0.041015625,-0.01953125,-0.0234375,356.0111111111111,356.0,356.0111111111111
4112042,,,,,,,,0.91015625,-0.4921875,0.23046875,-0.041015625,-0.01953125,-0.0234375,356.0111111111111,356.0,356.0111111111111
4112043,,,,,,,,0.91015625,-0.4921875,0.23046875,-0.001953125,-0.037109375,-0.01953125,356.0111111111111,356.0,356.0111111111111
4112044,,,,,,,,0.91015625,-0.4921875,0.23046875,-0.001953125,-0.037109375,-0.01953125,356.0111111111111,356.0,356.0111111111111
4112045,,,,,,,,0.91015625,-0.4921875,0.23046875,0.01953125,-0.1015625,-0.005859375,356.0111111111111,356.0,356.0111111111111
4112046,,,,,,,,0.91015625,-0.4921875,0.23046875,0.01953125,-0.1015625,-0.005859375,356.0111111111111,356.0,356.0111111111111
4112047,,,,,,,,0.91015625,-0.4921875,0.23046875,0.0078125,-0.046875,-0.005859375,356.0111111111111,356.0,356.0111111111111
4112048,,,,,,,,0.22265625,-0.015625,-0.7265625,0.0078125,-0.046875,-0.005859375,356.0111111111111,356.0,356.0111111111111
4112049,,,,,,,,0.22265625,-0.015625,-0.7265625,0.0078125,-0.046875,-0.005859375,356.0111111111111,356.0,356.0111111111111
4112050,36.01361383333334,129.31971233333334,100.27483508928731,134.68659863887558,0.0,65535.0,,0.22265625,-0.015625,-0.7265625,0.0078125,-0.046875,-0.005859375,356.0111111111111,356.0,356.0111111111111
4112051,,,,,,,,0.22265625,-0.015625,-0.7265625,0.09375,0.0625,-0.03515625,356.0111111111111,356.0,356.0111111111111
4112052,,,,,,,,0.22265625,-0.015625,-0.7265625,0.09375,0.0625,-0.03515625,356.0111111111111,356.0,356.0111111111111
4112053,,,,,,,,0.22265625,-0.015625,-0.7265625,0.123046875,-0.033203125,0.001953125,356.0111111111111,356.0,356.0111111111111
4112054,,,,,,,,0.22265625,-0.015625,-0.7265625,0.123046875,-0.033203125,0.001953125,356.0111111111111,356.0,356.0111111111111
4112055,,,,,,,,0.22265625,-0.015625,-0.7265625,4.55078125,-4.634765625,-4.44921875,356.0111111111111,356.0,356.0111111111111
4112056,,,,,,,,0.22265625,-0.015625,-0.7265625,4.55078125,-4.634765625,-4.44921875,356.0111111111111,356.0,356.0111111111111
4112057,,,,,,,,0.22265625,-0.015625,-0.7265625,0.2265625,-0.263671875,0.015625,356.0111111111111,356.0,356.0111111111111
4112058,,,,,,,,0.22265625,-0.015625,-0.7265625,0.2265625,-0.263671875,0.015625,356.0111111111111,356.0,356.0111111111111
4112059,,,,,,,,0.22265625,-0.015625,-0.7265625,0.259765625,-0.26953125,0.03515625,356.0111111111111,356.0,356.0111111111111
4112060,36.013614,129.31971216666668,100.25981017822275,134.70509167534894,0.1,65535.0,,0.22265625,-0.015625,-0.7265625,0.259765625,-0.26953125,0.03515625,356.0111111111111,356.0,356.0111111111111
4112061,,,,,,,,0.22265625,-0.015625,-0.7265625,0.337890625,-0.28515625,0.015625,356.0111111111111,356.0,356.0111111111111
4112062,,,,,,,,0.22265625,-0.015625,-0.7265625,0.337890625,-0.28515625,0.015625,356.0111111111111,356.0,356.0111111111111
4112063,,,,,,,,0.22265625,-0.015625,-0.7265625,0.390625,-0.328125,0.0234375,356.0111111111111,356.0,356.0111111111111
4112064,,,,,,,,0.31640625,-0.1328125,0.109375,0.390625,-0.328125,0.0234375,356.0111111111111,356.0,356.0111111111111
4112065,,,,,,,,0.31640625,-0.1328125,0.109375,0.390625,-0.328125,0.0234375,356.0111111111111,356.0,356.0111111111111
4112066,,,,,,,,0.31640625,-0.1328125,0.109375,0.390625,-0.328125,0.0234375,356.0111111111111,356.0,356.0111111111111
4112067,,,,,,,,0.31640625,-0.1328125,0.109375,0.388671875,-0.2890625,-0.015625,356.0111111111111,356.0,356.0111111111111
4112068,,,,,,,,0.31640625,-0.1328125,0.109375,0.388671875,-0.2890625,-0.015625,356.0111111111111,356.0,356.0111111111111
4112069,,,,,,,,0.31640625,-0.1328125,0.109375,0.279296875,-0.0703125,0.00390625,356.0111111111111,356.0,356.0111111111111
4112070,36.013614,129.319712,100.24478548004825,134.70509150378456,0.1,65535.0,,0.31640625,-0.1328125,0.109375,0.279296875,-0.0703125,0.00390625,356.0111111111111,356.0,356.0111111111111
4112071,,,,,,,,0.31640625,-0.1328125,0.109375,0.283203125,-0.060546875,0.01171875,356.0111111111111,356.0,356.0111111111111
4112072,,,,,,,,0.31640625,-0.1328125,0.109375,0.283203125,-0.060546875,0.01171875,356.0111111111111,356.0,356.0111111111111
4112073,,,,,,,,0.31640625,-0.1328125,0.109375,0.248046875,0.0,-0.05859375,356.0111111111111,356.0,356.0111111111111
4112074,,,,,,,,0.31640625,-0.1328125,0.109375,0.248046875,0.0,-0.05859375,356.0111111111111,356.0,356.0111111111111
4112075,,,,,,,,0.31640625,-0.1328125,0.109375,0.28125,0.00390625,-0.09375,356.0111111111111,356.0,356.0111111111111
4112076,,,,,,,,0.31640625,-0.1328125,0.109375,0.28125,0.00390625,-0.09375,356.0111111111111,356.0,356.0111111111111
4112077,,,,,,,,0.31640625,-0.1328125,0.109375,0.306640625,0.044921875,-0.099609375,356.0111111111111,356.0,356.0111111111111
4112078,,,,,,,,0.31640625,-0.1328125,0.109375,0.306640625,0.044921875,-0.099609375,356.0111111111111,356.0,356.0111111111111
4112079,,,,,,,,0.31640625,-0.1328125,0.109375,0.3125,0.11328125,-0.123046875,356.0111111111111,356.0,356.0111111111111
4112080,36.01361383333334,129.31971183333332,100.22976099106182,134.6865981245495,0.0,65535.0,,0.14453125,0.65625,0.1640625,0.3125,0.11328125,-0.123046875,356.0111111111111,356.0,356.0111111111111
4112081,,,,,,,,0.14453125,0.65625,0.1640625,0.3125,0.11328125,-0.123046875,356.0111111111111,356.0,356.0111111111111
4112082,,,,,,,,0.14453125,0.65625,0.1640625,0.3125,0.11328125,-0.123046875,356.0111111111111,356.0,356.0111111111111
4112083,,,,,,,,0.14453125,0.65625,0.1640625,0.259765625,0.14453125,-0.119140625,356.0111111111111,356.0,356.0111111111111
4112084,,,,,,,,0.14453125,0.65625,0.1640625,0.259765625,0.14453125,-0.119140625,356.0111111111111,356.0,356.0111111111111
4112085,,,,,,,,0.14453125,0.65625,0.1640625,0.26171875,0.083984375,-0.0546875,356.0111111111111,356.0,356.0111111111111
4112086,,,,,,,,0.14453125,0.65625,0.1640625,0.26171875,0.083984375,-0.0546875,356.0111111111111,356.0,356.0111111111111
4112087,,,,,,,,0.14453125,0.65625,0.1640625,0.26171875,0.00390625,0.03515625,356.0111111111111,356.0,356.0111111111111
4112088,,,,,,,,0.14453125,0.65625,0.1640625,0.26171875,0.00390625,0.03515625,356.0111111111111,356.0,356.0111111111111
4112089,,,,,,,,0.14453125,0.65625,0.1640625,0.251953125,-0.029296875,0.068359375,356.0111111111111,356.0,356.0111111111111
4112090,36.01361383333334,129.31971166666665,100.21473629318238,134.68659795319692,0.0,65535.0,,0.14453125,0.65625,0.1640625,0.251953125,-0.029296875,0.068359375,356.0111111111111,356.0,356.0111111111111
4112091,,,,,,,,0.14453125,0.65625,0.1640625,0.232421875,-0.095703125,0.083984375,356.0111111111111,356.0,356.0111111111111
4112092,,,,,,,,0.14453125,0.65625,0.1640625,0.232421875,-0.095703125,0.083984375,356.0111111111111,356.0,356.0111111111111
4112093,,,,,,,,0.14453125,0.65625,0.1640625,0.201171875,-0.1796875,0.056640625,356.0111111111111,356.0,356.0111111111111
4112094,,,,,,,,0.14453125,0.65625,0.1640625,0.201171875,-0.1796875,0.056640625,356.0111111111111,356.0,356.0111111111111
4112095,,,,,,,,0.14453125,0.65625,0.1640625,0.208984375,-0.1015625,-0.060546875,356.0111111111111,356.0,356.0111111111111
4112096,,,,,,,,2.359375,-0.67578125,-5.9296875,0.208984375,-0.1015625,-0.060546875,356.0111111111111,356.0,356.0111111111111
4112097,,,,,,,,2.359375,-0.67578125,-5.9296875,0.208984375,-0.1015625,-0.060546875,356.0111111111111,356.0,356.0111111111111
4112098,,,,,,,,2.359375,-0.67578125,-5.9296875,0.529296875,0.123046875,-0.322265625,356.0111111111111,356.0,356.0111111111111
4112099,,,,,,,,2.359375,-0.67578125,-5.9296875,0.529296875,0.123046875,-0.322265625,356.0111111111111,356.0,356.0111111111111
4112100,36.013614,129.31971166666665,100.21473608232344,134.7050911609644,0.0,65535.0,48.0,2.359375,-0.67578125,-5.9296875,0.529296875,0.123046875,-0.322265625,356.0111111111111,356.0,356.0111111111111
4112101,,,,,,,,2.359375,-0.67578125,-5.9296875,0.529296875,0.123046875,-0.322265625,356.0111111111111,356.0,356.0111111111111
4112102,,,,,,,,2.359375,-0.67578125,-5.9296875,0.6015625,0.212890625,-0.267578125,356.0111111111111,356.0,356.0111111111111
4112103,,,,,,,,2.359375,-0.67578125,-5.9296875,0.6015625,0.212890625,-0.267578125,356.0111111111111,356.0,356.0111111111111
4112104,,,,,,,,2.359375,-0.67578125,-5.9296875,0.6015625,0.212890625,-0.267578125,356.0111111111111,356.0,356.0111111111111
4112105,,,,,,,,2.359375,-0.67578125,-5.9296875,-0.705078125,0.2734375,2.37109375,356.0111111111111,356.0,356.0111111111111
4112106,,,,,,,,2.359375,-0.67578125,-5.9296875,-0.705078125,0.2734375,2.37109375,356.0,356.0,356.0111111111111
4112107,,,,,,,,2.359375,-0.67578125,-5.9296875,-0.22265625,-0.705078125,2.099609375,356.0,356.0,356.0111111111111
4112108,,,,,,,,2.359375,-0.67578125,-5.9296875,-0.22265625,-0.705078125,2.099609375,356.0,356.0,356.0111111111111
4112109,,,,,,,,2.359375,-0.67578125,-5.9296875,1.28125,-0.353515625,1.685546875,356.0,356.0,356.0111111111111
4112110,36.013611999999995,129.31971000000001,100.06449163308143,134.48317094189957,1.2000000000000002,207.0,,2.359375,-0.67578125,-5.9296875,1.28125,-0.353515625,1.685546875,356.0,356.0,356.0111111111111
4112111,,,,,,,,2.359375,-0.67578125,-5.9296875,3.37109375,-0.83984375,0.85546875,356.0,356.0,356.0111111111111
4112112,,,,,,,,2.359375,-0.67578125,-5.9296875,3.37109375,-0.83984375,0.85546875,356.0,356.0,356.0111111111111
4112113,,,,,,,,2.359375,-0.67578125,-5.9296875,2.916015625,-1.73828125,-0.02734375,356.0,356.0,356.0111111111111
4112114,,,,,,,,2.359375,-0.67578125,-5.9296875,2.916015625,-1.73828125,-0.02734375,356.0,356.0,356.0111111111111
4112115,,,,,,,,2.359375,-0.67578125,-5.9296875,1.267578125,-0.470703125,-0.2421875,356.0,356.0,356.0111111111111
4112116,,,,,,,,-16.94140625,-5.2109375,-3.7734375,1.267578125,-0.470703125,-0.2421875,356.0,356.0,356.0111111111111
4112117,,,,,,,,-16.94140625,-5.2109375,-3.7734375,1.267578125,-0.470703125,-0.2421875,356.0,356.0,356.0111111111111
4112118,,,,,,,,-16.94140625,-5.2109375,-3.7734375,1.267578125,-0.470703125,-0.2421875,356.0,356.0,356.0111111111111
4112119,,,,,,,,-16.94140625,-5.2109375,-3.7734375,0.783203125,-1.861328125,-1.203125,356.0,356.0,356.0111111111111
4112120,36.013610666666665,129.31970983333335,100.04946861971632,134.33522510081073,1.1,204.0,,-16.94140625,-5.2109375,-3.7734375,0.783203125,-1.861328125,-1.203125,356.0,356.0,356.0111111111111
4112121,,,,,,,,-16.94140625,-5.2109375,-3.7734375,-1.291015625,0.93359375,-1.68359375,356.0,356.0,356.0111111111111
4112122,,,,,,,,-16.94140625,-5.2109375,-3.7734375,-1.291015625,0.93359375,-1.68359375,356.0,356.0,356.0111111111111
4112123,,,,,,,,-16.94140625,-5.2109375,-3.7734375,-1.43359375,0.41796875,-1.7265625,356.0,356.0,356.0111111111111
4112124,,,,,,,,-16.94140625,-5.2109375,-3.7734375,-1.43359375,0.41796875,-1.7265625,356.0,356.0,356.0111111111111
4112125,,,,,,,,-16.94140625,-5.2109375,-3.7734375,-1.16015625,0.447265625,-1.724609375,356.0,356.0,356.0111111111111
4112126,,,,,,,,-16.94140625,-5.2109375,-3.7734375,-1.16015625,0.447265625,-1.724609375,356.0,356.0,356.0111111111111
4112127,,,,,,,,-16.94140625,-5.2109375,-3.7734375,-0.611328125,0.51171875,-1.779296875,356.0,356.0,356.0111111111111
4112128,,,,,,,,-16.94140625,-5.2109375,-3.7734375,-0.611328125,0.51171875,-1.779296875,356.0,356.0,356.0111111111111
4112129,,,,,,,,-16.94140625,-5.2109375,-3.7734375,-0.2890625,-0.21484375,-1.72265625,356.0,356.0,356.0111111111111
4112130,36.01360916666667,129.31970833333335,99.91424822552861,134.16878468341397,1.6,206.0,,-16.94140625,-5.2109375,-3.7734375,-0.2890625,-0.21484375,-1.72265625,356.0,356.0,356.0111111111111
4112131,,,,,,,,-16.94140625,-5.2109375,-3.7734375,0.1953125,-0.859375,-1.181640625,356.0,356.0,356.0111111111111
4112132,,,,,,,,-2.0546875,-5.0625,-9.3359375,0.1953125,-0.859375,-1.181640625,356.0,356.0,356.0111111111111
4112133,,,,,,,,-2.0546875,-5.0625,-9.3359375,0.1953125,-0.859375,-1.181640625,356.0111111111111,356.0,356.0111111111111
4112134,,,,,,,,-2.0546875,-5.0625,-9.3359375,1.654296875,-0.099609375,0.0390625,356.0111111111111,356.0,356.0111111111111
4112135,,,,,,,,-2.0546875,-5.0625,-9.3359375,1.654296875,-0.099609375,0.0390625,356.0111111111111,356.0,356.0111111111111
4112136,,,,,,,,-2.0546875,-5.0625,-9.3359375,2.345703125,-0.5625,0.982421875,356.0111111111111,356.0,356.0111111111111
4112137,,,,,,,,-2.0546875,-5.0625,-9.3359375,2.345703125,-0.5625,0.982421875,356.0111111111111,356.0,356.0111111111111
4112138,,,,,,,,-2.0546875,-5.0625,-9.3359375,0.724609375,-1.380859375,1.287109375,356.0111111111111,356.0,356.0111111111111
4112139,,,,,,,,-2.0546875,-5.0625,-9.3359375,0.724609375,-1.380859375,1.287109375,356.0111111111111,356.0,356.0111111111111
4112140,36.0136075,129.31970583333333,99.68887983714046,133.98385003450875,1.9000000000000001,220.0,,-2.0546875,-5.0625,-9.3359375,-1.66015625,-1.732421875,1.177734375,356.0111111111111,356.0,356.0111111111111
4112141,,,,,,,,-2.0546875,-5.0625,-9.3359375,-1.66015625,-1.732421875,1.177734375,356.0111111111111,356.0,356.0111111111111
4112142,,,,,,,,-2.0546875,-5.0625,-9.3359375,-3.916015625,0.22265625,0.6640625,356.0111111111111,356.0,356.0111111111111
4112143,,,,,,,,-2.0546875,-5.0625,-9.3359375,-3.916015625,0.22265625,0.6640625,356.0111111111111,356.0,356.0111111111111
4112144,,,,,,,,-2.0546875,-5.0625,-9.3359375,-2.291015625,0.375,0.955078125,356.0111111111111,356.0,356.0111111111111
4112145,,,,,,,,-2.0546875,-5.0625,-9.3359375,-2.291015625,0.375,0.955078125,356.0111111111111,356.0,356.0111111111111
4112146,,,,,,,,-2.0546875,-5.0625,-9.3359375,-0.28515625,-0.267578125,1.615234375,356.0111111111111,356.0,356.0111111111111
4112147,,,,,,,,-1.3671875,-4.76171875,4.94140625,-0.28515625,-0.267578125,1.615234375,356.0111111111111,356.0,356.0111111111111
4112148,,,,,,,,-1.3671875,-4.76171875,4.94140625,-0.28515625,-0.267578125,1.615234375,356.0111111111111,356.0,356.0111111111111
4112149,,,,,,,,-1.3671875,-4.76171875,4.94140625,-2.296875,-1.087890625,1.572265625,356.0111111111111,356.0,356.0111111111111
4112150,36.01360583333334,129.31970316666667,99.44848674232969,133.7989152214135,2.4000000000000004,225.0,,-1.3671875,-4.76171875,4.94140625,-2.296875,-1.087890625,1.572265625,356.0111111111111,356.0,356.0111111111111
4112151,,,,,,,,-1.3671875,-4.76171875,4.94140625,-0.33203125,-1.54296875,2.283203125,356.0111111111111,356.0,356.0111111111111
4112152,,,,,,,,-1.3671875,-4.76171875,4.94140625,-0.33203125,-1.54296875,2.283203125,356.0,356.0,356.0111111111111
4112153,,,,,,,,-1.3671875,-4.76171875,4.94140625,0.203125,0.353515625,2.37890625,356.0,356.0,356.0111111111111
4112154,,,,,,,,-1.3671875,-4.76171875,4.94140625,0.203125,0.353515625,2.37890625,356.0,356.0,356.0111111111111
4112155,,,,,,,,-1.3671875,-4.76171875,4.94140625,0.017578125,-0.32421875,0.962890625,356.0,356.0,356.0111111111111
4112156,,,,,,,,-1.3671875,-4.76171875,4.94140625,0.017578125,-0.32421875,0.962890625,356.0,356.0,356.0111111111111
4112157,,,,,,,,-1.3671875,-4.76171875,4.94140625,2.736328125,-1.86328125,1.046875,356.0,356.0,356.0111111111111
4112158,,,,,,,,-1.3671875,-4.76171875,4.94140625,2.736328125,-1.86328125,1.046875,356.0,356.0,356.0111111111111
4112159,,,,,,,,-1.3671875,-4.76171875,4.94140625,4.025390625,-0.7265625,0.33984375,356.0,356.0,356.0111111111111
4112160,36.013604,129.31970033333334,99.19306914707637,133.59548703600524,2.8000000000000003,227.0,,-1.3671875,-4.76171875,4.94140625,4.025390625,-0.7265625,0.33984375,356.0,356.0,356.0111111111111
4112161,,,,,,,,-1.3671875,-4.76171875,4.94140625,2.568359375,-0.044921875,-0.13671875,356.0,356.0,356.0111111111111
4112162,,,,,,,,6.28515625,24.26171875,-13.16796875,2.568359375,-0.044921875,-0.13671875,356.0,356.0,356.0111111111111
4112163,,,,,,,,6.28515625,24.26171875,-13.16796875,2.568359375,-0.044921875,-0.13671875,356.0,356.0,356.0111111111111
4112164,,,,,,,,6.28515625,24.26171875,-13.16796875,2.568359375,-0.044921875,-0.13671875,356.0,356.0,356.0111111111111
4112165,,,,,,,,6.28515625,24.26171875,-13.16796875,-1.314453125,0.189453125,0.0078125,356.0,356.0,356.0111111111111
4112166,,,,,,,,6.28515625,24.26171875,-13.16796875,-1.314453125,0.189453125,0.0078125,356.0,356.0,356.0111111111111
4112167,,,,,,,,6.28515625,24.26171875,-13.16796875,-3.77734375,1.912109375,-1.62109375,356.0,356.0,356.0111111111111
4112168,,,,,,,,6.28515625,24.26171875,-13.16796875,-3.77734375,1.912109375,-1.62109375,356.0,356.0,356.0111111111111
4112169,,,,,,,,6.28515625,24.26171875,-13.16796875,-1.771484375,1.705078125,-2.150390625,356.0,356.0,356.0111111111111
4112170,36.013601333333334,129.31969666666666,98.86252907575803,133.29959196885727,3.4000000000000004,227.0,,6.28515625,24.26171875,-13.16796875,-1.771484375,1.705078125,-2.150390625,356.0,356.0,356.0111111111111
4112171,,,,,,,,6.28515625,24.26171875,-13.16796875,-0.025390625,-0.60546875,-1.576171875,356.0,356.0,356.0111111111111
4112172,,,,,,,,6.28515625,24.26171875,-13.16796875,-0.025390625,-0.60546875,-1.576171875,356.0,356.0,356.0111111111111
4112173,,,,,,,,6.28515625,24.26171875,-13.16796875,-3.125,2.68359375,-2.228515625,356.0,356.0,356.0111111111111
4112174,,,,,,,,6.28515625,24.26171875,-13.16796875,-3.125,2.68359375,-2.228515625,356.0,356.0,356.0111111111111
4112175,,,,,,,,6.28515625,24.26171875,-13.16796875,-2.07421875,2.05859375,-1.95703125,356.0,356.0,356.0111111111111
4112176,,,,,,,,6.28515625,24.26171875,-13.16796875,-2.07421875,2.05859375,-1.95703125,356.0,356.0,356.0111111111111
4112177,,,,,,,,6.28515625,24.26171875,-13.16796875,-1.314453125,0.9140625,-3.400390625,356.0,356.0,356.0111111111111
4112178,,,,,,,,4.2109375,4.0546875,-7.45703125,-1.314453125,0.9140625,-3.400390625,356.0,356.0,356.0111111111111
4112179,,,,,,,,4.2109375,4.0546875,-7.45703125,-1.314453125,0.9140625,-3.400390625,356.0,356.0,356.0111111111111
4112180,36.01359849999999,129.31969316666667,98.54701389281512,132.9852038737779,3.9000000000000004,226.0,,4.2109375,4.0546875,-7.45703125,-1.314453125,0.9140625,-3.400390625,356.0,356.0,356.0111111111111
4112181,,,,,,,,4.2109375,4.0546875,-7.45703125,0.0390625,0.45703125,-1.603515625,356.0,356.0,356.0111111111111
4112182,,,,,,,,4.2109375,4.0546875,-7.45703125,0.0390625,0.45703125,-1.603515625,356.0111111111111,356.0,356.0111111111111
4112183,,,,,,,,4.2109375,4.0546875,-7.45703125,2.486328125,-0.568359375,0.087890625,356.0111111111111,356.0,356.0111111111111
4112184,,,,,,,,4.2109375,4.0546875,-7.45703125,2.486328125,-0.568359375,0.087890625,356.0111111111111,356.0,356.0111111111111
4112185,,,,,,,,4.2109375,4.0546875,-7.45703125,1.3671875,-0.9453125,0.30078125,356.0111111111111,356.0,356.0111111111111
4112186,,,,,,,,4.2109375,4.0546875,-7.45703125,1.3671875,-0.9453125,0.30078125,356.0111111111111,356.0,356.0111111111111
4112187,,,,,,,,4.2109375,4.0546875,-7.45703125,-0.046875,-0.65234375,-0.578125,356.0111111111111,356.0,356.0111111111111
4112188,,,,,,,,4.2109375,4.0546875,-7.45703125,-0.046875,-0.65234375,-0.578125,356.0111111111111,356.0,356.0111111111111
4112189,,,,,,,,4.2109375,4.0546875,-7.45703125,-2.845703125,-3.37109375,0.283203125,356.0111111111111,356.0,356.0111111111111
4112190,36.01359383333333,129.31968550000002,97.85588341611344,132.4673863022355,4.2,230.0,,4.2109375,4.0546875,-7.45703125,-2.845703125,-3.37109375,0.283203125,356.0111111111111,356.0,356.0111111111111
4112191,,,,,,,,4.2109375,4.0546875,-7.45703125,-0.408203125,-2.494140625,0.908203125,356.0111111111111,356.0,356.0111111111111
4112192,,,,,,,,4.2109375,4.0546875,-7.45703125,-0.408203125,-2.494140625,0.908203125,356.0111111111111,356.0,356.0111111111111
4112193,,,,,,,,4.2109375,4.0546875,-7.45703125,1.240234375,-1.458984375,2.166015625,356.0111111111111,356.0,356.0111111111111
4112194,,,,,,,,4.19921875,-2.56640625,-0.73046875,1.240234375,-1.458984375,2.166015625,356.0111111111111,356.0,356.0111111111111
4112195,,,,,,,,4.19921875,-2.56640625,-0.73046875,1.240234375,-1.458984375,2.166015625,356.0111111111111,356.0,356.0111111111111
4112196,,,,,,,,4.19921875,-2.56640625,-0.73046875,1.240234375,-1.458984375,2.166015625,356.0111111111111,356.0,356.0111111111111
4112197,,,,,,,,4.19921875,-2.56640625,-0.73046875,-1.40625,-1.99609375,2.376953125,356.0111111111111,356.0,356.0111111111111
4112198,,,,,,,,4.19921875,-2.56640625,-0.73046875,-1.40625,-1.99609375,2.376953125,356.0111111111111,356.0,356.0111111111111
4112199,,,,,,,,4.19921875,-2.56640625,-0.73046875,0.15625,-0.71875,1.970703125,356.0111111111111,356.0,356.0111111111111
4112200,36.01358833333334,129.31967683333332,97.0746056603795,131.8571017466944,4.7,231.0,48.0,4.19921875,-2.56640625,-0.73046875,0.15625,-0.71875,1.970703125,356.0111111111111,356.0,356.0111111111111
4112201,,,,,,,,4.19921875,-2.56640625,-0.73046875,0.15625,-0.71875,1.970703125,356.0111111111111,356.0,356.0111111111111
4112202,,,,,,,,4.19921875,-2.56640625,-0.73046875,-0.0859375,-0.271484375,1.29296875,356.0111111111111,356.0,356.0111111111111
4112203,,,,,,,,4.19921875,-2.56640625,-0.73046875,-0.0859375,-0.271484375,1.29296875,356.0,356.0,356.0111111111111
4112204,,,,,,,,4.19921875,-2.56640625,-0.73046875,-1.896484375,1.28515625,-0.693359375,356.0,356.0,356.0111111111111
4112205,,,,,,,,4.19921875,-2.56640625,-0.73046875,-1.896484375,1.28515625,-0.693359375,356.0,356.0,356.0111111111111
4112206,,,,,,,,4.19921875,-2.56640625,-0.73046875,0.158203125,0.25,-1.646484375,356.0,356.0,356.0111111111111
4112207,,,,,,,,4.19921875,-2.56640625,-0.73046875,0.158203125,0.25,-1.646484375,356.0,356.0,356.0111111111111
4112208,,,,,,,,4.19921875,-2.56640625,-0.73046875,-3.544921875,2.5703125,-1.80859375,356.0,356.0,356.0111111111111
4112209,,,,,,,,4.19921875,-2.56640625,-0.73046875,-3.544921875,2.5703125,-1.80859375,356.0,356.0,356.0111111111111
4112210,36.01358466666667,129.3196715,96.59381964107355,131.45024585353656,5.4,230.0,,4.19921875,-2.56640625,-0.73046875,-2.642578125,2.572265625,-1.71484375,356.0,356.0,356.0111111111111
4112211,,,,,,,,4.19921875,-2.56640625,-0.73046875,-2.642578125,2.572265625,-1.71484375,356.0,356.0,356.0111111111111
4112212,,,,,,,,4.19921875,-2.56640625,-0.73046875,-2.201171875,1.7734375,-2.357421875,356.0,356.0,356.0111111111111
4112213,,,,,,,,4.046875,-3.41796875,0.37890625,-2.201171875,1.7734375,-2.357421875,356.0,356.0,356.0111111111111
4112214,,,,,,,,4.046875,-3.41796875,0.37890625,-2.201171875,1.7734375,-2.357421875,356.0,356.0,356.0111111111111
4112215,,,,,,,,4.046875,-3.41796875,0.37890625,-2.201171875,1.7734375,-2.357421875,356.0,356.0,356.0111111111111
4112216,,,,,,,,4.046875,-3.41796875,0.37890625,-0.16796875,1.251953125,-1.09765625,356.0,356.0,356.0111111111111
4112217,,,,,,,,4.046875,-3.41796875,0.37890625,-0.16796875,1.251953125,-1.09765625,356.0111111111111,356.0,356.0111111111111
4112218,,,,,,,,4.046875,-3.41796875,0.37890625,3.248046875,1.033203125,-0.025390625,356.0111111111111,356.0,356.0111111111111
4112219,,,,,,,,4.046875,-3.41796875,0.37890625,3.248046875,1.033203125,-0.025390625,356.0,356.0,356.0111111111111
4112220,36.013581333333335,129.31966616666665,96.11303317058778,131.08037640531904,5.800000000000001,229.0,,4.046875,-3.41796875,0.37890625,1.93359375,0.802734375,0.017578125,356.0,356.0,356.0111111111111
4112221,,,,,,,,4.046875,-3.41796875,0.37890625,1.93359375,0.802734375,0.017578125,356.0,356.0,356.0111111111111
4112222,,,,,,,,4.046875,-3.41796875,0.37890625,0.009765625,-0.650390625,-0.5,356.0,356.0,356.0111111111111
4112223,,,,,,,,4.046875,-3.41796875,0.37890625,0.009765625,-0.650390625,-0.5,356.0,356.0,356.0111111111111
4112224,,,,,,,,4.046875,-3.41796875,0.37890625,-1.392578125,-1.58984375,-0.498046875,356.0,356.0,356.0111111111111
4112225,,,,,,,,4.046875,-3.41796875,0.37890625,-1.392578125,-1.58984375,-0.498046875,356.0111111111111,356.0,356.0111111111111
4112226,,,,,,,,4.046875,-3.41796875,0.37890625,-1.15234375,-2.146484375,0.810546875,356.0111111111111,356.0,356.0111111111111
4112227,,,,,,,,4.046875,-3.41796875,0.37890625,-1.15234375,-2.146484375,0.810546875,356.0111111111111,356.0,356.0111111111111
4112228,,,,,,,,4.046875,-3.41796875,0.37890625,0.982421875,-3.341796875,1.5546875,356.0111111111111,356.0,356.0111111111111
4112229,,,,,,,,0.92578125,4.609375,-0.390625,0.982421875,-3.341796875,1.5546875,356.0111111111111,356.0,356.0111111111111
4112230,36.013577833333336,129.31966116666666,95.66229627247176,130.6920141022442,5.800000000000001,230.0,,0.92578125,4.609375,-0.390625,0.982421875,-3.341796875,1.5546875,356.0111111111111,356.0,356.0111111111111
4112231,,,,,,,,0.92578125,4.609375,-0.390625,0.982421875,-3.341796875,1.5546875,356.0111111111111,356.0,356.0111111111111
4112232,,,,,,,,0.92578125,4.609375,-0.390625,-3.521484375,-1.734375,2.369140625,356.0111111111111,356.0,356.0111111111111
4112233,,,,,,,,0.92578125,4.609375,-0.390625,-3.521484375,-1.734375,2.369140625,356.0111111111111,356.0,356.0111111111111
4112234,,,,,,,,0.92578125,4.609375,-0.390625,-1.818359375,-1.150390625,2.103515625,356.0111111111111,356.0,356.0111111111111
4112235,,,,,,,,0.92578125,4.609375,-0.390625,-1.818359375,-1.150390625,2.103515625,356.0,356.0,356.0111111111111
4112236,,,,,,,,0.92578125,4.609375,-0.390625,-1.37890625,-0.142578125,0.666015625,356.0,356.0,356.0111111111111
4112237,,,,,,,,0.92578125,4.609375,-0.390625,-1.37890625,-0.142578125,0.666015625,356.0,356.0,356.0111111111111
4112238,,,,,,,,0.92578125,4.609375,-0.390625,1.8984375,-0.998046875,1.53125,356.0,356.0,356.0111111111111
4112239,,,,,,,,0.92578125,4.609375,-0.390625,1.8984375,-0.998046875,1.53125,356.0,356.0,356.0111111111111
4112240,36.01357466666666,129.3196555,95.1514601125474,130.34063758785737,5.9,231.0,,0.92578125,4.609375,-0.390625,4.91796875,-2.63671875,0.654296875,356.0,356.0,356.0111111111111
4112241,,,,,,,,0.92578125,4.609375,-0.390625,4.91796875,-2.63671875,0.654296875,356.0,356.0,356.0111111111111
4112242,,,,,,,,0.92578125,4.609375,-0.390625,4.669921875,0.533203125,-0.525390625,356.0,356.0,356.0111111111111
4112243,,,,,,,,0.92578125,4.609375,-0.390625,4.669921875,0.533203125,-0.525390625,356.0,356.0,356.0111111111111
4112244,,,,,,,,0.92578125,4.609375,-0.390625,1.12109375,1.1953125,-0.20703125,356.0,356.0,356.0111111111111
4112245,,,,,,,,5.140625,25.7109375,-9.42578125,1.12109375,1.1953125,-0.20703125,356.0,356.0,356.0111111111111
4112246,,,,,,,,5.140625,25.7109375,-9.42578125,1.12109375,1.1953125,-0.20703125,356.0,356.0,356.0111111111111
4112247,,,,,,,,5.140625,25.7109375,-9.42578125,-1.818359375,1.595703125,-0.580078125,356.0,356.0,356.0111111111111
4112248,,,,,,,,5.140625,25.7109375,-9.42578125,-1.818359375,1.595703125,-0.580078125,356.0,356.0,356.0111111111111
4112249,,,,,,,,5.140625,25.7109375,-9.42578125,-0.79296875,-1.6484375,-0.6796875,356.0,356.0,356.0111111111111
4112250,36.01357083333333,129.3196505,94.7007235302313,129.91528891660653,5.800000000000001,231.0,,5.140625,25.7109375,-9.42578125,-0.79296875,-1.6484375,-0.6796875,356.0,356.0,356.0111111111111
4112251,,,,,,,,5.140625,25.7109375,-9.42578125,-0.072265625,7.197265625,-1.537109375,356.0,356.0,356.0111111111111
4112252,,,,,,,,5.140625,25.7109375,-9.42578125,-0.072265625,7.197265625,-1.537109375,356.0,356.0,356.0111111111111
4112253,,,,,,,,5.140625,25.7109375,-9.42578125,-2.248046875,-0.166015625,-2.671875,356.0,356.0,356.0111111111111
4112254,,,,,,,,5.140625,25.7109375,-9.42578125,-2.248046875,-0.166015625,-2.671875,356.0,356.0,356.0111111111111
4112255,,,,,,,,5.140625,25.7109375,-9.42578125,-3.826171875,3.37890625,-2.568359375,356.0,356.0,356.0111111111111
4112256,,,,,,,,5.140625,25.7109375,-9.42578125,-3.826171875,3.37890625,-2.568359375,356.0,356.0,356.0111111111111
4112257,,,,,,,,5.140625,25.7109375,-9.42578125,-2.837890625,1.876953125,-2.638671875,356.0,356.0,356.0111111111111
4112258,,,,,,,,5.140625,25.7109375,-9.42578125,-2.837890625,1.876953125,-2.638671875,356.0,356.0,356.0111111111111
4112259,,,,,,,,5.140625,25.7109375,-9.42578125,-1.587890625,0.953125,-1.697265625,356.0,356.0,356.0111111111111
4112260,36.01356716666667,129.3196455,94.24998670824964,129.5084334788002,5.9,230.0,,-8.8046875,-14.99609375,6.40234375,-1.587890625,0.953125,-1.697265625,356.0,356.0,356.0111111111111
4112261,,,,,,,,-8.8046875,-14.99609375,6.40234375,-1.587890625,0.953125,-1.697265625,356.0111111111111,356.0,356.0111111111111
4112262,,,,,,,,-8.8046875,-14.99609375,6.40234375,-1.587890625,0.953125,-1.697265625,356.0111111111111,356.0,356.0111111111111
4112263,,,,,,,,-8.8046875,-14.99609375,6.40234375,2.42578125,0.482421875,-0.216796875,356.0111111111111,356.0,356.0111111111111
4112264,,,,,,,,-8.8046875,-14.99609375,6.40234375,2.42578125,0.482421875,-0.216796875,356.0111111111111,356.0,356.0111111111111
4112265,,,,,,,,-8.8046875,-14.99609375,6.40234375,2.677734375,-0.044921875,0.27734375,356.0111111111111,356.0,356.0111111111111
4112266,,,,,,,,-8.8046875,-14.99609375,6.40234375,2.677734375,-0.044921875,0.27734375,356.0111111111111,356.0,356.0111111111111
4112267,,,,,,,,-8.8046875,-14.99609375,6.40234375,0.939453125,-1.849609375,-0.484375,356.0111111111111,356.0,356.0111111111111
4112268,,,,,,,,-8.8046875,-14.99609375,6.40234375,0.939453125,-1.849609375,-0.484375,356.0111111111111,356.0,356.0111111111111
4112269,,,,,,,,-8.8046875,-14.99609375,6.40234375,-0.439453125,-2.095703125,-0.6875,356.0111111111111,356.0,356.0111111111111
4112270,36.01355933333333,129.3196355,93.34851352863511,128.63924304419487,5.9,228.0,,-8.8046875,-14.99609375,6.40234375,-0.439453125,-2.095703125,-0.6875,356.0111111111111,356.0,356.0111111111111
4112271,,,,,,,,-8.8046875,-14.99609375,6.40234375,-2.435546875,-3.3046875,0.962890625,356.0111111111111,356.0,356.0111111111111
4112272,,,,,,,,-8.8046875,-14.99609375,6.40234375,-2.435546875,-3.3046875,0.962890625,356.0111111111111,356.0,356.0111111111111
4112273,,,,,,,,-8.8046875,-14.99609375,6.40234375,0.45703125,-1.451171875,0.298828125,356.0111111111111,356.0,356.0111111111111
4112274,,,,,,,,-8.8046875,-14.99609375,6.40234375,0.45703125,-1.451171875,0.298828125,356.0111111111111,356.0,356.0111111111111
4112275,,,,,,,,-8.8046875,-14.99609375,6.40234375,-0.17578125,-3.1328125,2.859375,356.0111111111111,356.0,356.0111111111111
4112276,,,,,,,,3.11328125,-1.125,-1.046875,-0.17578125,-3.1328125,2.859375,356.0111111111111,356.0,356.0111111111111
4112277,,,,,,,,3.11328125,-1.125,-1.046875,-0.17578125,-3.1328125,2.859375,356.0111111111111,356.0,356.0111111111111
4112278,,,,,,,,3.11328125,-1.125,-1.046875,-0.17578125,-3.1328125,2.859375,356.0111111111111,356.0,356.0111111111111
4112279,,,,,,,,3.11328125,-1.125,-1.046875,-1.021484375,-1.32421875,2.5234375,356.0111111111111,356.0,356.0111111111111
4112280,36.01355616666667,129.319631,92.94285011566001,128.28786777954912,5.6000000000000005,228.0,,3.11328125,-1.125,-1.046875,-1.021484375,-1.32421875,2.5234375,356.0111111111111,356.0,356.0111111111111
4112281,,,,,,,,3.11328125,-1.125,-1.046875,0.328125,-0.923828125,1.16015625,356.0111111111111,356.0,356.0111111111111
4112282,,,,,,,,3.11328125,-1.125,-1.046875,0.328125,-0.923828125,1.16015625,356.0,356.0,356.0111111111111
4112283,,,,,,,,3.11328125,-1.125,-1.046875,0.685546875,-1.923828125,1.4609375,356.0,356.0,356.0111111111111
4112284,,,,,,,,3.11328125,-1.125,-1.046875,0.685546875,-1.923828125,1.4609375,356.0,356.0,356.0111111111111
4112285,,,,,,,,3.11328125,-1.125,-1.046875,2.93359375,-0.86328125,1.40234375,356.0,356.0,356.0111111111111
4112286,,,,,,,,3.11328125,-1.125,-1.046875,2.93359375,-0.86328125,1.40234375,356.0,356.0,356.0111111111111
4112287,,,,,,,,3.11328125,-1.125,-1.046875,3.041015625,1.8359375,-0.568359375,356.0,356.0,356.0111111111111
4112288,,,,,,,,3.11328125,-1.125,-1.046875,3.041015625,1.8359375,-0.568359375,356.0,356.0,356.0111111111111
4112289,,,,,,,,3.11328125,-1.125,-1.046875,2.103515625,2.92578125,-0.388671875,356.0,356.0,356.0111111111111
4112290,36.0135515,129.31962583333333,92.47708958748942,127.77005302042275,5.9,227.0,,3.11328125,-1.125,-1.046875,2.103515625,2.92578125,-0.388671875,356.0,356.0,356.0111111111111
4112291,,,,,,,,3.11328125,-1.125,-1.046875,-1.0,1.0390625,-1.142578125,356.0,356.0,356.0111111111111
4112292,,,,,,,,-4.4296875,9.96875,12.6328125,-1.0,1.0390625,-1.142578125,356.0,356.0,356.0111111111111
4112293,,,,,,,,-4.4296875,9.96875,12.6328125,-1.0,1.0390625,-1.142578125,356.0,356.0,356.0111111111111
4112294,,,,,,,,-4.4296875,9.96875,12.6328125,-1.0,1.0390625,-1.142578125,356.0,356.0,356.0111111111111
4112295,,,,,,,,-4.4296875,9.96875,12.6328125,0.921875,2.271484375,-1.267578125,356.0,356.0,356.0111111111111
4112296,,,,,,,,-4.4296875,9.96875,12.6328125,0.921875,2.271484375,-1.267578125,356.0,356.0,356.0111111111111
4112297,,,,,,,,-4.4296875,9.96875,12.6328125,-1.923828125,3.65234375,-2.49609375,356.0,356.0,356.0111111111111
4112298,,,,,,,,-4.4296875,9.96875,12.6328125,-1.923828125,3.65234375,-2.49609375,356.0,356.0,356.0111111111111
4112299,,,,,,,,-4.4296875,9.96875,12.6328125,-1.603515625,2.912109375,-3.228515625,356.0,356.0,356.0111111111111
4112300,36.013544,129.31961516666667,91.51551682227395,126.93784856321062,5.9,230.0,48.0,-4.4296875,9.96875,12.6328125,-1.603515625,2.912109375,-3.228515625,356.0,356.0,356.0111111111111
4112301,,,,,,,,-4.4296875,9.96875,12.6328125,-1.603515625,2.912109375,-3.228515625,356.0,356.0,356.0111111111111
4112302,,,,,,,,-4.4296875,9.96875,12.6328125,-1.603515625,2.912109375,-3.228515625,356.0,356.0,356.0111111111111
4112303,,,,,,,,-4.4296875,9.96875,12.6328125,-1.814453125,2.291015625,-2.697265625,356.0,356.0,356.0111111111111
4112304,,,,,,,,-4.4296875,9.96875,12.6328125,-1.814453125,2.291015625,-2.697265625,356.0,356.0,356.0111111111111
4112305,,,,,,,,-4.4296875,9.96875,12.6328125,0.779296875,-2.6796875,0.583984375,356.0,356.0,356.0111111111111
4112306,,,,,,,,-4.4296875,9.96875,12.6328125,0.779296875,-2.6796875,0.583984375,356.0111111111111,356.0,356.0111111111111
4112307,,,,,,,,-4.4296875,9.96875,12.6328125,-2.603515625,-2.154296875,2.29296875,356.0111111111111,356.0,356.0111111111111
4112308,,,,,,,,-4.4296875,9.96875,12.6328125,-2.603515625,-2.154296875,2.29296875,356.0111111111111,356.0,356.0111111111111
4112309,,,,,,,,-4.4296875,9.96875,12.6328125,-3.068359375,-2.4609375,3.033203125,356.0111111111111,356.0,356.0111111111111
4112310,36.013537166666666,129.3196045,90.55394311192109,126.17961704463193,5.9,231.0,,-4.4296875,9.96875,12.6328125,-3.068359375,-2.4609375,3.033203125,356.0111111111111,356.0,356.0111111111111
4112311,,,,,,,,-4.4296875,9.96875,12.6328125,-1.669921875,-1.880859375,2.630859375,356.0111111111111,356.0,356.0111111111111
4112312,,,,,,,,-4.4296875,9.96875,12.6328125,-1.669921875,-1.880859375,2.630859375,356.0111111111111,356.0,356.0111111111111
4112313,,,,,,,,-4.4296875,9.96875,12.6328125,-2.521484375,-0.013671875,0.890625,356.0111111111111,356.0,356.0111111111111
4112314,,,,,,,,-4.4296875,9.96875,12.6328125,-2.521484375,-0.013671875,0.890625,356.0,356.0,356.0111111111111
4112315,,,,,,,,-4.4296875,9.96875,12.6328125,2.091796875,-0.498046875,1.33984375,356.0,356.0,356.0111111111111
4112316,,,,,,,,4.953125,-0.0234375,-2.078125,2.091796875,-0.498046875,1.33984375,356.0,356.0,356.0111111111111
4112317,,,,,,,,4.953125,-0.0234375,-2.078125,2.091796875,-0.498046875,1.33984375,356.0,356.0,356.0111111111111
4112318,,,,,,,,4.953125,-0.0234375,-2.078125,2.091796875,-0.498046875,1.33984375,356.0,356.0,356.0111111111111
4112319,,,,,,,,4.953125,-0.0234375,-2.078125,5.462890625,0.884765625,-0.00390625,356.0,356.0,356.0111111111111
4112320,36.01353316666667,129.31959883333332,90.04310743068508,125.7357747880578,6.1000000000000005,231.0,,4.953125,-0.0234375,-2.078125,5.462890625,0.884765625,-0.00390625,356.0,356.0,356.0111111111111
4112321,,,,,,,,4.953125,-0.0234375,-2.078125,2.1328125,0.767578125,0.46484375,356.0,356.0,356.0111111111111
4112322,,,,,,,,4.953125,-0.0234375,-2.078125,2.1328125,0.767578125,0.46484375,356.0,356.0,356.0111111111111
4112323,,,,,,,,4.953125,-0.0234375,-2.078125,-0.978515625,2.798828125,-0.8984375,356.0,356.0,356.0111111111111
4112324,,,,,,,,4.953125,-0.0234375,-2.078125,-0.978515625,2.798828125,-0.8984375,356.0,356.0,356.0111111111111
4112325,,,,,,,,4.953125,-0.0234375,-2.078125,-1.591796875,-3.74609375,-1.931640625,356.0,356.0,356.0111111111111
4112326,,,,,,,,4.953125,-0.0234375,-2.078125,-1.591796875,-3.74609375,-1.931640625,356.0,356.0,356.0111111111111
4112327,,,,,,,,4.953125,-0.0234375,-2.078125,1.0546875,4.81640625,-0.349609375,356.0,356.0,356.0111111111111
4112328,,,,,,,,4.953125,-0.0234375,-2.078125,1.0546875,4.81640625,-0.349609375,356.0,356.0,356.0111111111111
4112329,,,,,,,,4.953125,-0.0234375,-2.078125,-1.716796875,4.1875,-2.892578125,356.0,356.0,356.0111111111111
4112330,36.013529,129.31959266666667,89.48719774521264,125.27343889185221,6.5,231.0,,4.953125,-0.0234375,-2.078125,-1.716796875,4.1875,-2.892578125,356.0,356.0,356.0111111111111
4112331,,,,,,,,4.953125,-0.0234375,-2.078125,-2.677734375,2.736328125,-2.26953125,356.0,356.0,356.0111111111111
4112332,,,,,,,,1.28515625,6.4296875,1.65234375,-2.677734375,2.736328125,-2.26953125,356.0,356.0,356.0111111111111
4112333,,,,,,,,1.28515625,6.4296875,1.65234375,-2.677734375,2.736328125,-2.26953125,356.0111111111111,356.0,356.0111111111111
4112334,,,,,,,,1.28515625,6.4296875,1.65234375,-2.677734375,2.736328125,-2.26953125,356.0111111111111,356.0,356.0111111111111
4112335,,,,,,,,1.28515625,6.4296875,1.65234375,-1.662109375,1.67578125,-1.494140625,356.0111111111111,356.0,356.0111111111111
4112336,,,,,,,,1.28515625,6.4296875,1.65234375,-1.662109375,1.67578125,-1.494140625,356.0111111111111,356.0,356.0111111111111
4112337,,,,,,,,1.28515625,6.4296875,1.65234375,-0.611328125,-0.041015625,-0.763671875,356.0111111111111,356.0,356.0111111111111
4112338,,,,,,,,1.28515625,6.4296875,1.65234375,-0.611328125,-0.041015625,-0.763671875,356.0111111111111,356.0,356.0111111111111
4112339,,,,,,,,1.28515625,6.4296875,1.65234375,4.2578125,0.37890625,0.78515625,356.0111111111111,356.0,356.0111111111111
4112340,36.013524999999994,129.31958699999998,88.97636195770521,124.82959669737306,6.6000000000000005,230.0,,1.28515625,6.4296875,1.65234375,4.2578125,0.37890625,0.78515625,356.0111111111111,356.0,356.0111111111111
4112341,,,,,,,,1.28515625,6.4296875,1.65234375,4.55078125,0.9765625,0.380859375,356.0111111111111,356.0,356.0111111111111
4112342,,,,,,,,1.28515625,6.4296875,1.65234375,4.55078125,0.9765625,0.380859375,356.0111111111111,356.0,356.0111111111111
4112343,,,,,,,,1.28515625,6.4296875,1.65234375,2.53515625,-0.458984375,-0.57421875,356.0111111111111,356.0,356.0111111111111
4112344,,,,,,,,1.28515625,6.4296875,1.65234375,2.53515625,-0.458984375,-0.57421875,356.0111111111111,356.0,356.0111111111111
4112345,,,,,,,,1.28515625,6.4296875,1.65234375,-0.4296875,-3.70703125,0.029296875,356.0111111111111,356.0,356.0111111111111
4112346,,,,,,,,1.28515625,6.4296875,1.65234375,-0.4296875,-3.70703125,0.029296875,356.0111111111111,356.0,356.0111111111111
4112347,,,,,,,,1.28515625,6.4296875,1.65234375,-2.251953125,-3.982421875,0.513671875,356.0111111111111,356.0,356.0111111111111
4112348,,,,,,,,7.91796875,-31.75390625,10.578125,-2.251953125,-3.982421875,0.513671875,356.0111111111111,356.0,356.0111111111111
4112349,,,,,,,,7.91796875,-31.75390625,10.578125,-2.251953125,-3.982421875,0.513671875,356.0111111111111,356.0,356.0111111111111
4112350,36.01352083333334,129.319581,88.4354768735608,124.36726102290183,6.800000000000001,230.0,,7.91796875,-31.75390625,10.578125,0.212890625,-4.099609375,0.51171875,356.0111111111111,356.0,356.0111111111111
4112351,,,,,,,,7.91796875,-31.75390625,10.578125,0.212890625,-4.099609375,0.51171875,356.0111111111111,356.0,356.0111111111111
4112352,,,,,,,,7.91796875,-31.75390625,10.578125,0.00390625,-4.28515625,3.15234375,356.0111111111111,356.0,356.0111111111111
4112353,,,,,,,,7.91796875,-31.75390625,10.578125,0.00390625,-4.28515625,3.15234375,356.0111111111111,356.0,356.0111111111111
4112354,,,,,,,,7.91796875,-31.75390625,10.578125,-3.37890625,-3.3359375,3.587890625,356.0111111111111,356.0,356.0111111111111
4112355,,,,,,,,7.91796875,-31.75390625,10.578125,-3.37890625,-3.3359375,3.587890625,356.0111111111111,356.0,356.0111111111111
4112356,,,,,,,,7.91796875,-31.75390625,10.578125,-2.01953125,-2.373046875,3.150390625,356.0111111111111,356.0,356.0111111111111
4112357,,,,,,,,7.91796875,-31.75390625,10.578125,-2.01953125,-2.373046875,3.150390625,356.0111111111111,356.0,356.0111111111111
4112358,,,,,,,,7.91796875,-31.75390625,10.578125,-1.19140625,0.662109375,1.421875,356.0111111111111,356.0,356.0111111111111
4112359,,,,,,,,7.91796875,-31.75390625,10.578125,-1.19140625,0.662109375,1.421875,356.0,356.0,356.0111111111111
4112360,36.01351733333333,129.31957483333332,87.87956627704109,123.97889806380827,6.9,230.0,,7.91796875,-31.75390625,10.578125,-1.8046875,1.5859375,-0.126953125,356.0,356.0,356.0111111111111
4112361,,,,,,,,7.91796875,-31.75390625,10.578125,-1.8046875,1.5859375,-0.126953125,356.0,356.0,356.0111111111111
4112362,,,,,,,,7.91796875,-31.75390625,10.578125,0.830078125,-3.224609375,0.654296875,356.0,356.0,356.0111111111111
4112363,,,,,,,,8.0078125,-6.484375,0.9765625,0.830078125,-3.224609375,0.654296875,356.0,356.0,356.0111111111111
4112364,,,,,,,,8.0078125,-6.484375,0.9765625,0.830078125,-3.224609375,0.654296875,356.0,356.0,356.0111111111111
4112365,,,,,,,,8.0078125,-6.484375,0.9765625,4.25,4.498046875,-0.55859375,356.0,356.0,356.0111111111111
4112366,,,,,,,,8.0078125,-6.484375,0.9765625,4.25,4.498046875,-0.55859375,356.0,356.0,356.0111111111111
4112367,,,,,,,,8.0078125,-6.484375,0.9765625,1.861328125,2.166015625,0.185546875,356.0,356.0,356.0111111111111
4112368,,,,,,,,8.0078125,-6.484375,0.9765625,1.861328125,2.166015625,0.185546875,356.0,356.0,356.0111111111111
4112369,,,,,,,,8.0078125,-6.484375,0.9765625,-0.421875,0.55859375,-0.404296875,356.0,356.0,356.0111111111111
4112370,36.01351366666667,129.31956916666667,87.36872996516037,123.57204238075286,6.7,231.0,,8.0078125,-6.484375,0.9765625,-0.421875,0.55859375,-0.404296875,356.0,356.0,356.0111111111111
4112371,,,,,,,,8.0078125,-6.484375,0.9765625,-3.4765625,0.28515625,-1.123046875,356.0,356.0,356.0111111111111
4112372,,,,,,,,8.0078125,-6.484375,0.9765625,-3.4765625,0.28515625,-1.123046875,356.0,356.0,356.0111111111111
4112373,,,,,,,,8.0078125,-6.484375,0.9765625,-0.5234375,3.638671875,-0.298828125,356.0,356.0,356.0111111111111
4112374,,,,,,,,8.0078125,-6.484375,0.9765625,-0.5234375,3.638671875,-0.298828125,356.0,356.0,356.0111111111111
4112375,,,,,,,,8.0078125,-6.484375,0.9765625,-0.71875,6.423828125,-2.8359375,356.0,356.0,356.0111111111111
4112376,,,,,,,,8.0078125,-6.484375,0.9765625,-0.71875,6.423828125,-2.8359375,356.0,356.0,356.0111111111111
4112377,,,,,,,,8.0078125,-6.484375,0.9765625,-2.369140625,3.18359375,-2.64453125,356.0,356.0,356.0111111111111
4112378,,,,,,,,0.80078125,3.1953125,-0.7109375,-2.369140625,3.18359375,-2.64453125,356.0,356.0,356.0111111111111
4112379,,,,,,,,0.80078125,3.1953125,-0.7109375,-2.369140625,3.18359375,-2.64453125,356.0111111111111,356.0,356.0111111111111
4112380,36.013509666666664,129.31956316666668,86.82784453881862,123.12820001350167,6.9,230.0,,0.80078125,3.1953125,-0.7109375,-1.76171875,1.697265625,-2.193359375,356.0111111111111,356.0,356.0111111111111
4112381,,,,,,,,0.80078125,3.1953125,-0.7109375,-1.76171875,1.697265625,-2.193359375,356.0111111111111,356.0,356.0111111111111
4112382,,,,,,,,0.80078125,3.1953125,-0.7109375,-2.28125,1.537109375,-1.275390625,356.0111111111111,356.0,356.0111111111111
4112383,,,,,,,,0.80078125,3.1953125,-0.7109375,-2.28125,1.537109375,-1.275390625,356.0111111111111,356.0,356.0111111111111
4112384,,,,,,,,0.80078125,3.1953125,-0.7109375,-2.287109375,0.919921875,-1.0078125,356.0111111111111,356.0,356.0111111111111
4112385,,,,,,,,0.80078125,3.1953125,-0.7109375,-2.287109375,0.919921875,-1.0078125,356.0111111111111,356.0,356.0111111111111
4112386,,,,,,,,0.80078125,3.1953125,-0.7109375,5.580078125,-0.025390625,0.748046875,356.0111111111111,356.0,356.0111111111111
4112387,,,,,,,,0.80078125,3.1953125,-0.7109375,5.580078125,-0.025390625,0.748046875,356.0111111111111,356.0,356.0111111111111
4112388,,,,,,,,0.80078125,3.1953125,-0.7109375,3.763671875,-3.650390625,1.08203125,356.0111111111111,356.0,356.0111111111111
4112389,,,,,,,,0.80078125,3.1953125,-0.7109375,3.763671875,-3.650390625,1.08203125,356.0111111111111,356.0,356.0111111111111
4112390,36.01350133333334,129.31955216666665,85.83622219083534,122.20352984368373,6.9,228.0,,0.80078125,3.1953125,-0.7109375,0.361328125,0.015625,-0.365234375,356.0111111111111,356.0,356.0111111111111
4112391,,,,,,,,0.80078125,3.1953125,-0.7109375,0.361328125,0.015625,-0.365234375,356.0111111111111,356.0,356.0111111111111
4112392,,,,,,,,0.80078125,3.1953125,-0.7109375,-0.201171875,-2.58984375,-0.09765625,356.0111111111111,356.0,356.0111111111111
4112393,,,,,,,,-0.74609375,-6.60546875,-1.0078125,-0.201171875,-2.58984375,-0.09765625,356.0111111111111,356.0,356.0111111111111
4112394,,,,,,,,-0.74609375,-6.60546875,-1.0078125,-0.201171875,-2.58984375,-0.09765625,356.0111111111111,356.0,356.0111111111111
4112395,,,,,,,,-0.74609375,-6.60546875,-1.0078125,-0.201171875,-2.58984375,-0.09765625,356.0111111111111,356.0,356.0111111111111
4112396,,,,,,,,-0.74609375,-6.60546875,-1.0078125,-5.541015625,1.552734375,0.080078125,356.0111111111111,356.0,356.0111111111111
4112397,,,,,,,,-0.74609375,-6.60546875,-1.0078125,-5.541015625,1.552734375,0.080078125,356.0111111111111,356.0,356.0111111111111
4112398,,,,,,,,-0.74609375,-6.60546875,-1.0078125,3.15234375,-2.751953125,1.916015625,356.0111111111111,356.0,356.0111111111111
4112399,,,,,,,,-0.74609375,-6.60546875,-1.0078125,3.15234375,-2.751953125,1.916015625,356.0111111111111,356.0,356.0111111111111
4112400,36.013498166666665,129.31954633333334,85.310360424646,121.85215375899446,6.7,230.0,48.0,-0.74609375,-6.60546875,-1.0078125,3.15234375,-2.751953125,1.916015625,356.0111111111111,356.0,356.0111111111111
4112401,,,,,,,,-0.74609375,-6.60546875,-1.0078125,3.15234375,-2.751953125,1.916015625,356.0111111111111,356.0,356.0111111111111
4112402,,,,,,,,-0.74609375,-6.60546875,-1.0078125,-3.6328125,-2.439453125,3.21875,356.0111111111111,356.0,356.0111111111111
4112403,,,,,,,,-0.74609375,-6.60546875,-1.0078125,-3.6328125,-2.439453125,3.21875,356.0111111111111,356.0,356.0111111111111
4112404,,,,,,,,-4.359375,-3.21875,22.4375,-3.6328125,-2.439453125,3.21875,356.0111111111111,356.0,356.0111111111111
4112405,,,,,,,,-4.359375,-3.21875,22.4375,-3.6328125,-2.439453125,3.21875,356.0,356.0,356.0111111111111
4112406,,,,,,,,-4.359375,-3.21875,22.4375,-3.6328125,-2.439453125,3.21875,356.0,356.0,356.0111111111111
4112407,,,,,,,,-4.359375,-3.21875,22.4375,2.654296875,4.82421875,-1.03125,356.0,356.0,356.0111111111111
4112408,,,,,,,,-4.359375,-3.21875,22.4375,2.654296875,4.82421875,-1.03125,356.0,356.0,356.0111111111111
4112409,,,,,,,,-4.359375,-3.21875,22.4375,-4.1953125,2.5078125,-2.892578125,356.0,356.0,356.0111111111111
4112410,36.013490499999996,129.31953483333334,84.27366290159387,121.00145616245074,6.7,230.0,,-4.359375,-3.21875,22.4375,-4.1953125,2.5078125,-2.892578125,356.0,356.0,356.0111111111111
4112411,,,,,,,,-4.359375,-3.21875,22.4375,-4.08203125,2.66015625,-2.572265625,356.0,356.0,356.0111111111111
4112412,,,,,,,,-4.359375,-3.21875,22.4375,-4.08203125,2.66015625,-2.572265625,356.0111111111111,356.0,356.0111111111111
4112413,,,,,,,,-4.359375,-3.21875,22.4375,-1.94140625,0.115234375,-1.310546875,356.0111111111111,356.0,356.0111111111111
4112414,,,,,,,,-4.359375,-3.21875,22.4375,-1.94140625,0.115234375,-1.310546875,356.0111111111111,356.0,356.0111111111111
4112415,,,,,,,,-4.359375,-3.21875,22.4375,-2.029296875,0.951171875,-0.3515625,356.0111111111111,356.0,356.0111111111111
4112416,,,,,,,,-4.359375,-3.21875,22.4375,-2.029296875,0.951171875,-0.3515625,356.0111111111111,356.0,356.0111111111111
4112417,,,,,,,,-4.359375,-3.21875,22.4375,1.126953125,1.865234375,-0.5078125,356.0111111111111,356.0,356.0111111111111
4112418,,,,,,,,-4.359375,-3.21875,22.4375,1.126953125,1.865234375,-0.5078125,356.0111111111111,356.0,356.0111111111111
4112419,,,,,,,,-4.359375,-3.21875,22.4375,5.181640625,1.4375,-0.537109375,356.0111111111111,356.0,356.0111111111111
4112420,36.01348633333334,129.31952816666666,83.67267844503407,120.53912020751773,7.1000000000000005,230.0,,-7.1796875,18.15625,-1.63671875,5.181640625,1.4375,-0.537109375,356.0111111111111,356.0,356.0111111111111
4112421,,,,,,,,-7.1796875,18.15625,-1.63671875,5.181640625,1.4375,-0.537109375,356.0111111111111,356.0,356.0111111111111
4112422,,,,,,,,-7.1796875,18.15625,-1.63671875,5.181640625,1.4375,-0.537109375,356.0111111111111,356.0,356.0111111111111
4112423,,,,,,,,-7.1796875,18.15625,-1.63671875,1.2890625,-1.046875,-0.375,356.0111111111111,356.0,356.0111111111111
4112424,,,,,,,,-7.1796875,18.15625,-1.63671875,1.2890625,-1.046875,-0.375,356.0111111111111,356.0,356.0111111111111
4112425,,,,,,,,-7.1796875,18.15625,-1.63671875,0.06640625,-2.63671875,-0.05859375,356.0111111111111,356.0,356.0111111111111
4112426,,,,,,,,-7.1796875,18.15625,-1.63671875,0.06640625,-2.63671875,-0.05859375,356.0111111111111,356.0,356.0111111111111
4112427,,,,,,,,-7.1796875,18.15625,-1.63671875,1.2578125,-1.388671875,-0.04296875,356.0111111111111,356.0,356.0111111111111
4112428,,,,,,,,-7.1796875,18.15625,-1.63671875,1.2578125,-1.388671875,-0.04296875,356.0111111111111,356.0,356.0111111111111
4112429,,,,,,,,-7.1796875,18.15625,-1.63671875,1.98828125,-4.23046875,1.37890625,356.0111111111111,356.0,356.0111111111111
4112430,36.01347833333333,129.31951650000002,82.62095623736126,119.65143624715384,6.9,229.0,,-7.1796875,18.15625,-1.63671875,1.98828125,-4.23046875,1.37890625,356.0111111111111,356.0,356.0111111111111
4112431,,,,,,,,-7.1796875,18.15625,-1.63671875,-1.91015625,-3.779296875,2.82421875,356.0111111111111,356.0,356.0111111111111
4112432,,,,,,,,-7.1796875,18.15625,-1.63671875,-1.91015625,-3.779296875,2.82421875,356.0111111111111,356.0,356.0111111111111
4112433,,,,,,,,-7.1796875,18.15625,-1.63671875,-2.763671875,-1.1875,2.4765625,356.0111111111111,356.0,356.0111111111111
4112434,,,,,,,,-7.1796875,18.15625,-1.63671875,-2.763671875,-1.1875,2.4765625,356.0111111111111,356.0,356.0111111111111
4112435,,,,,,,,-7.1796875,18.15625,-1.63671875,-1.671875,-1.98046875,2.029296875,356.0111111111111,356.0,356.0111111111111
4112436,,,,,,,,1.67578125,0.75,-5.0390625,-1.671875,-1.98046875,2.029296875,356.0111111111111,356.0,356.0111111111111
4112437,,,,,,,,1.67578125,0.75,-5.0390625,-1.671875,-1.98046875,2.029296875,356.0111111111111,356.0,356.0111111111111
4112438,,,,,,,,1.67578125,0.75,-5.0390625,-1.189453125,-1.869140625,0.5703125,356.0111111111111,356.0,356.0111111111111
4112439,,,,,,,,1.67578125,0.75,-5.0390625,-1.189453125,-1.869140625,0.5703125,356.0,356.0,356.0111111111111
4112440,36.01347466666667,129.31951066666667,82.09509470368897,119.244580732739,6.800000000000001,230.0,,1.67578125,0.75,-5.0390625,1.44140625,-3.298828125,1.541015625,356.0,356.0,356.0111111111111
4112441,,,,,,,,1.67578125,0.75,-5.0390625,1.44140625,-3.298828125,1.541015625,356.0,356.0,356.0111111111111
4112442,,,,,,,,1.67578125,0.75,-5.0390625,7.3359375,1.6171875,-1.83203125,356.0,356.0,356.0111111111111
4112443,,,,,,,,1.67578125,0.75,-5.0390625,7.3359375,1.6171875,-1.83203125,356.0,356.0,356.0111111111111
4112444,,,,,,,,1.67578125,0.75,-5.0390625,2.140625,0.158203125,-0.20703125,356.0,356.0,356.0111111111111
4112445,,,,,,,,1.67578125,0.75,-5.0390625,2.140625,0.158203125,-0.20703125,356.0,356.0,356.0111111111111
4112446,,,,,,,,1.67578125,0.75,-5.0390625,0.888671875,0.611328125,-0.7109375,356.0,356.0,356.0111111111111
4112447,,,,,,,,1.67578125,0.75,-5.0390625,0.888671875,0.611328125,-0.7109375,356.0,356.0,356.0111111111111
4112448,,,,,,,,1.67578125,0.75,-5.0390625,-1.400390625,2.501953125,-0.86328125,356.0,356.0,356.0111111111111
4112449,,,,,,,,1.67578125,0.75,-5.0390625,-1.400390625,2.501953125,-0.86328125,356.0111111111111,356.0,356.0111111111111
4112450,36.013470833333336,129.31950450000002,81.53918384778443,118.81923176232607,6.9,230.0,,1.67578125,0.75,-5.0390625,-2.513671875,-1.6484375,-1.078125,356.0111111111111,356.0,356.0111111111111
4112451,,,,,,,,-1.25390625,-36.59375,7.359375,-2.513671875,-1.6484375,-1.078125,356.0111111111111,356.0,356.0111111111111
4112452,,,,,,,,-1.25390625,-36.59375,7.359375,-2.513671875,-1.6484375,-1.078125,356.0111111111111,356.0,356.0111111111111
4112453,,,,,,,,-1.25390625,-36.59375,7.359375,0.330078125,7.140625,-2.5703125,356.0111111111111,356.0,356.0111111111111
4112454,,,,,,,,-1.25390625,-36.59375,7.359375,0.330078125,7.140625,-2.5703125,356.0111111111111,356.0,356.0111111111111
4112455,,,,,,,,-1.25390625,-36.59375,7.359375,-3.634765625,3.31640625,-2.501953125,356.0111111111111,356.0,356.0111111111111
4112456,,,,,,,,-1.25390625,-36.59375,7.359375,-3.634765625,3.31640625,-2.501953125,356.0111111111111,356.0,356.0111111111111
4112457,,,,,,,,-1.25390625,-36.59375,7.359375,-2.345703125,1.302734375,-2.3671875,356.0111111111111,356.0,356.0111111111111
4112458,,,,,,,,-1.25390625,-36.59375,7.359375,-2.345703125,1.302734375,-2.3671875,356.0111111111111,356.0,356.0111111111111
4112459,,,,,,,,-1.25390625,-36.59375,7.359375,-1.935546875,1.583984375,-1.576171875,356.0111111111111,356.0,356.0111111111111
4112460,36.013466666666666,129.3194995,81.08844635682459,118.3568973796749,6.800000000000001,228.0,,-1.25390625,-36.59375,7.359375,-1.935546875,1.583984375,-1.576171875,356.0111111111111,356.0,356.0111111111111
4112461,,,,,,,,-1.25390625,-36.59375,7.359375,-2.62109375,1.904296875,-0.326171875,356.0111111111111,356.0,356.0111111111111
4112462,,,,,,,,-1.25390625,-36.59375,7.359375,-2.62109375,1.904296875,-0.326171875,356.0111111111111,356.0,356.0111111111111
4112463,,,,,,,,-1.25390625,-36.59375,7.359375,-1.16796875,2.185546875,-2.126953125,356.0111111111111,356.0,356.0111111111111
4112464,,,,,,,,-1.25390625,-36.59375,7.359375,-1.16796875,2.185546875,-2.126953125,356.0111111111111,356.0,356.0111111111111
4112465,,,,,,,,-1.25390625,-36.59375,7.359375,5.72265625,-0.302734375,1.05859375,356.0111111111111,356.0,356.0111111111111
4112466,,,,,,,,-4.30078125,17.63671875,-4.79296875,5.72265625,-0.302734375,1.05859375,356.0111111111111,356.0,356.0111111111111
4112467,,,,,,,,-4.30078125,17.63671875,-4.79296875,5.72265625,-0.302734375,1.05859375,356.0111111111111,356.0,356.0111111111111
4112468,,,,,,,,-4.30078125,17.63671875,-4.79296875,2.9140625,-0.330078125,-0.291015625,356.0111111111111,356.0,356.0111111111111
4112469,,,,,,,,-4.30078125,17.63671875,-4.79296875,2.9140625,-0.330078125,-0.291015625,356.0111111111111,356.0,356.0111111111111
4112470,36.013462499999996,129.3194936666667,80.56258518573142,117.89456233060153,6.9,228.0,,-4.30078125,17.63671875,-4.79296875,0.90625,-1.970703125,-0.09375,356.0111111111111,356.0,356.0111111111111
4112471,,,,,,,,-4.30078125,17.63671875,-4.79296875,0.90625,-1.970703125,-0.09375,356.0111111111111,356.0,356.0111111111111
4112472,,,,,,,,-4.30078125,17.63671875,-4.79296875,-0.5,-3.423828125,0.572265625,356.0111111111111,356.0,356.0111111111111
4112473,,,,,,,,-4.30078125,17.63671875,-4.79296875,-0.5,-3.423828125,0.572265625,356.0111111111111,356.0,356.0111111111111
4112474,,,,,,,,-4.30078125,17.63671875,-4.79296875,-2.81640625,-0.5703125,0.609375,356.0111111111111,356.0,356.0111111111111
4112475,,,,,,,,-4.30078125,17.63671875,-4.79296875,-2.81640625,-0.5703125,0.609375,356.0111111111111,356.0,356.0111111111111
4112476,,,,,,,,-4.30078125,17.63671875,-4.79296875,0.708984375,-4.109375,1.033203125,356.0111111111111,356.0,356.0111111111111
4112477,,,,,,,,-4.30078125,17.63671875,-4.79296875,0.708984375,-4.109375,1.033203125,356.0111111111111,356.0,356.0111111111111
4112478,,,,,,,,-4.30078125,17.63671875,-4.79296875,1.845703125,-2.30078125,3.68359375,356.0111111111111,356.0,356.0111111111111
4112479,,,,,,,,-4.30078125,17.63671875,-4.79296875,1.845703125,-2.30078125,3.68359375,356.0111111111111,356.0,356.0111111111111
4112480,36.0134585,129.31948816666667,80.06677324566448,117.45072079761701,6.800000000000001,228.0,,-4.30078125,17.63671875,-4.79296875,-2.814453125,-1.6796875,3.806640625,356.0111111111111,356.0,356.0111111111111
4112481,,,,,,,,-2.67578125,3.99609375,-3.484375,-2.814453125,-1.6796875,3.806640625,356.0111111111111,356.0,356.0111111111111
4112482,,,,,,,,-2.67578125,3.99609375,-3.484375,-2.814453125,-1.6796875,3.806640625,356.0111111111111,356.0,356.0111111111111
4112483,,,,,,,,-2.67578125,3.99609375,-3.484375,-2.814453125,-1.6796875,3.806640625,356.0111111111111,356.0,356.0111111111111
4112484,,,,,,,,-2.67578125,3.99609375,-3.484375,-2.85546875,-0.376953125,2.298828125,356.0111111111111,356.0,356.0111111111111
4112485,,,,,,,,-2.67578125,3.99609375,-3.484375,-2.85546875,-0.376953125,2.298828125,356.0,356.0,356.0111111111111
4112486,,,,,,,,-2.67578125,3.99609375,-3.484375,-2.9453125,-0.78515625,0.2421875,356.0,356.0,356.0111111111111
4112487,,,,,,,,-2.67578125,3.99609375,-3.484375,-2.9453125,-0.78515625,0.2421875,356.0,356.0,356.0111111111111
4112488,,,,,,,,-2.67578125,3.99609375,-3.484375,1.619140625,-3.58984375,1.5546875,356.0,356.0,356.0111111111111
4112489,,,,,,,,-2.67578125,3.99609375,-3.484375,1.619140625,-3.58984375,1.5546875,356.0,356.0,356.0111111111111
4112490,36.013455,129.3194826666667,79.57096075454383,117.06235891814514,6.6000000000000005,229.0,,-2.67578125,3.99609375,-3.484375,6.68359375,-4.6171875,-1.267578125,356.0,356.0,356.0111111111111
4112491,,,,,,,,-2.67578125,3.99609375,-3.484375,6.68359375,-4.6171875,-1.267578125,356.0,356.0,356.0111111111111
4112492,,,,,,,,-2.67578125,3.99609375,-3.484375,5.84375,1.953125,-0.10546875,356.0,356.0,356.0111111111111
4112493,,,,,,,,-2.67578125,3.99609375,-3.484375,5.84375,1.953125,-0.10546875,356.0,356.0,356.0111111111111
4112494,,,,,,,,-2.67578125,3.99609375,-3.484375,2.2734375,1.83984375,0.685546875,356.0,356.0,356.0111111111111
4112495,,,,,,,,-2.67578125,3.99609375,-3.484375,2.2734375,1.83984375,0.685546875,356.0,356.0,356.0111111111111
4112496,,,,,,,,-2.67578125,3.99609375,-3.484375,-1.033203125,2.52734375,-0.40234375,356.0,356.0,356.0111111111111
4112497,,,,,,,,9.34765625,7.65234375,-6.47265625,-1.033203125,2.52734375,-0.40234375,356.0,356.0,356.0111111111111
4112498,,,,,,,,9.34765625,7.65234375,-6.47265625,-1.033203125,2.52734375,-0.40234375,356.0,356.0,356.0111111111111
4112499,,,,,,,,9.34765625,7.65234375,-6.47265625,-1.033203125,2.52734375,-0.40234375,356.0,356.0,356.0111111111111
4112500,36.01344766666667,129.31947216666669,78.62441015786528,116.24864922941508,6.5,229.0,48.0,9.34765625,7.65234375,-6.47265625,-1.033203125,2.52734375,-0.40234375,356.0,356.0,356.0111111111111
4112501,,,,,,,,9.34765625,7.65234375,-6.47265625,-1.033203125,2.52734375,-0.40234375,356.0,356.0,356.0111111111111
4112502,,,,,,,,9.34765625,7.65234375,-6.47265625,-2.1015625,-1.384765625,-1.9375,356.0,356.0,356.0111111111111
4112503,,,,,,,,9.34765625,7.65234375,-6.47265625,-2.1015625,-1.384765625,-1.9375,356.0,356.0,356.0111111111111
4112504,,,,,,,,9.34765625,7.65234375,-6.47265625,-2.1015625,-1.384765625,-1.9375,356.0,356.0,356.0111111111111
4112505,,,,,,,,9.34765625,7.65234375,-6.47265625,-0.96484375,-3.1015625,0.294921875,356.0,356.0,356.0111111111111
4112506,,,,,,,,9.34765625,7.65234375,-6.47265625,-0.96484375,-3.1015625,0.294921875,356.0111111111111,356.0,356.0111111111111
4112507,,,,,,,,9.34765625,7.65234375,-6.47265625,-2.46875,1.12890625,-1.86328125,356.0111111111111,356.0,356.0111111111111
4112508,,,,,,,,9.34765625,7.65234375,-6.47265625,-2.46875,1.12890625,-1.86328125,356.0111111111111,356.0,356.0111111111111
4112509,,,,,,,,9.34765625,7.65234375,-6.47265625,2.76953125,-5.04296875,1.265625,356.0111111111111,356.0,356.0111111111111
4112510,36.01343966666666,129.31946066666666,77.58771165111958,115.36096601218107,6.6000000000000005,229.0,,9.34765625,7.65234375,-6.47265625,2.76953125,-5.04296875,1.265625,356.0111111111111,356.0,356.0111111111111
4112511,,,,,,,,9.34765625,7.65234375,-6.47265625,1.91796875,-3.1640625,3.025390625,356.0111111111111,356.0,356.0111111111111
4112512,,,,,,,,9.34765625,7.65234375,-6.47265625,1.91796875,-3.1640625,3.025390625,356.0111111111111,356.0,356.0111111111111
4112513,,,,,,,,9.34765625,7.65234375,-6.47265625,-2.892578125,-2.908203125,3.25,356.0111111111111,356.0,356.0111111111111
4112514,,,,,,,,9.34765625,7.65234375,-6.47265625,-2.892578125,-2.908203125,3.25,356.0111111111111,356.0,356.0111111111111
4112515,,,,,,,,9.34765625,7.65234375,-6.47265625,-3.13671875,-0.55859375,2.384765625,356.0111111111111,356.0,356.0111111111111
4112516,,,,,,,,2.62890625,4.234375,-1.94921875,-3.13671875,-0.55859375,2.384765625,356.0111111111111,356.0,356.0111111111111
4112517,,,,,,,,2.62890625,4.234375,-1.94921875,-3.13671875,-0.55859375,2.384765625,356.0111111111111,356.0,356.0111111111111
4112518,,,,,,,,2.62890625,4.234375,-1.94921875,-2.857421875,-1.091796875,-0.17578125,356.0111111111111,356.0,356.0111111111111
4112519,,,,,,,,2.62890625,4.234375,-1.94921875,-2.857421875,-1.091796875,-0.17578125,356.0111111111111,355.9888888888889,356.0111111111111
4112520,36.013436,129.31945499999998,77.0768743614619,114.95411093224966,6.6000000000000005,229.0,,2.62890625,4.234375,-1.94921875,1.015625,-3.78515625,1.65625,356.0111111111111,355.9888888888889,356.0111111111111
4112521,,,,,,,,2.62890625,4.234375,-1.94921875,1.015625,-3.78515625,1.65625,356.0,355.9888888888889,356.0111111111111
4112522,,,,,,,,2.62890625,4.234375,-1.94921875,5.458984375,-3.654296875,0.732421875,356.0,355.9888888888889,356.0111111111111
4112523,,,,,,,,2.62890625,4.234375,-1.94921875,5.458984375,-3.654296875,0.732421875,356.0,356.0,356.0111111111111
4112524,,,,,,,,2.62890625,4.234375,-1.94921875,6.53515625,2.009765625,-0.2578125,356.0,356.0,356.0111111111111
4112525,,,,,,,,2.62890625,4.234375,-1.94921875,6.53515625,2.009765625,-0.2578125,356.0,356.0,356.0111111111111
4112526,,,,,,,,2.62890625,4.234375,-1.94921875,3.244140625,1.974609375,0.486328125,356.0,356.0,356.0111111111111
4112527,,,,,,,,2.62890625,4.234375,-1.94921875,3.244140625,1.974609375,0.486328125,356.0,356.0,356.0111111111111
4112528,,,,,,,,2.62890625,4.234375,-1.94921875,1.376953125,2.44140625,-0.0703125,356.0,356.0,356.0111111111111
4112529,,,,,,,,2.62890625,4.234375,-1.94921875,1.376953125,2.44140625,-0.0703125,356.0,356.0,356.0111111111111
4112530,36.0134325,129.31945,76.62613579403973,114.56574961567978,6.300000000000001,229.0,,2.62890625,4.234375,-1.94921875,-3.435546875,3.98046875,-1.078125,356.0,356.0,356.0111111111111
4112531,,,,,,,,-18.4296875,-53.5546875,26.70703125,-3.435546875,3.98046875,-1.078125,356.0,356.0,356.0111111111111
4112532,,,,,,,,-18.4296875,-53.5546875,26.70703125,-3.435546875,3.98046875,-1.078125,356.0,356.0,356.0111111111111
4112533,,,,,,,,-18.4296875,-53.5546875,26.70703125,2.205078125,6.306640625,-0.49609375,356.0,356.0,356.0111111111111
4112534,,,,,,,,-18.4296875,-53.5546875,26.70703125,2.205078125,6.306640625,-0.49609375,356.0,356.0,356.0111111111111
4112535,,,,,,,,-18.4296875,-53.5546875,26.70703125,0.771484375,4.36328125,-2.31640625,356.0,356.0,356.0111111111111
4112536,,,,,,,,-18.4296875,-53.5546875,26.70703125,0.771484375,4.36328125,-2.31640625,356.0,356.0,356.0111111111111
4112537,,,,,,,,-18.4296875,-53.5546875,26.70703125,-3.751953125,4.2109375,-2.58203125,356.0,356.0,356.0111111111111
4112538,,,,,,,,-18.4296875,-53.5546875,26.70703125,-3.751953125,4.2109375,-2.58203125,356.0111111111111,356.0,356.0111111111111
4112539,,,,,,,,-18.4296875,-53.5546875,26.70703125,-2.58984375,0.330078125,-2.298828125,356.0111111111111,356.0,356.0111111111111
4112540,36.01342833333333,129.31944433333334,76.11529889655014,114.10341496702253,6.6000000000000005,229.0,,-18.4296875,-53.5546875,26.70703125,-2.58984375,0.330078125,-2.298828125,356.0111111111111,356.0,356.0111111111111
4112541,,,,,,,,-18.4296875,-53.5546875,26.70703125,-2.41015625,1.38671875,-0.951171875,356.0111111111111,356.0,356.0111111111111
4112542,,,,,,,,-18.4296875,-53.5546875,26.70703125,-2.41015625,1.38671875,-0.951171875,356.0111111111111,356.0,356.0111111111111
4112543,,,,,,,,-18.4296875,-53.5546875,26.70703125,-1.515625,2.69140625,-0.12890625,356.0111111111111,356.0,356.0111111111111
4112544,,,,,,,,-18.4296875,-53.5546875,26.70703125,-1.515625,2.69140625,-0.12890625,356.0111111111111,356.0,356.0111111111111
4112545,,,,,,,,-18.4296875,-53.5546875,26.70703125,1.68359375,2.287109375,-0.0390625,356.0111111111111,356.0,356.0111111111111
4112546,,,,,,,,-6.25390625,7.19140625,0.54296875,1.68359375,2.287109375,-0.0390625,356.0111111111111,356.0,356.0111111111111
4112547,,,,,,,,-6.25390625,7.19140625,0.54296875,1.68359375,2.287109375,-0.0390625,356.0111111111111,356.0,356.0111111111111
4112548,,,,,,,,-6.25390625,7.19140625,0.54296875,1.68359375,2.287109375,-0.0390625,356.0111111111111,356.0,356.0111111111111
4112549,,,,,,,,-6.25390625,7.19140625,0.54296875,5.025390625,-1.458984375,0.228515625,356.0111111111111,356.0,356.0111111111111
4112550,36.013419500000005,129.3194345,75.22884802616421,113.12326729394792,6.5,226.0,,-6.25390625,7.19140625,0.54296875,5.025390625,-1.458984375,0.228515625,356.0111111111111,356.0,356.0111111111111
4112551,,,,,,,,-6.25390625,7.19140625,0.54296875,0.689453125,-1.5234375,-0.900390625,356.0111111111111,356.0,356.0111111111111
4112552,,,,,,,,-6.25390625,7.19140625,0.54296875,0.689453125,-1.5234375,-0.900390625,356.0111111111111,356.0,356.0111111111111
4112553,,,,,,,,-6.25390625,7.19140625,0.54296875,-0.8671875,-3.416015625,0.037109375,356.0111111111111,356.0,356.0111111111111
4112554,,,,,,,,-6.25390625,7.19140625,0.54296875,-0.8671875,-3.416015625,0.037109375,356.0111111111111,356.0,356.0111111111111
4112555,,,,,,,,-6.25390625,7.19140625,0.54296875,-3.4140625,-0.453125,-1.423828125,356.0111111111111,356.0,356.0111111111111
4112556,,,,,,,,-6.25390625,7.19140625,0.54296875,-3.4140625,-0.453125,-1.423828125,356.0111111111111,356.0,356.0111111111111
4112557,,,,,,,,-6.25390625,7.19140625,0.54296875,4.107421875,-5.958984375,1.166015625,356.0111111111111,356.0,356.0111111111111
4112558,,,,,,,,-6.25390625,7.19140625,0.54296875,4.107421875,-5.958984375,1.166015625,356.0111111111111,356.0,356.0111111111111
4112559,,,,,,,,-6.25390625,7.19140625,0.54296875,1.7421875,-2.935546875,2.869140625,356.0111111111111,356.0,356.0111111111111
4112560,36.013416,129.31943,74.82318348909632,112.7349064567906,6.2,227.0,,-6.25390625,7.19140625,0.54296875,1.7421875,-2.935546875,2.869140625,356.0111111111111,356.0,356.0111111111111
4112561,,,,,,,,-6.25390625,7.19140625,0.54296875,-3.720703125,-1.724609375,2.751953125,356.0111111111111,356.0,356.0111111111111
4112562,,,,,,,,-0.625,1.84375,0.21484375,-3.720703125,-1.724609375,2.751953125,356.0111111111111,356.0,356.0111111111111
4112563,,,,,,,,-0.625,1.84375,0.21484375,-3.720703125,-1.724609375,2.751953125,356.0111111111111,356.0,356.0111111111111
4112564,,,,,,,,-0.625,1.84375,0.21484375,-3.720703125,-1.724609375,2.751953125,356.0111111111111,356.0,356.0111111111111
4112565,,,,,,,,-0.625,1.84375,0.21484375,-1.259765625,-2.0859375,2.052734375,356.0111111111111,356.0,356.0111111111111
4112566,,,,,,,,-0.625,1.84375,0.21484375,-1.259765625,-2.0859375,2.052734375,356.0111111111111,356.0,356.0111111111111
4112567,,,,,,,,-0.625,1.84375,0.21484375,-1.77734375,-2.162109375,0.23828125,356.0111111111111,356.0,356.0111111111111
4112568,,,,,,,,-0.625,1.84375,0.21484375,-1.77734375,-2.162109375,0.23828125,356.0,356.0,356.0111111111111
4112569,,,,,,,,-0.625,1.84375,0.21484375,-0.48046875,-3.462890625,1.162109375,356.0,356.0,356.0111111111111
4112570,36.01341266666667,129.31942616666666,74.4776177036264,112.36503935598839,5.800000000000001,227.0,,-0.625,1.84375,0.21484375,-0.48046875,-3.462890625,1.162109375,356.0,356.0,356.0111111111111
4112571,,,,,,,,-0.625,1.84375,0.21484375,5.240234375,-2.63671875,-0.47265625,356.0,356.0,356.0111111111111
4112572,,,,,,,,-0.625,1.84375,0.21484375,5.240234375,-2.63671875,-0.47265625,356.0,356.0,356.0111111111111
4112573,,,,,,,,-0.625,1.84375,0.21484375,5.75,0.916015625,-0.5703125,356.0,356.0,356.0111111111111
4112574,,,,,,,,-0.625,1.84375,0.21484375,5.75,0.916015625,-0.5703125,356.0,356.0,356.0111111111111
4112575,,,,,,,,-0.625,1.84375,0.21484375,3.6796875,3.216796875,0.275390625,356.0,356.0,356.0111111111111
4112576,,,,,,,,-0.625,1.84375,0.21484375,3.6796875,3.216796875,0.275390625,356.0,356.0,356.0111111111111
4112577,,,,,,,,-0.625,1.84375,0.21484375,1.919921875,2.455078125,0.494140625,356.0,356.0,356.0111111111111
4112578,,,,,,,,-1.14453125,19.60546875,-10.25390625,1.919921875,2.455078125,0.494140625,356.0,356.0,356.0111111111111
4112579,,,,,,,,-1.14453125,19.60546875,-10.25390625,1.919921875,2.455078125,0.494140625,356.0,356.0,356.0111111111111
4112580,36.013409,129.31942066666667,73.98180483433973,111.95818458589072,6.1000000000000005,229.0,,-1.14453125,19.60546875,-10.25390625,1.919921875,2.455078125,0.494140625,356.0,356.0,356.0111111111111
4112581,,,,,,,,-1.14453125,19.60546875,-10.25390625,-4.87890625,3.416015625,-2.048828125,356.0,356.0,356.0111111111111
4112582,,,,,,,,-1.14453125,19.60546875,-10.25390625,-4.87890625,3.416015625,-2.048828125,356.0,356.0,356.0111111111111
4112583,,,,,,,,-1.14453125,19.60546875,-10.25390625,0.189453125,2.017578125,-1.23046875,356.0,356.0,356.0111111111111
4112584,,,,,,,,-1.14453125,19.60546875,-10.25390625,0.189453125,2.017578125,-1.23046875,356.0,356.0,356.0111111111111
4112585,,,,,,,,-1.14453125,19.60546875,-10.25390625,1.435546875,5.390625,-2.015625,356.0,356.0,356.0111111111111
4112586,,,,,,,,-1.14453125,19.60546875,-10.25390625,1.435546875,5.390625,-2.015625,356.0,356.0,356.0111111111111
4112587,,,,,,,,-1.14453125,19.60546875,-10.25390625,-0.90234375,1.76171875,-3.302734375,356.0,356.0,356.0111111111111
4112588,,,,,,,,-1.14453125,19.60546875,-10.25390625,-0.90234375,1.76171875,-3.302734375,356.0,356.0,356.0111111111111
4112589,,,,,,,,-1.14453125,19.60546875,-10.25390625,-4.23046875,2.177734375,-3.283203125,356.0,356.0,356.0111111111111
4112590,36.013404333333334,129.319415,73.47096810765456,111.4403704691382,6.6000000000000005,226.0,,-1.14453125,19.60546875,-10.25390625,-4.23046875,2.177734375,-3.283203125,356.0111111111111,356.0,356.0111111111111
4112591,,,,,,,,-1.14453125,19.60546875,-10.25390625,-3.052734375,0.138671875,-1.73046875,356.0111111111111,356.0,356.0111111111111
4112592,,,,,,,,-1.14453125,19.60546875,-10.25390625,-3.052734375,0.138671875,-1.73046875,356.0111111111111,356.0,356.0111111111111
4112593,,,,,,,,-1.14453125,19.60546875,-10.25390625,-3.400390625,0.587890625,-0.365234375,356.0111111111111,356.0,356.0111111111111
4112594,,,,,,,,-10.58984375,-17.61328125,0.12890625,-3.400390625,0.587890625,-0.365234375,356.0111111111111,356.0,356.0111111111111
4112595,,,,,,,,-10.58984375,-17.61328125,0.12890625,-3.400390625,0.587890625,-0.365234375,356.0111111111111,356.0,356.0111111111111
4112596,,,,,,,,-10.58984375,-17.61328125,0.12890625,-3.400390625,0.587890625,-0.365234375,356.0111111111111,356.0,356.0111111111111
4112597,,,,,,,,-10.58984375,-17.61328125,0.12890625,2.87890625,0.296875,-0.294921875,356.0111111111111,356.0,356.0111111111111
4112598,,,,,,,,-10.58984375,-17.61328125,0.12890625,2.87890625,0.296875,-0.294921875,356.0111111111111,355.9888888888889,356.0111111111111
