time,latitude,longitude,enu_x,enu_y,speed,course,Hrage,accX,accY,accZ,gyrX,gyrY,gyrZ,eulR,eulP,eulY
4169500,36.01361516666667,129.31968083333334,97.43516550760759,134.83451235455766,0.2,65535.0,48.0,0.015625,0.375,0.97265625,0.185546875,0.421875,0.0078125,356.0111111111111,356.0,356.0111111111111
4169501,,,,,,,,0.015625,0.375,0.97265625,0.724609375,0.26953125,0.181640625,356.0111111111111,356.0,356.0111111111111
4169502,,,,,,,,0.015625,0.375,0.97265625,0.724609375,0.26953125,0.181640625,356.0111111111111,356.0,356.0111111111111
4169503,,,,,,,,0.015625,0.375,0.97265625,1.02734375,0.232421875,0.236328125,356.0111111111111,356.0,356.0111111111111
4169504,,,,,,,,0.015625,0.375,0.97265625,1.02734375,0.232421875,0.236328125,356.0111111111111,356.0,356.0111111111111
4169505,,,,,,,,0.015625,0.375,0.97265625,0.5078125,-0.203125,0.23046875,356.0111111111111,356.0,356.0111111111111
4169506,,,,,,,,0.015625,0.375,0.97265625,0.5078125,-0.203125,0.23046875,356.0111111111111,356.0,356.0111111111111
4169507,,,,,,,,0.015625,0.375,0.97265625,0.10546875,-0.44140625,0.224609375,356.0111111111111,356.0,356.0111111111111
4169508,,,,,,,,0.015625,0.375,0.97265625,0.10546875,-0.44140625,0.224609375,356.0111111111111,356.0,356.0111111111111
4169509,,,,,,,,0.015625,0.375,0.97265625,-0.2421875,-0.5546875,0.181640625,356.0111111111111,356.0,356.0111111111111
4169510,36.0136155,129.31968116666667,97.46521449261746,134.87149910581437,0.0,65535.0,,0.09375,-3.3359375,-1.17578125,-0.2421875,-0.5546875,0.181640625,356.0111111111111,356.0,356.0111111111111
4169511,,,,,,,,0.09375,-3.3359375,-1.17578125,-0.2421875,-0.5546875,0.181640625,356.0111111111111,356.0,356.0111111111111
4169512,,,,,,,,0.09375,-3.3359375,-1.17578125,-0.2421875,-0.5546875,0.181640625,356.0111111111111,356.0,356.0111111111111
4169513,,,,,,,,0.09375,-3.3359375,-1.17578125,-0.212890625,-0.578125,0.0859375,356.0111111111111,356.0,356.0111111111111
4169514,,,,,,,,0.09375,-3.3359375,-1.17578125,-0.212890625,-0.578125,0.0859375,356.0111111111111,356.0,356.0111111111111
4169515,,,,,,,,0.09375,-3.3359375,-1.17578125,-0.03515625,-0.291015625,0.01171875,356.0111111111111,356.0,356.0111111111111
4169516,,,,,,,,0.09375,-3.3359375,-1.17578125,-0.03515625,-0.291015625,0.01171875,356.0111111111111,356.0,356.0111111111111
4169517,,,,,,,,0.09375,-3.3359375,-1.17578125,-0.08984375,-0.1796875,0.05078125,356.0111111111111,356.0,356.0111111111111
4169518,,,,,,,,0.09375,-3.3359375,-1.17578125,-0.08984375,-0.1796875,0.05078125,356.0111111111111,356.0,356.0111111111111
4169519,,,,,,,,0.09375,-3.3359375,-1.17578125,-0.087890625,-0.041015625,0.060546875,356.0111111111111,356.0,356.0111111111111
4169520,36.013614999999994,129.31968066666667,97.4201410152176,134.81601897828614,0.1,65535.0,,0.09375,-3.3359375,-1.17578125,-0.087890625,-0.041015625,0.060546875,356.0111111111111,356.0,356.0111111111111
4169521,,,,,,,,0.09375,-3.3359375,-1.17578125,0.0390625,0.009765625,0.0,356.0111111111111,356.0,356.0111111111111
4169522,,,,,,,,0.09375,-3.3359375,-1.17578125,0.0390625,0.009765625,0.0,356.0111111111111,356.0,356.0111111111111
4169523,,,,,,,,0.09375,-3.3359375,-1.17578125,0.185546875,-0.048828125,-0.03515625,356.0111111111111,356.0,356.0111111111111
4169524,,,,,,,,0.09375,-3.3359375,-1.17578125,0.185546875,-0.048828125,-0.03515625,356.0111111111111,356.0,356.0111111111111
4169525,,,,,,,,0.09375,-3.3359375,-1.17578125,0.25,-0.07421875,-0.0078125,356.0111111111111,356.0,356.0111111111111
4169526,,,,,,,,1.12890625,0.5625,0.40234375,0.25,-0.07421875,-0.0078125,356.0111111111111,356.0,356.0111111111111
4169527,,,,,,,,1.12890625,0.5625,0.40234375,0.25,-0.07421875,-0.0078125,356.0111111111111,356.0,356.0111111111111
4169528,,,,,,,,1.12890625,0.5625,0.40234375,0.25,-0.07421875,-0.0078125,356.0111111111111,356.0,356.0111111111111
4169529,,,,,,,,1.12890625,0.5625,0.40234375,0.41015625,0.05859375,-0.01953125,356.0111111111111,356.0,356.0111111111111
4169530,36.01361466666666,129.31968049999998,97.40511672326676,134.77903239362527,0.2,224.0,,1.12890625,0.5625,0.40234375,0.41015625,0.05859375,-0.01953125,356.0111111111111,356.0,356.0111111111111
4169531,,,,,,,,1.12890625,0.5625,0.40234375,0.7109375,0.16796875,-0.14453125,356.0111111111111,356.0,356.0111111111111
4169532,,,,,,,,1.12890625,0.5625,0.40234375,0.7109375,0.16796875,-0.14453125,356.0111111111111,356.0,356.0111111111111
4169533,,,,,,,,1.12890625,0.5625,0.40234375,0.74609375,0.09765625,-0.154296875,356.0111111111111,356.0,356.0111111111111
4169534,,,,,,,,1.12890625,0.5625,0.40234375,0.74609375,0.09765625,-0.154296875,356.0111111111111,356.0,356.0111111111111
4169535,,,,,,,,1.12890625,0.5625,0.40234375,0.685546875,0.263671875,-0.138671875,356.0111111111111,356.0,356.0111111111111
4169536,,,,,,,,1.12890625,0.5625,0.40234375,0.685546875,0.263671875,-0.138671875,356.0111111111111,356.0,356.0111111111111
4169537,,,,,,,,1.12890625,0.5625,0.40234375,0.6328125,0.494140625,-0.154296875,356.0111111111111,356.0,356.0111111111111
4169538,,,,,,,,1.12890625,0.5625,0.40234375,0.6328125,0.494140625,-0.154296875,356.0111111111111,356.0,356.0111111111111
4169539,,,,,,,,1.12890625,0.5625,0.40234375,0.361328125,0.73046875,-0.224609375,356.0111111111111,356.0,356.0111111111111
4169540,36.01361433333333,129.31968,97.3600430426109,134.74204547699568,0.30000000000000004,227.0,,1.12890625,0.5625,0.40234375,0.361328125,0.73046875,-0.224609375,356.0111111111111,356.0,356.0111111111111
4169541,,,,,,,,1.12890625,0.5625,0.40234375,0.138671875,0.814453125,-0.33984375,356.0111111111111,356.0,356.0111111111111
4169542,,,,,,,,-2.171875,-1.93359375,1.53515625,0.138671875,0.814453125,-0.33984375,356.0111111111111,356.0,356.0111111111111
4169543,,,,,,,,-2.171875,-1.93359375,1.53515625,0.138671875,0.814453125,-0.33984375,356.0111111111111,356.0,356.0111111111111
4169544,,,,,,,,-2.171875,-1.93359375,1.53515625,0.138671875,0.814453125,-0.33984375,356.0111111111111,356.0,356.0111111111111
4169545,,,,,,,,-2.171875,-1.93359375,1.53515625,-0.06640625,0.302734375,-0.33203125,356.0111111111111,356.0,356.0111111111111
4169546,,,,,,,,-2.171875,-1.93359375,1.53515625,-0.06640625,0.302734375,-0.33203125,356.0111111111111,356.0,356.0111111111111
4169547,,,,,,,,-2.171875,-1.93359375,1.53515625,0.705078125,0.2109375,-0.138671875,356.0111111111111,356.0,356.0111111111111
4169548,,,,,,,,-2.171875,-1.93359375,1.53515625,0.705078125,0.2109375,-0.138671875,356.0111111111111,356.0,356.0111111111111
4169549,,,,,,,,-2.171875,-1.93359375,1.53515625,0.357421875,-0.033203125,0.015625,356.0111111111111,356.0,356.0111111111111
4169550,36.013614,129.31967983333334,97.34501875452673,134.70505889257342,0.30000000000000004,220.0,,-2.171875,-1.93359375,1.53515625,0.357421875,-0.033203125,0.015625,356.0111111111111,356.0,356.0111111111111
4169551,,,,,,,,-2.171875,-1.93359375,1.53515625,-0.21484375,-0.24609375,-0.0234375,356.0111111111111,356.0,356.0111111111111
4169552,,,,,,,,-2.171875,-1.93359375,1.53515625,-0.21484375,-0.24609375,-0.0234375,356.0111111111111,356.0,356.0111111111111
4169553,,,,,,,,-2.171875,-1.93359375,1.53515625,-0.203125,-0.08203125,-0.275390625,356.0111111111111,356.0,356.0111111111111
4169554,,,,,,,,-2.171875,-1.93359375,1.53515625,-0.203125,-0.08203125,-0.275390625,356.0111111111111,356.0,356.0111111111111
4169555,,,,,,,,-2.171875,-1.93359375,1.53515625,-0.0390625,0.095703125,-0.55859375,356.0111111111111,356.0,356.0111111111111
4169556,,,,,,,,-2.171875,-1.93359375,1.53515625,-0.0390625,0.095703125,-0.55859375,356.0111111111111,356.0,356.0111111111111
4169557,,,,,,,,-2.171875,-1.93359375,1.53515625,0.095703125,0.15625,-0.59375,356.0111111111111,356.0,356.0111111111111
4169558,,,,,,,,0.01953125,1.8671875,0.8828125,0.095703125,0.15625,-0.59375,356.0111111111111,356.0,356.0111111111111
4169559,,,,,,,,0.01953125,1.8671875,0.8828125,0.095703125,0.15625,-0.59375,356.0111111111111,356.0,356.0111111111111
4169560,36.01361383333334,129.31967983333334,97.34501895942269,134.68656568484627,0.2,65535.0,,0.01953125,1.8671875,0.8828125,0.166015625,0.05859375,-0.375,356.0111111111111,356.0,356.0111111111111
4169561,,,,,,,,0.01953125,1.8671875,0.8828125,0.166015625,0.05859375,-0.375,356.0111111111111,356.0,356.0111111111111
4169562,,,,,,,,0.01953125,1.8671875,0.8828125,0.25,-0.052734375,-0.12890625,356.0111111111111,356.0,356.0111111111111
4169563,,,,,,,,0.01953125,1.8671875,0.8828125,0.25,-0.052734375,-0.12890625,356.0111111111111,356.0,356.0111111111111
4169564,,,,,,,,0.01953125,1.8671875,0.8828125,0.279296875,-0.126953125,0.029296875,356.0111111111111,356.0,356.0111111111111
4169565,,,,,,,,0.01953125,1.8671875,0.8828125,0.279296875,-0.126953125,0.029296875,356.0111111111111,356.0,356.0111111111111
4169566,,,,,,,,0.01953125,1.8671875,0.8828125,0.271484375,-0.130859375,0.1328125,356.0111111111111,356.0,356.0111111111111
4169567,,,,,,,,0.01953125,1.8671875,0.8828125,0.271484375,-0.130859375,0.1328125,356.0111111111111,356.0,356.0111111111111
4169568,,,,,,,,0.01953125,1.8671875,0.8828125,0.158203125,-0.123046875,0.12109375,356.0111111111111,356.0,356.0111111111111
4169569,,,,,,,,0.01953125,1.8671875,0.8828125,0.158203125,-0.123046875,0.12109375,356.0111111111111,356.0,356.0111111111111
4169570,36.013613666666664,129.3196793333333,97.2999450686284,134.66807197601383,0.2,230.0,,0.01953125,1.8671875,0.8828125,-0.01171875,-0.052734375,0.1015625,356.0111111111111,356.0,356.0111111111111
4169571,,,,,,,,0.01953125,1.8671875,0.8828125,-0.01171875,-0.052734375,0.1015625,356.0111111111111,356.0,356.0111111111111
4169572,,,,,,,,0.01953125,1.8671875,0.8828125,-0.078125,0.05078125,0.01171875,356.0111111111111,356.0,356.0111111111111
4169573,,,,,,,,0.921875,1.9609375,-0.96484375,-0.078125,0.05078125,0.01171875,356.0111111111111,356.0,356.0111111111111
4169574,,,,,,,,0.921875,1.9609375,-0.96484375,-0.078125,0.05078125,0.01171875,356.0111111111111,356.0,356.0111111111111
4169575,,,,,,,,0.921875,1.9609375,-0.96484375,-0.18359375,0.15625,-0.1640625,356.0111111111111,356.0,356.0111111111111
4169576,,,,,,,,0.921875,1.9609375,-0.96484375,-0.18359375,0.15625,-0.1640625,356.0111111111111,356.0,356.0111111111111
4169577,,,,,,,,0.921875,1.9609375,-0.96484375,-0.18359375,0.15625,-0.23046875,356.0111111111111,356.0,356.0111111111111
4169578,,,,,,,,0.921875,1.9609375,-0.96484375,-0.18359375,0.15625,-0.23046875,356.0111111111111,356.0,356.0111111111111
4169579,,,,,,,,0.921875,1.9609375,-0.96484375,-0.126953125,0.15234375,-0.259765625,356.0111111111111,356.0,356.0111111111111
4169580,36.0136135,129.3196793333333,97.29994527352436,134.64957876715667,0.1,65535.0,,0.921875,1.9609375,-0.96484375,-0.126953125,0.15234375,-0.259765625,356.0111111111111,356.0,356.0111111111111
4169581,,,,,,,,0.921875,1.9609375,-0.96484375,-0.029296875,0.173828125,-0.294921875,356.0111111111111,356.0,356.0111111111111
4169582,,,,,,,,0.921875,1.9609375,-0.96484375,-0.029296875,0.173828125,-0.294921875,356.0111111111111,356.0,356.0111111111111
4169583,,,,,,,,0.921875,1.9609375,-0.96484375,0.0078125,0.115234375,-0.26953125,356.0111111111111,356.0,356.0111111111111
4169584,,,,,,,,0.921875,1.9609375,-0.96484375,0.0078125,0.115234375,-0.26953125,356.0111111111111,356.0,356.0111111111111
4169585,,,,,,,,0.921875,1.9609375,-0.96484375,0.376953125,-0.048828125,-0.03515625,356.0111111111111,356.0,356.0111111111111
4169586,,,,,,,,0.921875,1.9609375,-0.96484375,0.376953125,-0.048828125,-0.03515625,356.0111111111111,356.0,356.0111111111111
4169587,,,,,,,,0.921875,1.9609375,-0.96484375,0.599609375,-0.109375,0.083984375,356.0111111111111,356.0,356.0111111111111
4169588,,,,,,,,0.2109375,-0.171875,1.0859375,0.599609375,-0.109375,0.083984375,356.0111111111111,356.0,356.0111111111111
4169589,,,,,,,,0.2109375,-0.171875,1.0859375,0.599609375,-0.109375,0.083984375,356.0111111111111,356.0,356.0111111111111
4169590,36.01361383333334,129.31968,97.36004365742913,134.68656585153698,0.1,65535.0,,0.2109375,-0.171875,1.0859375,0.30078125,-0.19921875,-0.0078125,356.0111111111111,356.0,356.0111111111111
4169591,,,,,,,,0.2109375,-0.171875,1.0859375,0.30078125,-0.19921875,-0.0078125,356.0111111111111,356.0,356.0111111111111
4169592,,,,,,,,0.2109375,-0.171875,1.0859375,0.08984375,-0.197265625,-0.03515625,356.0111111111111,356.0,356.0111111111111
4169593,,,,,,,,0.2109375,-0.171875,1.0859375,0.08984375,-0.197265625,-0.03515625,356.0111111111111,356.0,356.0111111111111
4169594,,,,,,,,0.2109375,-0.171875,1.0859375,-0.064453125,-0.134765625,-0.060546875,356.0111111111111,356.0,356.0111111111111
4169595,,,,,,,,0.2109375,-0.171875,1.0859375,-0.064453125,-0.134765625,-0.060546875,356.0111111111111,356.0,356.0111111111111
4169596,,,,,,,,0.2109375,-0.171875,1.0859375,-0.087890625,-0.09765625,-0.078125,356.0111111111111,356.0,356.0111111111111
4169597,,,,,,,,0.2109375,-0.171875,1.0859375,-0.087890625,-0.09765625,-0.078125,356.0111111111111,356.0,356.0111111111111
4169598,,,,,,,,0.2109375,-0.171875,1.0859375,-0.119140625,-0.048828125,-0.015625,356.0111111111111,356.0,356.0111111111111
4169599,,,,,,,,0.2109375,-0.171875,1.0859375,-0.119140625,-0.048828125,-0.015625,356.0111111111111,356.0,356.0111111111111
4169600,36.013613666666664,129.31967983333334,97.34501916408877,134.66807247539202,0.0,65535.0,48.0,0.2109375,-0.171875,1.0859375,-0.119140625,-0.048828125,-0.015625,356.0111111111111,356.0,356.0111111111111
4169601,,,,,,,,0.2109375,-0.171875,1.0859375,-0.119140625,-0.048828125,-0.015625,356.0111111111111,356.0,356.0111111111111
4169602,,,,,,,,0.2109375,-0.171875,1.0859375,0.2265625,0.12109375,0.06640625,356.0111111111111,356.0,356.0111111111111
4169603,,,,,,,,0.2109375,-0.171875,1.0859375,0.21484375,0.0546875,0.09765625,356.0111111111111,356.0,356.0111111111111
4169604,,,,,,,,0.2109375,-0.171875,1.0859375,0.21484375,0.0546875,0.09765625,356.0111111111111,356.0,356.0111111111111
4169605,,,,,,,,0.2109375,-0.171875,1.0859375,0.201171875,-0.0078125,0.123046875,356.0111111111111,356.0,356.0111111111111
4169606,,,,,,,,-0.1796875,0.28515625,0.40234375,0.201171875,-0.0078125,0.123046875,356.0111111111111,356.0,356.0111111111111
4169607,,,,,,,,-0.1796875,0.28515625,0.40234375,0.201171875,-0.0078125,0.123046875,356.0111111111111,356.0,356.0111111111111
4169608,,,,,,,,-0.1796875,0.28515625,0.40234375,0.119140625,-0.060546875,0.123046875,356.0111111111111,356.0,356.0111111111111
4169609,,,,,,,,-0.1796875,0.28515625,0.40234375,0.119140625,-0.060546875,0.123046875,356.0111111111111,356.0,356.0111111111111
4169610,36.01361383333334,129.31968049999998,97.40511774889245,134.68656635107047,0.1,65535.0,,-0.1796875,0.28515625,0.40234375,0.08203125,-0.07421875,0.119140625,356.0111111111111,356.0,356.0111111111111
4169611,,,,,,,,-0.1796875,0.28515625,0.40234375,0.08203125,-0.07421875,0.119140625,356.0111111111111,356.0,356.0111111111111
4169612,,,,,,,,-0.1796875,0.28515625,0.40234375,0.044921875,-0.0390625,0.08203125,356.0111111111111,356.0,356.0111111111111
4169613,,,,,,,,-0.1796875,0.28515625,0.40234375,0.044921875,-0.0390625,0.08203125,356.0111111111111,356.0,356.0111111111111
4169614,,,,,,,,-0.1796875,0.28515625,0.40234375,0.021484375,0.0078125,0.048828125,356.0111111111111,356.0,356.0111111111111
4169615,,,,,,,,-0.1796875,0.28515625,0.40234375,0.021484375,0.0078125,0.048828125,356.0111111111111,356.0,356.0111111111111
4169616,,,,,,,,-0.1796875,0.28515625,0.40234375,-0.013671875,0.0859375,0.0390625,356.0111111111111,356.0,356.0111111111111
4169617,,,,,,,,-0.1796875,0.28515625,0.40234375,-0.013671875,0.0859375,0.0390625,356.0111111111111,356.0,356.0111111111111
4169618,,,,,,,,-0.1796875,0.28515625,0.40234375,-0.02734375,0.125,0.01171875,356.0111111111111,356.0,356.0111111111111
4169619,,,,,,,,-0.1796875,0.28515625,0.40234375,-0.02734375,0.125,0.01171875,356.0111111111111,356.0,356.0111111111111
4169620,36.01361383333334,129.31968083333334,97.43516714860735,134.68656668408474,0.0,65535.0,,-0.1796875,0.28515625,0.40234375,-0.0546875,0.078125,0.025390625,356.0111111111111,356.0,356.0111111111111
4169621,,,,,,,,-0.640625,-0.34375,0.1796875,-0.0546875,0.078125,0.025390625,356.0111111111111,356.0,356.0111111111111
4169622,,,,,,,,-0.640625,-0.34375,0.1796875,-0.0546875,0.078125,0.025390625,356.0111111111111,356.0,356.0111111111111
4169623,,,,,,,,-0.640625,-0.34375,0.1796875,-0.07421875,-0.017578125,0.05078125,356.0111111111111,356.0,356.0111111111111
4169624,,,,,,,,-0.640625,-0.34375,0.1796875,-0.07421875,-0.017578125,0.05078125,356.0111111111111,356.0,356.0111111111111
4169625,,,,,,,,-0.640625,-0.34375,0.1796875,-0.017578125,0.01953125,0.07421875,356.0111111111111,356.0,356.0111111111111
4169626,,,,,,,,-0.640625,-0.34375,0.1796875,-0.017578125,0.01953125,0.07421875,356.0111111111111,356.0,356.0111111111111
4169627,,,,,,,,-0.640625,-0.34375,0.1796875,-0.01171875,-0.068359375,0.064453125,356.0111111111111,356.0,356.0111111111111
4169628,,,,,,,,-0.640625,-0.34375,0.1796875,-0.01171875,-0.068359375,0.064453125,356.0111111111111,356.0,356.0111111111111
4169629,,,,,,,,-0.640625,-0.34375,0.1796875,-0.0078125,-0.08203125,0.0234375,356.0111111111111,356.0,356.0111111111111
4169630,36.01361383333334,129.31968083333334,97.43516714860735,134.68656668408474,0.0,65535.0,,-0.640625,-0.34375,0.1796875,-0.0078125,-0.08203125,0.0234375,356.0111111111111,356.0,356.0111111111111
4169631,,,,,,,,-0.640625,-0.34375,0.1796875,0.01953125,-0.076171875,0.0234375,356.0111111111111,356.0,356.0111111111111
4169632,,,,,,,,-0.640625,-0.34375,0.1796875,0.01953125,-0.076171875,0.0234375,356.0111111111111,356.0,356.0111111111111
4169633,,,,,,,,-0.640625,-0.34375,0.1796875,0.017578125,-0.072265625,0.03125,356.0111111111111,356.0,356.0111111111111
4169634,,,,,,,,-0.640625,-0.34375,0.1796875,0.017578125,-0.072265625,0.03125,356.0111111111111,356.0,356.0111111111111
4169635,,,,,,,,-0.640625,-0.34375,0.1796875,0.021484375,-0.064453125,0.029296875,356.0111111111111,356.0,356.0111111111111
4169636,,,,,,,,-0.25,0.03125,-0.12109375,0.021484375,-0.064453125,0.029296875,356.0111111111111,356.0,356.0111111111111
4169637,,,,,,,,-0.25,0.03125,-0.12109375,0.021484375,-0.064453125,0.029296875,356.0111111111111,356.0,356.0111111111111
4169638,,,,,,,,-0.25,0.03125,-0.12109375,0.029296875,-0.06640625,0.0078125,356.0111111111111,356.0,356.0111111111111
4169639,,,,,,,,-0.25,0.03125,-0.12109375,0.029296875,-0.06640625,0.0078125,356.0111111111111,356.0,356.0111111111111
4169640,36.013614,129.31968083333334,97.43516694335116,134.70505989198537,0.0,65535.0,,-0.25,0.03125,-0.12109375,0.05859375,-0.03515625,0.0,356.0111111111111,356.0,356.0111111111111
4169641,,,,,,,,-0.25,0.03125,-0.12109375,0.05859375,-0.03515625,0.0,356.0111111111111,356.0,356.0111111111111
4169642,,,,,,,,-0.25,0.03125,-0.12109375,0.0703125,0.060546875,0.0234375,356.0111111111111,356.0,356.0111111111111
4169643,,,,,,,,-0.25,0.03125,-0.12109375,0.0703125,0.060546875,0.0234375,356.0111111111111,356.0,356.0111111111111
4169644,,,,,,,,-0.25,0.03125,-0.12109375,0.072265625,0.15625,0.015625,356.0111111111111,356.0,356.0111111111111
4169645,,,,,,,,-0.25,0.03125,-0.12109375,0.072265625,0.15625,0.015625,356.0111111111111,356.0,356.0111111111111
4169646,,,,,,,,-0.25,0.03125,-0.12109375,-0.072265625,0.435546875,0.0078125,356.0111111111111,356.0,356.0111111111111
4169647,,,,,,,,-0.25,0.03125,-0.12109375,-0.072265625,0.435546875,0.0078125,356.0111111111111,356.0,356.0111111111111
4169648,,,,,,,,-0.25,0.03125,-0.12109375,-0.169921875,0.822265625,0.0,356.0111111111111,356.0,356.0111111111111
4169649,,,,,,,,-0.25,0.03125,-0.12109375,-0.169921875,0.822265625,0.0,356.0111111111111,356.0,356.0111111111111
4169650,36.01361383333334,129.31968083333334,97.43516714860735,134.68656668408474,0.0,65535.0,,-0.25,0.03125,-0.12109375,-0.337890625,1.208984375,-0.052734375,356.0111111111111,356.0,356.0111111111111
4169651,,,,,,,,-1.53515625,-3.125,-0.0078125,-0.337890625,1.208984375,-0.052734375,356.0111111111111,356.0,356.0111111111111
4169652,,,,,,,,-1.53515625,-3.125,-0.0078125,-0.337890625,1.208984375,-0.052734375,356.0111111111111,356.0,356.0111111111111
4169653,,,,,,,,-1.53515625,-3.125,-0.0078125,-0.345703125,0.974609375,-0.50390625,356.0111111111111,356.0,356.0111111111111
4169654,,,,,,,,-1.53515625,-3.125,-0.0078125,-0.345703125,0.974609375,-0.50390625,356.0111111111111,356.0,356.0111111111111
4169655,,,,,,,,-1.53515625,-3.125,-0.0078125,-1.376953125,0.42578125,-0.56640625,356.0111111111111,356.0,356.0111111111111
4169656,,,,,,,,-1.53515625,-3.125,-0.0078125,-1.376953125,0.42578125,-0.56640625,356.0111111111111,356.0,356.0111111111111
4169657,,,,,,,,-1.53515625,-3.125,-0.0078125,-1.873046875,0.646484375,-0.671875,356.0111111111111,356.0,356.0111111111111
4169658,,,,,,,,-1.53515625,-3.125,-0.0078125,-1.873046875,0.646484375,-0.671875,356.0111111111111,356.0,356.0111111111111
4169659,,,,,,,,-1.53515625,-3.125,-0.0078125,-2.0234375,0.673828125,-0.9453125,356.0111111111111,356.0,356.0111111111111
4169660,36.013614,129.31968083333334,97.43516694335116,134.70505989198537,0.0,65535.0,,-1.53515625,-3.125,-0.0078125,-2.0234375,0.673828125,-0.9453125,356.0111111111111,356.0,356.0111111111111
4169661,,,,,,,,-1.53515625,-3.125,-0.0078125,-2.5859375,0.33203125,-1.029296875,356.0111111111111,356.0,356.0111111111111
4169662,,,,,,,,-1.53515625,-3.125,-0.0078125,-2.5859375,0.33203125,-1.029296875,356.0111111111111,356.0,356.0111111111111
4169663,,,,,,,,-1.53515625,-3.125,-0.0078125,-2.482421875,0.462890625,-1.05859375,356.0111111111111,356.0,356.0111111111111
4169664,,,,,,,,-1.53515625,-3.125,-0.0078125,-2.482421875,0.462890625,-1.05859375,356.0111111111111,356.0,356.0111111111111
4169665,,,,,,,,-1.53515625,-3.125,-0.0078125,-1.830078125,0.958984375,-1.0078125,356.0111111111111,356.0,356.0111111111111
4169666,,,,,,,,1.671875,0.4140625,-5.4140625,-1.830078125,0.958984375,-1.0078125,356.0111111111111,356.0,356.0111111111111
4169667,,,,,,,,1.671875,0.4140625,-5.4140625,-1.830078125,0.958984375,-1.0078125,356.0111111111111,356.0,356.0111111111111
4169668,,,,,,,,1.671875,0.4140625,-5.4140625,-1.14453125,0.435546875,-1.125,356.0111111111111,356.0,356.0111111111111
4169669,,,,,,,,1.671875,0.4140625,-5.4140625,-1.14453125,0.435546875,-1.125,356.0111111111111,356.0,356.0111111111111
4169670,36.0136135,129.31968016666667,97.37506876542307,134.64957959935748,0.30000000000000004,233.0,,1.671875,0.4140625,-5.4140625,-0.591796875,-0.0078125,-1.095703125,356.0111111111111,356.0,356.0111111111111
4169671,,,,,,,,1.671875,0.4140625,-5.4140625,-0.591796875,-0.0078125,-1.095703125,356.0111111111111,356.0,356.0111111111111
4169672,,,,,,,,1.671875,0.4140625,-5.4140625,0.130859375,-0.51171875,-0.837890625,356.0111111111111,356.0,356.0111111111111
4169673,,,,,,,,1.671875,0.4140625,-5.4140625,0.130859375,-0.51171875,-0.837890625,356.0111111111111,356.0,356.0111111111111
4169674,,,,,,,,1.671875,0.4140625,-5.4140625,1.033203125,-0.291015625,-0.751953125,356.0111111111111,356.0,356.0111111111111
4169675,,,,,,,,1.671875,0.4140625,-5.4140625,1.033203125,-0.291015625,-0.751953125,356.0111111111111,356.0,356.0111111111111
4169676,,,,,,,,1.671875,0.4140625,-5.4140625,1.533203125,0.845703125,-0.98046875,356.0111111111111,356.0,356.0111111111111
4169677,,,,,,,,1.671875,0.4140625,-5.4140625,1.533203125,0.845703125,-0.98046875,356.0111111111111,356.0,356.0111111111111
4169678,,,,,,,,1.671875,0.4140625,-5.4140625,1.923828125,0.115234375,-0.982421875,356.0111111111111,356.0,356.0111111111111
4169679,,,,,,,,1.671875,0.4140625,-5.4140625,1.923828125,0.115234375,-0.982421875,356.0111111111111,356.0,356.0111111111111
4169680,36.01361283333333,129.31967833333334,97.2097979051037,134.57560493446687,0.9,247.0,,1.671875,0.4140625,-5.4140625,0.720703125,-0.65625,-0.431640625,356.0111111111111,356.0,356.0111111111111
4169681,,,,,,,,5.95703125,-11.02734375,0.0,0.720703125,-0.65625,-0.431640625,356.0111111111111,356.0,356.0111111111111
4169682,,,,,,,,5.95703125,-11.02734375,0.0,0.720703125,-0.65625,-0.431640625,356.0111111111111,356.0,356.0111111111111
4169683,,,,,,,,5.95703125,-11.02734375,0.0,0.720703125,-0.65625,-0.431640625,356.0111111111111,356.0,356.0111111111111
4169684,,,,,,,,5.95703125,-11.02734375,0.0,-0.37109375,0.333984375,0.615234375,356.0111111111111,356.0,356.0111111111111
4169685,,,,,,,,5.95703125,-11.02734375,0.0,-0.37109375,0.333984375,0.615234375,356.0111111111111,356.0,356.0111111111111
4169686,,,,,,,,5.95703125,-11.02734375,0.0,-0.271484375,-0.42578125,1.48046875,356.0111111111111,356.0,356.0111111111111
4169687,,,,,,,,5.95703125,-11.02734375,0.0,-0.271484375,-0.42578125,1.48046875,356.0111111111111,356.0,356.0111111111111
4169688,,,,,,,,5.95703125,-11.02734375,0.0,-0.7578125,-0.35546875,1.505859375,356.0111111111111,356.0,356.0111111111111
4169689,,,,,,,,5.95703125,-11.02734375,0.0,-0.7578125,-0.35546875,1.505859375,356.0111111111111,356.0,356.0111111111111
4169690,36.013611833333336,129.31967600000002,96.99945335417182,134.46464335628025,1.6,243.0,,5.95703125,-11.02734375,0.0,-0.58984375,-0.744140625,1.60546875,356.0111111111111,356.0,356.0111111111111
4169691,,,,,,,,5.95703125,-11.02734375,0.0,-0.58984375,-0.744140625,1.60546875,356.0111111111111,356.0,356.0111111111111
4169692,,,,,,,,5.95703125,-11.02734375,0.0,1.30859375,-0.052734375,1.814453125,356.0111111111111,356.0,356.0111111111111
4169693,,,,,,,,5.95703125,-11.02734375,0.0,1.30859375,-0.052734375,1.814453125,356.0111111111111,356.0,356.0111111111111
4169694,,,,,,,,5.95703125,-11.02734375,0.0,0.185546875,0.30078125,1.181640625,356.0111111111111,356.0,356.0111111111111
4169695,,,,,,,,5.95703125,-11.02734375,0.0,0.185546875,0.30078125,1.181640625,356.0111111111111,356.0,356.0111111111111
4169696,,,,,,,,5.95703125,-11.02734375,0.0,-1.046875,0.85546875,0.982421875,356.0111111111111,356.0,356.0111111111111
4169697,,,,,,,,3.7890625,-0.02734375,-2.984375,-1.046875,0.85546875,0.982421875,356.0111111111111,356.0,356.0111111111111
4169698,,,,,,,,3.7890625,-0.02734375,-2.984375,-1.046875,0.85546875,0.982421875,356.0111111111111,356.0,356.0111111111111
4169699,,,,,,,,3.7890625,-0.02734375,-2.984375,-1.046875,0.85546875,0.982421875,356.0111111111111,356.0,356.0111111111111
4169700,36.01360833333333,129.319672,96.63886486167695,134.07628199615965,2.2,231.0,48.0,3.7890625,-0.02734375,-2.984375,0.99609375,1.12109375,-1.09375,356.0111111111111,356.0,356.0111111111111
4169701,,,,,,,,3.7890625,-0.02734375,-2.984375,0.99609375,1.12109375,-1.09375,356.0111111111111,356.0,356.0111111111111
4169702,,,,,,,,3.7890625,-0.02734375,-2.984375,0.99609375,1.12109375,-1.09375,356.0111111111111,356.0,356.0111111111111
4169703,,,,,,,,3.7890625,-0.02734375,-2.984375,0.99609375,1.12109375,-1.09375,356.0111111111111,356.0,356.0111111111111
4169704,,,,,,,,3.7890625,-0.02734375,-2.984375,-0.611328125,1.3046875,-1.8359375,356.0111111111111,356.0,356.0111111111111
4169705,,,,,,,,3.7890625,-0.02734375,-2.984375,-0.611328125,1.3046875,-1.8359375,356.0111111111111,356.0,356.0111111111111
4169706,,,,,,,,3.7890625,-0.02734375,-2.984375,0.466796875,0.43359375,-1.0859375,356.0111111111111,356.0,356.0111111111111
4169707,,,,,,,,3.7890625,-0.02734375,-2.984375,0.466796875,0.43359375,-1.0859375,356.0111111111111,356.0,356.0111111111111
4169708,,,,,,,,3.7890625,-0.02734375,-2.984375,-0.166015625,-0.359375,-0.685546875,356.0111111111111,356.0,356.0111111111111
4169709,,,,,,,,3.7890625,-0.02734375,-2.984375,-0.166015625,-0.359375,-0.685546875,356.0111111111111,356.0,356.0111111111111
4169710,36.01360483333334,129.31966683333334,96.17310344169394,133.68791950057928,2.8000000000000003,229.0,,3.7890625,-0.02734375,-2.984375,1.6484375,-0.2578125,0.458984375,356.0111111111111,356.0,356.0111111111111
4169711,,,,,,,,3.7890625,-0.02734375,-2.984375,1.6484375,-0.2578125,0.458984375,356.0111111111111,356.0,356.0111111111111
4169712,,,,,,,,3.7890625,-0.02734375,-2.984375,0.623046875,-0.6953125,0.6328125,356.0111111111111,356.0,356.0111111111111
4169713,,,,,,,,3.7890625,-0.02734375,-2.984375,0.623046875,-0.6953125,0.6328125,356.0111111111111,356.0,356.0111111111111
4169714,,,,,,,,3.7890625,-0.02734375,-2.984375,-1.71875,-0.48828125,0.533203125,356.0111111111111,356.0,356.0111111111111
4169715,,,,,,,,17.40234375,-18.97265625,-4.0546875,-1.71875,-0.48828125,0.533203125,356.0111111111111,356.0,356.0111111111111
4169716,,,,,,,,17.40234375,-18.97265625,-4.0546875,-1.71875,-0.48828125,0.533203125,356.0111111111111,356.0,356.0111111111111
4169717,,,,,,,,17.40234375,-18.97265625,-4.0546875,-1.994140625,-0.25,0.66015625,356.0111111111111,356.0,356.0111111111111
4169718,,,,,,,,17.40234375,-18.97265625,-4.0546875,-1.994140625,-0.25,0.66015625,356.0111111111111,356.0,356.0111111111111
4169719,,,,,,,,17.40234375,-18.97265625,-4.0546875,0.138671875,-2.798828125,1.1640625,356.0111111111111,356.0,356.0111111111111
4169720,36.01360316666667,129.3196635,95.87261146328035,133.5029841268116,3.1,233.0,,17.40234375,-18.97265625,-4.0546875,0.138671875,-2.798828125,1.1640625,356.0111111111111,356.0,356.0111111111111
4169721,,,,,,,,17.40234375,-18.97265625,-4.0546875,-1.3359375,-2.705078125,1.615234375,356.0111111111111,356.0,356.0111111111111
4169722,,,,,,,,17.40234375,-18.97265625,-4.0546875,-1.3359375,-2.705078125,1.615234375,356.0111111111111,356.0,356.0111111111111
4169723,,,,,,,,17.40234375,-18.97265625,-4.0546875,-1.1796875,-2.486328125,2.052734375,356.0111111111111,356.0,356.0111111111111
4169724,,,,,,,,17.40234375,-18.97265625,-4.0546875,-1.1796875,-2.486328125,2.052734375,356.0111111111111,356.0,356.0111111111111
4169725,,,,,,,,17.40234375,-18.97265625,-4.0546875,1.412109375,-2.224609375,2.572265625,356.0111111111111,356.0,356.0111111111111
4169726,,,,,,,,17.40234375,-18.97265625,-4.0546875,1.412109375,-2.224609375,2.572265625,356.0111111111111,356.0,356.0111111111111
4169727,,,,,,,,17.40234375,-18.97265625,-4.0546875,1.525390625,-0.35546875,1.97265625,356.0111111111111,356.0,356.0111111111111
4169728,,,,,,,,17.40234375,-18.97265625,-4.0546875,1.525390625,-0.35546875,1.97265625,356.0111111111111,356.0,356.0111111111111
4169729,,,,,,,,17.40234375,-18.97265625,-4.0546875,-0.06640625,1.25,1.33203125,356.0111111111111,356.0,356.0111111111111
4169730,36.01360183333334,129.31966083333333,95.63221787201385,133.35503583774624,3.1,234.0,,3.171875,8.52734375,-0.8125,-0.06640625,1.25,1.33203125,356.0111111111111,356.0,356.0111111111111
4169731,,,,,,,,3.171875,8.52734375,-0.8125,-0.06640625,1.25,1.33203125,356.0111111111111,356.0,356.0111111111111
4169732,,,,,,,,3.171875,8.52734375,-0.8125,-0.06640625,1.25,1.33203125,356.0111111111111,356.0,356.0111111111111
4169733,,,,,,,,3.171875,8.52734375,-0.8125,2.3984375,0.744140625,-0.47265625,356.0111111111111,356.0,356.0111111111111
4169734,,,,,,,,3.171875,8.52734375,-0.8125,2.3984375,0.744140625,-0.47265625,356.0111111111111,356.0,356.0111111111111
4169735,,,,,,,,3.171875,8.52734375,-0.8125,-1.109375,1.259765625,-1.65625,356.0111111111111,356.0,356.0111111111111
4169736,,,,,,,,3.171875,8.52734375,-0.8125,-1.109375,1.259765625,-1.65625,356.0111111111111,356.0,356.0111111111111
4169737,,,,,,,,3.171875,8.52734375,-0.8125,-1.826171875,0.107421875,-1.044921875,356.0111111111111,356.0,356.0111111111111
4169738,,,,,,,,3.171875,8.52734375,-0.8125,-1.826171875,0.107421875,-1.044921875,356.0111111111111,356.0,356.0111111111111
4169739,,,,,,,,3.171875,8.52734375,-0.8125,0.9609375,1.232421875,-1.33984375,356.0111111111111,356.0,356.0111111111111
4169740,36.013599,129.31965733333334,95.31670257544667,133.04064785834572,3.5,233.0,,3.171875,8.52734375,-0.8125,0.9609375,1.232421875,-1.33984375,356.0111111111111,356.0,356.0111111111111
4169741,,,,,,,,3.171875,8.52734375,-0.8125,0.560546875,0.595703125,-2.310546875,356.0111111111111,356.0,356.0111111111111
4169742,,,,,,,,3.171875,8.52734375,-0.8125,0.560546875,0.595703125,-2.310546875,356.0111111111111,356.0,356.0111111111111
4169743,,,,,,,,3.171875,8.52734375,-0.8125,-2.779296875,2.3203125,-2.259765625,356.0111111111111,356.0,356.0111111111111
4169744,,,,,,,,3.171875,8.52734375,-0.8125,-2.779296875,2.3203125,-2.259765625,356.0111111111111,356.0,356.0111111111111
4169745,,,,,,,,3.171875,8.52734375,-0.8125,-2.1875,2.74609375,-2.509765625,356.0111111111111,356.0,356.0111111111111
4169746,,,,,,,,-4.86328125,2.2578125,-0.81640625,-2.1875,2.74609375,-2.509765625,356.0111111111111,356.0,356.0111111111111
4169747,,,,,,,,-4.86328125,2.2578125,-0.81640625,-2.1875,2.74609375,-2.509765625,356.0111111111111,356.0,356.0111111111111
4169748,,,,,,,,-4.86328125,2.2578125,-0.81640625,-2.1875,2.74609375,-2.509765625,356.0111111111111,356.0,356.0111111111111
4169749,,,,,,,,-4.86328125,2.2578125,-0.81640625,-0.271484375,1.9609375,-1.71875,356.0111111111111,356.0,356.0111111111111
4169750,36.013596666666665,129.31965399999999,95.01621135535669,132.78173967901813,3.8000000000000003,231.0,,-4.86328125,2.2578125,-0.81640625,-0.271484375,1.9609375,-1.71875,356.0111111111111,356.0,356.0111111111111
4169751,,,,,,,,-4.86328125,2.2578125,-0.81640625,-0.09375,0.330078125,-0.84375,356.0111111111111,356.0,356.0111111111111
4169752,,,,,,,,-4.86328125,2.2578125,-0.81640625,-0.09375,0.330078125,-0.84375,356.0111111111111,356.0,356.0111111111111
4169753,,,,,,,,-4.86328125,2.2578125,-0.81640625,1.48828125,0.486328125,-0.064453125,356.0111111111111,356.0,356.0111111111111
4169754,,,,,,,,-4.86328125,2.2578125,-0.81640625,1.48828125,0.486328125,-0.064453125,356.0111111111111,356.0,356.0111111111111
4169755,,,,,,,,-4.86328125,2.2578125,-0.81640625,0.904296875,-0.818359375,0.501953125,356.0111111111111,356.0,356.0111111111111
4169756,,,,,,,,-4.86328125,2.2578125,-0.81640625,0.904296875,-0.818359375,0.501953125,356.0111111111111,356.0,356.0111111111111
4169757,,,,,,,,-4.86328125,2.2578125,-0.81640625,-0.53125,-1.05859375,0.6953125,356.0111111111111,356.0,356.0111111111111
4169758,,,,,,,,-4.86328125,2.2578125,-0.81640625,-0.53125,-1.05859375,0.6953125,356.0111111111111,356.0,356.0111111111111
4169759,,,,,,,,-4.86328125,2.2578125,-0.81640625,-2.080078125,-1.548828125,0.96875,356.0111111111111,356.0,356.0111111111111
4169760,36.013594166666664,129.31965,94.65562151294851,132.50433765436264,4.0,232.0,,-4.86328125,2.2578125,-0.81640625,-2.080078125,-1.548828125,0.96875,356.0111111111111,356.0,356.0111111111111
4169761,,,,,,,,-4.86328125,2.2578125,-0.81640625,-2.044921875,-0.2109375,0.73046875,356.0111111111111,356.0,356.0111111111111
4169762,,,,,,,,2.28515625,-4.83203125,5.2578125,-2.044921875,-0.2109375,0.73046875,356.0111111111111,356.0,356.0111111111111
4169763,,,,,,,,2.28515625,-4.83203125,5.2578125,-2.044921875,-0.2109375,0.73046875,356.0111111111111,356.0,356.0111111111111
4169764,,,,,,,,2.28515625,-4.83203125,5.2578125,-2.044921875,-0.2109375,0.73046875,356.0111111111111,356.0,356.0111111111111
4169765,,,,,,,,2.28515625,-4.83203125,5.2578125,-1.04296875,-3.138671875,1.435546875,356.0111111111111,356.0,356.0111111111111
4169766,,,,,,,,2.28515625,-4.83203125,5.2578125,-1.04296875,-3.138671875,1.435546875,356.0111111111111,356.0,356.0111111111111
4169767,,,,,,,,2.28515625,-4.83203125,5.2578125,-1.599609375,-3.08203125,2.16015625,356.0111111111111,356.0,356.0111111111111
4169768,,,,,,,,2.28515625,-4.83203125,5.2578125,-1.599609375,-3.08203125,2.16015625,356.0111111111111,356.0,356.0111111111111
4169769,,,,,,,,2.28515625,-4.83203125,5.2578125,0.92578125,-0.828125,2.201171875,356.0111111111111,356.0,356.0111111111111
4169770,36.01359216666666,129.3196458333333,94.28000634799898,132.28241510972975,4.2,234.0,,2.28515625,-4.83203125,5.2578125,0.92578125,-0.828125,2.201171875,356.0111111111111,356.0,356.0111111111111
4169771,,,,,,,,2.28515625,-4.83203125,5.2578125,1.494140625,-2.486328125,2.0078125,356.0111111111111,356.0,356.0111111111111
4169772,,,,,,,,2.28515625,-4.83203125,5.2578125,1.494140625,-2.486328125,2.0078125,356.0111111111111,356.0,356.0111111111111
4169773,,,,,,,,2.28515625,-4.83203125,5.2578125,-0.056640625,0.583984375,1.619140625,356.0111111111111,356.0,356.0111111111111
4169774,,,,,,,,2.28515625,-4.83203125,5.2578125,-0.056640625,0.583984375,1.619140625,356.0111111111111,356.0,356.0111111111111
4169775,,,,,,,,2.28515625,-4.83203125,5.2578125,2.775390625,0.4453125,0.443359375,356.0111111111111,356.0,356.0111111111111
4169776,,,,,,,,2.28515625,-4.83203125,5.2578125,2.775390625,0.4453125,0.443359375,356.0111111111111,356.0,356.0111111111111
4169777,,,,,,,,2.28515625,-4.83203125,5.2578125,1.5,1.35546875,-0.392578125,356.0111111111111,356.0,356.0111111111111
4169778,,,,,,,,-4.30078125,15.8046875,0.78515625,1.5,1.35546875,-0.392578125,356.0111111111111,356.0,356.0111111111111
4169779,,,,,,,,-4.30078125,15.8046875,0.78515625,1.5,1.35546875,-0.392578125,356.0111111111111,356.0,356.0111111111111
4169780,36.013589333333336,129.31964183333332,93.9194168569736,131.9680266994858,4.4,233.0,,-4.30078125,15.8046875,0.78515625,-1.458984375,-0.82421875,-0.544921875,356.0111111111111,356.0,356.0111111111111
4169781,,,,,,,,-4.30078125,15.8046875,0.78515625,-1.458984375,-0.82421875,-0.544921875,356.0111111111111,356.0,356.0111111111111
4169782,,,,,,,,-4.30078125,15.8046875,0.78515625,-1.861328125,0.583984375,-0.5546875,356.0111111111111,356.0,356.0111111111111
4169783,,,,,,,,-4.30078125,15.8046875,0.78515625,-1.861328125,0.583984375,-0.5546875,356.0111111111111,356.0,356.0111111111111
4169784,,,,,,,,-4.30078125,15.8046875,0.78515625,1.328125,0.673828125,-0.72265625,356.0111111111111,356.0,356.0111111111111
4169785,,,,,,,,-4.30078125,15.8046875,0.78515625,1.328125,0.673828125,-0.72265625,356.0111111111111,356.0,356.0111111111111
4169786,,,,,,,,-4.30078125,15.8046875,0.78515625,-2.033203125,4.244140625,-2.595703125,356.0111111111111,356.0,356.0111111111111
4169787,,,,,,,,-4.30078125,15.8046875,0.78515625,-2.033203125,4.244140625,-2.595703125,356.0111111111111,356.0,356.0111111111111
4169788,,,,,,,,-4.30078125,15.8046875,0.78515625,-2.09375,2.65234375,-2.666015625,356.0111111111111,356.0,356.0111111111111
4169789,,,,,,,,-4.30078125,15.8046875,0.78515625,-2.09375,2.65234375,-2.666015625,356.0111111111111,356.0,356.0111111111111
4169790,36.013586333333336,129.319638,93.57385224013335,131.6351452545362,4.5,231.0,,-4.30078125,15.8046875,0.78515625,-1.892578125,3.119140625,-2.341796875,356.0111111111111,356.0,356.0111111111111
4169791,,,,,,,,-4.30078125,15.8046875,0.78515625,-1.892578125,3.119140625,-2.341796875,356.0111111111111,356.0,356.0111111111111
4169792,,,,,,,,-4.30078125,15.8046875,0.78515625,-0.265625,3.126953125,-1.328125,356.0111111111111,356.0,356.0111111111111
4169793,,,,,,,,-10.921875,-10.296875,2.875,-0.265625,3.126953125,-1.328125,356.0111111111111,356.0,356.0111111111111
4169794,,,,,,,,-10.921875,-10.296875,2.875,-0.265625,3.126953125,-1.328125,356.0111111111111,356.0,356.0111111111111
4169795,,,,,,,,-10.921875,-10.296875,2.875,-1.00390625,-0.294921875,-0.58984375,356.0111111111111,356.0,356.0111111111111
4169796,,,,,,,,-10.921875,-10.296875,2.875,-1.00390625,-0.294921875,-0.58984375,356.0111111111111,356.0,356.0111111111111
4169797,,,,,,,,-10.921875,-10.296875,2.875,2.58984375,1.244140625,0.056640625,356.0111111111111,356.0,356.0111111111111
4169798,,,,,,,,-10.921875,-10.296875,2.875,2.58984375,1.244140625,0.056640625,356.0111111111111,356.0,356.0111111111111
4169799,,,,,,,,-10.921875,-10.296875,2.875,1.9921875,-0.384765625,0.185546875,356.0111111111111,356.0,356.0111111111111
4169800,36.01357983333333,129.3196291666667,92.77755058508917,130.91390166613573,5.1000000000000005,229.0,48.0,-10.921875,-10.296875,2.875,1.9921875,-0.384765625,0.185546875,356.0111111111111,356.0,356.0111111111111
4169801,,,,,,,,-10.921875,-10.296875,2.875,1.9921875,-0.384765625,0.185546875,356.0111111111111,356.0,356.0111111111111
4169802,,,,,,,,-10.921875,-10.296875,2.875,1.9921875,-0.384765625,0.185546875,356.0111111111111,356.0,356.0111111111111
4169803,,,,,,,,-10.921875,-10.296875,2.875,-0.748046875,-1.84765625,0.595703125,356.0111111111111,356.0,356.0111111111111
4169804,,,,,,,,-10.921875,-10.296875,2.875,-0.748046875,-1.84765625,0.595703125,356.0111111111111,356.0,356.0111111111111
4169805,,,,,,,,-10.921875,-10.296875,2.875,2.892578125,0.705078125,0.337890625,356.0111111111111,356.0,356.0111111111111
4169806,,,,,,,,-0.76171875,22.2578125,-4.15625,2.892578125,0.705078125,0.337890625,356.0111111111111,356.0,356.0111111111111
4169807,,,,,,,,-0.76171875,22.2578125,-4.15625,2.892578125,0.705078125,0.337890625,356.0,356.0,356.0111111111111
4169808,,,,,,,,-0.76171875,22.2578125,-4.15625,0.181640625,2.107421875,-0.8203125,356.0,356.0,356.0111111111111
4169809,,,,,,,,-0.76171875,22.2578125,-4.15625,0.181640625,2.107421875,-0.8203125,356.0,356.0,356.0111111111111
4169810,36.013573666666666,129.31962016666665,91.96622369987011,130.22964441233086,5.1000000000000005,229.0,,-0.76171875,22.2578125,-4.15625,-2.130859375,-0.353515625,-0.359375,356.0,356.0,356.0111111111111
4169811,,,,,,,,-0.76171875,22.2578125,-4.15625,-2.130859375,-0.353515625,-0.359375,356.0,356.0,356.0111111111111
4169812,,,,,,,,-0.76171875,22.2578125,-4.15625,-2.140625,-0.6640625,-0.560546875,356.0,356.0,356.0111111111111
4169813,,,,,,,,-0.76171875,22.2578125,-4.15625,-2.140625,-0.6640625,-0.560546875,356.0,356.0,356.0111111111111
4169814,,,,,,,,-0.76171875,22.2578125,-4.15625,2.310546875,0.7578125,-1.62890625,356.0,356.0,356.0111111111111
4169815,,,,,,,,-0.76171875,22.2578125,-4.15625,2.310546875,0.7578125,-1.62890625,356.0,356.0,356.0111111111111
4169816,,,,,,,,-0.76171875,22.2578125,-4.15625,-2.798828125,4.818359375,-2.990234375,356.0,356.0,356.0111111111111
4169817,,,,,,,,-0.76171875,22.2578125,-4.15625,-2.798828125,4.818359375,-2.990234375,356.0111111111111,356.0,356.0111111111111
4169818,,,,,,,,-0.76171875,22.2578125,-4.15625,-1.9453125,2.88671875,-3.525390625,356.0111111111111,356.0,356.0111111111111
4169819,,,,,,,,-0.76171875,22.2578125,-4.15625,-1.9453125,2.88671875,-3.525390625,356.0111111111111,356.0,356.0111111111111
4169820,36.01357016666667,129.31961566666666,91.56056069524199,129.84128279218348,5.300000000000001,228.0,,-0.76171875,22.2578125,-4.15625,-1.361328125,2.0546875,-1.583984375,356.0111111111111,356.0,356.0111111111111
4169821,,,,,,,,-20.37890625,-16.2734375,7.33203125,-1.361328125,2.0546875,-1.583984375,356.0111111111111,356.0,356.0111111111111
4169822,,,,,,,,-20.37890625,-16.2734375,7.33203125,-1.361328125,2.0546875,-1.583984375,356.0111111111111,356.0,356.0111111111111
4169823,,,,,,,,-20.37890625,-16.2734375,7.33203125,-0.73828125,-1.203125,0.107421875,356.0111111111111,356.0,356.0111111111111
4169824,,,,,,,,-20.37890625,-16.2734375,7.33203125,-0.73828125,-1.203125,0.107421875,356.0111111111111,356.0,356.0111111111111
4169825,,,,,,,,-20.37890625,-16.2734375,7.33203125,2.828125,0.095703125,0.19140625,356.0111111111111,356.0,356.0111111111111
4169826,,,,,,,,-20.37890625,-16.2734375,7.33203125,2.828125,0.095703125,0.19140625,356.0111111111111,356.0,356.0111111111111
4169827,,,,,,,,-20.37890625,-16.2734375,7.33203125,3.423828125,1.392578125,0.72265625,356.0111111111111,356.0,356.0111111111111
4169828,,,,,,,,-20.37890625,-16.2734375,7.33203125,3.423828125,1.392578125,0.72265625,356.0111111111111,356.0,356.0111111111111
4169829,,,,,,,,-20.37890625,-16.2734375,7.33203125,1.76953125,-1.287109375,0.5234375,356.0111111111111,356.0,356.0111111111111
4169830,36.01356666666666,129.3196115,91.18494706576307,129.4529215012878,5.4,227.0,,-20.37890625,-16.2734375,7.33203125,1.76953125,-1.287109375,0.5234375,356.0111111111111,356.0,356.0111111111111
4169831,,,,,,,,-20.37890625,-16.2734375,7.33203125,-0.390625,-1.904296875,1.12109375,356.0111111111111,356.0,356.0111111111111
4169832,,,,,,,,-20.37890625,-16.2734375,7.33203125,-0.390625,-1.904296875,1.12109375,356.0111111111111,356.0,356.0111111111111
4169833,,,,,,,,-20.37890625,-16.2734375,7.33203125,-2.13671875,-1.34375,0.6796875,356.0111111111111,356.0,356.0111111111111
4169834,,,,,,,,-20.37890625,-16.2734375,7.33203125,-2.13671875,-1.34375,0.6796875,356.0111111111111,356.0,356.0111111111111
4169835,,,,,,,,-20.37890625,-16.2734375,7.33203125,-2.857421875,0.564453125,0.404296875,356.0111111111111,356.0,356.0111111111111
4169836,,,,,,,,-2.6953125,-6.8125,3.0546875,-2.857421875,0.564453125,0.404296875,356.0111111111111,356.0,356.0111111111111
4169837,,,,,,,,-2.6953125,-6.8125,3.0546875,-2.857421875,0.564453125,0.404296875,356.0111111111111,356.0,356.0111111111111
4169838,,,,,,,,-2.6953125,-6.8125,3.0546875,-2.857421875,0.564453125,0.404296875,356.0111111111111,356.0,356.0111111111111
4169839,,,,,,,,-2.6953125,-6.8125,3.0546875,-0.4375,-5.091796875,1.703125,356.0111111111111,356.0,356.0111111111111
4169840,36.01355916666667,129.31960116666667,90.2534237810027,128.62071749277723,5.800000000000001,228.0,,-2.6953125,-6.8125,3.0546875,-0.4375,-5.091796875,1.703125,356.0111111111111,356.0,356.0111111111111
4169841,,,,,,,,-2.6953125,-6.8125,3.0546875,-0.607421875,-3.837890625,2.39453125,356.0111111111111,356.0,356.0111111111111
4169842,,,,,,,,-2.6953125,-6.8125,3.0546875,-0.607421875,-3.837890625,2.39453125,356.0111111111111,356.0,356.0111111111111
4169843,,,,,,,,-2.6953125,-6.8125,3.0546875,-0.6875,-1.14453125,1.80078125,356.0111111111111,356.0,356.0111111111111
4169844,,,,,,,,-2.6953125,-6.8125,3.0546875,-0.6875,-1.14453125,1.80078125,356.0111111111111,356.0,356.0111111111111
4169845,,,,,,,,-2.6953125,-6.8125,3.0546875,-0.646484375,-2.560546875,2.01953125,356.0111111111111,356.0,356.0111111111111
4169846,,,,,,,,-2.6953125,-6.8125,3.0546875,-0.646484375,-2.560546875,2.01953125,356.0111111111111,356.0,356.0111111111111
4169847,,,,,,,,-2.6953125,-6.8125,3.0546875,3.130859375,1.40234375,0.58984375,356.0111111111111,356.0,356.0111111111111
4169848,,,,,,,,-2.6953125,-6.8125,3.0546875,3.130859375,1.40234375,0.58984375,356.0,356.0,356.0111111111111
4169849,,,,,,,,-2.6953125,-6.8125,3.0546875,2.57421875,1.205078125,-0.517578125,356.0,356.0,356.0111111111111
4169850,36.01355516666667,129.31959550000002,89.74258822650673,128.17687525073174,6.0,229.0,,-2.6953125,-6.8125,3.0546875,2.57421875,1.205078125,-0.517578125,356.0,356.0,356.0111111111111
4169851,,,,,,,,-2.6953125,-6.8125,3.0546875,0.52734375,1.875,-1.1796875,356.0,356.0,356.0111111111111
4169852,,,,,,,,1.90234375,18.46484375,-3.16796875,0.52734375,1.875,-1.1796875,356.0,356.0,356.0111111111111
4169853,,,,,,,,1.90234375,18.46484375,-3.16796875,0.52734375,1.875,-1.1796875,356.0,356.0,356.0111111111111
4169854,,,,,,,,1.90234375,18.46484375,-3.16796875,0.52734375,1.875,-1.1796875,356.0,356.0,356.0111111111111
4169855,,,,,,,,1.90234375,18.46484375,-3.16796875,-1.9375,0.66015625,-0.830078125,356.0,356.0,356.0111111111111
4169856,,,,,,,,1.90234375,18.46484375,-3.16796875,-1.9375,0.66015625,-0.830078125,356.0,356.0,356.0111111111111
4169857,,,,,,,,1.90234375,18.46484375,-3.16796875,1.482421875,3.228515625,-1.806640625,356.0,356.0,356.0111111111111
4169858,,,,,,,,1.90234375,18.46484375,-3.16796875,1.482421875,3.228515625,-1.806640625,356.0,356.0,356.0111111111111
4169859,,,,,,,,1.90234375,18.46484375,-3.16796875,-0.451171875,3.15234375,-2.552734375,356.0,356.0,356.0111111111111
4169860,36.013551,129.31959033333334,89.27682693748447,127.71454028878165,6.2,227.0,,1.90234375,18.46484375,-3.16796875,-0.451171875,3.15234375,-2.552734375,356.0111111111111,356.0,356.0111111111111
4169861,,,,,,,,1.90234375,18.46484375,-3.16796875,-2.494140625,5.515625,-3.94921875,356.0111111111111,356.0,356.0111111111111
4169862,,,,,,,,1.90234375,18.46484375,-3.16796875,-2.494140625,5.515625,-3.94921875,356.0111111111111,356.0,356.0111111111111
4169863,,,,,,,,1.90234375,18.46484375,-3.16796875,-1.015625,3.021484375,-2.865234375,356.0111111111111,356.0,356.0111111111111
4169864,,,,,,,,1.90234375,18.46484375,-3.16796875,-1.015625,3.021484375,-2.865234375,356.0111111111111,356.0,356.0111111111111
4169865,,,,,,,,1.90234375,18.46484375,-3.16796875,-1.3203125,3.224609375,-0.875,356.0111111111111,356.0,356.0111111111111
4169866,,,,,,,,1.90234375,18.46484375,-3.16796875,-1.3203125,3.224609375,-0.875,356.0111111111111,356.0,356.0111111111111
4169867,,,,,,,,1.90234375,18.46484375,-3.16796875,-2.23828125,-4.17578125,1.05859375,356.0111111111111,356.0,356.0111111111111
4169868,,,,,,,,0.296875,11.60546875,4.3671875,-2.23828125,-4.17578125,1.05859375,356.0111111111111,356.0,356.0111111111111
4169869,,,,,,,,0.296875,11.60546875,4.3671875,-2.23828125,-4.17578125,1.05859375,356.0111111111111,356.0,356.0111111111111
4169870,36.01354683333333,129.31958483333335,88.78101618095427,127.2522050474038,6.5,226.0,,0.296875,11.60546875,4.3671875,-2.23828125,-4.17578125,1.05859375,356.0111111111111,356.0,356.0111111111111
4169871,,,,,,,,0.296875,11.60546875,4.3671875,4.94140625,3.162109375,0.927734375,356.0111111111111,356.0,356.0111111111111
4169872,,,,,,,,0.296875,11.60546875,4.3671875,4.94140625,3.162109375,0.927734375,356.0111111111111,356.0,356.0111111111111
4169873,,,,,,,,0.296875,11.60546875,4.3671875,1.07421875,-1.2890625,0.595703125,356.0111111111111,356.0,356.0111111111111
4169874,,,,,,,,0.296875,11.60546875,4.3671875,1.07421875,-1.2890625,0.595703125,356.0111111111111,356.0,356.0111111111111
4169875,,,,,,,,0.296875,11.60546875,4.3671875,-0.98828125,-2.8671875,0.486328125,356.0111111111111,356.0,356.0111111111111
4169876,,,,,,,,0.296875,11.60546875,4.3671875,-0.98828125,-2.8671875,0.486328125,356.0111111111111,356.0,356.0111111111111
4169877,,,,,,,,0.296875,11.60546875,4.3671875,-2.900390625,-1.4453125,0.642578125,356.0111111111111,356.0,356.0111111111111
4169878,,,,,,,,0.296875,11.60546875,4.3671875,-2.900390625,-1.4453125,0.642578125,356.0111111111111,356.0,356.0111111111111
4169879,,,,,,,,0.296875,11.60546875,4.3671875,1.1875,-2.396484375,0.564453125,356.0111111111111,356.0,356.0111111111111
4169880,36.013543,129.3195795,88.30022970943398,126.82685640366326,6.4,228.0,,0.296875,11.60546875,4.3671875,1.1875,-2.396484375,0.564453125,356.0111111111111,356.0,356.0111111111111
4169881,,,,,,,,0.296875,11.60546875,4.3671875,1.267578125,-5.609375,1.369140625,356.0111111111111,356.0,356.0111111111111
4169882,,,,,,,,0.296875,11.60546875,4.3671875,1.267578125,-5.609375,1.369140625,356.0111111111111,356.0,356.0111111111111
4169883,,,,,,,,0.296875,11.60546875,4.3671875,-1.0703125,-3.966796875,2.333984375,356.0111111111111,356.0,356.0111111111111
4169884,,,,,,,,0.375,5.0,-9.27734375,-1.0703125,-3.966796875,2.333984375,356.0111111111111,356.0,356.0111111111111
4169885,,,,,,,,0.375,5.0,-9.27734375,-1.0703125,-3.966796875,2.333984375,356.0111111111111,356.0,356.0111111111111
4169886,,,,,,,,0.375,5.0,-9.27734375,-1.12890625,-1.435546875,1.38671875,356.0111111111111,356.0,356.0111111111111
4169887,,,,,,,,0.375,5.0,-9.27734375,-1.12890625,-1.435546875,1.38671875,356.0111111111111,356.0,356.0111111111111
4169888,,,,,,,,0.375,5.0,-9.27734375,-1.666015625,-1.47265625,1.982421875,356.0111111111111,356.0,356.0111111111111
4169889,,,,,,,,0.375,5.0,-9.27734375,-1.666015625,-1.47265625,1.982421875,356.0111111111111,356.0,356.0111111111111
4169890,36.0135395,129.31957433333335,87.83446753589271,126.43849435319804,6.2,229.0,,0.375,5.0,-9.27734375,2.298828125,-0.3359375,0.966796875,356.0111111111111,356.0,356.0111111111111
4169891,,,,,,,,0.375,5.0,-9.27734375,2.298828125,-0.3359375,0.966796875,356.0,356.0,356.0111111111111
4169892,,,,,,,,0.375,5.0,-9.27734375,4.654296875,1.23046875,-0.306640625,356.0,356.0,356.0111111111111
4169893,,,,,,,,0.375,5.0,-9.27734375,4.654296875,1.23046875,-0.306640625,356.0,356.0,356.0111111111111
4169894,,,,,,,,0.375,5.0,-9.27734375,1.2421875,2.130859375,-0.921875,356.0,356.0,356.0111111111111
4169895,,,,,,,,0.375,5.0,-9.27734375,1.2421875,2.130859375,-0.921875,356.0,356.0,356.0111111111111
4169896,,,,,,,,0.375,5.0,-9.27734375,-0.498046875,2.6015625,-1.4375,356.0,356.0,356.0111111111111
4169897,,,,,,,,0.375,5.0,-9.27734375,-0.498046875,2.6015625,-1.4375,356.0,356.0,356.0111111111111
4169898,,,,,,,,0.375,5.0,-9.27734375,-3.451171875,-1.330078125,-0.298828125,356.0,356.0,356.0111111111111
4169899,,,,,,,,-16.6640625,-34.828125,1.46875,-3.451171875,-1.330078125,-0.298828125,356.0,356.0,356.0111111111111
4169900,36.01353116666667,129.31956399999999,86.90294452358481,125.51382465931326,6.5,227.0,48.0,-16.6640625,-34.828125,1.46875,-3.451171875,-1.330078125,-0.298828125,356.0,356.0,356.0111111111111
4169901,,,,,,,,-16.6640625,-34.828125,1.46875,-3.451171875,-1.330078125,-0.298828125,356.0,356.0,356.0111111111111
4169902,,,,,,,,-16.6640625,-34.828125,1.46875,-3.451171875,-1.330078125,-0.298828125,356.0111111111111,356.0,356.0111111111111
4169903,,,,,,,,-16.6640625,-34.828125,1.46875,2.35546875,2.876953125,-1.091796875,356.0111111111111,356.0,356.0111111111111
4169904,,,,,,,,-16.6640625,-34.828125,1.46875,2.35546875,2.876953125,-1.091796875,356.0111111111111,356.0,356.0111111111111
4169905,,,,,,,,-16.6640625,-34.828125,1.46875,-1.236328125,-2.966796875,0.552734375,356.0111111111111,356.0,356.0111111111111
4169906,,,,,,,,-16.6640625,-34.828125,1.46875,-1.236328125,-2.966796875,0.552734375,356.0111111111111,356.0,356.0111111111111
4169907,,,,,,,,-16.6640625,-34.828125,1.46875,-4.162109375,-0.076171875,1.228515625,356.0111111111111,356.0,356.0111111111111
4169908,,,,,,,,-16.6640625,-34.828125,1.46875,-4.162109375,-0.076171875,1.228515625,356.0111111111111,356.0,356.0111111111111
4169909,,,,,,,,-16.6640625,-34.828125,1.46875,-0.607421875,-1.396484375,0.177734375,356.0111111111111,356.0,356.0111111111111
4169910,36.013523666666664,129.31955316666665,85.92634626844148,124.68162066704518,6.5,228.0,,-16.6640625,-34.828125,1.46875,-0.607421875,-1.396484375,0.177734375,356.0111111111111,356.0,356.0111111111111
4169911,,,,,,,,-16.6640625,-34.828125,1.46875,0.900390625,-6.353515625,1.30078125,356.0111111111111,356.0,356.0111111111111
4169912,,,,,,,,-16.6640625,-34.828125,1.46875,0.900390625,-6.353515625,1.30078125,356.0111111111111,356.0,356.0111111111111
4169913,,,,,,,,-16.6640625,-34.828125,1.46875,-0.533203125,-3.4140625,2.419921875,356.0111111111111,356.0,356.0111111111111
4169914,,,,,,,,19.28125,-11.80078125,-5.265625,-0.533203125,-3.4140625,2.419921875,356.0111111111111,356.0,356.0111111111111
4169915,,,,,,,,19.28125,-11.80078125,-5.265625,-0.533203125,-3.4140625,2.419921875,356.0111111111111,356.0,356.0111111111111
4169916,,,,,,,,19.28125,-11.80078125,-5.265625,-1.2421875,-2.646484375,0.59375,356.0111111111111,356.0,356.0111111111111
4169917,,,,,,,,19.28125,-11.80078125,-5.265625,-1.2421875,-2.646484375,0.59375,356.0111111111111,356.0,356.0111111111111
4169918,,,,,,,,19.28125,-11.80078125,-5.265625,-0.296875,-2.423828125,0.8828125,356.0111111111111,356.0,356.0111111111111
4169919,,,,,,,,19.28125,-11.80078125,-5.265625,-0.296875,-2.423828125,0.8828125,356.0111111111111,356.0,356.0111111111111
4169920,36.01352,129.31954733333333,85.40048519377984,124.27476495020647,6.6000000000000005,230.0,,19.28125,-11.80078125,-5.265625,3.0703125,3.509765625,0.70703125,356.0111111111111,356.0,356.0111111111111
4169921,,,,,,,,19.28125,-11.80078125,-5.265625,3.0703125,3.509765625,0.70703125,356.0111111111111,356.0,356.0111111111111
4169922,,,,,,,,19.28125,-11.80078125,-5.265625,5.744140625,-0.669921875,-0.234375,356.0111111111111,356.0,356.0111111111111
4169923,,,,,,,,19.28125,-11.80078125,-5.265625,5.744140625,-0.669921875,-0.234375,356.0111111111111,356.0,356.0111111111111
4169924,,,,,,,,19.28125,-11.80078125,-5.265625,0.96875,3.197265625,-1.0234375,356.0111111111111,356.0,356.0111111111111
4169925,,,,,,,,19.28125,-11.80078125,-5.265625,0.96875,3.197265625,-1.0234375,356.0111111111111,356.0,356.0111111111111
4169926,,,,,,,,19.28125,-11.80078125,-5.265625,-1.5078125,3.021484375,-1.23046875,356.0111111111111,356.0,356.0111111111111
4169927,,,,,,,,19.28125,-11.80078125,-5.265625,-1.5078125,3.021484375,-1.23046875,356.0111111111111,356.0,356.0111111111111
4169928,,,,,,,,19.28125,-11.80078125,-5.265625,-5.150390625,-0.263671875,-0.439453125,356.0111111111111,356.0,356.0111111111111
4169929,,,,,,,,-0.28125,-13.3203125,2.43359375,-5.150390625,-0.263671875,-0.439453125,356.0111111111111,356.0,356.0111111111111
4169930,36.013515999999996,129.31954166666668,84.88964914406878,123.83092299399206,6.7,230.0,,-0.28125,-13.3203125,2.43359375,-5.150390625,-0.263671875,-0.439453125,356.0111111111111,356.0,356.0111111111111
4169931,,,,,,,,-0.28125,-13.3203125,2.43359375,2.259765625,2.8203125,-1.275390625,356.0111111111111,356.0,356.0111111111111
4169932,,,,,,,,-0.28125,-13.3203125,2.43359375,2.259765625,2.8203125,-1.275390625,356.0111111111111,356.0,356.0111111111111
4169933,,,,,,,,-0.28125,-13.3203125,2.43359375,-1.1171875,6.66015625,-2.78125,356.0111111111111,356.0,356.0111111111111
4169934,,,,,,,,-0.28125,-13.3203125,2.43359375,-1.1171875,6.66015625,-2.78125,356.0111111111111,356.0,356.0111111111111
4169935,,,,,,,,-0.28125,-13.3203125,2.43359375,-2.353515625,6.23046875,-3.73046875,356.0111111111111,356.0,356.0111111111111
4169936,,,,,,,,-0.28125,-13.3203125,2.43359375,-2.353515625,6.23046875,-3.73046875,356.0111111111111,356.0,356.0111111111111
4169937,,,,,,,,-0.28125,-13.3203125,2.43359375,-1.681640625,2.98046875,-1.505859375,356.0111111111111,356.0,356.0111111111111
4169938,,,,,,,,-0.28125,-13.3203125,2.43359375,-1.681640625,2.98046875,-1.505859375,356.0111111111111,356.0,356.0111111111111
4169939,,,,,,,,-0.28125,-13.3203125,2.43359375,-1.73828125,4.359375,-0.6328125,356.0111111111111,356.0,356.0111111111111
4169940,36.0135115,129.31953683333333,84.4539371588915,123.33160216413063,6.800000000000001,226.0,,-0.28125,-13.3203125,2.43359375,-1.73828125,4.359375,-0.6328125,356.0111111111111,356.0,356.0111111111111
4169941,,,,,,,,-0.28125,-13.3203125,2.43359375,-1.857421875,-4.0703125,-0.181640625,356.0111111111111,356.0,356.0111111111111
4169942,,,,,,,,-0.28125,-13.3203125,2.43359375,-1.857421875,-4.0703125,-0.181640625,356.0111111111111,356.0,356.0111111111111
4169943,,,,,,,,-0.28125,-13.3203125,2.43359375,4.724609375,-0.751953125,0.23046875,356.0111111111111,356.0,356.0111111111111
4169944,,,,,,,,-20.06640625,26.0703125,-3.51171875,4.724609375,-0.751953125,0.23046875,356.0111111111111,356.0,356.0111111111111
4169945,,,,,,,,-20.06640625,26.0703125,-3.51171875,4.724609375,-0.751953125,0.23046875,356.0111111111111,356.0,356.0111111111111
4169946,,,,,,,,-20.06640625,26.0703125,-3.51171875,2.36328125,3.60546875,0.220703125,356.0111111111111,356.0,356.0111111111111
4169947,,,,,,,,-20.06640625,26.0703125,-3.51171875,2.36328125,3.60546875,0.220703125,356.0111111111111,356.0,356.0111111111111
4169948,,,,,,,,-20.06640625,26.0703125,-3.51171875,0.814453125,-1.84765625,0.48828125,356.0111111111111,356.0,356.0111111111111
4169949,,,,,,,,-20.06640625,26.0703125,-3.51171875,0.814453125,-1.84765625,0.48828125,356.0111111111111,356.0,356.0111111111111
4169950,36.01350716666666,129.31953049999998,83.88300248294149,122.85077327215322,7.1000000000000005,227.0,,-20.06640625,26.0703125,-3.51171875,-2.017578125,-3.416015625,0.013671875,356.0111111111111,356.0,356.0111111111111
4169951,,,,,,,,-20.06640625,26.0703125,-3.51171875,-2.017578125,-3.416015625,0.013671875,356.0111111111111,356.0,356.0111111111111
4169952,,,,,,,,-20.06640625,26.0703125,-3.51171875,-6.568359375,2.509765625,-0.59375,356.0111111111111,356.0,356.0111111111111
4169953,,,,,,,,-20.06640625,26.0703125,-3.51171875,-6.568359375,2.509765625,-0.59375,356.0111111111111,356.0,356.0111111111111
4169954,,,,,,,,-20.06640625,26.0703125,-3.51171875,3.041015625,-8.962890625,1.921875,356.0111111111111,356.0,356.0111111111111
4169955,,,,,,,,-20.06640625,26.0703125,-3.51171875,3.041015625,-8.962890625,1.921875,356.0111111111111,356.0,356.0111111111111
4169956,,,,,,,,-20.06640625,26.0703125,-3.51171875,0.923828125,-3.75,2.599609375,356.0111111111111,356.0,356.0111111111111
4169957,,,,,,,,-20.06640625,26.0703125,-3.51171875,0.923828125,-3.75,2.599609375,356.0111111111111,356.0,356.0111111111111
4169958,,,,,,,,-20.06640625,26.0703125,-3.51171875,-2.462890625,-4.67578125,2.669921875,356.0111111111111,356.0,356.0111111111111
4169959,,,,,,,,17.703125,-8.6796875,-4.45703125,-2.462890625,-4.67578125,2.669921875,356.0111111111111,356.0,356.0111111111111
4169960,36.01350333333333,129.319525,83.38719081715658,122.42542475710786,6.9,229.0,,17.703125,-8.6796875,-4.45703125,-2.462890625,-4.67578125,2.669921875,356.0111111111111,356.0,356.0111111111111
4169961,,,,,,,,17.703125,-8.6796875,-4.45703125,-2.462890625,-4.67578125,2.669921875,356.0111111111111,356.0,356.0111111111111
4169962,,,,,,,,17.703125,-8.6796875,-4.45703125,-1.583984375,0.89453125,1.02734375,356.0111111111111,356.0,356.0111111111111
4169963,,,,,,,,17.703125,-8.6796875,-4.45703125,-1.583984375,0.89453125,1.02734375,356.0111111111111,356.0,356.0111111111111
4169964,,,,,,,,17.703125,-8.6796875,-4.45703125,0.6015625,0.626953125,0.865234375,356.0111111111111,356.0,356.0111111111111
4169965,,,,,,,,17.703125,-8.6796875,-4.45703125,0.6015625,0.626953125,0.865234375,356.0,356.0,356.0111111111111
4169966,,,,,,,,17.703125,-8.6796875,-4.45703125,6.072265625,0.205078125,-0.08984375,356.0,356.0,356.0111111111111
4169967,,,,,,,,17.703125,-8.6796875,-4.45703125,6.072265625,0.205078125,-0.08984375,356.0,356.0,356.0111111111111
4169968,,,,,,,,17.703125,-8.6796875,-4.45703125,4.33203125,2.966796875,-0.294921875,356.0,356.0,356.0111111111111
4169969,,,,,,,,17.703125,-8.6796875,-4.45703125,4.33203125,2.966796875,-0.294921875,356.0,356.0,356.0111111111111
4169970,36.01349533333334,129.31951333333333,82.33546880202285,121.53774082938745,6.9,229.0,,17.703125,-8.6796875,-4.45703125,-0.205078125,2.462890625,-1.1328125,356.0,356.0,356.0111111111111
4169971,,,,,,,,17.703125,-8.6796875,-4.45703125,-0.205078125,2.462890625,-1.1328125,356.0,356.0,356.0111111111111
4169972,,,,,,,,17.703125,-8.6796875,-4.45703125,-3.708984375,1.220703125,-1.0078125,356.0,356.0,356.0111111111111
4169973,,,,,,,,17.703125,-8.6796875,-4.45703125,-3.708984375,1.220703125,-1.0078125,356.0,356.0,356.0111111111111
4169974,,,,,,,,17.703125,-8.6796875,-4.45703125,-4.970703125,-2.181640625,-0.458984375,356.0,356.0,356.0111111111111
4169975,,,,,,,,7.39453125,3.37890625,1.28125,-4.970703125,-2.181640625,-0.458984375,356.0,356.0,356.0111111111111
4169976,,,,,,,,7.39453125,3.37890625,1.28125,-4.970703125,-2.181640625,-0.458984375,356.0,356.0,356.0111111111111
4169977,,,,,,,,7.39453125,3.37890625,1.28125,-4.970703125,-2.181640625,-0.458984375,356.0,356.0,356.0111111111111
4169978,,,,,,,,7.39453125,3.37890625,1.28125,3.091796875,3.54296875,-1.38671875,356.0,356.0,356.0111111111111
4169979,,,,,,,,7.39453125,3.37890625,1.28125,3.091796875,3.54296875,-1.38671875,356.0111111111111,356.0,356.0111111111111
4169980,36.01349116666667,129.31950816666668,81.86970677383219,121.07540626418535,6.9,227.0,,7.39453125,3.37890625,1.28125,-2.162109375,5.12109375,-3.845703125,356.0111111111111,356.0,356.0111111111111
4169981,,,,,,,,7.39453125,3.37890625,1.28125,-2.162109375,5.12109375,-3.845703125,356.0111111111111,356.0,356.0111111111111
4169982,,,,,,,,7.39453125,3.37890625,1.28125,-2.294921875,1.919921875,-2.333984375,356.0111111111111,356.0,356.0111111111111
4169983,,,,,,,,7.39453125,3.37890625,1.28125,-2.294921875,1.919921875,-2.333984375,356.0111111111111,356.0,356.0111111111111
4169984,,,,,,,,7.39453125,3.37890625,1.28125,-3.1953125,2.61328125,-0.365234375,356.0111111111111,356.0,356.0111111111111
4169985,,,,,,,,7.39453125,3.37890625,1.28125,-3.1953125,2.61328125,-0.365234375,356.0111111111111,356.0,356.0111111111111
4169986,,,,,,,,7.39453125,3.37890625,1.28125,-1.12890625,-3.08203125,0.619140625,356.0111111111111,356.0,356.0111111111111
4169987,,,,,,,,7.39453125,3.37890625,1.28125,-1.12890625,-3.08203125,0.619140625,356.0111111111111,356.0,356.0111111111111
4169988,,,,,,,,7.39453125,3.37890625,1.28125,4.896484375,-4.263671875,0.45703125,356.0111111111111,356.0,356.0111111111111
4169989,,,,,,,,7.39453125,3.37890625,1.28125,4.896484375,-4.263671875,0.45703125,356.0111111111111,356.0,356.0111111111111
4169990,36.013487000000005,129.3195025,81.35887052830877,120.61307130796826,7.0,227.0,,7.39453125,3.37890625,1.28125,3.365234375,2.990234375,0.05078125,356.0111111111111,356.0,356.0111111111111
4169991,,,,,,,,-10.53125,19.3828125,-4.69921875,3.365234375,2.990234375,0.05078125,356.0111111111111,356.0,356.0111111111111
4169992,,,,,,,,-10.53125,19.3828125,-4.69921875,3.365234375,2.990234375,0.05078125,356.0111111111111,356.0,356.0111111111111
4169993,,,,,,,,-10.53125,19.3828125,-4.69921875,0.322265625,-2.55859375,0.9296875,356.0111111111111,356.0,356.0111111111111
4169994,,,,,,,,-10.53125,19.3828125,-4.69921875,0.322265625,-2.55859375,0.9296875,356.0111111111111,356.0,356.0111111111111
4169995,,,,,,,,-10.53125,19.3828125,-4.69921875,-0.888671875,-2.609375,0.6796875,356.0111111111111,356.0,356.0111111111111
4169996,,,,,,,,-10.53125,19.3828125,-4.69921875,-0.888671875,-2.609375,0.6796875,356.0111111111111,356.0,356.0111111111111
4169997,,,,,,,,-10.53125,19.3828125,-4.69921875,-4.419921875,1.521484375,1.306640625,356.0111111111111,356.0,356.0111111111111
4169998,,,,,,,,-10.53125,19.3828125,-4.69921875,-4.419921875,1.521484375,1.306640625,356.0111111111111,356.0,356.0111111111111
4169999,,,,,,,,-10.53125,19.3828125,-4.69921875,-0.119140625,-1.267578125,-0.13671875,356.0111111111111,356.0,356.0111111111111
4170000,36.01347966666666,129.31949233333336,80.44236992930388,119.79936169481323,6.6000000000000005,229.0,48.0,-10.53125,19.3828125,-4.69921875,-0.119140625,-1.267578125,-0.13671875,356.0111111111111,356.0,356.0111111111111
4170001,,,,,,,,-10.53125,19.3828125,-4.69921875,-0.119140625,-1.267578125,-0.13671875,356.0111111111111,356.0,356.0111111111111
4170002,,,,,,,,-10.53125,19.3828125,-4.69921875,0.806640625,-4.77734375,1.2265625,356.0111111111111,356.0,356.0111111111111
4170003,,,,,,,,-10.53125,19.3828125,-4.69921875,0.806640625,-4.77734375,1.2265625,356.0111111111111,356.0,356.0111111111111
4170004,,,,,,,,-10.53125,19.3828125,-4.69921875,4.611328125,0.169921875,-0.126953125,356.0111111111111,356.0,356.0111111111111
4170005,,,,,,,,-10.53125,19.3828125,-4.69921875,4.611328125,0.169921875,-0.126953125,356.0,356.0,356.0111111111111
4170006,,,,,,,,-10.53125,19.3828125,-4.69921875,-1.84765625,2.001953125,-1.4765625,356.0,356.0,356.0111111111111
4170007,,,,,,,,-10.53125,19.3828125,-4.69921875,-1.84765625,2.001953125,-1.4765625,356.0,356.0,356.0111111111111
4170008,,,,,,,,-10.53125,19.3828125,-4.69921875,-6.279296875,-2.80078125,-0.1953125,356.0,356.0,356.0111111111111
4170009,,,,,,,,-10.53125,19.3828125,-4.69921875,-6.279296875,-2.80078125,-0.1953125,356.0111111111111,356.0,356.0111111111111
4170010,36.013475666666665,129.319487,79.96158281412784,119.35552030410929,6.6000000000000005,229.0,,-10.53125,19.3828125,-4.69921875,0.8359375,-0.3671875,-0.37890625,356.0111111111111,356.0,356.0111111111111
4170011,,,,,,,,-10.53125,19.3828125,-4.69921875,0.8359375,-0.3671875,-0.37890625,356.0111111111111,356.0,356.0111111111111
4170012,,,,,,,,-10.53125,19.3828125,-4.69921875,2.734375,3.85546875,-1.85546875,356.0111111111111,356.0,356.0111111111111
4170013,,,,,,,,-10.53125,19.3828125,-4.69921875,2.734375,3.85546875,-1.85546875,356.0111111111111,356.0,356.0111111111111
4170014,,,,,,,,-10.53125,19.3828125,-4.69921875,-2.005859375,7.484375,-4.396484375,356.0111111111111,356.0,356.0111111111111
4170015,,,,,,,,-16.3046875,2.828125,-8.04296875,-2.005859375,7.484375,-4.396484375,356.0111111111111,356.0,356.0111111111111
4170016,,,,,,,,-16.3046875,2.828125,-8.04296875,-2.005859375,7.484375,-4.396484375,356.0111111111111,356.0,356.0111111111111
4170017,,,,,,,,-16.3046875,2.828125,-8.04296875,-2.005859375,7.484375,-4.396484375,356.0111111111111,356.0,356.0111111111111
4170018,,,,,,,,-16.3046875,2.828125,-8.04296875,-2.16015625,4.857421875,-1.435546875,356.0111111111111,356.0,356.0111111111111
4170019,,,,,,,,-16.3046875,2.828125,-8.04296875,-2.16015625,4.857421875,-1.435546875,356.0111111111111,356.0,356.0111111111111
4170020,36.01347116666667,129.31948133333333,79.4507467029398,118.85619904289985,7.0,227.0,,-16.3046875,2.828125,-8.04296875,-0.64453125,1.400390625,-0.02734375,356.0111111111111,356.0,356.0111111111111
4170021,,,,,,,,-16.3046875,2.828125,-8.04296875,-0.64453125,1.400390625,-0.02734375,356.0111111111111,356.0,356.0111111111111
4170022,,,,,,,,-16.3046875,2.828125,-8.04296875,2.1328125,-8.859375,0.716796875,356.0111111111111,356.0,356.0111111111111
4170023,,,,,,,,-16.3046875,2.828125,-8.04296875,2.1328125,-8.859375,0.716796875,356.0111111111111,356.0,356.0111111111111
4170024,,,,,,,,-16.3046875,2.828125,-8.04296875,4.234375,-0.2265625,-0.048828125,356.0111111111111,356.0,356.0111111111111
4170025,,,,,,,,-16.3046875,2.828125,-8.04296875,4.234375,-0.2265625,-0.048828125,356.0111111111111,356.0,356.0111111111111
4170026,,,,,,,,-16.3046875,2.828125,-8.04296875,3.03125,3.599609375,-0.03515625,356.0111111111111,356.0,356.0111111111111
4170027,,,,,,,,-16.3046875,2.828125,-8.04296875,3.03125,3.599609375,-0.03515625,356.0111111111111,356.0,356.0111111111111
4170028,,,,,,,,-16.3046875,2.828125,-8.04296875,1.568359375,-0.9609375,0.337890625,356.0111111111111,356.0,356.0111111111111
4170029,,,,,,,,-16.3046875,2.828125,-8.04296875,1.568359375,-0.9609375,0.337890625,356.0111111111111,356.0,356.0111111111111
4170030,36.01346716666667,129.31947566666668,78.93991003690671,118.41235743608294,6.9,227.0,,-16.3046875,2.828125,-8.04296875,-1.78125,-3.80859375,0.482421875,356.0111111111111,356.0,356.0111111111111
4170031,,,,,,,,-12.3828125,-30.87109375,17.94921875,-1.78125,-3.80859375,0.482421875,356.0111111111111,356.0,356.0111111111111
4170032,,,,,,,,-12.3828125,-30.87109375,17.94921875,-1.78125,-3.80859375,0.482421875,356.0111111111111,356.0,356.0111111111111
4170033,,,,,,,,-12.3828125,-30.87109375,17.94921875,-2.44921875,1.44140625,-0.619140625,356.0111111111111,356.0,356.0111111111111
4170034,,,,,,,,-12.3828125,-30.87109375,17.94921875,-2.44921875,1.44140625,-0.619140625,356.0111111111111,356.0,356.0111111111111
4170035,,,,,,,,-12.3828125,-30.87109375,17.94921875,3.359375,-6.5703125,0.662109375,356.0111111111111,356.0,356.0111111111111
4170036,,,,,,,,-12.3828125,-30.87109375,17.94921875,3.359375,-6.5703125,0.662109375,356.0111111111111,356.0,356.0111111111111
4170037,,,,,,,,-12.3828125,-30.87109375,17.94921875,0.033203125,-4.166015625,2.255859375,356.0111111111111,356.0,356.0111111111111
4170038,,,,,,,,-12.3828125,-30.87109375,17.94921875,0.033203125,-4.166015625,2.255859375,356.0111111111111,356.0,356.0111111111111
4170039,,,,,,,,-12.3828125,-30.87109375,17.94921875,-1.94921875,-3.646484375,2.205078125,356.0111111111111,356.0,356.0111111111111
4170040,36.013463333333334,129.31947033333333,78.45912260513535,117.98700933563433,6.7,228.0,,-12.3828125,-30.87109375,17.94921875,-1.94921875,-3.646484375,2.205078125,356.0111111111111,356.0,356.0111111111111
4170041,,,,,,,,-12.3828125,-30.87109375,17.94921875,-1.34375,-2.857421875,1.142578125,356.0111111111111,356.0,356.0111111111111
4170042,,,,,,,,-12.3828125,-30.87109375,17.94921875,-1.34375,-2.857421875,1.142578125,356.0111111111111,355.9888888888889,356.0111111111111
4170043,,,,,,,,-12.3828125,-30.87109375,17.94921875,-0.580078125,-1.54296875,0.720703125,356.0111111111111,355.9888888888889,356.0111111111111
4170044,,,,,,,,-12.3828125,-30.87109375,17.94921875,-0.580078125,-1.54296875,0.720703125,356.0111111111111,355.9888888888889,356.0111111111111
4170045,,,,,,,,-12.3828125,-30.87109375,17.94921875,-0.724609375,4.044921875,0.23828125,356.0111111111111,355.9888888888889,356.0111111111111
4170046,,,,,,,,6.4140625,20.11328125,-4.79296875,-0.724609375,4.044921875,0.23828125,356.0111111111111,355.9888888888889,356.0111111111111
4170047,,,,,,,,6.4140625,20.11328125,-4.79296875,-0.724609375,4.044921875,0.23828125,356.0111111111111,355.9888888888889,356.0111111111111
4170048,,,,,,,,6.4140625,20.11328125,-4.79296875,5.587890625,-0.70703125,0.05078125,356.0111111111111,355.9888888888889,356.0111111111111
4170049,,,,,,,,6.4140625,20.11328125,-4.79296875,5.587890625,-0.70703125,0.05078125,356.0111111111111,356.0,356.0111111111111
4170050,36.013456,129.31945933333333,77.46749781992618,117.17329936731107,6.800000000000001,230.0,,6.4140625,20.11328125,-4.79296875,2.388671875,2.826171875,-0.248046875,356.0111111111111,356.0,356.0111111111111
4170051,,,,,,,,6.4140625,20.11328125,-4.79296875,2.388671875,2.826171875,-0.248046875,356.0111111111111,356.0,356.0111111111111
4170052,,,,,,,,6.4140625,20.11328125,-4.79296875,-2.447265625,1.65234375,-0.634765625,356.0111111111111,356.0,356.0111111111111
4170053,,,,,,,,6.4140625,20.11328125,-4.79296875,-2.447265625,1.65234375,-0.634765625,356.0111111111111,356.0,356.0111111111111
4170054,,,,,,,,6.4140625,20.11328125,-4.79296875,-3.345703125,1.30078125,-0.47265625,356.0111111111111,356.0,356.0111111111111
4170055,,,,,,,,6.4140625,20.11328125,-4.79296875,-3.345703125,1.30078125,-0.47265625,356.0111111111111,356.0,356.0111111111111
4170056,,,,,,,,6.4140625,20.11328125,-4.79296875,-3.4921875,-3.39453125,-0.2734375,356.0111111111111,356.0,356.0111111111111
4170057,,,,,,,,6.4140625,20.11328125,-4.79296875,-3.4921875,-3.39453125,-0.2734375,356.0111111111111,356.0,356.0111111111111
4170058,,,,,,,,6.4140625,20.11328125,-4.79296875,4.1328125,4.2890625,-1.0078125,356.0111111111111,356.0,356.0111111111111
4170059,,,,,,,,6.4140625,20.11328125,-4.79296875,4.1328125,4.2890625,-1.0078125,356.0111111111111,356.0,356.0111111111111
4170060,36.013451833333335,129.3194538333333,76.97168584452746,116.71096480054841,6.800000000000001,228.0,,6.4140625,20.11328125,-4.79296875,-0.466796875,4.537109375,-2.392578125,356.0111111111111,356.0,356.0111111111111
4170061,,,,,,,,-4.51953125,17.9140625,-7.9375,-0.466796875,4.537109375,-2.392578125,356.0111111111111,356.0,356.0111111111111
4170062,,,,,,,,-4.51953125,17.9140625,-7.9375,-0.466796875,4.537109375,-2.392578125,356.0111111111111,356.0,356.0111111111111
4170063,,,,,,,,-4.51953125,17.9140625,-7.9375,-0.466796875,4.537109375,-2.392578125,356.0111111111111,356.0,356.0111111111111
4170064,,,,,,,,-4.51953125,17.9140625,-7.9375,-2.255859375,2.30859375,-2.3671875,356.0111111111111,356.0,356.0111111111111
4170065,,,,,,,,-4.51953125,17.9140625,-7.9375,-2.255859375,2.30859375,-2.3671875,356.0111111111111,356.0,356.0111111111111
4170066,,,,,,,,-4.51953125,17.9140625,-7.9375,-1.400390625,2.279296875,-0.466796875,356.0111111111111,356.0,356.0111111111111
4170067,,,,,,,,-4.51953125,17.9140625,-7.9375,-1.400390625,2.279296875,-0.466796875,356.0111111111111,356.0,356.0111111111111
4170068,,,,,,,,-4.51953125,17.9140625,-7.9375,-0.119140625,-5.537109375,0.431640625,356.0111111111111,356.0,356.0111111111111
4170069,,,,,,,,-4.51953125,17.9140625,-7.9375,-0.119140625,-5.537109375,0.431640625,356.0111111111111,355.9888888888889,356.0111111111111
4170070,36.01344766666667,129.31944766666666,76.4157749018166,116.24862973999164,6.9,228.0,,-4.51953125,17.9140625,-7.9375,5.048828125,0.201171875,-0.07421875,356.0111111111111,355.9888888888889,356.0111111111111
4170071,,,,,,,,-4.51953125,17.9140625,-7.9375,5.048828125,0.201171875,-0.07421875,356.0111111111111,356.0,356.0111111111111
4170072,,,,,,,,-4.51953125,17.9140625,-7.9375,1.95703125,1.841796875,0.177734375,356.0111111111111,356.0,356.0111111111111
4170073,,,,,,,,-4.51953125,17.9140625,-7.9375,1.95703125,1.841796875,0.177734375,356.0111111111111,356.0,356.0111111111111
4170074,,,,,,,,-4.51953125,17.9140625,-7.9375,0.12890625,-1.17578125,0.576171875,356.0111111111111,356.0,356.0111111111111
4170075,,,,,,,,-4.51953125,17.9140625,-7.9375,0.12890625,-1.17578125,0.576171875,356.0111111111111,356.0,356.0111111111111
4170076,,,,,,,,-4.51953125,17.9140625,-7.9375,-1.65625,-2.181640625,0.328125,356.0111111111111,356.0,356.0111111111111
4170077,,,,,,,,-10.93359375,-24.8828125,17.765625,-1.65625,-2.181640625,0.328125,356.0111111111111,356.0,356.0111111111111
4170078,,,,,,,,-10.93359375,-24.8828125,17.765625,-1.65625,-2.181640625,0.328125,356.0111111111111,356.0,356.0111111111111
4170079,,,,,,,,-10.93359375,-24.8828125,17.765625,-1.65625,-2.181640625,0.328125,356.0111111111111,356.0,356.0111111111111
4170080,36.01344366666667,129.31944166666665,75.87488846678426,115.80478805065997,7.0,229.0,,-10.93359375,-24.8828125,17.765625,-3.353515625,2.322265625,-1.05078125,356.0111111111111,356.0,356.0111111111111
4170081,,,,,,,,-10.93359375,-24.8828125,17.765625,-3.353515625,2.322265625,-1.05078125,356.0111111111111,355.9888888888889,356.0111111111111
4170082,,,,,,,,-10.93359375,-24.8828125,17.765625,1.087890625,-5.5859375,0.95703125,356.0111111111111,355.9888888888889,356.0111111111111
4170083,,,,,,,,-10.93359375,-24.8828125,17.765625,1.087890625,-5.5859375,0.95703125,356.0111111111111,356.0,356.0111111111111
4170084,,,,,,,,-10.93359375,-24.8828125,17.765625,-0.76953125,-2.955078125,2.177734375,356.0111111111111,356.0,356.0111111111111
4170085,,,,,,,,-10.93359375,-24.8828125,17.765625,-0.76953125,-2.955078125,2.177734375,356.0111111111111,356.0,356.0111111111111
4170086,,,,,,,,-10.93359375,-24.8828125,17.765625,-2.44921875,-3.423828125,2.30859375,356.0111111111111,356.0,356.0111111111111
4170087,,,,,,,,-10.93359375,-24.8828125,17.765625,-2.44921875,-3.423828125,2.30859375,356.0111111111111,355.9888888888889,356.0111111111111
4170088,,,,,,,,-10.93359375,-24.8828125,17.765625,-1.5078125,-2.998046875,0.67578125,356.0111111111111,355.9888888888889,356.0111111111111
4170089,,,,,,,,-10.93359375,-24.8828125,17.765625,-1.5078125,-2.998046875,0.67578125,356.0111111111111,355.9888888888889,356.0111111111111
4170090,36.01344033333333,129.31943600000002,75.36405081074248,115.43491948649614,6.800000000000001,231.0,,-10.93359375,-24.8828125,17.765625,0.361328125,0.078125,0.408203125,356.0111111111111,355.9888888888889,356.0111111111111
4170091,,,,,,,,-10.93359375,-24.8828125,17.765625,0.361328125,0.078125,0.408203125,356.0111111111111,355.9888888888889,356.0111111111111
4170092,,,,,,,,-10.93359375,-24.8828125,17.765625,3.732421875,-1.728515625,1.083984375,356.0111111111111,355.9888888888889,356.0111111111111
4170093,,,,,,,,1.171875,21.0546875,-3.05078125,3.732421875,-1.728515625,1.083984375,356.0111111111111,355.9888888888889,356.0111111111111
4170094,,,,,,,,1.171875,21.0546875,-3.05078125,3.732421875,-1.728515625,1.083984375,356.0,355.9888888888889,356.0111111111111
4170095,,,,,,,,1.171875,21.0546875,-3.05078125,3.732421875,-1.728515625,1.083984375,356.0,355.9888888888889,356.0111111111111
4170096,,,,,,,,1.171875,21.0546875,-3.05078125,3.951171875,1.00390625,0.232421875,356.0,355.9888888888889,356.0111111111111
4170097,,,,,,,,1.171875,21.0546875,-3.05078125,3.951171875,1.00390625,0.232421875,356.0,356.0,356.0111111111111
4170098,,,,,,,,1.171875,21.0546875,-3.05078125,-0.34375,3.060546875,-1.173828125,356.0,356.0,356.0111111111111
